"view_history","rt","trial_type","trial_index","time_elapsed","internal_node_id","stimulus","key_press","value","agent","condition","image","responses","question_order","correct_answer"
"[{""page_index"":0,""viewing_time"":31960.79999998212}]","31961.59999999404","instructions","0","31961","0.0-0.0","","","","","","","","",""
"[{""page_index"":0,""viewing_time"":1118.5999999940395},{""page_index"":1,""viewing_time"":3256.0999999940395},{""page_index"":2,""viewing_time"":3206.5999999940395}]","7581.4000000059605","instructions","1","39543","0.0-1.0","","","","","","","","",""
"[{""page_index"":0,""viewing_time"":3400.4000000059605}]","3400.5","instructions","2","42944","0.0-2.0","","","","","","","","",""
"","null","video-keyboard-response","3","46092","0.0-3.0","","null","","","","","","",""
"[{""page_index"":0,""viewing_time"":2764.899999976158},{""page_index"":1,""viewing_time"":1955.1000000238419},{""page_index"":2,""viewing_time"":1058.2999999821186},{""page_index"":3,""viewing_time"":5414.4000000059605},{""page_index"":4,""viewing_time"":4008.9000000059605}]","15201.799999982119","instructions","4","61293","0.0-4.0","","","","","","","","",""
"[{""page_index"":0,""viewing_time"":4519.9000000059605}]","4520","instructions","5","65814","0.0-5.0","","","","","","","","",""
"","","call-function","6","65814","0.0-6.0","","","","","","","","",""
"","null","html-keyboard-response","7","68819","0.0-7.0","<span style=""color:Black; font-size:50px;"">Agent A","null","","","","","","",""
"","null","video-keyboard-response","8","71962","0.0-8.0","","null","","Agent A","veridical","/Users/kirstenziman/Desktop/Desktop/DIDEC_entire_corpus/analysis_3/STIM_SET_1/0_498258.bmppp76_L1V1_freeview_veridical.mp4","","",""
"","null","html-keyboard-response","9","74966","0.0-9.0","<span style=""color:Black; font-size:50px;"">Agent B","null","","","","","","",""
"","null","video-keyboard-response","10","78154","0.0-10.0","","null","","Agent B","scrambled","/Users/kirstenziman/Desktop/Desktop/DIDEC_entire_corpus/analysis_3/STIM_SET_1/0_498258.bmppp76_L1V1_freeview_scrambled.mp4","","",""
"","","call-function","11","78154","0.0-11.0","","","","","","","","",""
"","3045.2999999821186","survey-likert","12","81201","0.0-12.0","","","","","","","{""judgement"":0}","[0]","0"
"","1832.9000000059605","survey-likert","13","83035","0.0-13.0","","","","","","","{""confidence"":3}","[0]",""
"","","call-function","14","83035","0.0-14.0","","","","","","","","",""
"","null","html-keyboard-response","15","86039","0.0-15.0","<span style=""color:Black; font-size:50px;"">Agent A","null","","","","","","",""
"","null","video-keyboard-response","16","89269","0.0-16.0","","null","","Agent A","veridical","/Users/kirstenziman/Desktop/Desktop/DIDEC_entire_corpus/analysis_3/STIM_SET_1/0_1159819.bmppp52_L1V1_freeview_veridical.mp4","","",""
"","null","html-keyboard-response","17","92274","0.0-17.0","<span style=""color:Black; font-size:50px;"">Agent B","null","","","","","","",""
"","null","video-keyboard-response","18","95471","0.0-18.0","","null","","Agent B","scrambled","/Users/kirstenziman/Desktop/Desktop/DIDEC_entire_corpus/analysis_3/STIM_SET_1/0_1159819.bmppp52_L1V1_freeview_scrambled.mp4","","",""
"","","call-function","19","95471","0.0-19.0","","","","","","","","",""
"","2369.4000000059605","survey-likert","20","97841","0.0-20.0","","","","","","","{""judgement"":0}","[0]","0"
"","2285.100000023842","survey-likert","21","100127","0.0-21.0","","","","","","","{""confidence"":0}","[0]",""
"","","call-function","22","100127","0.0-22.0","","","","","","","","",""
"","null","html-keyboard-response","23","103130","0.0-23.0","<span style=""color:Black; font-size:50px;"">Agent A","null","","","","","","",""
"","null","video-keyboard-response","24","106329","0.0-24.0","","null","","Agent A","veridical","/Users/kirstenziman/Desktop/Desktop/DIDEC_entire_corpus/analysis_3/STIM_SET_1/0_1592568.bmppp93_L1V1_freeview_veridical.mp4","","",""
"","null","html-keyboard-response","25","109334","0.0-25.0","<span style=""color:Black; font-size:50px;"">Agent B","null","","","","","","",""
"","null","video-keyboard-response","26","112480","0.0-26.0","","null","","Agent B","scrambled","/Users/kirstenziman/Desktop/Desktop/DIDEC_entire_corpus/analysis_3/STIM_SET_1/0_1592568.bmppp93_L1V1_freeview_scrambled.mp4","","",""
"","","call-function","27","112480","0.0-27.0","","","","","","","","",""
"","3404.399999976158","survey-likert","28","115886","0.0-28.0","","","","","","","{""judgement"":0}","[0]","0"
"","2303","survey-likert","29","118189","0.0-29.0","","","","","","","{""confidence"":1}","[0]",""
"","","call-function","30","118190","0.0-30.0","","","","","","","","",""
"","null","html-keyboard-response","31","121194","0.0-31.0","<span style=""color:Black; font-size:50px;"">Agent A","null","","","","","","",""
"","null","video-keyboard-response","32","124419","0.0-32.0","","null","","Agent A","veridical","/Users/kirstenziman/Desktop/Desktop/DIDEC_entire_corpus/analysis_3/STIM_SET_1/0_498108.bmppp75_L1V1_freeview_veridical.mp4","","",""
"","null","html-keyboard-response","33","127424","0.0-33.0","<span style=""color:Black; font-size:50px;"">Agent B","null","","","","","","",""
"","null","video-keyboard-response","34","130581","0.0-34.0","","null","","Agent B","scrambled","/Users/kirstenziman/Desktop/Desktop/DIDEC_entire_corpus/analysis_3/STIM_SET_1/0_498108.bmppp75_L1V1_freeview_scrambled.mp4","","",""
"","","call-function","35","130582","0.0-35.0","","","","","","","","",""
"","3347.0999999940395","survey-likert","36","133929","0.0-36.0","","","","","","","{""judgement"":0}","[0]","0"
"","1364.5999999940395","survey-likert","37","135295","0.0-37.0","","","","","","","{""confidence"":0}","[0]",""
"","","call-function","38","135295","0.0-38.0","","","","","","","","",""
"","null","html-keyboard-response","39","138297","0.0-39.0","<span style=""color:Black; font-size:50px;"">Agent A","null","","","","","","",""
"","null","video-keyboard-response","40","141472","0.0-40.0","","null","","Agent A","scrambled","/Users/kirstenziman/Desktop/Desktop/DIDEC_entire_corpus/analysis_3/STIM_SET_1/0_712977.bmppp68_L1V1_freeview_scrambled.mp4","","",""
"","null","html-keyboard-response","41","144477","0.0-41.0","<span style=""color:Black; font-size:50px;"">Agent B","null","","","","","","",""
"","null","video-keyboard-response","42","147638","0.0-42.0","","null","","Agent B","veridical","/Users/kirstenziman/Desktop/Desktop/DIDEC_entire_corpus/analysis_3/STIM_SET_1/0_712977.bmppp68_L1V1_freeview_veridical.mp4","","",""
"","","call-function","43","147638","0.0-43.0","","","","","","","","",""
"","3267.0999999940395","survey-likert","44","150905","0.0-44.0","","","","","","","{""judgement"":0}","[0]","1"
"","2560.2999999821186","survey-likert","45","153466","0.0-45.0","","","","","","","{""confidence"":0}","[0]",""
"","","call-function","46","153467","0.0-46.0","","","","","","","","",""
"","null","html-keyboard-response","47","156469","0.0-47.0","<span style=""color:Black; font-size:50px;"">Agent A","null","","","","","","",""
"","null","video-keyboard-response","48","159609","0.0-48.0","","null","","Agent A","scrambled","/Users/kirstenziman/Desktop/Desktop/DIDEC_entire_corpus/analysis_3/STIM_SET_1/0_498326.bmppp63_L1V1_freeview_scrambled.mp4","","",""
"","null","html-keyboard-response","49","162610","0.0-49.0","<span style=""color:Black; font-size:50px;"">Agent B","null","","","","","","",""
"","null","video-keyboard-response","50","165691","0.0-50.0","","null","","Agent B","veridical","/Users/kirstenziman/Desktop/Desktop/DIDEC_entire_corpus/analysis_3/STIM_SET_1/0_498326.bmppp63_L1V1_freeview_veridical.mp4","","",""
"","","call-function","51","165691","0.0-51.0","","","","","","","","",""
"","2161.7999999821186","survey-likert","52","167853","0.0-52.0","","","","","","","{""judgement"":1}","[0]","1"
"","1267.7999999821186","survey-likert","53","169122","0.0-53.0","","","","","","","{""confidence"":1}","[0]",""
"","","call-function","54","169122","0.0-54.0","","","","","","","","",""
"","null","html-keyboard-response","55","172124","0.0-55.0","<span style=""color:Black; font-size:50px;"">Agent A","null","","","","","","",""
"","null","video-keyboard-response","56","175423","0.0-56.0","","null","","Agent A","veridical","/Users/kirstenziman/Desktop/Desktop/DIDEC_entire_corpus/analysis_3/STIM_SET_1/0_713786.bmppp68_L1V1_freeview_veridical.mp4","","",""
"","null","html-keyboard-response","57","178428","0.0-57.0","<span style=""color:Black; font-size:50px;"">Agent B","null","","","","","","",""
"","null","video-keyboard-response","58","181522","0.0-58.0","","null","","Agent B","scrambled","/Users/kirstenziman/Desktop/Desktop/DIDEC_entire_corpus/analysis_3/STIM_SET_1/0_713786.bmppp68_L1V1_freeview_scrambled.mp4","","",""
"","","call-function","59","181522","0.0-59.0","","","","","","","","",""
"","4309.299999982119","survey-likert","60","185832","0.0-60.0","","","","","","","{""judgement"":0}","[0]","0"
"","2229.5","survey-likert","61","188184","0.0-61.0","","","","","","","{""confidence"":2}","[0]",""
"","","call-function","62","188185","0.0-62.0","","","","","","","","",""
"","null","html-keyboard-response","63","191188","0.0-63.0","<span style=""color:Black; font-size:50px;"">Agent A","null","","","","","","",""
"","null","video-keyboard-response","64","194313","0.0-64.0","","null","","Agent A","veridical","/Users/kirstenziman/Desktop/Desktop/DIDEC_entire_corpus/analysis_3/STIM_SET_1/0_1592233.bmppp58_L1V1_freeview_veridical.mp4","","",""
"","null","html-keyboard-response","65","197317","0.0-65.0","<span style=""color:Black; font-size:50px;"">Agent B","null","","","","","","",""
"","null","video-keyboard-response","66","200433","0.0-66.0","","null","","Agent B","scrambled","/Users/kirstenziman/Desktop/Desktop/DIDEC_entire_corpus/analysis_3/STIM_SET_1/0_1592233.bmppp58_L1V1_freeview_scrambled.mp4","","",""
"","","call-function","67","200433","0.0-67.0","","","","","","","","",""
"","3751","survey-likert","68","204185","0.0-68.0","","","","","","","{""judgement"":0}","[0]","0"
"","1397.0999999940395","survey-likert","69","205583","0.0-69.0","","","","","","","{""confidence"":2}","[0]",""
"","","call-function","70","205584","0.0-70.0","","","","","","","","",""
"","null","html-keyboard-response","71","208589","0.0-71.0","<span style=""color:Black; font-size:50px;"">Agent A","null","","","","","","",""
"","null","video-keyboard-response","72","211722","0.0-72.0","","null","","Agent A","scrambled","/Users/kirstenziman/Desktop/Desktop/DIDEC_entire_corpus/analysis_3/STIM_SET_1/0_1592133.bmppp63_L1V1_freeview_scrambled.mp4","","",""
"","null","html-keyboard-response","73","214727","0.0-73.0","<span style=""color:Black; font-size:50px;"">Agent B","null","","","","","","",""
"","null","video-keyboard-response","74","217820","0.0-74.0","","null","","Agent B","veridical","/Users/kirstenziman/Desktop/Desktop/DIDEC_entire_corpus/analysis_3/STIM_SET_1/0_1592133.bmppp63_L1V1_freeview_veridical.mp4","","",""
"","","call-function","75","217820","0.0-75.0","","","","","","","","",""
"","2126.7999999821186","survey-likert","76","219948","0.0-76.0","","","","","","","{""judgement"":1}","[0]","1"
"","1316.0999999940395","survey-likert","77","221265","0.0-77.0","","","","","","","{""confidence"":2}","[0]",""
"","","call-function","78","221265","0.0-78.0","","","","","","","","",""
"","null","html-keyboard-response","79","224271","0.0-79.0","<span style=""color:Black; font-size:50px;"">Agent A","null","","","","","","",""
"","null","video-keyboard-response","80","227382","0.0-80.0","","null","","Agent A","scrambled","/Users/kirstenziman/Desktop/Desktop/DIDEC_entire_corpus/analysis_3/STIM_SET_1/0_498398.bmppp93_L1V1_freeview_scrambled.mp4","","",""
"","null","html-keyboard-response","81","230384","0.0-81.0","<span style=""color:Black; font-size:50px;"">Agent B","null","","","","","","",""
"","null","video-keyboard-response","82","233465","0.0-82.0","","null","","Agent B","veridical","/Users/kirstenziman/Desktop/Desktop/DIDEC_entire_corpus/analysis_3/STIM_SET_1/0_498398.bmppp93_L1V1_freeview_veridical.mp4","","",""
"","","call-function","83","233466","0.0-83.0","","","","","","","","",""
"","2341.199999988079","survey-likert","84","235808","0.0-84.0","","","","","","","{""judgement"":0}","[0]","1"
"","1413.5","survey-likert","85","237222","0.0-85.0","","","","","","","{""confidence"":1}","[0]",""
"[{""page_index"":0,""viewing_time"":1824.699999988079},{""page_index"":1,""viewing_time"":404.09999999403954},{""page_index"":2,""viewing_time"":266.2000000178814}]","2495.0999999940395","instructions","86","239718","0.0-86.0","","","","","","","","",""
"[{""page_index"":0,""viewing_time"":226.09999999403954},{""page_index"":1,""viewing_time"":194.09999999403954},{""page_index"":2,""viewing_time"":969.1999999880791}]","1389.5","instructions","87","241108","0.0-87.0","","","","","","","","",""
"","","call-function","88","241108","0.0-88.0","","","","","","","","",""
"","null","html-keyboard-response","89","244113","0.0-89.0","<span style=""color:Black; font-size:50px;"">Agent A","null","","","","","","",""
"","null","video-keyboard-response","90","247198","0.0-90.0","","null","","Agent A","scrambled","/Users/kirstenziman/Desktop/Desktop/DIDEC_entire_corpus/analysis_3/STIM_SET_1/0_713936.bmppp76_L1V1_freeview_scrambled.mp4","","",""
"","null","html-keyboard-response","91","250202","0.0-91.0","<span style=""color:Black; font-size:50px;"">Agent B","null","","","","","","",""
"","null","video-keyboard-response","92","253280","0.0-92.0","","null","","Agent B","veridical","/Users/kirstenziman/Desktop/Desktop/DIDEC_entire_corpus/analysis_3/STIM_SET_1/0_713936.bmppp76_L1V1_freeview_veridical.mp4","","",""
"","","call-function","93","253280","0.0-93.0","","","","","","","","",""
"","1318.9000000059605","survey-likert","94","254600","0.0-94.0","","","","","","","{""judgement"":1}","[0]","1"
"","1219.5999999940395","survey-likert","95","255820","0.0-95.0","","","","","","","{""confidence"":2}","[0]",""
"","","call-function","96","255821","0.0-96.0","","","","","","","","",""
"","null","html-keyboard-response","97","258823","0.0-97.0","<span style=""color:Black; font-size:50px;"">Agent A","null","","","","","","",""
"","null","video-keyboard-response","98","261919","0.0-98.0","","null","","Agent A","scrambled","/Users/kirstenziman/Desktop/Desktop/DIDEC_entire_corpus/analysis_3/STIM_SET_1/0_1591909.bmppp89_L1V1_freeview_scrambled.mp4","","",""
"","null","html-keyboard-response","99","264924","0.0-99.0","<span style=""color:Black; font-size:50px;"">Agent B","null","","","","","","",""
"","null","video-keyboard-response","100","268020","0.0-100.0","","null","","Agent B","veridical","/Users/kirstenziman/Desktop/Desktop/DIDEC_entire_corpus/analysis_3/STIM_SET_1/0_1591909.bmppp89_L1V1_freeview_veridical.mp4","","",""
"","","call-function","101","268020","0.0-101.0","","","","","","","","",""
"","1995","survey-likert","102","270016","0.0-102.0","","","","","","","{""judgement"":0}","[0]","1"
"","1542.7999999821186","survey-likert","103","271559","0.0-103.0","","","","","","","{""confidence"":1}","[0]",""
"","","call-function","104","271560","0.0-104.0","","","","","","","","",""
"","null","html-keyboard-response","105","274561","0.0-105.0","<span style=""color:Black; font-size:50px;"">Agent A","null","","","","","","",""
"","null","video-keyboard-response","106","277679","0.0-106.0","","null","","Agent A","veridical","/Users/kirstenziman/Desktop/Desktop/DIDEC_entire_corpus/analysis_3/STIM_SET_1/0_1159365.bmppp58_L1V1_freeview_veridical.mp4","","",""
"","null","html-keyboard-response","107","280684","0.0-107.0","<span style=""color:Black; font-size:50px;"">Agent B","null","","","","","","",""
"","null","video-keyboard-response","108","283925","0.0-108.0","","null","","Agent B","scrambled","/Users/kirstenziman/Desktop/Desktop/DIDEC_entire_corpus/analysis_3/STIM_SET_1/0_1159365.bmppp58_L1V1_freeview_scrambled.mp4","","",""
"","","call-function","109","283926","0.0-109.0","","","","","","","","",""
"","2627.2999999821186","survey-likert","110","286554","0.0-110.0","","","","","","","{""judgement"":0}","[0]","0"
"","1615.4000000059605","survey-likert","111","288170","0.0-111.0","","","","","","","{""confidence"":1}","[0]",""
"","","call-function","112","288170","0.0-112.0","","","","","","","","",""
"","null","html-keyboard-response","113","291175","0.0-113.0","<span style=""color:Black; font-size:50px;"">Agent A","null","","","","","","",""
"","null","video-keyboard-response","114","294401","0.0-114.0","","null","","Agent A","scrambled","/Users/kirstenziman/Desktop/Desktop/DIDEC_entire_corpus/analysis_3/STIM_SET_1/0_713450.bmppp154_L1V1_freeview_scrambled.mp4","","",""
"","null","html-keyboard-response","115","297404","0.0-115.0","<span style=""color:Black; font-size:50px;"">Agent B","null","","","","","","",""
"","null","video-keyboard-response","116","300503","0.0-116.0","","null","","Agent B","veridical","/Users/kirstenziman/Desktop/Desktop/DIDEC_entire_corpus/analysis_3/STIM_SET_1/0_713450.bmppp154_L1V1_freeview_veridical.mp4","","",""
"","","call-function","117","300503","0.0-117.0","","","","","","","","",""
"","4081","survey-likert","118","304585","0.0-118.0","","","","","","","{""judgement"":1}","[0]","1"
"","1453.9000000059605","survey-likert","119","306040","0.0-119.0","","","","","","","{""confidence"":0}","[0]",""
"","","call-function","120","306040","0.0-120.0","","","","","","","","",""
"","null","html-keyboard-response","121","309043","0.0-121.0","<span style=""color:Black; font-size:50px;"">Agent A","null","","","","","","",""
"","null","video-keyboard-response","122","312115","0.0-122.0","","null","","Agent A","veridical","/Users/kirstenziman/Desktop/Desktop/DIDEC_entire_corpus/analysis_3/STIM_SET_1/0_713633.bmppp57_L1V1_freeview_veridical.mp4","","",""
"","null","html-keyboard-response","123","315118","0.0-123.0","<span style=""color:Black; font-size:50px;"">Agent B","null","","","","","","",""
"","null","video-keyboard-response","124","318281","0.0-124.0","","null","","Agent B","scrambled","/Users/kirstenziman/Desktop/Desktop/DIDEC_entire_corpus/analysis_3/STIM_SET_1/0_713633.bmppp57_L1V1_freeview_scrambled.mp4","","",""
"","","call-function","125","318281","0.0-125.0","","","","","","","","",""
"","2155.2000000178814","survey-likert","126","320437","0.0-126.0","","","","","","","{""judgement"":0}","[0]","0"
"","1292","survey-likert","127","321730","0.0-127.0","","","","","","","{""confidence"":2}","[0]",""
"","","call-function","128","321732","0.0-128.0","","","","","","","","",""
"","null","html-keyboard-response","129","324740","0.0-129.0","<span style=""color:Black; font-size:50px;"">Agent A","null","","","","","","",""
"","null","video-keyboard-response","130","327853","0.0-130.0","","null","","Agent A","scrambled","/Users/kirstenziman/Desktop/Desktop/DIDEC_entire_corpus/analysis_3/STIM_SET_1/0_285807.bmppp51_L1V1_freeview_scrambled.mp4","","",""
"","null","html-keyboard-response","131","330856","0.0-131.0","<span style=""color:Black; font-size:50px;"">Agent B","null","","","","","","",""
"","null","video-keyboard-response","132","333942","0.0-132.0","","null","","Agent B","veridical","/Users/kirstenziman/Desktop/Desktop/DIDEC_entire_corpus/analysis_3/STIM_SET_1/0_285807.bmppp51_L1V1_freeview_veridical.mp4","","",""
"","","call-function","133","333942","0.0-133.0","","","","","","","","",""
"","3859","survey-likert","134","337802","0.0-134.0","","","","","","","{""judgement"":1}","[0]","1"
"","2939.9000000059605","survey-likert","135","340743","0.0-135.0","","","","","","","{""confidence"":1}","[0]",""
"","","call-function","136","340743","0.0-136.0","","","","","","","","",""
"","null","html-keyboard-response","137","343747","0.0-137.0","<span style=""color:Black; font-size:50px;"">Agent A","null","","","","","","",""
"","null","video-keyboard-response","138","346817","0.0-138.0","","null","","Agent A","veridical","/Users/kirstenziman/Desktop/Desktop/DIDEC_entire_corpus/analysis_3/STIM_SET_1/0_1592874.bmppp64_L1V1_freeview_veridical.mp4","","",""
"","null","html-keyboard-response","139","349818","0.0-139.0","<span style=""color:Black; font-size:50px;"">Agent B","null","","","","","","",""
"","null","video-keyboard-response","140","352904","0.0-140.0","","null","","Agent B","scrambled","/Users/kirstenziman/Desktop/Desktop/DIDEC_entire_corpus/analysis_3/STIM_SET_1/0_1592874.bmppp64_L1V1_freeview_scrambled.mp4","","",""
"","","call-function","141","352904","0.0-141.0","","","","","","","","",""
"","2371.0999999940395","survey-likert","142","355276","0.0-142.0","","","","","","","{""judgement"":0}","[0]","0"
"","1744.4000000059605","survey-likert","143","357021","0.0-143.0","","","","","","","{""confidence"":1}","[0]",""
"","","call-function","144","357022","0.0-144.0","","","","","","","","",""
"","null","html-keyboard-response","145","360027","0.0-145.0","<span style=""color:Black; font-size:50px;"">Agent A","null","","","","","","",""
"","null","video-keyboard-response","146","363106","0.0-146.0","","null","","Agent A","veridical","/Users/kirstenziman/Desktop/Desktop/DIDEC_entire_corpus/analysis_3/STIM_SET_1/0_713593.bmppp75_L1V1_freeview_veridical.mp4","","",""
"","null","html-keyboard-response","147","366110","0.0-147.0","<span style=""color:Black; font-size:50px;"">Agent B","null","","","","","","",""
"","null","video-keyboard-response","148","369196","0.0-148.0","","null","","Agent B","scrambled","/Users/kirstenziman/Desktop/Desktop/DIDEC_entire_corpus/analysis_3/STIM_SET_1/0_713593.bmppp75_L1V1_freeview_scrambled.mp4","","",""
"","","call-function","149","369197","0.0-149.0","","","","","","","","",""
"","1760.7000000178814","survey-likert","150","370958","0.0-150.0","","","","","","","{""judgement"":0}","[0]","0"
"","3126.300000011921","survey-likert","151","374085","0.0-151.0","","","","","","","{""confidence"":1}","[0]",""
"","","call-function","152","374086","0.0-152.0","","","","","","","","",""
"","null","html-keyboard-response","153","377089","0.0-153.0","<span style=""color:Black; font-size:50px;"">Agent A","null","","","","","","",""
"","null","video-keyboard-response","154","380226","0.0-154.0","","null","","Agent A","scrambled","/Users/kirstenziman/Desktop/Desktop/DIDEC_entire_corpus/analysis_3/STIM_SET_1/0_150432.bmppp81_L1V1_freeview_scrambled.mp4","","",""
"","null","html-keyboard-response","155","383234","0.0-155.0","<span style=""color:Black; font-size:50px;"">Agent B","null","","","","","","",""
"","null","video-keyboard-response","156","386676","0.0-156.0","","null","","Agent B","veridical","/Users/kirstenziman/Desktop/Desktop/DIDEC_entire_corpus/analysis_3/STIM_SET_1/0_150432.bmppp81_L1V1_freeview_veridical.mp4","","",""
"","","call-function","157","386676","0.0-157.0","","","","","","","","",""
"","2626.5","survey-likert","158","389303","0.0-158.0","","","","","","","{""judgement"":0}","[0]","1"
"","1629.4000000059605","survey-likert","159","390935","0.0-159.0","","","","","","","{""confidence"":0}","[0]",""
"","","call-function","160","390935","0.0-160.0","","","","","","","","",""
"","null","html-keyboard-response","161","393939","0.0-161.0","<span style=""color:Black; font-size:50px;"">Agent A","null","","","","","","",""
"","null","video-keyboard-response","162","397023","0.0-162.0","","null","","Agent A","scrambled","/Users/kirstenziman/Desktop/Desktop/DIDEC_entire_corpus/analysis_3/STIM_SET_1/0_1160189.bmppp89_L1V1_freeview_scrambled.mp4","","",""
"","null","html-keyboard-response","163","400025","0.0-163.0","<span style=""color:Black; font-size:50px;"">Agent B","null","","","","","","",""
"","null","video-keyboard-response","164","403105","0.0-164.0","","null","","Agent B","veridical","/Users/kirstenziman/Desktop/Desktop/DIDEC_entire_corpus/analysis_3/STIM_SET_1/0_1160189.bmppp89_L1V1_freeview_veridical.mp4","","",""
"","","call-function","165","403105","0.0-165.0","","","","","","","","",""
"","2322.2000000178814","survey-likert","166","405428","0.0-166.0","","","","","","","{""judgement"":1}","[0]","1"
"","1759.800000011921","survey-likert","167","407189","0.0-167.0","","","","","","","{""confidence"":1}","[0]",""
"[{""page_index"":0,""viewing_time"":977.2000000178814},{""page_index"":1,""viewing_time"":484.5},{""page_index"":2,""viewing_time"":403.7999999821186}]","1865.6000000238419","instructions","168","409055","0.0-168.0","","","","","","","","",""
"[{""page_index"":0,""viewing_time"":387.7000000178814},{""page_index"":1,""viewing_time"":380.89999997615814},{""page_index"":2,""viewing_time"":548.1000000238419}]","1316.800000011921","instructions","169","410372","0.0-169.0","","","","","","","","",""
"","","call-function","170","410372","0.0-170.0","","","","","","","","",""
"","null","html-keyboard-response","171","413374","0.0-171.0","<span style=""color:Black; font-size:50px;"">Agent A","null","","","","","","",""
"","null","video-keyboard-response","172","416447","0.0-172.0","","null","","Agent A","veridical","/Users/kirstenziman/Desktop/Desktop/DIDEC_entire_corpus/analysis_3/STIM_SET_1/0_286066.bmppp151_L1V1_freeview_veridical.mp4","","",""
"","null","html-keyboard-response","173","419451","0.0-173.0","<span style=""color:Black; font-size:50px;"">Agent B","null","","","","","","",""
"","null","video-keyboard-response","174","422529","0.0-174.0","","null","","Agent B","scrambled","/Users/kirstenziman/Desktop/Desktop/DIDEC_entire_corpus/analysis_3/STIM_SET_1/0_286066.bmppp151_L1V1_freeview_scrambled.mp4","","",""
"","","call-function","175","422529","0.0-175.0","","","","","","","","",""
"","1581.5","survey-likert","176","424111","0.0-176.0","","","","","","","{""judgement"":0}","[0]","0"
"","1421.199999988079","survey-likert","177","425533","0.0-177.0","","","","","","","{""confidence"":3}","[0]",""
"","","call-function","178","425533","0.0-178.0","","","","","","","","",""
"","null","html-keyboard-response","179","428537","0.0-179.0","<span style=""color:Black; font-size:50px;"">Agent A","null","","","","","","",""
"","null","video-keyboard-response","180","431669","0.0-180.0","","null","","Agent A","veridical","/Users/kirstenziman/Desktop/Desktop/DIDEC_entire_corpus/analysis_3/STIM_SET_1/0_1159440.bmppp98_L1V1_freeview_veridical.mp4","","",""
"","null","html-keyboard-response","181","434672","0.0-181.0","<span style=""color:Black; font-size:50px;"">Agent B","null","","","","","","",""
"","null","video-keyboard-response","182","437803","0.0-182.0","","null","","Agent B","scrambled","/Users/kirstenziman/Desktop/Desktop/DIDEC_entire_corpus/analysis_3/STIM_SET_1/0_1159440.bmppp98_L1V1_freeview_scrambled.mp4","","",""
"","","call-function","183","437803","0.0-183.0","","","","","","","","",""
"","3013.9000000059605","survey-likert","184","440818","0.0-184.0","","","","","","","{""judgement"":0}","[0]","0"
"","2890.7999999821186","survey-likert","185","443710","0.0-185.0","","","","","","","{""confidence"":1}","[0]",""
"","","call-function","186","443710","0.0-186.0","","","","","","","","",""
"","null","html-keyboard-response","187","446713","0.0-187.0","<span style=""color:Black; font-size:50px;"">Agent A","null","","","","","","",""
"","null","video-keyboard-response","188","449859","0.0-188.0","","null","","Agent A","scrambled","/Users/kirstenziman/Desktop/Desktop/DIDEC_entire_corpus/analysis_3/STIM_SET_1/0_713858.bmppp75_L1V1_freeview_scrambled.mp4","","",""
"","null","html-keyboard-response","189","452863","0.0-189.0","<span style=""color:Black; font-size:50px;"">Agent B","null","","","","","","",""
"","null","video-keyboard-response","190","455988","0.0-190.0","","null","","Agent B","veridical","/Users/kirstenziman/Desktop/Desktop/DIDEC_entire_corpus/analysis_3/STIM_SET_1/0_713858.bmppp75_L1V1_freeview_veridical.mp4","","",""
"","","call-function","191","455988","0.0-191.0","","","","","","","","",""
"","4342.5999999940395","survey-likert","192","460331","0.0-192.0","","","","","","","{""judgement"":1}","[0]","1"
"","1299.2999999821186","survey-likert","193","461631","0.0-193.0","","","","","","","{""confidence"":1}","[0]",""
"","","call-function","194","461632","0.0-194.0","","","","","","","","",""
"","null","html-keyboard-response","195","464633","0.0-195.0","<span style=""color:Black; font-size:50px;"">Agent A","null","","","","","","",""
"","null","video-keyboard-response","196","467841","0.0-196.0","","null","","Agent A","veridical","/Users/kirstenziman/Desktop/Desktop/DIDEC_entire_corpus/analysis_3/STIM_SET_1/0_713888.bmppp68_L1V1_freeview_veridical.mp4","","",""
"","null","html-keyboard-response","197","470845","0.0-197.0","<span style=""color:Black; font-size:50px;"">Agent B","null","","","","","","",""
"","null","video-keyboard-response","198","473942","0.0-198.0","","null","","Agent B","scrambled","/Users/kirstenziman/Desktop/Desktop/DIDEC_entire_corpus/analysis_3/STIM_SET_1/0_713888.bmppp68_L1V1_freeview_scrambled.mp4","","",""
"","","call-function","199","473942","0.0-199.0","","","","","","","","",""
"","3312.4000000059605","survey-likert","200","477255","0.0-200.0","","","","","","","{""judgement"":1}","[0]","0"
"","1502.0999999940395","survey-likert","201","478758","0.0-201.0","","","","","","","{""confidence"":0}","[0]",""
"","","call-function","202","478759","0.0-202.0","","","","","","","","",""
"","null","html-keyboard-response","203","481764","0.0-203.0","<span style=""color:Black; font-size:50px;"">Agent A","null","","","","","","",""
"","null","video-keyboard-response","204","484846","0.0-204.0","","null","","Agent A","scrambled","/Users/kirstenziman/Desktop/Desktop/DIDEC_entire_corpus/analysis_3/STIM_SET_1/0_1592137.bmppp52_L1V1_freeview_scrambled.mp4","","",""
"","null","html-keyboard-response","205","487848","0.0-205.0","<span style=""color:Black; font-size:50px;"">Agent B","null","","","","","","",""
"","null","video-keyboard-response","206","490959","0.0-206.0","","null","","Agent B","veridical","/Users/kirstenziman/Desktop/Desktop/DIDEC_entire_corpus/analysis_3/STIM_SET_1/0_1592137.bmppp52_L1V1_freeview_veridical.mp4","","",""
"","","call-function","207","490959","0.0-207.0","","","","","","","","",""
"","2825.800000011921","survey-likert","208","493785","0.0-208.0","","","","","","","{""judgement"":1}","[0]","1"
"","1816.9000000059605","survey-likert","209","495603","0.0-209.0","","","","","","","{""confidence"":1}","[0]",""
"","","call-function","210","495603","0.0-210.0","","","","","","","","",""
"","null","html-keyboard-response","211","498608","0.0-211.0","<span style=""color:Black; font-size:50px;"">Agent A","null","","","","","","",""
"","null","video-keyboard-response","212","501691","0.0-212.0","","null","","Agent A","veridical","/Users/kirstenziman/Desktop/Desktop/DIDEC_entire_corpus/analysis_3/STIM_SET_1/0_1593041.bmppp89_L1V1_freeview_veridical.mp4","","",""
"","null","html-keyboard-response","213","504694","0.0-213.0","<span style=""color:Black; font-size:50px;"">Agent B","null","","","","","","",""
"","null","video-keyboard-response","214","507757","0.0-214.0","","null","","Agent B","scrambled","/Users/kirstenziman/Desktop/Desktop/DIDEC_entire_corpus/analysis_3/STIM_SET_1/0_1593041.bmppp89_L1V1_freeview_scrambled.mp4","","",""
"","","call-function","215","507757","0.0-215.0","","","","","","","","",""
"","1750.4000000059605","survey-likert","216","509508","0.0-216.0","","","","","","","{""judgement"":0}","[0]","0"
"","1316","survey-likert","217","510825","0.0-217.0","","","","","","","{""confidence"":2}","[0]",""
"","","call-function","218","510825","0.0-218.0","","","","","","","","",""
"","null","html-keyboard-response","219","513829","0.0-219.0","<span style=""color:Black; font-size:50px;"">Agent A","null","","","","","","",""
"","null","video-keyboard-response","220","516911","0.0-220.0","","null","","Agent A","scrambled","/Users/kirstenziman/Desktop/Desktop/DIDEC_entire_corpus/analysis_3/STIM_SET_1/0_1159486.bmppp98_L1V1_freeview_scrambled.mp4","","",""
"","null","html-keyboard-response","221","519921","0.0-221.0","<span style=""color:Black; font-size:50px;"">Agent B","null","","","","","","",""
"","null","video-keyboard-response","222","523021","0.0-222.0","","null","","Agent B","veridical","/Users/kirstenziman/Desktop/Desktop/DIDEC_entire_corpus/analysis_3/STIM_SET_1/0_1159486.bmppp98_L1V1_freeview_veridical.mp4","","",""
"","","call-function","223","523022","0.0-223.0","","","","","","","","",""
"","3417.7999999821186","survey-likert","224","526440","0.0-224.0","","","","","","","{""judgement"":1}","[0]","1"
"","1840.9000000059605","survey-likert","225","528282","0.0-225.0","","","","","","","{""confidence"":1}","[0]",""
"","","call-function","226","528282","0.0-226.0","","","","","","","","",""
"","null","html-keyboard-response","227","531284","0.0-227.0","<span style=""color:Black; font-size:50px;"">Agent A","null","","","","","","",""
"","null","video-keyboard-response","228","534370","0.0-228.0","","null","","Agent A","veridical","/Users/kirstenziman/Desktop/Desktop/DIDEC_entire_corpus/analysis_3/STIM_SET_1/0_498339.bmppp63_L1V1_freeview_veridical.mp4","","",""
"","null","html-keyboard-response","229","537372","0.0-229.0","<span style=""color:Black; font-size:50px;"">Agent B","null","","","","","","",""
"","null","video-keyboard-response","230","540485","0.0-230.0","","null","","Agent B","scrambled","/Users/kirstenziman/Desktop/Desktop/DIDEC_entire_corpus/analysis_3/STIM_SET_1/0_498339.bmppp63_L1V1_freeview_scrambled.mp4","","",""
"","","call-function","231","540486","0.0-231.0","","","","","","","","",""
"","3336.5","survey-likert","232","543823","0.0-232.0","","","","","","","{""judgement"":0}","[0]","0"
"","1607.0999999940395","survey-likert","233","545431","0.0-233.0","","","","","","","{""confidence"":1}","[0]",""
"","","call-function","234","545431","0.0-234.0","","","","","","","","",""
"","null","html-keyboard-response","235","548432","0.0-235.0","<span style=""color:Black; font-size:50px;"">Agent A","null","","","","","","",""
"","null","video-keyboard-response","236","551514","0.0-236.0","","null","","Agent A","veridical","/Users/kirstenziman/Desktop/Desktop/DIDEC_entire_corpus/analysis_3/STIM_SET_1/0_713765.bmppp93_L1V1_freeview_veridical.mp4","","",""
"","null","html-keyboard-response","237","554515","0.0-237.0","<span style=""color:Black; font-size:50px;"">Agent B","null","","","","","","",""
"","null","video-keyboard-response","238","557618","0.0-238.0","","null","","Agent B","scrambled","/Users/kirstenziman/Desktop/Desktop/DIDEC_entire_corpus/analysis_3/STIM_SET_1/0_713765.bmppp93_L1V1_freeview_scrambled.mp4","","",""
"","","call-function","239","557619","0.0-239.0","","","","","","","","",""
"","2079","survey-likert","240","559698","0.0-240.0","","","","","","","{""judgement"":0}","[0]","0"
"","3239","survey-likert","241","562938","0.0-241.0","","","","","","","{""confidence"":1}","[0]",""
"","","call-function","242","562938","0.0-242.0","","","","","","","","",""
"","null","html-keyboard-response","243","565939","0.0-243.0","<span style=""color:Black; font-size:50px;"">Agent A","null","","","","","","",""
"","null","video-keyboard-response","244","569034","0.0-244.0","","null","","Agent A","scrambled","/Users/kirstenziman/Desktop/Desktop/DIDEC_entire_corpus/analysis_3/STIM_SET_1/0_713770.bmppp52_L1V1_freeview_scrambled.mp4","","",""
"","null","html-keyboard-response","245","572070","0.0-245.0","<span style=""color:Black; font-size:50px;"">Agent B","null","","","","","","",""
"","null","video-keyboard-response","246","575278","0.0-246.0","","null","","Agent B","veridical","/Users/kirstenziman/Desktop/Desktop/DIDEC_entire_corpus/analysis_3/STIM_SET_1/0_713770.bmppp52_L1V1_freeview_veridical.mp4","","",""
"","","call-function","247","575278","0.0-247.0","","","","","","","","",""
"","1788.0999999940395","survey-likert","248","577068","0.0-248.0","","","","","","","{""judgement"":1}","[0]","1"
"","2077.4000000059605","survey-likert","249","579147","0.0-249.0","","","","","","","{""confidence"":1}","[0]",""
"[{""page_index"":0,""viewing_time"":1389},{""page_index"":1,""viewing_time"":557.4000000059605},{""page_index"":2,""viewing_time"":444.40000000596046}]","2390.9000000059605","instructions","250","581538","0.0-250.0","","","","","","","","",""
"[{""page_index"":0,""viewing_time"":452},{""page_index"":1,""viewing_time"":557.5999999940395},{""page_index"":2,""viewing_time"":630.5999999940395}]","1640.3999999761581","instructions","251","583179","0.0-251.0","","","","","","","","",""
"","","call-function","252","583179","0.0-252.0","","","","","","","","",""
"","null","html-keyboard-response","253","586184","0.0-253.0","<span style=""color:Black; font-size:50px;"">Agent A","null","","","","","","",""
"","null","video-keyboard-response","254","589284","0.0-254.0","","null","","Agent A","scrambled","/Users/kirstenziman/Desktop/Desktop/DIDEC_entire_corpus/analysis_3/STIM_SET_1/0_713228.bmppp51_L1V1_freeview_scrambled.mp4","","",""
"","null","html-keyboard-response","255","592289","0.0-255.0","<span style=""color:Black; font-size:50px;"">Agent B","null","","","","","","",""
"","null","video-keyboard-response","256","595384","0.0-256.0","","null","","Agent B","veridical","/Users/kirstenziman/Desktop/Desktop/DIDEC_entire_corpus/analysis_3/STIM_SET_1/0_713228.bmppp51_L1V1_freeview_veridical.mp4","","",""
"","","call-function","257","595384","0.0-257.0","","","","","","","","",""
"","2034.5999999940395","survey-likert","258","597419","0.0-258.0","","","","","","","{""judgement"":1}","[0]","1"
"","1444.4000000059605","survey-likert","259","598865","0.0-259.0","","","","","","","{""confidence"":3}","[0]",""
"","","call-function","260","598865","0.0-260.0","","","","","","","","",""
"","null","html-keyboard-response","261","601867","0.0-261.0","<span style=""color:Black; font-size:50px;"">Agent A","null","","","","","","",""
"","null","video-keyboard-response","262","604945","0.0-262.0","","null","","Agent A","veridical","/Users/kirstenziman/Desktop/Desktop/DIDEC_entire_corpus/analysis_3/STIM_SET_1/0_150273.bmppp57_L1V1_freeview_veridical.mp4","","",""
"","null","html-keyboard-response","263","607951","0.0-263.0","<span style=""color:Black; font-size:50px;"">Agent B","null","","","","","","",""
"","null","video-keyboard-response","264","611032","0.0-264.0","","null","","Agent B","scrambled","/Users/kirstenziman/Desktop/Desktop/DIDEC_entire_corpus/analysis_3/STIM_SET_1/0_150273.bmppp57_L1V1_freeview_scrambled.mp4","","",""
"","","call-function","265","611032","0.0-265.0","","","","","","","","",""
"","2514.4000000059605","survey-likert","266","613547","0.0-266.0","","","","","","","{""judgement"":0}","[0]","0"
"","1736.2999999821186","survey-likert","267","615285","0.0-267.0","","","","","","","{""confidence"":2}","[0]",""
"","","call-function","268","615285","0.0-268.0","","","","","","","","",""
"","null","html-keyboard-response","269","618295","0.0-269.0","<span style=""color:Black; font-size:50px;"">Agent A","null","","","","","","",""
"","null","video-keyboard-response","270","621772","0.0-270.0","","null","","Agent A","scrambled","/Users/kirstenziman/Desktop/Desktop/DIDEC_entire_corpus/analysis_3/STIM_SET_1/0_497974.bmppp98_L1V1_freeview_scrambled.mp4","","",""
"","null","html-keyboard-response","271","624775","0.0-271.0","<span style=""color:Black; font-size:50px;"">Agent B","null","","","","","","",""
"","null","video-keyboard-response","272","627873","0.0-272.0","","null","","Agent B","veridical","/Users/kirstenziman/Desktop/Desktop/DIDEC_entire_corpus/analysis_3/STIM_SET_1/0_497974.bmppp98_L1V1_freeview_veridical.mp4","","",""
"","","call-function","273","627873","0.0-273.0","","","","","","","","",""
"","1983.300000011921","survey-likert","274","629857","0.0-274.0","","","","","","","{""judgement"":1}","[0]","1"
"","4287.600000023842","survey-likert","275","634145","0.0-275.0","","","","","","","{""confidence"":1}","[0]",""
"","","call-function","276","634146","0.0-276.0","","","","","","","","",""
"","null","html-keyboard-response","277","637152","0.0-277.0","<span style=""color:Black; font-size:50px;"">Agent A","null","","","","","","",""
"","null","video-keyboard-response","278","640332","0.0-278.0","","null","","Agent A","scrambled","/Users/kirstenziman/Desktop/Desktop/DIDEC_entire_corpus/analysis_3/STIM_SET_1/0_1159353.bmppp151_L1V1_freeview_scrambled.mp4","","",""
"","null","html-keyboard-response","279","643335","0.0-279.0","<span style=""color:Black; font-size:50px;"">Agent B","null","","","","","","",""
"","null","video-keyboard-response","280","646483","0.0-280.0","","null","","Agent B","veridical","/Users/kirstenziman/Desktop/Desktop/DIDEC_entire_corpus/analysis_3/STIM_SET_1/0_1159353.bmppp151_L1V1_freeview_veridical.mp4","","",""
"","","call-function","281","646483","0.0-281.0","","","","","","","","",""
"","3191.699999988079","survey-likert","282","649676","0.0-282.0","","","","","","","{""judgement"":0}","[0]","1"
"","1995.1000000238419","survey-likert","283","651672","0.0-283.0","","","","","","","{""confidence"":0}","[0]",""
"","","call-function","284","651672","0.0-284.0","","","","","","","","",""
"","null","html-keyboard-response","285","654677","0.0-285.0","<span style=""color:Black; font-size:50px;"">Agent A","null","","","","","","",""
"","null","video-keyboard-response","286","657751","0.0-286.0","","null","","Agent A","veridical","/Users/kirstenziman/Desktop/Desktop/DIDEC_entire_corpus/analysis_3/STIM_SET_1/0_1159508.bmppp154_L1V1_freeview_veridical.mp4","","",""
"","null","html-keyboard-response","287","660755","0.0-287.0","<span style=""color:Black; font-size:50px;"">Agent B","null","","","","","","",""
"","null","video-keyboard-response","288","663819","0.0-288.0","","null","","Agent B","scrambled","/Users/kirstenziman/Desktop/Desktop/DIDEC_entire_corpus/analysis_3/STIM_SET_1/0_1159508.bmppp154_L1V1_freeview_scrambled.mp4","","",""
"","","call-function","289","663819","0.0-289.0","","","","","","","","",""
"","4314","survey-likert","290","668134","0.0-290.0","","","","","","","{""judgement"":0}","[0]","0"
"","2294.5999999940395","survey-likert","291","670429","0.0-291.0","","","","","","","{""confidence"":0}","[0]",""
"","","call-function","292","670429","0.0-292.0","","","","","","","","",""
"","null","html-keyboard-response","293","673433","0.0-293.0","<span style=""color:Black; font-size:50px;"">Agent A","null","","","","","","",""
"","null","video-keyboard-response","294","676569","0.0-294.0","","null","","Agent A","scrambled","/Users/kirstenziman/Desktop/Desktop/DIDEC_entire_corpus/analysis_3/STIM_SET_1/0_713707.bmppp154_L1V1_freeview_scrambled.mp4","","",""
"","null","html-keyboard-response","295","679570","0.0-295.0","<span style=""color:Black; font-size:50px;"">Agent B","null","","","","","","",""
"","null","video-keyboard-response","296","682670","0.0-296.0","","null","","Agent B","veridical","/Users/kirstenziman/Desktop/Desktop/DIDEC_entire_corpus/analysis_3/STIM_SET_1/0_713707.bmppp154_L1V1_freeview_veridical.mp4","","",""
"","","call-function","297","682670","0.0-297.0","","","","","","","","",""
"","1957.7999999821186","survey-likert","298","684628","0.0-298.0","","","","","","","{""judgement"":1}","[0]","1"
"","1542.0999999940395","survey-likert","299","686171","0.0-299.0","","","","","","","{""confidence"":1}","[0]",""
"","","call-function","300","686172","0.0-300.0","","","","","","","","",""
"","null","html-keyboard-response","301","689177","0.0-301.0","<span style=""color:Black; font-size:50px;"">Agent A","null","","","","","","",""
"","null","video-keyboard-response","302","692281","0.0-302.0","","null","","Agent A","scrambled","/Users/kirstenziman/Desktop/Desktop/DIDEC_entire_corpus/analysis_3/STIM_SET_1/0_1592836.bmppp68_L1V1_freeview_scrambled.mp4","","",""
"","null","html-keyboard-response","303","695287","0.0-303.0","<span style=""color:Black; font-size:50px;"">Agent B","null","","","","","","",""
"","null","video-keyboard-response","304","698458","0.0-304.0","","null","","Agent B","veridical","/Users/kirstenziman/Desktop/Desktop/DIDEC_entire_corpus/analysis_3/STIM_SET_1/0_1592836.bmppp68_L1V1_freeview_veridical.mp4","","",""
"","","call-function","305","698458","0.0-305.0","","","","","","","","",""
"","3012.199999988079","survey-likert","306","701471","0.0-306.0","","","","","","","{""judgement"":1}","[0]","1"
"","1663.800000011921","survey-likert","307","703136","0.0-307.0","","","","","","","{""confidence"":2}","[0]",""
"","","call-function","308","703136","0.0-308.0","","","","","","","","",""
"","null","html-keyboard-response","309","706140","0.0-309.0","<span style=""color:Black; font-size:50px;"">Agent A","null","","","","","","",""
"","null","video-keyboard-response","310","709231","0.0-310.0","","null","","Agent A","scrambled","/Users/kirstenziman/Desktop/Desktop/DIDEC_entire_corpus/analysis_3/STIM_SET_1/0_713769.bmppp58_L1V1_freeview_scrambled.mp4","","",""
"","null","html-keyboard-response","311","712235","0.0-311.0","<span style=""color:Black; font-size:50px;"">Agent B","null","","","","","","",""
"","null","video-keyboard-response","312","715314","0.0-312.0","","null","","Agent B","veridical","/Users/kirstenziman/Desktop/Desktop/DIDEC_entire_corpus/analysis_3/STIM_SET_1/0_713769.bmppp58_L1V1_freeview_veridical.mp4","","",""
"","","call-function","313","715315","0.0-313.0","","","","","","","","",""
"","2695.2999999821186","survey-likert","314","718011","0.0-314.0","","","","","","","{""judgement"":1}","[0]","1"
"","1308.5999999940395","survey-likert","315","719320","0.0-315.0","","","","","","","{""confidence"":2}","[0]",""
"","","call-function","316","719321","0.0-316.0","","","","","","","","",""
"","null","html-keyboard-response","317","722325","0.0-317.0","<span style=""color:Black; font-size:50px;"">Agent A","null","","","","","","",""
"","null","video-keyboard-response","318","725384","0.0-318.0","","null","","Agent A","veridical","/Users/kirstenziman/Desktop/Desktop/DIDEC_entire_corpus/analysis_3/STIM_SET_1/0_713418.bmppp81_L1V1_freeview_veridical.mp4","","",""
"","null","html-keyboard-response","319","728388","0.0-319.0","<span style=""color:Black; font-size:50px;"">Agent B","null","","","","","","",""
"","null","video-keyboard-response","320","731445","0.0-320.0","","null","","Agent B","scrambled","/Users/kirstenziman/Desktop/Desktop/DIDEC_entire_corpus/analysis_3/STIM_SET_1/0_713418.bmppp81_L1V1_freeview_scrambled.mp4","","",""
"","","call-function","321","731446","0.0-321.0","","","","","","","","",""
"","3105.7000000178814","survey-likert","322","734552","0.0-322.0","","","","","","","{""judgement"":0}","[0]","0"
"","2673.699999988079","survey-likert","323","737226","0.0-323.0","","","","","","","{""confidence"":1}","[0]",""
"","","call-function","324","737227","0.0-324.0","","","","","","","","",""
"","null","html-keyboard-response","325","740228","0.0-325.0","<span style=""color:Black; font-size:50px;"">Agent A","null","","","","","","",""
"","null","video-keyboard-response","326","743323","0.0-326.0","","null","","Agent A","scrambled","/Users/kirstenziman/Desktop/Desktop/DIDEC_entire_corpus/analysis_3/STIM_SET_1/0_713760.bmppp75_L1V1_freeview_scrambled.mp4","","",""
"","null","html-keyboard-response","327","746329","0.0-327.0","<span style=""color:Black; font-size:50px;"">Agent B","null","","","","","","",""
"","null","video-keyboard-response","328","749443","0.0-328.0","","null","","Agent B","veridical","/Users/kirstenziman/Desktop/Desktop/DIDEC_entire_corpus/analysis_3/STIM_SET_1/0_713760.bmppp75_L1V1_freeview_veridical.mp4","","",""
"","","call-function","329","749443","0.0-329.0","","","","","","","","",""
"","3668.0999999940395","survey-likert","330","753112","0.0-330.0","","","","","","","{""judgement"":1}","[0]","1"
"","1849.4000000059605","survey-likert","331","754962","0.0-331.0","","","","","","","{""confidence"":0}","[0]",""
"[{""page_index"":0,""viewing_time"":37918.59999999404},{""page_index"":1,""viewing_time"":269},{""page_index"":2,""viewing_time"":630.1999999880791}]","38817.90000000596","instructions","332","793781","0.0-332.0","","","","","","","","",""
"[{""page_index"":0,""viewing_time"":225.80000001192093},{""page_index"":1,""viewing_time"":420.40000000596046},{""page_index"":2,""viewing_time"":533.1999999880791}]","1179.5","instructions","333","794961","0.0-333.0","","","","","","","","",""
"","","call-function","334","794961","0.0-334.0","","","","","","","","",""
"","null","html-keyboard-response","335","797966","0.0-335.0","<span style=""color:Black; font-size:50px;"">Agent A","null","","","","","","",""
"","null","video-keyboard-response","336","801066","0.0-336.0","","null","","Agent A","scrambled","/Users/kirstenziman/Desktop/Desktop/DIDEC_entire_corpus/analysis_3/STIM_SET_1/0_713920.bmppp76_L1V1_freeview_scrambled.mp4","","",""
"","null","html-keyboard-response","337","804067","0.0-337.0","<span style=""color:Black; font-size:50px;"">Agent B","null","","","","","","",""
"","null","video-keyboard-response","338","807150","0.0-338.0","","null","","Agent B","veridical","/Users/kirstenziman/Desktop/Desktop/DIDEC_entire_corpus/analysis_3/STIM_SET_1/0_713920.bmppp76_L1V1_freeview_veridical.mp4","","",""
"","","call-function","339","807150","0.0-339.0","","","","","","","","",""
"","2291.300000011921","survey-likert","340","809442","0.0-340.0","","","","","","","{""judgement"":0}","[0]","1"
"","1938.5999999940395","survey-likert","341","811381","0.0-341.0","","","","","","","{""confidence"":1}","[0]",""
"","","call-function","342","811381","0.0-342.0","","","","","","","","",""
"","null","html-keyboard-response","343","814382","0.0-343.0","<span style=""color:Black; font-size:50px;"">Agent A","null","","","","","","",""
"","null","video-keyboard-response","344","817481","0.0-344.0","","null","","Agent A","scrambled","/Users/kirstenziman/Desktop/Desktop/DIDEC_entire_corpus/analysis_3/STIM_SET_1/0_713371.bmppp93_L1V1_freeview_scrambled.mp4","","",""
"","null","html-keyboard-response","345","820484","0.0-345.0","<span style=""color:Black; font-size:50px;"">Agent B","null","","","","","","",""
"","null","video-keyboard-response","346","823575","0.0-346.0","","null","","Agent B","veridical","/Users/kirstenziman/Desktop/Desktop/DIDEC_entire_corpus/analysis_3/STIM_SET_1/0_713371.bmppp93_L1V1_freeview_veridical.mp4","","",""
"","","call-function","347","823576","0.0-347.0","","","","","","","","",""
"","2187.699999988079","survey-likert","348","825764","0.0-348.0","","","","","","","{""judgement"":1}","[0]","1"
"","2181.0999999940395","survey-likert","349","827946","0.0-349.0","","","","","","","{""confidence"":3}","[0]",""
"","","call-function","350","827946","0.0-350.0","","","","","","","","",""
"","null","html-keyboard-response","351","830951","0.0-351.0","<span style=""color:Black; font-size:50px;"">Agent A","null","","","","","","",""
"","null","video-keyboard-response","352","834044","0.0-352.0","","null","","Agent A","scrambled","/Users/kirstenziman/Desktop/Desktop/DIDEC_entire_corpus/analysis_3/STIM_SET_1/0_713652.bmppp71_L1V1_freeview_scrambled.mp4","","",""
"","null","html-keyboard-response","353","837045","0.0-353.0","<span style=""color:Black; font-size:50px;"">Agent B","null","","","","","","",""
"","null","video-keyboard-response","354","840145","0.0-354.0","","null","","Agent B","veridical","/Users/kirstenziman/Desktop/Desktop/DIDEC_entire_corpus/analysis_3/STIM_SET_1/0_713652.bmppp71_L1V1_freeview_veridical.mp4","","",""
"","","call-function","355","840145","0.0-355.0","","","","","","","","",""
"","3292","survey-likert","356","843438","0.0-356.0","","","","","","","{""judgement"":0}","[0]","1"
"","1897.7000000178814","survey-likert","357","845336","0.0-357.0","","","","","","","{""confidence"":1}","[0]",""
"","","call-function","358","845337","0.0-358.0","","","","","","","","",""
"","null","html-keyboard-response","359","848341","0.0-359.0","<span style=""color:Black; font-size:50px;"">Agent A","null","","","","","","",""
"","null","video-keyboard-response","360","851462","0.0-360.0","","null","","Agent A","scrambled","/Users/kirstenziman/Desktop/Desktop/DIDEC_entire_corpus/analysis_3/STIM_SET_1/0_1592025.bmppp57_L1V1_freeview_scrambled.mp4","","",""
"","null","html-keyboard-response","361","854462","0.0-361.0","<span style=""color:Black; font-size:50px;"">Agent B","null","","","","","","",""
"","null","video-keyboard-response","362","857545","0.0-362.0","","null","","Agent B","veridical","/Users/kirstenziman/Desktop/Desktop/DIDEC_entire_corpus/analysis_3/STIM_SET_1/0_1592025.bmppp57_L1V1_freeview_veridical.mp4","","",""
"","","call-function","363","857545","0.0-363.0","","","","","","","","",""
"","1665.2000000178814","survey-likert","364","859211","0.0-364.0","","","","","","","{""judgement"":1}","[0]","1"
"","5477.800000011921","survey-likert","365","864689","0.0-365.0","","","","","","","{""confidence"":2}","[0]",""
"","","call-function","366","864690","0.0-366.0","","","","","","","","",""
"","null","html-keyboard-response","367","867692","0.0-367.0","<span style=""color:Black; font-size:50px;"">Agent A","null","","","","","","",""
"","null","video-keyboard-response","368","870752","0.0-368.0","","null","","Agent A","scrambled","/Users/kirstenziman/Desktop/Desktop/DIDEC_entire_corpus/analysis_3/STIM_SET_1/0_285959.bmppp71_L1V1_freeview_scrambled.mp4","","",""
"","null","html-keyboard-response","369","873755","0.0-369.0","<span style=""color:Black; font-size:50px;"">Agent B","null","","","","","","",""
"","null","video-keyboard-response","370","876842","0.0-370.0","","null","","Agent B","veridical","/Users/kirstenziman/Desktop/Desktop/DIDEC_entire_corpus/analysis_3/STIM_SET_1/0_285959.bmppp71_L1V1_freeview_veridical.mp4","","",""
"","","call-function","371","876843","0.0-371.0","","","","","","","","",""
"","3098.5","survey-likert","372","879942","0.0-372.0","","","","","","","{""judgement"":1}","[0]","1"
"","1413.699999988079","survey-likert","373","881356","0.0-373.0","","","","","","","{""confidence"":1}","[0]",""
"","","call-function","374","881357","0.0-374.0","","","","","","","","",""
"","null","html-keyboard-response","375","884359","0.0-375.0","<span style=""color:Black; font-size:50px;"">Agent A","null","","","","","","",""
"","null","video-keyboard-response","376","887443","0.0-376.0","","null","","Agent A","scrambled","/Users/kirstenziman/Desktop/Desktop/DIDEC_entire_corpus/analysis_3/STIM_SET_1/0_497950.bmppp51_L1V1_freeview_scrambled.mp4","","",""
"","null","html-keyboard-response","377","890448","0.0-377.0","<span style=""color:Black; font-size:50px;"">Agent B","null","","","","","","",""
"","null","video-keyboard-response","378","893560","0.0-378.0","","null","","Agent B","veridical","/Users/kirstenziman/Desktop/Desktop/DIDEC_entire_corpus/analysis_3/STIM_SET_1/0_497950.bmppp51_L1V1_freeview_veridical.mp4","","",""
"","","call-function","379","893561","0.0-379.0","","","","","","","","",""
"","2007.5","survey-likert","380","895569","0.0-380.0","","","","","","","{""judgement"":0}","[0]","1"
"","2010.9000000059605","survey-likert","381","897581","0.0-381.0","","","","","","","{""confidence"":1}","[0]",""
"","","call-function","382","897581","0.0-382.0","","","","","","","","",""
"","null","html-keyboard-response","383","900584","0.0-383.0","<span style=""color:Black; font-size:50px;"">Agent A","null","","","","","","",""
"","null","video-keyboard-response","384","903674","0.0-384.0","","null","","Agent A","veridical","/Users/kirstenziman/Desktop/Desktop/DIDEC_entire_corpus/analysis_3/STIM_SET_1/0_1593056.bmppp51_L1V1_freeview_veridical.mp4","","",""
"","null","html-keyboard-response","385","906683","0.0-385.0","<span style=""color:Black; font-size:50px;"">Agent B","null","","","","","","",""
"","null","video-keyboard-response","386","909819","0.0-386.0","","null","","Agent B","scrambled","/Users/kirstenziman/Desktop/Desktop/DIDEC_entire_corpus/analysis_3/STIM_SET_1/0_1593056.bmppp51_L1V1_freeview_scrambled.mp4","","",""
"","","call-function","387","909819","0.0-387.0","","","","","","","","",""
"","2255.4000000059605","survey-likert","388","912075","0.0-388.0","","","","","","","{""judgement"":0}","[0]","0"
"","3537.7999999821186","survey-likert","389","915614","0.0-389.0","","","","","","","{""confidence"":2}","[0]",""
"","","call-function","390","915615","0.0-390.0","","","","","","","","",""
"","null","html-keyboard-response","391","918620","0.0-391.0","<span style=""color:Black; font-size:50px;"">Agent A","null","","","","","","",""
"","null","video-keyboard-response","392","921717","0.0-392.0","","null","","Agent A","scrambled","/Users/kirstenziman/Desktop/Desktop/DIDEC_entire_corpus/analysis_3/STIM_SET_1/0_713174.bmppp154_L1V1_freeview_scrambled.mp4","","",""
"","null","html-keyboard-response","393","924721","0.0-393.0","<span style=""color:Black; font-size:50px;"">Agent B","null","","","","","","",""
"","null","video-keyboard-response","394","927802","0.0-394.0","","null","","Agent B","veridical","/Users/kirstenziman/Desktop/Desktop/DIDEC_entire_corpus/analysis_3/STIM_SET_1/0_713174.bmppp154_L1V1_freeview_veridical.mp4","","",""
"","","call-function","395","927802","0.0-395.0","","","","","","","","",""
"","3744.2000000178814","survey-likert","396","931547","0.0-396.0","","","","","","","{""judgement"":0}","[0]","1"
"","2116.5","survey-likert","397","933664","0.0-397.0","","","","","","","{""confidence"":0}","[0]",""
"","","call-function","398","933665","0.0-398.0","","","","","","","","",""
"","null","html-keyboard-response","399","936668","0.0-399.0","<span style=""color:Black; font-size:50px;"">Agent A","null","","","","","","",""
"","null","video-keyboard-response","400","939800","0.0-400.0","","null","","Agent A","veridical","/Users/kirstenziman/Desktop/Desktop/DIDEC_entire_corpus/analysis_3/STIM_SET_1/0_285992.bmppp64_L1V1_freeview_veridical.mp4","","",""
"","null","html-keyboard-response","401","942805","0.0-401.0","<span style=""color:Black; font-size:50px;"">Agent B","null","","","","","","",""
"","null","video-keyboard-response","402","945932","0.0-402.0","","null","","Agent B","scrambled","/Users/kirstenziman/Desktop/Desktop/DIDEC_entire_corpus/analysis_3/STIM_SET_1/0_285992.bmppp64_L1V1_freeview_scrambled.mp4","","",""
"","","call-function","403","945932","0.0-403.0","","","","","","","","",""
"","1645.0999999940395","survey-likert","404","947578","0.0-404.0","","","","","","","{""judgement"":0}","[0]","0"
"","1897.2000000178814","survey-likert","405","949476","0.0-405.0","","","","","","","{""confidence"":2}","[0]",""
"","","call-function","406","949476","0.0-406.0","","","","","","","","",""
"","null","html-keyboard-response","407","952478","0.0-407.0","<span style=""color:Black; font-size:50px;"">Agent A","null","","","","","","",""
"","null","video-keyboard-response","408","955565","0.0-408.0","","null","","Agent A","scrambled","/Users/kirstenziman/Desktop/Desktop/DIDEC_entire_corpus/analysis_3/STIM_SET_1/0_1592286.bmppp57_L1V1_freeview_scrambled.mp4","","",""
"","null","html-keyboard-response","409","958567","0.0-409.0","<span style=""color:Black; font-size:50px;"">Agent B","null","","","","","","",""
"","null","video-keyboard-response","410","961688","0.0-410.0","","null","","Agent B","veridical","/Users/kirstenziman/Desktop/Desktop/DIDEC_entire_corpus/analysis_3/STIM_SET_1/0_1592286.bmppp57_L1V1_freeview_veridical.mp4","","",""
"","","call-function","411","961688","0.0-411.0","","","","","","","","",""
"","1793.4000000059605","survey-likert","412","963482","0.0-412.0","","","","","","","{""judgement"":1}","[0]","1"
"","1599","survey-likert","413","965082","0.0-413.0","","","","","","","{""confidence"":2}","[0]",""
"[{""page_index"":0,""viewing_time"":3489.7999999821186},{""page_index"":1,""viewing_time"":1365.6000000238419},{""page_index"":2,""viewing_time"":1858.699999988079}]","6714.299999982119","instructions","414","971797","0.0-414.0","","","","","","","","",""
"[{""page_index"":0,""viewing_time"":8113},{""page_index"":1,""viewing_time"":4338.9000000059605},{""page_index"":2,""viewing_time"":1066.5999999940395}]","13518.59999999404","instructions","415","985316","0.0-415.0","","","","","","","","",""
"","","call-function","416","985316","0.0-416.0","","","","","","","","",""
"","null","html-keyboard-response","417","988317","0.0-417.0","<span style=""color:Black; font-size:50px;"">Agent A","null","","","","","","",""
"","null","video-keyboard-response","418","991449","0.0-418.0","","null","","Agent A","scrambled","/Users/kirstenziman/Desktop/Desktop/DIDEC_entire_corpus/analysis_3/STIM_SET_1/0_285933.bmppp52_L1V1_freeview_scrambled.mp4","","",""
"","null","html-keyboard-response","419","994453","0.0-419.0","<span style=""color:Black; font-size:50px;"">Agent B","null","","","","","","",""
"","null","video-keyboard-response","420","997546","0.0-420.0","","null","","Agent B","veridical","/Users/kirstenziman/Desktop/Desktop/DIDEC_entire_corpus/analysis_3/STIM_SET_1/0_285933.bmppp52_L1V1_freeview_veridical.mp4","","",""
"","","call-function","421","997546","0.0-421.0","","","","","","","","",""
"","3605","survey-likert","422","1001152","0.0-422.0","","","","","","","{""judgement"":1}","[0]","1"
"","1583.199999988079","survey-likert","423","1002736","0.0-423.0","","","","","","","{""confidence"":0}","[0]",""
"","","call-function","424","1002737","0.0-424.0","","","","","","","","",""
"","null","html-keyboard-response","425","1005738","0.0-425.0","<span style=""color:Black; font-size:50px;"">Agent A","null","","","","","","",""
"","null","video-keyboard-response","426","1008823","0.0-426.0","","null","","Agent A","scrambled","/Users/kirstenziman/Desktop/Desktop/DIDEC_entire_corpus/analysis_3/STIM_SET_1/0_1160140.bmppp76_L1V1_freeview_scrambled.mp4","","",""
"","null","html-keyboard-response","427","1011828","0.0-427.0","<span style=""color:Black; font-size:50px;"">Agent B","null","","","","","","",""
"","null","video-keyboard-response","428","1014909","0.0-428.0","","null","","Agent B","veridical","/Users/kirstenziman/Desktop/Desktop/DIDEC_entire_corpus/analysis_3/STIM_SET_1/0_1160140.bmppp76_L1V1_freeview_veridical.mp4","","",""
"","","call-function","429","1014909","0.0-429.0","","","","","","","","",""
"","2996.800000011921","survey-likert","430","1017907","0.0-430.0","","","","","","","{""judgement"":1}","[0]","1"
"","1566.699999988079","survey-likert","431","1019474","0.0-431.0","","","","","","","{""confidence"":1}","[0]",""
"","","call-function","432","1019474","0.0-432.0","","","","","","","","",""
"","null","html-keyboard-response","433","1022480","0.0-433.0","<span style=""color:Black; font-size:50px;"">Agent A","null","","","","","","",""
"","null","video-keyboard-response","434","1025562","0.0-434.0","","null","","Agent A","scrambled","/Users/kirstenziman/Desktop/Desktop/DIDEC_entire_corpus/analysis_3/STIM_SET_1/0_1159463.bmppp63_L1V1_freeview_scrambled.mp4","","",""
"","null","html-keyboard-response","435","1028566","0.0-435.0","<span style=""color:Black; font-size:50px;"">Agent B","null","","","","","","",""
"","null","video-keyboard-response","436","1031649","0.0-436.0","","null","","Agent B","veridical","/Users/kirstenziman/Desktop/Desktop/DIDEC_entire_corpus/analysis_3/STIM_SET_1/0_1159463.bmppp63_L1V1_freeview_veridical.mp4","","",""
"","","call-function","437","1031650","0.0-437.0","","","","","","","","",""
"","2477","survey-likert","438","1034127","0.0-438.0","","","","","","","{""judgement"":1}","[0]","1"
"","1285.1000000238419","survey-likert","439","1035413","0.0-439.0","","","","","","","{""confidence"":1}","[0]",""
"","","call-function","440","1035414","0.0-440.0","","","","","","","","",""
"","null","html-keyboard-response","441","1038420","0.0-441.0","<span style=""color:Black; font-size:50px;"">Agent A","null","","","","","","",""
"","null","video-keyboard-response","442","1041549","0.0-442.0","","null","","Agent A","veridical","/Users/kirstenziman/Desktop/Desktop/DIDEC_entire_corpus/analysis_3/STIM_SET_1/0_1592119.bmppp63_L1V1_freeview_veridical.mp4","","",""
"","null","html-keyboard-response","443","1044552","0.0-443.0","<span style=""color:Black; font-size:50px;"">Agent B","null","","","","","","",""
"","null","video-keyboard-response","444","1047632","0.0-444.0","","null","","Agent B","scrambled","/Users/kirstenziman/Desktop/Desktop/DIDEC_entire_corpus/analysis_3/STIM_SET_1/0_1592119.bmppp63_L1V1_freeview_scrambled.mp4","","",""
"","","call-function","445","1047633","0.0-445.0","","","","","","","","",""
"","2378.800000011921","survey-likert","446","1050012","0.0-446.0","","","","","","","{""judgement"":0}","[0]","0"
"","1275.199999988079","survey-likert","447","1051288","0.0-447.0","","","","","","","{""confidence"":1}","[0]",""
"","","call-function","448","1051289","0.0-448.0","","","","","","","","",""
"","null","html-keyboard-response","449","1054292","0.0-449.0","<span style=""color:Black; font-size:50px;"">Agent A","null","","","","","","",""
"","null","video-keyboard-response","450","1057393","0.0-450.0","","null","","Agent A","scrambled","/Users/kirstenziman/Desktop/Desktop/DIDEC_entire_corpus/analysis_3/STIM_SET_1/0_1592017.bmppp64_L1V1_freeview_scrambled.mp4","","",""
"","null","html-keyboard-response","451","1060398","0.0-451.0","<span style=""color:Black; font-size:50px;"">Agent B","null","","","","","","",""
"","null","video-keyboard-response","452","1063495","0.0-452.0","","null","","Agent B","veridical","/Users/kirstenziman/Desktop/Desktop/DIDEC_entire_corpus/analysis_3/STIM_SET_1/0_1592017.bmppp64_L1V1_freeview_veridical.mp4","","",""
"","","call-function","453","1063495","0.0-453.0","","","","","","","","",""
"","1775.300000011921","survey-likert","454","1065271","0.0-454.0","","","","","","","{""judgement"":1}","[0]","1"
"","3029.4000000059605","survey-likert","455","1068301","0.0-455.0","","","","","","","{""confidence"":3}","[0]",""
"","","call-function","456","1068302","0.0-456.0","","","","","","","","",""
"","null","html-keyboard-response","457","1071305","0.0-457.0","<span style=""color:Black; font-size:50px;"">Agent A","null","","","","","","",""
"","null","video-keyboard-response","458","1074373","0.0-458.0","","null","","Agent A","veridical","/Users/kirstenziman/Desktop/Desktop/DIDEC_entire_corpus/analysis_3/STIM_SET_1/0_285932.bmppp151_L1V1_freeview_veridical.mp4","","",""
"","null","html-keyboard-response","459","1077374","0.0-459.0","<span style=""color:Black; font-size:50px;"">Agent B","null","","","","","","",""
"","null","video-keyboard-response","460","1080470","0.0-460.0","","null","","Agent B","scrambled","/Users/kirstenziman/Desktop/Desktop/DIDEC_entire_corpus/analysis_3/STIM_SET_1/0_285932.bmppp151_L1V1_freeview_scrambled.mp4","","",""
"","","call-function","461","1080470","0.0-461.0","","","","","","","","",""
"","1769.5","survey-likert","462","1082241","0.0-462.0","","","","","","","{""judgement"":0}","[0]","0"
"","1445.5999999940395","survey-likert","463","1083687","0.0-463.0","","","","","","","{""confidence"":2}","[0]",""
"","","call-function","464","1083687","0.0-464.0","","","","","","","","",""
"","null","html-keyboard-response","465","1086691","0.0-465.0","<span style=""color:Black; font-size:50px;"">Agent A","null","","","","","","",""
"","null","video-keyboard-response","466","1089768","0.0-466.0","","null","","Agent A","scrambled","/Users/kirstenziman/Desktop/Desktop/DIDEC_entire_corpus/analysis_3/STIM_SET_1/0_1592857.bmppp64_L1V1_freeview_scrambled.mp4","","",""
"","null","html-keyboard-response","467","1092773","0.0-467.0","<span style=""color:Black; font-size:50px;"">Agent B","null","","","","","","",""
"","null","video-keyboard-response","468","1095881","0.0-468.0","","null","","Agent B","veridical","/Users/kirstenziman/Desktop/Desktop/DIDEC_entire_corpus/analysis_3/STIM_SET_1/0_1592857.bmppp64_L1V1_freeview_veridical.mp4","","",""
"","","call-function","469","1095882","0.0-469.0","","","","","","","","",""
"","1759.1000000238419","survey-likert","470","1097641","0.0-470.0","","","","","","","{""judgement"":1}","[0]","1"
"","1914.0999999940395","survey-likert","471","1099556","0.0-471.0","","","","","","","{""confidence"":1}","[0]",""
"","","call-function","472","1099557","0.0-472.0","","","","","","","","",""
"","null","html-keyboard-response","473","1102560","0.0-473.0","<span style=""color:Black; font-size:50px;"">Agent A","null","","","","","","",""
"","null","video-keyboard-response","474","1106039","0.0-474.0","","null","","Agent A","veridical","/Users/kirstenziman/Desktop/Desktop/DIDEC_entire_corpus/analysis_3/STIM_SET_1/0_1592079.bmppp71_L1V1_freeview_veridical.mp4","","",""
"","null","html-keyboard-response","475","1109041","0.0-475.0","<span style=""color:Black; font-size:50px;"">Agent B","null","","","","","","",""
"","null","video-keyboard-response","476","1112148","0.0-476.0","","null","","Agent B","scrambled","/Users/kirstenziman/Desktop/Desktop/DIDEC_entire_corpus/analysis_3/STIM_SET_1/0_1592079.bmppp71_L1V1_freeview_scrambled.mp4","","",""
"","","call-function","477","1112148","0.0-477.0","","","","","","","","",""
"","2376.9000000059605","survey-likert","478","1114525","0.0-478.0","","","","","","","{""judgement"":1}","[0]","0"
"","2407","survey-likert","479","1116933","0.0-479.0","","","","","","","{""confidence"":0}","[0]",""
"","","call-function","480","1116934","0.0-480.0","","","","","","","","",""
"","null","html-keyboard-response","481","1119938","0.0-481.0","<span style=""color:Black; font-size:50px;"">Agent A","null","","","","","","",""
"","null","video-keyboard-response","482","1123026","0.0-482.0","","null","","Agent A","veridical","/Users/kirstenziman/Desktop/Desktop/DIDEC_entire_corpus/analysis_3/STIM_SET_1/0_285905.bmppp151_L1V1_freeview_veridical.mp4","","",""
"","null","html-keyboard-response","483","1126027","0.0-483.0","<span style=""color:Black; font-size:50px;"">Agent B","null","","","","","","",""
"","null","video-keyboard-response","484","1129116","0.0-484.0","","null","","Agent B","scrambled","/Users/kirstenziman/Desktop/Desktop/DIDEC_entire_corpus/analysis_3/STIM_SET_1/0_285905.bmppp151_L1V1_freeview_scrambled.mp4","","",""
"","","call-function","485","1129117","0.0-485.0","","","","","","","","",""
"","1874","survey-likert","486","1130992","0.0-486.0","","","","","","","{""judgement"":1}","[0]","0"
"","1704.5","survey-likert","487","1132697","0.0-487.0","","","","","","","{""confidence"":0}","[0]",""
"","","call-function","488","1132697","0.0-488.0","","","","","","","","",""
"","null","html-keyboard-response","489","1135700","0.0-489.0","<span style=""color:Black; font-size:50px;"">Agent A","null","","","","","","",""
"","null","video-keyboard-response","490","1138815","0.0-490.0","","null","","Agent A","scrambled","/Users/kirstenziman/Desktop/Desktop/DIDEC_entire_corpus/analysis_3/STIM_SET_1/0_1159318.bmppp98_L1V1_freeview_scrambled.mp4","","",""
"","null","html-keyboard-response","491","1141817","0.0-491.0","<span style=""color:Black; font-size:50px;"">Agent B","null","","","","","","",""
"","null","video-keyboard-response","492","1144899","0.0-492.0","","null","","Agent B","veridical","/Users/kirstenziman/Desktop/Desktop/DIDEC_entire_corpus/analysis_3/STIM_SET_1/0_1159318.bmppp98_L1V1_freeview_veridical.mp4","","",""
"","","call-function","493","1144899","0.0-493.0","","","","","","","","",""
"","1759.0999999940395","survey-likert","494","1146659","0.0-494.0","","","","","","","{""judgement"":1}","[0]","1"
"","1990.2999999821186","survey-likert","495","1148650","0.0-495.0","","","","","","","{""confidence"":2}","[0]",""
"[{""page_index"":0,""viewing_time"":15854.90000000596},{""page_index"":1,""viewing_time"":678.7999999821186},{""page_index"":2,""viewing_time"":606}]","17139.90000000596","instructions","496","1165791","0.0-496.0","","","","","","","","",""
"[{""page_index"":0,""viewing_time"":460},{""page_index"":1,""viewing_time"":492.80000001192093},{""page_index"":2,""viewing_time"":614.2999999821186}]","1567.4000000059605","instructions","497","1167359","0.0-497.0","","","","","","","","",""
"","","call-function","498","1167359","0.0-498.0","","","","","","","","",""
"","null","html-keyboard-response","499","1170361","0.0-499.0","<span style=""color:Black; font-size:50px;"">Agent A","null","","","","","","",""
"","null","video-keyboard-response","500","1173482","0.0-500.0","","null","","Agent A","veridical","/Users/kirstenziman/Desktop/Desktop/DIDEC_entire_corpus/analysis_3/STIM_SET_1/0_1592189.bmppp151_L1V1_freeview_veridical.mp4","","",""
"","null","html-keyboard-response","501","1176486","0.0-501.0","<span style=""color:Black; font-size:50px;"">Agent B","null","","","","","","",""
"","null","video-keyboard-response","502","1179582","0.0-502.0","","null","","Agent B","scrambled","/Users/kirstenziman/Desktop/Desktop/DIDEC_entire_corpus/analysis_3/STIM_SET_1/0_1592189.bmppp151_L1V1_freeview_scrambled.mp4","","",""
"","","call-function","503","1179583","0.0-503.0","","","","","","","","",""
"","1823.9000000059605","survey-likert","504","1181407","0.0-504.0","","","","","","","{""judgement"":0}","[0]","0"
"","2616.899999976158","survey-likert","505","1184025","0.0-505.0","","","","","","","{""confidence"":2}","[0]",""
"","","call-function","506","1184026","0.0-506.0","","","","","","","","",""
"","null","html-keyboard-response","507","1187028","0.0-507.0","<span style=""color:Black; font-size:50px;"">Agent A","null","","","","","","",""
"","null","video-keyboard-response","508","1190102","0.0-508.0","","null","","Agent A","scrambled","/Users/kirstenziman/Desktop/Desktop/DIDEC_entire_corpus/analysis_3/STIM_SET_1/0_1591838.bmppp154_L1V1_freeview_scrambled.mp4","","",""
"","null","html-keyboard-response","509","1193105","0.0-509.0","<span style=""color:Black; font-size:50px;"">Agent B","null","","","","","","",""
"","null","video-keyboard-response","510","1196190","0.0-510.0","","null","","Agent B","veridical","/Users/kirstenziman/Desktop/Desktop/DIDEC_entire_corpus/analysis_3/STIM_SET_1/0_1591838.bmppp154_L1V1_freeview_veridical.mp4","","",""
"","","call-function","511","1196190","0.0-511.0","","","","","","","","",""
"","2038.9000000059605","survey-likert","512","1198230","0.0-512.0","","","","","","","{""judgement"":1}","[0]","1"
"","1493.5999999940395","survey-likert","513","1199724","0.0-513.0","","","","","","","{""confidence"":1}","[0]",""
"","","call-function","514","1199725","0.0-514.0","","","","","","","","",""
"","null","html-keyboard-response","515","1202728","0.0-515.0","<span style=""color:Black; font-size:50px;"">Agent A","null","","","","","","",""
"","null","video-keyboard-response","516","1205808","0.0-516.0","","null","","Agent A","scrambled","/Users/kirstenziman/Desktop/Desktop/DIDEC_entire_corpus/analysis_3/STIM_SET_1/0_1159425.bmppp58_L1V1_freeview_scrambled.mp4","","",""
"","null","html-keyboard-response","517","1208808","0.0-517.0","<span style=""color:Black; font-size:50px;"">Agent B","null","","","","","","",""
"","null","video-keyboard-response","518","1211923","0.0-518.0","","null","","Agent B","veridical","/Users/kirstenziman/Desktop/Desktop/DIDEC_entire_corpus/analysis_3/STIM_SET_1/0_1159425.bmppp58_L1V1_freeview_veridical.mp4","","",""
"","","call-function","519","1211923","0.0-519.0","","","","","","","","",""
"","10164.5","survey-likert","520","1222089","0.0-520.0","","","","","","","{""judgement"":1}","[0]","1"
"","2447.699999988079","survey-likert","521","1224537","0.0-521.0","","","","","","","{""confidence"":2}","[0]",""
"","","call-function","522","1224538","0.0-522.0","","","","","","","","",""
"","null","html-keyboard-response","523","1227539","0.0-523.0","<span style=""color:Black; font-size:50px;"">Agent A","null","","","","","","",""
"","null","video-keyboard-response","524","1230676","0.0-524.0","","null","","Agent A","veridical","/Users/kirstenziman/Desktop/Desktop/DIDEC_entire_corpus/analysis_3/STIM_SET_1/0_1160062.bmppp71_L1V1_freeview_veridical.mp4","","",""
"","null","html-keyboard-response","525","1233678","0.0-525.0","<span style=""color:Black; font-size:50px;"">Agent B","null","","","","","","",""
"","null","video-keyboard-response","526","1236757","0.0-526.0","","null","","Agent B","scrambled","/Users/kirstenziman/Desktop/Desktop/DIDEC_entire_corpus/analysis_3/STIM_SET_1/0_1160062.bmppp71_L1V1_freeview_scrambled.mp4","","",""
"","","call-function","527","1236757","0.0-527.0","","","","","","","","",""
"","2468.5999999940395","survey-likert","528","1239227","0.0-528.0","","","","","","","{""judgement"":0}","[0]","0"
"","2358.4000000059605","survey-likert","529","1241586","0.0-529.0","","","","","","","{""confidence"":1}","[0]",""
"","","call-function","530","1241586","0.0-530.0","","","","","","","","",""
"","null","html-keyboard-response","531","1244592","0.0-531.0","<span style=""color:Black; font-size:50px;"">Agent A","null","","","","","","",""
"","null","video-keyboard-response","532","1247678","0.0-532.0","","null","","Agent A","scrambled","/Users/kirstenziman/Desktop/Desktop/DIDEC_entire_corpus/analysis_3/STIM_SET_1/0_150303.bmppp68_L1V1_freeview_scrambled.mp4","","",""
"","null","html-keyboard-response","533","1250681","0.0-533.0","<span style=""color:Black; font-size:50px;"">Agent B","null","","","","","","",""
"","null","video-keyboard-response","534","1253760","0.0-534.0","","null","","Agent B","veridical","/Users/kirstenziman/Desktop/Desktop/DIDEC_entire_corpus/analysis_3/STIM_SET_1/0_150303.bmppp68_L1V1_freeview_veridical.mp4","","",""
"","","call-function","535","1253761","0.0-535.0","","","","","","","","",""
"","1581.5","survey-likert","536","1255343","0.0-536.0","","","","","","","{""judgement"":1}","[0]","1"
"","1712.300000011921","survey-likert","537","1257056","0.0-537.0","","","","","","","{""confidence"":3}","[0]",""
"","","call-function","538","1257056","0.0-538.0","","","","","","","","",""
"","null","html-keyboard-response","539","1260059","0.0-539.0","<span style=""color:Black; font-size:50px;"">Agent A","null","","","","","","",""
"","null","video-keyboard-response","540","1263126","0.0-540.0","","null","","Agent A","veridical","/Users/kirstenziman/Desktop/Desktop/DIDEC_entire_corpus/analysis_3/STIM_SET_1/0_285851.bmppp64_L1V1_freeview_veridical.mp4","","",""
"","null","html-keyboard-response","541","1266129","0.0-541.0","<span style=""color:Black; font-size:50px;"">Agent B","null","","","","","","",""
"","null","video-keyboard-response","542","1269201","0.0-542.0","","null","","Agent B","scrambled","/Users/kirstenziman/Desktop/Desktop/DIDEC_entire_corpus/analysis_3/STIM_SET_1/0_285851.bmppp64_L1V1_freeview_scrambled.mp4","","",""
"","","call-function","543","1269201","0.0-543.0","","","","","","","","",""
"","1840.0999999940395","survey-likert","544","1271042","0.0-544.0","","","","","","","{""judgement"":0}","[0]","0"
"","2132.199999988079","survey-likert","545","1273175","0.0-545.0","","","","","","","{""confidence"":0}","[0]",""
"","","call-function","546","1273175","0.0-546.0","","","","","","","","",""
"","null","html-keyboard-response","547","1276178","0.0-547.0","<span style=""color:Black; font-size:50px;"">Agent A","null","","","","","","",""
"","null","video-keyboard-response","548","1279310","0.0-548.0","","null","","Agent A","scrambled","/Users/kirstenziman/Desktop/Desktop/DIDEC_entire_corpus/analysis_3/STIM_SET_1/0_713788.bmppp81_L1V1_freeview_scrambled.mp4","","",""
"","null","html-keyboard-response","549","1282314","0.0-549.0","<span style=""color:Black; font-size:50px;"">Agent B","null","","","","","","",""
"","null","video-keyboard-response","550","1285381","0.0-550.0","","null","","Agent B","veridical","/Users/kirstenziman/Desktop/Desktop/DIDEC_entire_corpus/analysis_3/STIM_SET_1/0_713788.bmppp81_L1V1_freeview_veridical.mp4","","",""
"","","call-function","551","1285381","0.0-551.0","","","","","","","","",""
"","2181.5999999940395","survey-likert","552","1287563","0.0-552.0","","","","","","","{""judgement"":0}","[0]","1"
"","1898.5999999940395","survey-likert","553","1289463","0.0-553.0","","","","","","","{""confidence"":1}","[0]",""
"","","call-function","554","1289463","0.0-554.0","","","","","","","","",""
"","null","html-keyboard-response","555","1292467","0.0-555.0","<span style=""color:Black; font-size:50px;"">Agent A","null","","","","","","",""
"","null","video-keyboard-response","556","1295573","0.0-556.0","","null","","Agent A","veridical","/Users/kirstenziman/Desktop/Desktop/DIDEC_entire_corpus/analysis_3/STIM_SET_1/0_107930.bmppp51_L1V1_freeview_veridical.mp4","","",""
"","null","html-keyboard-response","557","1298575","0.0-557.0","<span style=""color:Black; font-size:50px;"">Agent B","null","","","","","","",""
"","null","video-keyboard-response","558","1301659","0.0-558.0","","null","","Agent B","scrambled","/Users/kirstenziman/Desktop/Desktop/DIDEC_entire_corpus/analysis_3/STIM_SET_1/0_107930.bmppp51_L1V1_freeview_scrambled.mp4","","",""
"","","call-function","559","1301659","0.0-559.0","","","","","","","","",""
"","1586.5","survey-likert","560","1303246","0.0-560.0","","","","","","","{""judgement"":1}","[0]","0"
"","1567.300000011921","survey-likert","561","1304814","0.0-561.0","","","","","","","{""confidence"":2}","[0]",""
"","","call-function","562","1304815","0.0-562.0","","","","","","","","",""
"","null","html-keyboard-response","563","1307816","0.0-563.0","<span style=""color:Black; font-size:50px;"">Agent A","null","","","","","","",""
"","null","video-keyboard-response","564","1310894","0.0-564.0","","null","","Agent A","scrambled","/Users/kirstenziman/Desktop/Desktop/DIDEC_entire_corpus/analysis_3/STIM_SET_1/0_498280.bmppp81_L1V1_freeview_scrambled.mp4","","",""
"","null","html-keyboard-response","565","1313900","0.0-565.0","<span style=""color:Black; font-size:50px;"">Agent B","null","","","","","","",""
"","null","video-keyboard-response","566","1316993","0.0-566.0","","null","","Agent B","veridical","/Users/kirstenziman/Desktop/Desktop/DIDEC_entire_corpus/analysis_3/STIM_SET_1/0_498280.bmppp81_L1V1_freeview_veridical.mp4","","",""
"","","call-function","567","1316993","0.0-567.0","","","","","","","","",""
"","3029.5","survey-likert","568","1320023","0.0-568.0","","","","","","","{""judgement"":0}","[0]","1"
"","1623.4000000059605","survey-likert","569","1321647","0.0-569.0","","","","","","","{""confidence"":0}","[0]",""
"","","call-function","570","1321648","0.0-570.0","","","","","","","","",""
"","null","html-keyboard-response","571","1324651","0.0-571.0","<span style=""color:Black; font-size:50px;"">Agent A","null","","","","","","",""
"","null","video-keyboard-response","572","1327716","0.0-572.0","","null","","Agent A","scrambled","/Users/kirstenziman/Desktop/Desktop/DIDEC_entire_corpus/analysis_3/STIM_SET_1/0_1592530.bmppp89_L1V1_freeview_scrambled.mp4","","",""
"","null","html-keyboard-response","573","1330717","0.0-573.0","<span style=""color:Black; font-size:50px;"">Agent B","null","","","","","","",""
"","null","video-keyboard-response","574","1333784","0.0-574.0","","null","","Agent B","veridical","/Users/kirstenziman/Desktop/Desktop/DIDEC_entire_corpus/analysis_3/STIM_SET_1/0_1592530.bmppp89_L1V1_freeview_veridical.mp4","","",""
"","","call-function","575","1333784","0.0-575.0","","","","","","","","",""
"","2066.9000000059605","survey-likert","576","1335851","0.0-576.0","","","","","","","{""judgement"":1}","[0]","1"
"","2221.2999999821186","survey-likert","577","1338069","0.0-577.0","","","","","","","{""confidence"":2}","[0]",""
"[{""page_index"":0,""viewing_time"":3683.5}]","3683.800000011921","instructions","578","1341748","0.0-578.0","","","","","","","","",""
"","769.3999999761581","survey-text","579","1342532","0.0-579.0","","","","","","","{""Q0"":""""}","",""
"","515.7999999821186","survey-text","580","1343048","0.0-580.0","","","","","","","{""Q0"":""""}","",""
"","855.8000000119209","survey-text","581","1343904","0.0-581.0","","","","","","","{""Q0"":""""}","",""
"[{""page_index"":0,""viewing_time"":1049.5}]","1049.699999988079","instructions","582","1344953","0.0-582.0","","","","","","","","",""
