"view_history","rt","trial_type","trial_index","time_elapsed","internal_node_id","stimulus","key_press","value","agent","condition","image","responses","question_order","correct_answer"
"[{""page_index"":0,""viewing_time"":10135.899999976158}]","10137.199999988079","instructions","0","10143","0.0-0.0","","","","","","","","",""
"[{""page_index"":0,""viewing_time"":842.5},{""page_index"":1,""viewing_time"":5381.600000023842},{""page_index"":2,""viewing_time"":2718.699999988079}]","8943","instructions","1","19091","0.0-1.0","","","","","","","","",""
"[{""page_index"":0,""viewing_time"":2089.7999999821186}]","2090","instructions","2","21182","0.0-2.0","","","","","","","","",""
"","null","video-keyboard-response","3","24327","0.0-3.0","","null","","","","","","",""
"[{""page_index"":0,""viewing_time"":2710.5},{""page_index"":1,""viewing_time"":4884.300000011921},{""page_index"":2,""viewing_time"":3205.0999999940395},{""page_index"":3,""viewing_time"":3721.300000011921},{""page_index"":4,""viewing_time"":3989.2999999821186}]","18510.80000001192","instructions","4","42838","0.0-4.0","","","","","","","","",""
"[{""page_index"":0,""viewing_time"":5006.200000017881}]","5006.4000000059605","instructions","5","47846","0.0-5.0","","","","","","","","",""
"","","call-function","6","47847","0.0-6.0","","","","","","","","",""
"","null","html-keyboard-response","7","50855","0.0-7.0","<span style=""color:Black; font-size:50px;"">Agent A","null","","","","","","",""
"","null","video-keyboard-response","8","54006","0.0-8.0","","null","","Agent A","veridical","/Users/kirstenziman/Desktop/Desktop/DIDEC_entire_corpus/analysis_3/STIM_SET_1/0_713858.bmppp75_L1V1_freeview_veridical.mp4","","",""
"","null","html-keyboard-response","9","57010","0.0-9.0","<span style=""color:Black; font-size:50px;"">Agent B","null","","","","","","",""
"","null","video-keyboard-response","10","60187","0.0-10.0","","null","","Agent B","scrambled","/Users/kirstenziman/Desktop/Desktop/DIDEC_entire_corpus/analysis_3/STIM_SET_1/0_713858.bmppp75_L1V1_freeview_scrambled.mp4","","",""
"","","call-function","11","60188","0.0-11.0","","","","","","","","",""
"","4126.100000023842","survey-likert","12","64317","0.0-12.0","","","","","","","{""judgement"":0}","[0]","0"
"","1790.9000000059605","survey-likert","13","66110","0.0-13.0","","","","","","","{""confidence"":1}","[0]",""
"","","call-function","14","66111","0.0-14.0","","","","","","","","",""
"","null","html-keyboard-response","15","69115","0.0-15.0","<span style=""color:Black; font-size:50px;"">Agent A","null","","","","","","",""
"","null","video-keyboard-response","16","72419","0.0-16.0","","null","","Agent A","veridical","/Users/kirstenziman/Desktop/Desktop/DIDEC_entire_corpus/analysis_3/STIM_SET_1/0_713760.bmppp75_L1V1_freeview_veridical.mp4","","",""
"","null","html-keyboard-response","17","75422","0.0-17.0","<span style=""color:Black; font-size:50px;"">Agent B","null","","","","","","",""
"","null","video-keyboard-response","18","78658","0.0-18.0","","null","","Agent B","scrambled","/Users/kirstenziman/Desktop/Desktop/DIDEC_entire_corpus/analysis_3/STIM_SET_1/0_713760.bmppp75_L1V1_freeview_scrambled.mp4","","",""
"","","call-function","19","78659","0.0-19.0","","","","","","","","",""
"","2152.699999988079","survey-likert","20","80813","0.0-20.0","","","","","","","{""judgement"":0}","[0]","0"
"","2023.5999999940395","survey-likert","21","82839","0.0-21.0","","","","","","","{""confidence"":3}","[0]",""
"","","call-function","22","82840","0.0-22.0","","","","","","","","",""
"","null","html-keyboard-response","23","85843","0.0-23.0","<span style=""color:Black; font-size:50px;"">Agent A","null","","","","","","",""
"","null","video-keyboard-response","24","89252","0.0-24.0","","null","","Agent A","veridical","/Users/kirstenziman/Desktop/Desktop/DIDEC_entire_corpus/analysis_3/STIM_SET_1/0_1159353.bmppp151_L1V1_freeview_veridical.mp4","","",""
"","null","html-keyboard-response","25","92256","0.0-25.0","<span style=""color:Black; font-size:50px;"">Agent B","null","","","","","","",""
"","null","video-keyboard-response","26","95619","0.0-26.0","","null","","Agent B","scrambled","/Users/kirstenziman/Desktop/Desktop/DIDEC_entire_corpus/analysis_3/STIM_SET_1/0_1159353.bmppp151_L1V1_freeview_scrambled.mp4","","",""
"","","call-function","27","95619","0.0-27.0","","","","","","","","",""
"","2663.5","survey-likert","28","98285","0.0-28.0","","","","","","","{""judgement"":1}","[0]","0"
"","1865.4000000059605","survey-likert","29","100151","0.0-29.0","","","","","","","{""confidence"":1}","[0]",""
"","","call-function","30","100152","0.0-30.0","","","","","","","","",""
"","null","html-keyboard-response","31","103153","0.0-31.0","<span style=""color:Black; font-size:50px;"">Agent A","null","","","","","","",""
"","null","video-keyboard-response","32","106344","0.0-32.0","","null","","Agent A","veridical","/Users/kirstenziman/Desktop/Desktop/DIDEC_entire_corpus/analysis_3/STIM_SET_1/0_1159318.bmppp98_L1V1_freeview_veridical.mp4","","",""
"","null","html-keyboard-response","33","109346","0.0-33.0","<span style=""color:Black; font-size:50px;"">Agent B","null","","","","","","",""
"","null","video-keyboard-response","34","112606","0.0-34.0","","null","","Agent B","scrambled","/Users/kirstenziman/Desktop/Desktop/DIDEC_entire_corpus/analysis_3/STIM_SET_1/0_1159318.bmppp98_L1V1_freeview_scrambled.mp4","","",""
"","","call-function","35","112606","0.0-35.0","","","","","","","","",""
"","3001.5999999940395","survey-likert","36","115609","0.0-36.0","","","","","","","{""judgement"":1}","[0]","0"
"","1380","survey-likert","37","116990","0.0-37.0","","","","","","","{""confidence"":2}","[0]",""
"","","call-function","38","116990","0.0-38.0","","","","","","","","",""
"","null","html-keyboard-response","39","119993","0.0-39.0","<span style=""color:Black; font-size:50px;"">Agent A","null","","","","","","",""
"","null","video-keyboard-response","40","123291","0.0-40.0","","null","","Agent A","veridical","/Users/kirstenziman/Desktop/Desktop/DIDEC_entire_corpus/analysis_3/STIM_SET_1/0_285932.bmppp151_L1V1_freeview_veridical.mp4","","",""
"","null","html-keyboard-response","41","126297","0.0-41.0","<span style=""color:Black; font-size:50px;"">Agent B","null","","","","","","",""
"","null","video-keyboard-response","42","129443","0.0-42.0","","null","","Agent B","scrambled","/Users/kirstenziman/Desktop/Desktop/DIDEC_entire_corpus/analysis_3/STIM_SET_1/0_285932.bmppp151_L1V1_freeview_scrambled.mp4","","",""
"","","call-function","43","129444","0.0-43.0","","","","","","","","",""
"","3074.4000000059605","survey-likert","44","132520","0.0-44.0","","","","","","","{""judgement"":1}","[0]","0"
"","1364.3999999761581","survey-likert","45","133885","0.0-45.0","","","","","","","{""confidence"":2}","[0]",""
"","","call-function","46","133886","0.0-46.0","","","","","","","","",""
"","null","html-keyboard-response","47","136890","0.0-47.0","<span style=""color:Black; font-size:50px;"">Agent A","null","","","","","","",""
"","null","video-keyboard-response","48","140086","0.0-48.0","","null","","Agent A","veridical","/Users/kirstenziman/Desktop/Desktop/DIDEC_entire_corpus/analysis_3/STIM_SET_1/0_1159819.bmppp52_L1V1_freeview_veridical.mp4","","",""
"","null","html-keyboard-response","49","143090","0.0-49.0","<span style=""color:Black; font-size:50px;"">Agent B","null","","","","","","",""
"","null","video-keyboard-response","50","146497","0.0-50.0","","null","","Agent B","scrambled","/Users/kirstenziman/Desktop/Desktop/DIDEC_entire_corpus/analysis_3/STIM_SET_1/0_1159819.bmppp52_L1V1_freeview_scrambled.mp4","","",""
"","","call-function","51","146497","0.0-51.0","","","","","","","","",""
"","2605.2999999821186","survey-likert","52","149104","0.0-52.0","","","","","","","{""judgement"":1}","[0]","0"
"","1762","survey-likert","53","150867","0.0-53.0","","","","","","","{""confidence"":3}","[0]",""
"","","call-function","54","150868","0.0-54.0","","","","","","","","",""
"","null","html-keyboard-response","55","153870","0.0-55.0","<span style=""color:Black; font-size:50px;"">Agent A","null","","","","","","",""
"","null","video-keyboard-response","56","157056","0.0-56.0","","null","","Agent A","scrambled","/Users/kirstenziman/Desktop/Desktop/DIDEC_entire_corpus/analysis_3/STIM_SET_1/0_285851.bmppp64_L1V1_freeview_scrambled.mp4","","",""
"","null","html-keyboard-response","57","160060","0.0-57.0","<span style=""color:Black; font-size:50px;"">Agent B","null","","","","","","",""
"","null","video-keyboard-response","58","163206","0.0-58.0","","null","","Agent B","veridical","/Users/kirstenziman/Desktop/Desktop/DIDEC_entire_corpus/analysis_3/STIM_SET_1/0_285851.bmppp64_L1V1_freeview_veridical.mp4","","",""
"","","call-function","59","163207","0.0-59.0","","","","","","","","",""
"","2533.699999988079","survey-likert","60","165742","0.0-60.0","","","","","","","{""judgement"":0}","[0]","1"
"","1859.4000000059605","survey-likert","61","167602","0.0-61.0","","","","","","","{""confidence"":1}","[0]",""
"","","call-function","62","167603","0.0-62.0","","","","","","","","",""
"","null","html-keyboard-response","63","170606","0.0-63.0","<span style=""color:Black; font-size:50px;"">Agent A","null","","","","","","",""
"","null","video-keyboard-response","64","173741","0.0-64.0","","null","","Agent A","scrambled","/Users/kirstenziman/Desktop/Desktop/DIDEC_entire_corpus/analysis_3/STIM_SET_1/0_1592530.bmppp89_L1V1_freeview_scrambled.mp4","","",""
"","null","html-keyboard-response","65","176743","0.0-65.0","<span style=""color:Black; font-size:50px;"">Agent B","null","","","","","","",""
"","null","video-keyboard-response","66","179850","0.0-66.0","","null","","Agent B","veridical","/Users/kirstenziman/Desktop/Desktop/DIDEC_entire_corpus/analysis_3/STIM_SET_1/0_1592530.bmppp89_L1V1_freeview_veridical.mp4","","",""
"","","call-function","67","179850","0.0-67.0","","","","","","","","",""
"","3395.5","survey-likert","68","183246","0.0-68.0","","","","","","","{""judgement"":0}","[0]","1"
"","2372.0999999940395","survey-likert","69","185619","0.0-69.0","","","","","","","{""confidence"":0}","[0]",""
"","","call-function","70","185619","0.0-70.0","","","","","","","","",""
"","null","html-keyboard-response","71","188621","0.0-71.0","<span style=""color:Black; font-size:50px;"">Agent A","null","","","","","","",""
"","null","video-keyboard-response","72","191835","0.0-72.0","","null","","Agent A","scrambled","/Users/kirstenziman/Desktop/Desktop/DIDEC_entire_corpus/analysis_3/STIM_SET_1/0_1159463.bmppp63_L1V1_freeview_scrambled.mp4","","",""
"","null","html-keyboard-response","73","194840","0.0-73.0","<span style=""color:Black; font-size:50px;"">Agent B","null","","","","","","",""
"","null","video-keyboard-response","74","197984","0.0-74.0","","null","","Agent B","veridical","/Users/kirstenziman/Desktop/Desktop/DIDEC_entire_corpus/analysis_3/STIM_SET_1/0_1159463.bmppp63_L1V1_freeview_veridical.mp4","","",""
"","","call-function","75","197984","0.0-75.0","","","","","","","","",""
"","3528.5","survey-likert","76","201513","0.0-76.0","","","","","","","{""judgement"":0}","[0]","1"
"","2093.0999999940395","survey-likert","77","203607","0.0-77.0","","","","","","","{""confidence"":2}","[0]",""
"","","call-function","78","203608","0.0-78.0","","","","","","","","",""
"","null","html-keyboard-response","79","206611","0.0-79.0","<span style=""color:Black; font-size:50px;"">Agent A","null","","","","","","",""
"","null","video-keyboard-response","80","209891","0.0-80.0","","null","","Agent A","veridical","/Users/kirstenziman/Desktop/Desktop/DIDEC_entire_corpus/analysis_3/STIM_SET_1/0_1159425.bmppp58_L1V1_freeview_veridical.mp4","","",""
"","null","html-keyboard-response","81","212895","0.0-81.0","<span style=""color:Black; font-size:50px;"">Agent B","null","","","","","","",""
"","null","video-keyboard-response","82","216075","0.0-82.0","","null","","Agent B","scrambled","/Users/kirstenziman/Desktop/Desktop/DIDEC_entire_corpus/analysis_3/STIM_SET_1/0_1159425.bmppp58_L1V1_freeview_scrambled.mp4","","",""
"","","call-function","83","216075","0.0-83.0","","","","","","","","",""
"","2920.0999999940395","survey-likert","84","218996","0.0-84.0","","","","","","","{""judgement"":1}","[0]","0"
"","1365.699999988079","survey-likert","85","220364","0.0-85.0","","","","","","","{""confidence"":1}","[0]",""
"[{""page_index"":0,""viewing_time"":31981.70000001788},{""page_index"":1,""viewing_time"":760.2999999821186},{""page_index"":2,""viewing_time"":637.3000000119209}]","33379.5","instructions","86","253745","0.0-86.0","","","","","","","","",""
"[{""page_index"":0,""viewing_time"":575.5},{""page_index"":1,""viewing_time"":752.7999999821186},{""page_index"":2,""viewing_time"":621.9000000059605}]","1950.699999988079","instructions","87","255697","0.0-87.0","","","","","","","","",""
"","","call-function","88","255698","0.0-88.0","","","","","","","","",""
"","null","html-keyboard-response","89","258703","0.0-89.0","<span style=""color:Black; font-size:50px;"">Agent A","null","","","","","","",""
"","null","video-keyboard-response","90","261908","0.0-90.0","","null","","Agent A","veridical","/Users/kirstenziman/Desktop/Desktop/DIDEC_entire_corpus/analysis_3/STIM_SET_1/0_1592189.bmppp151_L1V1_freeview_veridical.mp4","","",""
"","null","html-keyboard-response","91","264910","0.0-91.0","<span style=""color:Black; font-size:50px;"">Agent B","null","","","","","","",""
"","null","video-keyboard-response","92","268043","0.0-92.0","","null","","Agent B","scrambled","/Users/kirstenziman/Desktop/Desktop/DIDEC_entire_corpus/analysis_3/STIM_SET_1/0_1592189.bmppp151_L1V1_freeview_scrambled.mp4","","",""
"","","call-function","93","268043","0.0-93.0","","","","","","","","",""
"","2215.4000000059605","survey-likert","94","270259","0.0-94.0","","","","","","","{""judgement"":1}","[0]","0"
"","1845.0999999940395","survey-likert","95","272106","0.0-95.0","","","","","","","{""confidence"":2}","[0]",""
"","","call-function","96","272106","0.0-96.0","","","","","","","","",""
"","null","html-keyboard-response","97","275110","0.0-97.0","<span style=""color:Black; font-size:50px;"">Agent A","null","","","","","","",""
"","null","video-keyboard-response","98","278280","0.0-98.0","","null","","Agent A","veridical","/Users/kirstenziman/Desktop/Desktop/DIDEC_entire_corpus/analysis_3/STIM_SET_1/0_1592017.bmppp64_L1V1_freeview_veridical.mp4","","",""
"","null","html-keyboard-response","99","281285","0.0-99.0","<span style=""color:Black; font-size:50px;"">Agent B","null","","","","","","",""
"","null","video-keyboard-response","100","284444","0.0-100.0","","null","","Agent B","scrambled","/Users/kirstenziman/Desktop/Desktop/DIDEC_entire_corpus/analysis_3/STIM_SET_1/0_1592017.bmppp64_L1V1_freeview_scrambled.mp4","","",""
"","","call-function","101","284444","0.0-101.0","","","","","","","","",""
"","4547.199999988079","survey-likert","102","288992","0.0-102.0","","","","","","","{""judgement"":1}","[0]","0"
"","1447.9000000059605","survey-likert","103","290446","0.0-103.0","","","","","","","{""confidence"":1}","[0]",""
"","","call-function","104","290446","0.0-104.0","","","","","","","","",""
"","null","html-keyboard-response","105","293452","0.0-105.0","<span style=""color:Black; font-size:50px;"">Agent A","null","","","","","","",""
"","null","video-keyboard-response","106","296765","0.0-106.0","","null","","Agent A","veridical","/Users/kirstenziman/Desktop/Desktop/DIDEC_entire_corpus/analysis_3/STIM_SET_1/0_713371.bmppp93_L1V1_freeview_veridical.mp4","","",""
"","null","html-keyboard-response","107","299768","0.0-107.0","<span style=""color:Black; font-size:50px;"">Agent B","null","","","","","","",""
"","null","video-keyboard-response","108","303315","0.0-108.0","","null","","Agent B","scrambled","/Users/kirstenziman/Desktop/Desktop/DIDEC_entire_corpus/analysis_3/STIM_SET_1/0_713371.bmppp93_L1V1_freeview_scrambled.mp4","","",""
"","","call-function","109","303316","0.0-109.0","","","","","","","","",""
"","2163.100000023842","survey-likert","110","305489","0.0-110.0","","","","","","","{""judgement"":0}","[0]","0"
"","1289.0999999940395","survey-likert","111","306780","0.0-111.0","","","","","","","{""confidence"":1}","[0]",""
"","","call-function","112","306782","0.0-112.0","","","","","","","","",""
"","null","html-keyboard-response","113","309787","0.0-113.0","<span style=""color:Black; font-size:50px;"">Agent A","null","","","","","","",""
"","null","video-keyboard-response","114","312931","0.0-114.0","","null","","Agent A","scrambled","/Users/kirstenziman/Desktop/Desktop/DIDEC_entire_corpus/analysis_3/STIM_SET_1/0_1592874.bmppp64_L1V1_freeview_scrambled.mp4","","",""
"","null","html-keyboard-response","115","315934","0.0-115.0","<span style=""color:Black; font-size:50px;"">Agent B","null","","","","","","",""
"","null","video-keyboard-response","116","319104","0.0-116.0","","null","","Agent B","veridical","/Users/kirstenziman/Desktop/Desktop/DIDEC_entire_corpus/analysis_3/STIM_SET_1/0_1592874.bmppp64_L1V1_freeview_veridical.mp4","","",""
"","","call-function","117","319105","0.0-117.0","","","","","","","","",""
"","4832.4000000059605","survey-likert","118","323938","0.0-118.0","","","","","","","{""judgement"":0}","[0]","1"
"","1735.9000000059605","survey-likert","119","325674","0.0-119.0","","","","","","","{""confidence"":1}","[0]",""
"","","call-function","120","325675","0.0-120.0","","","","","","","","",""
"","null","html-keyboard-response","121","328679","0.0-121.0","<span style=""color:Black; font-size:50px;"">Agent A","null","","","","","","",""
"","null","video-keyboard-response","122","331868","0.0-122.0","","null","","Agent A","scrambled","/Users/kirstenziman/Desktop/Desktop/DIDEC_entire_corpus/analysis_3/STIM_SET_1/0_1592233.bmppp58_L1V1_freeview_scrambled.mp4","","",""
"","null","html-keyboard-response","123","334870","0.0-123.0","<span style=""color:Black; font-size:50px;"">Agent B","null","","","","","","",""
"","null","video-keyboard-response","124","338101","0.0-124.0","","null","","Agent B","veridical","/Users/kirstenziman/Desktop/Desktop/DIDEC_entire_corpus/analysis_3/STIM_SET_1/0_1592233.bmppp58_L1V1_freeview_veridical.mp4","","",""
"","","call-function","125","338102","0.0-125.0","","","","","","","","",""
"","2411.5999999940395","survey-likert","126","340514","0.0-126.0","","","","","","","{""judgement"":0}","[0]","1"
"","1669.800000011921","survey-likert","127","342186","0.0-127.0","","","","","","","{""confidence"":1}","[0]",""
"","","call-function","128","342186","0.0-128.0","","","","","","","","",""
"","null","html-keyboard-response","129","345192","0.0-129.0","<span style=""color:Black; font-size:50px;"">Agent A","null","","","","","","",""
"","null","video-keyboard-response","130","348387","0.0-130.0","","null","","Agent A","veridical","/Users/kirstenziman/Desktop/Desktop/DIDEC_entire_corpus/analysis_3/STIM_SET_1/0_285807.bmppp51_L1V1_freeview_veridical.mp4","","",""
"","null","html-keyboard-response","131","351392","0.0-131.0","<span style=""color:Black; font-size:50px;"">Agent B","null","","","","","","",""
"","null","video-keyboard-response","132","354527","0.0-132.0","","null","","Agent B","scrambled","/Users/kirstenziman/Desktop/Desktop/DIDEC_entire_corpus/analysis_3/STIM_SET_1/0_285807.bmppp51_L1V1_freeview_scrambled.mp4","","",""
"","","call-function","133","354527","0.0-133.0","","","","","","","","",""
"","3911.9000000059605","survey-likert","134","358439","0.0-134.0","","","","","","","{""judgement"":1}","[0]","0"
"","2182.9000000059605","survey-likert","135","360624","0.0-135.0","","","","","","","{""confidence"":1}","[0]",""
"","","call-function","136","360624","0.0-136.0","","","","","","","","",""
"","null","html-keyboard-response","137","363628","0.0-137.0","<span style=""color:Black; font-size:50px;"">Agent A","null","","","","","","",""
"","null","video-keyboard-response","138","366862","0.0-138.0","","null","","Agent A","veridical","/Users/kirstenziman/Desktop/Desktop/DIDEC_entire_corpus/analysis_3/STIM_SET_1/0_713936.bmppp76_L1V1_freeview_veridical.mp4","","",""
"","null","html-keyboard-response","139","369866","0.0-139.0","<span style=""color:Black; font-size:50px;"">Agent B","null","","","","","","",""
"","null","video-keyboard-response","140","372994","0.0-140.0","","null","","Agent B","scrambled","/Users/kirstenziman/Desktop/Desktop/DIDEC_entire_corpus/analysis_3/STIM_SET_1/0_713936.bmppp76_L1V1_freeview_scrambled.mp4","","",""
"","","call-function","141","372994","0.0-141.0","","","","","","","","",""
"","4045.4000000059605","survey-likert","142","377040","0.0-142.0","","","","","","","{""judgement"":1}","[0]","0"
"","1545.9000000059605","survey-likert","143","378587","0.0-143.0","","","","","","","{""confidence"":1}","[0]",""
"","","call-function","144","378588","0.0-144.0","","","","","","","","",""
"","null","html-keyboard-response","145","381593","0.0-145.0","<span style=""color:Black; font-size:50px;"">Agent A","null","","","","","","",""
"","null","video-keyboard-response","146","384783","0.0-146.0","","null","","Agent A","scrambled","/Users/kirstenziman/Desktop/Desktop/DIDEC_entire_corpus/analysis_3/STIM_SET_1/0_713228.bmppp51_L1V1_freeview_scrambled.mp4","","",""
"","null","html-keyboard-response","147","387788","0.0-147.0","<span style=""color:Black; font-size:50px;"">Agent B","null","","","","","","",""
"","null","video-keyboard-response","148","390963","0.0-148.0","","null","","Agent B","veridical","/Users/kirstenziman/Desktop/Desktop/DIDEC_entire_corpus/analysis_3/STIM_SET_1/0_713228.bmppp51_L1V1_freeview_veridical.mp4","","",""
"","","call-function","149","390963","0.0-149.0","","","","","","","","",""
"","3516.300000011921","survey-likert","150","394481","0.0-150.0","","","","","","","{""judgement"":1}","[0]","1"
"","1787.4000000059605","survey-likert","151","396271","0.0-151.0","","","","","","","{""confidence"":2}","[0]",""
"","","call-function","152","396272","0.0-152.0","","","","","","","","",""
"","null","html-keyboard-response","153","399277","0.0-153.0","<span style=""color:Black; font-size:50px;"">Agent A","null","","","","","","",""
"","null","video-keyboard-response","154","402443","0.0-154.0","","null","","Agent A","scrambled","/Users/kirstenziman/Desktop/Desktop/DIDEC_entire_corpus/analysis_3/STIM_SET_1/0_1592025.bmppp57_L1V1_freeview_scrambled.mp4","","",""
"","null","html-keyboard-response","155","405448","0.0-155.0","<span style=""color:Black; font-size:50px;"">Agent B","null","","","","","","",""
"","null","video-keyboard-response","156","408627","0.0-156.0","","null","","Agent B","veridical","/Users/kirstenziman/Desktop/Desktop/DIDEC_entire_corpus/analysis_3/STIM_SET_1/0_1592025.bmppp57_L1V1_freeview_veridical.mp4","","",""
"","","call-function","157","408628","0.0-157.0","","","","","","","","",""
"","3838","survey-likert","158","412466","0.0-158.0","","","","","","","{""judgement"":0}","[0]","1"
"","1355.199999988079","survey-likert","159","413823","0.0-159.0","","","","","","","{""confidence"":1}","[0]",""
"","","call-function","160","413823","0.0-160.0","","","","","","","","",""
"","null","html-keyboard-response","161","416828","0.0-161.0","<span style=""color:Black; font-size:50px;"">Agent A","null","","","","","","",""
"","null","video-keyboard-response","162","420028","0.0-162.0","","null","","Agent A","veridical","/Users/kirstenziman/Desktop/Desktop/DIDEC_entire_corpus/analysis_3/STIM_SET_1/0_1592836.bmppp68_L1V1_freeview_veridical.mp4","","",""
"","null","html-keyboard-response","163","423031","0.0-163.0","<span style=""color:Black; font-size:50px;"">Agent B","null","","","","","","",""
"","null","video-keyboard-response","164","426370","0.0-164.0","","null","","Agent B","scrambled","/Users/kirstenziman/Desktop/Desktop/DIDEC_entire_corpus/analysis_3/STIM_SET_1/0_1592836.bmppp68_L1V1_freeview_scrambled.mp4","","",""
"","","call-function","165","426371","0.0-165.0","","","","","","","","",""
"","3647.2999999821186","survey-likert","166","430019","0.0-166.0","","","","","","","{""judgement"":1}","[0]","0"
"","1478.9000000059605","survey-likert","167","431499","0.0-167.0","","","","","","","{""confidence"":1}","[0]",""
"[{""page_index"":0,""viewing_time"":103576.59999999404},{""page_index"":1,""viewing_time"":1101.7000000178814},{""page_index"":2,""viewing_time"":611.0999999940395}]","105289.59999999404","instructions","168","536790","0.0-168.0","","","","","","","","",""
"[{""page_index"":0,""viewing_time"":592.6999999880791},{""page_index"":1,""viewing_time"":671.9000000059605},{""page_index"":2,""viewing_time"":693.6999999880791}]","1958.699999988079","instructions","169","538749","0.0-169.0","","","","","","","","",""
"","","call-function","170","538750","0.0-170.0","","","","","","","","",""
"","null","html-keyboard-response","171","541755","0.0-171.0","<span style=""color:Black; font-size:50px;"">Agent A","null","","","","","","",""
"","null","video-keyboard-response","172","544890","0.0-172.0","","null","","Agent A","veridical","/Users/kirstenziman/Desktop/Desktop/DIDEC_entire_corpus/analysis_3/STIM_SET_1/0_1593056.bmppp51_L1V1_freeview_veridical.mp4","","",""
"","null","html-keyboard-response","173","547894","0.0-173.0","<span style=""color:Black; font-size:50px;"">Agent B","null","","","","","","",""
"","null","video-keyboard-response","174","551040","0.0-174.0","","null","","Agent B","scrambled","/Users/kirstenziman/Desktop/Desktop/DIDEC_entire_corpus/analysis_3/STIM_SET_1/0_1593056.bmppp51_L1V1_freeview_scrambled.mp4","","",""
"","","call-function","175","551040","0.0-175.0","","","","","","","","",""
"","3260.399999976158","survey-likert","176","554301","0.0-176.0","","","","","","","{""judgement"":0}","[0]","0"
"","1521.5999999940395","survey-likert","177","555824","0.0-177.0","","","","","","","{""confidence"":3}","[0]",""
"","","call-function","178","555825","0.0-178.0","","","","","","","","",""
"","null","html-keyboard-response","179","558827","0.0-179.0","<span style=""color:Black; font-size:50px;"">Agent A","null","","","","","","",""
"","null","video-keyboard-response","180","562011","0.0-180.0","","null","","Agent A","veridical","/Users/kirstenziman/Desktop/Desktop/DIDEC_entire_corpus/analysis_3/STIM_SET_1/0_713888.bmppp68_L1V1_freeview_veridical.mp4","","",""
"","null","html-keyboard-response","181","565016","0.0-181.0","<span style=""color:Black; font-size:50px;"">Agent B","null","","","","","","",""
"","null","video-keyboard-response","182","568369","0.0-182.0","","null","","Agent B","scrambled","/Users/kirstenziman/Desktop/Desktop/DIDEC_entire_corpus/analysis_3/STIM_SET_1/0_713888.bmppp68_L1V1_freeview_scrambled.mp4","","",""
"","","call-function","183","568369","0.0-183.0","","","","","","","","",""
"","2900.9000000059605","survey-likert","184","571271","0.0-184.0","","","","","","","{""judgement"":1}","[0]","0"
"","1825.3999999761581","survey-likert","185","573099","0.0-185.0","","","","","","","{""confidence"":3}","[0]",""
"","","call-function","186","573099","0.0-186.0","","","","","","","","",""
"","null","html-keyboard-response","187","576103","0.0-187.0","<span style=""color:Black; font-size:50px;"">Agent A","null","","","","","","",""
"","null","video-keyboard-response","188","579372","0.0-188.0","","null","","Agent A","scrambled","/Users/kirstenziman/Desktop/Desktop/DIDEC_entire_corpus/analysis_3/STIM_SET_1/0_713174.bmppp154_L1V1_freeview_scrambled.mp4","","",""
"","null","html-keyboard-response","189","582377","0.0-189.0","<span style=""color:Black; font-size:50px;"">Agent B","null","","","","","","",""
"","null","video-keyboard-response","190","585637","0.0-190.0","","null","","Agent B","veridical","/Users/kirstenziman/Desktop/Desktop/DIDEC_entire_corpus/analysis_3/STIM_SET_1/0_713174.bmppp154_L1V1_freeview_veridical.mp4","","",""
"","","call-function","191","585637","0.0-191.0","","","","","","","","",""
"","1799.0999999940395","survey-likert","192","587437","0.0-192.0","","","","","","","{""judgement"":0}","[0]","1"
"","2091.5","survey-likert","193","589529","0.0-193.0","","","","","","","{""confidence"":2}","[0]",""
"","","call-function","194","589530","0.0-194.0","","","","","","","","",""
"","null","html-keyboard-response","195","592535","0.0-195.0","<span style=""color:Black; font-size:50px;"">Agent A","null","","","","","","",""
"","null","video-keyboard-response","196","595664","0.0-196.0","","null","","Agent A","scrambled","/Users/kirstenziman/Desktop/Desktop/DIDEC_entire_corpus/analysis_3/STIM_SET_1/0_285959.bmppp71_L1V1_freeview_scrambled.mp4","","",""
"","null","html-keyboard-response","197","598668","0.0-197.0","<span style=""color:Black; font-size:50px;"">Agent B","null","","","","","","",""
"","null","video-keyboard-response","198","601823","0.0-198.0","","null","","Agent B","veridical","/Users/kirstenziman/Desktop/Desktop/DIDEC_entire_corpus/analysis_3/STIM_SET_1/0_285959.bmppp71_L1V1_freeview_veridical.mp4","","",""
"","","call-function","199","601823","0.0-199.0","","","","","","","","",""
"","2259.7999999821186","survey-likert","200","604084","0.0-200.0","","","","","","","{""judgement"":0}","[0]","1"
"","1820.7999999821186","survey-likert","201","605906","0.0-201.0","","","","","","","{""confidence"":2}","[0]",""
"","","call-function","202","605907","0.0-202.0","","","","","","","","",""
"","null","html-keyboard-response","203","608911","0.0-203.0","<span style=""color:Black; font-size:50px;"">Agent A","null","","","","","","",""
"","null","video-keyboard-response","204","612130","0.0-204.0","","null","","Agent A","veridical","/Users/kirstenziman/Desktop/Desktop/DIDEC_entire_corpus/analysis_3/STIM_SET_1/0_498398.bmppp93_L1V1_freeview_veridical.mp4","","",""
"","null","html-keyboard-response","205","615133","0.0-205.0","<span style=""color:Black; font-size:50px;"">Agent B","null","","","","","","",""
"","null","video-keyboard-response","206","618330","0.0-206.0","","null","","Agent B","scrambled","/Users/kirstenziman/Desktop/Desktop/DIDEC_entire_corpus/analysis_3/STIM_SET_1/0_498398.bmppp93_L1V1_freeview_scrambled.mp4","","",""
"","","call-function","207","618330","0.0-207.0","","","","","","","","",""
"","3470.0999999940395","survey-likert","208","621801","0.0-208.0","","","","","","","{""judgement"":1}","[0]","0"
"","1638.5","survey-likert","209","623441","0.0-209.0","","","","","","","{""confidence"":1}","[0]",""
"","","call-function","210","623441","0.0-210.0","","","","","","","","",""
"","null","html-keyboard-response","211","626444","0.0-211.0","<span style=""color:Black; font-size:50px;"">Agent A","null","","","","","","",""
"","null","video-keyboard-response","212","629634","0.0-212.0","","null","","Agent A","veridical","/Users/kirstenziman/Desktop/Desktop/DIDEC_entire_corpus/analysis_3/STIM_SET_1/0_713450.bmppp154_L1V1_freeview_veridical.mp4","","",""
"","null","html-keyboard-response","213","632638","0.0-213.0","<span style=""color:Black; font-size:50px;"">Agent B","null","","","","","","",""
"","null","video-keyboard-response","214","636047","0.0-214.0","","null","","Agent B","scrambled","/Users/kirstenziman/Desktop/Desktop/DIDEC_entire_corpus/analysis_3/STIM_SET_1/0_713450.bmppp154_L1V1_freeview_scrambled.mp4","","",""
"","","call-function","215","636048","0.0-215.0","","","","","","","","",""
"","2247.4000000059605","survey-likert","216","638296","0.0-216.0","","","","","","","{""judgement"":1}","[0]","0"
"","1432.800000011921","survey-likert","217","639732","0.0-217.0","","","","","","","{""confidence"":1}","[0]",""
"","","call-function","218","639733","0.0-218.0","","","","","","","","",""
"","null","html-keyboard-response","219","642738","0.0-219.0","<span style=""color:Black; font-size:50px;"">Agent A","null","","","","","","",""
"","null","video-keyboard-response","220","645988","0.0-220.0","","null","","Agent A","veridical","/Users/kirstenziman/Desktop/Desktop/DIDEC_entire_corpus/analysis_3/STIM_SET_1/0_285992.bmppp64_L1V1_freeview_veridical.mp4","","",""
"","null","html-keyboard-response","221","648990","0.0-221.0","<span style=""color:Black; font-size:50px;"">Agent B","null","","","","","","",""
"","null","video-keyboard-response","222","652137","0.0-222.0","","null","","Agent B","scrambled","/Users/kirstenziman/Desktop/Desktop/DIDEC_entire_corpus/analysis_3/STIM_SET_1/0_285992.bmppp64_L1V1_freeview_scrambled.mp4","","",""
"","","call-function","223","652137","0.0-223.0","","","","","","","","",""
"","2627.4000000059605","survey-likert","224","654765","0.0-224.0","","","","","","","{""judgement"":0}","[0]","0"
"","1635.7000000178814","survey-likert","225","656402","0.0-225.0","","","","","","","{""confidence"":1}","[0]",""
"","","call-function","226","656402","0.0-226.0","","","","","","","","",""
"","null","html-keyboard-response","227","659405","0.0-227.0","<span style=""color:Black; font-size:50px;"">Agent A","null","","","","","","",""
"","null","video-keyboard-response","228","662685","0.0-228.0","","null","","Agent A","scrambled","/Users/kirstenziman/Desktop/Desktop/DIDEC_entire_corpus/analysis_3/STIM_SET_1/0_713770.bmppp52_L1V1_freeview_scrambled.mp4","","",""
"","null","html-keyboard-response","229","665686","0.0-229.0","<span style=""color:Black; font-size:50px;"">Agent B","null","","","","","","",""
"","null","video-keyboard-response","230","668881","0.0-230.0","","null","","Agent B","veridical","/Users/kirstenziman/Desktop/Desktop/DIDEC_entire_corpus/analysis_3/STIM_SET_1/0_713770.bmppp52_L1V1_freeview_veridical.mp4","","",""
"","","call-function","231","668882","0.0-231.0","","","","","","","","",""
"","2107.699999988079","survey-likert","232","670991","0.0-232.0","","","","","","","{""judgement"":1}","[0]","1"
"","2157.199999988079","survey-likert","233","673149","0.0-233.0","","","","","","","{""confidence"":1}","[0]",""
"","","call-function","234","673150","0.0-234.0","","","","","","","","",""
"","null","html-keyboard-response","235","676152","0.0-235.0","<span style=""color:Black; font-size:50px;"">Agent A","null","","","","","","",""
"","null","video-keyboard-response","236","679330","0.0-236.0","","null","","Agent A","scrambled","/Users/kirstenziman/Desktop/Desktop/DIDEC_entire_corpus/analysis_3/STIM_SET_1/0_713652.bmppp71_L1V1_freeview_scrambled.mp4","","",""
"","null","html-keyboard-response","237","682335","0.0-237.0","<span style=""color:Black; font-size:50px;"">Agent B","null","","","","","","",""
"","null","video-keyboard-response","238","685512","0.0-238.0","","null","","Agent B","veridical","/Users/kirstenziman/Desktop/Desktop/DIDEC_entire_corpus/analysis_3/STIM_SET_1/0_713652.bmppp71_L1V1_freeview_veridical.mp4","","",""
"","","call-function","239","685514","0.0-239.0","","","","","","","","",""
"","3902.9000000059605","survey-likert","240","689418","0.0-240.0","","","","","","","{""judgement"":1}","[0]","1"
"","1570.5999999940395","survey-likert","241","690989","0.0-241.0","","","","","","","{""confidence"":2}","[0]",""
"","","call-function","242","690990","0.0-242.0","","","","","","","","",""
"","null","html-keyboard-response","243","693994","0.0-243.0","<span style=""color:Black; font-size:50px;"">Agent A","null","","","","","","",""
"","null","video-keyboard-response","244","697154","0.0-244.0","","null","","Agent A","veridical","/Users/kirstenziman/Desktop/Desktop/DIDEC_entire_corpus/analysis_3/STIM_SET_1/0_713593.bmppp75_L1V1_freeview_veridical.mp4","","",""
"","null","html-keyboard-response","245","700162","0.0-245.0","<span style=""color:Black; font-size:50px;"">Agent B","null","","","","","","",""
"","null","video-keyboard-response","246","703365","0.0-246.0","","null","","Agent B","scrambled","/Users/kirstenziman/Desktop/Desktop/DIDEC_entire_corpus/analysis_3/STIM_SET_1/0_713593.bmppp75_L1V1_freeview_scrambled.mp4","","",""
"","","call-function","247","703365","0.0-247.0","","","","","","","","",""
"","3942.199999988079","survey-likert","248","707308","0.0-248.0","","","","","","","{""judgement"":1}","[0]","0"
"","2197.0999999940395","survey-likert","249","709506","0.0-249.0","","","","","","","{""confidence"":1}","[0]",""
"[{""page_index"":0,""viewing_time"":77521.5},{""page_index"":1,""viewing_time"":1446.4000000059605},{""page_index"":2,""viewing_time"":718.7000000178814}]","79686.90000000596","instructions","250","789206","0.0-250.0","","","","","","","","",""
"[{""page_index"":0,""viewing_time"":783.2999999821186},{""page_index"":1,""viewing_time"":1049.800000011921},{""page_index"":2,""viewing_time"":785}]","2618.2999999821186","instructions","251","791824","0.0-251.0","","","","","","","","",""
"","","call-function","252","791825","0.0-252.0","","","","","","","","",""
"","null","html-keyboard-response","253","794830","0.0-253.0","<span style=""color:Black; font-size:50px;"">Agent A","null","","","","","","",""
"","null","video-keyboard-response","254","798060","0.0-254.0","","null","","Agent A","veridical","/Users/kirstenziman/Desktop/Desktop/DIDEC_entire_corpus/analysis_3/STIM_SET_1/0_713765.bmppp93_L1V1_freeview_veridical.mp4","","",""
"","null","html-keyboard-response","255","801064","0.0-255.0","<span style=""color:Black; font-size:50px;"">Agent B","null","","","","","","",""
"","null","video-keyboard-response","256","804193","0.0-256.0","","null","","Agent B","scrambled","/Users/kirstenziman/Desktop/Desktop/DIDEC_entire_corpus/analysis_3/STIM_SET_1/0_713765.bmppp93_L1V1_freeview_scrambled.mp4","","",""
"","","call-function","257","804193","0.0-257.0","","","","","","","","",""
"","3966.600000023842","survey-likert","258","808161","0.0-258.0","","","","","","","{""judgement"":1}","[0]","0"
"","1923.699999988079","survey-likert","259","810086","0.0-259.0","","","","","","","{""confidence"":1}","[0]",""
"","","call-function","260","810087","0.0-260.0","","","","","","","","",""
"","null","html-keyboard-response","261","813092","0.0-261.0","<span style=""color:Black; font-size:50px;"">Agent A","null","","","","","","",""
"","null","video-keyboard-response","262","816415","0.0-262.0","","null","","Agent A","scrambled","/Users/kirstenziman/Desktop/Desktop/DIDEC_entire_corpus/analysis_3/STIM_SET_1/0_1159365.bmppp58_L1V1_freeview_scrambled.mp4","","",""
"","null","html-keyboard-response","263","819420","0.0-263.0","<span style=""color:Black; font-size:50px;"">Agent B","null","","","","","","",""
"","null","video-keyboard-response","264","822640","0.0-264.0","","null","","Agent B","veridical","/Users/kirstenziman/Desktop/Desktop/DIDEC_entire_corpus/analysis_3/STIM_SET_1/0_1159365.bmppp58_L1V1_freeview_veridical.mp4","","",""
"","","call-function","265","822640","0.0-265.0","","","","","","","","",""
"","5716.9000000059605","survey-likert","266","828359","0.0-266.0","","","","","","","{""judgement"":1}","[0]","1"
"","1662.2000000178814","survey-likert","267","830026","0.0-267.0","","","","","","","{""confidence"":1}","[0]",""
"","","call-function","268","830026","0.0-268.0","","","","","","","","",""
"","null","html-keyboard-response","269","833030","0.0-269.0","<span style=""color:Black; font-size:50px;"">Agent A","null","","","","","","",""
"","null","video-keyboard-response","270","836263","0.0-270.0","","null","","Agent A","veridical","/Users/kirstenziman/Desktop/Desktop/DIDEC_entire_corpus/analysis_3/STIM_SET_1/0_1592286.bmppp57_L1V1_freeview_veridical.mp4","","",""
"","null","html-keyboard-response","271","839267","0.0-271.0","<span style=""color:Black; font-size:50px;"">Agent B","null","","","","","","",""
"","null","video-keyboard-response","272","842462","0.0-272.0","","null","","Agent B","scrambled","/Users/kirstenziman/Desktop/Desktop/DIDEC_entire_corpus/analysis_3/STIM_SET_1/0_1592286.bmppp57_L1V1_freeview_scrambled.mp4","","",""
"","","call-function","273","842463","0.0-273.0","","","","","","","","",""
"","2612.800000011921","survey-likert","274","845077","0.0-274.0","","","","","","","{""judgement"":1}","[0]","0"
"","2779.9000000059605","survey-likert","275","847858","0.0-275.0","","","","","","","{""confidence"":3}","[0]",""
"","","call-function","276","847859","0.0-276.0","","","","","","","","",""
"","null","html-keyboard-response","277","850860","0.0-277.0","<span style=""color:Black; font-size:50px;"">Agent A","null","","","","","","",""
"","null","video-keyboard-response","278","854071","0.0-278.0","","null","","Agent A","veridical","/Users/kirstenziman/Desktop/Desktop/DIDEC_entire_corpus/analysis_3/STIM_SET_1/0_713707.bmppp154_L1V1_freeview_veridical.mp4","","",""
"","null","html-keyboard-response","279","857077","0.0-279.0","<span style=""color:Black; font-size:50px;"">Agent B","null","","","","","","",""
"","null","video-keyboard-response","280","860272","0.0-280.0","","null","","Agent B","scrambled","/Users/kirstenziman/Desktop/Desktop/DIDEC_entire_corpus/analysis_3/STIM_SET_1/0_713707.bmppp154_L1V1_freeview_scrambled.mp4","","",""
"","","call-function","281","860272","0.0-281.0","","","","","","","","",""
"","3184.300000011921","survey-likert","282","863459","0.0-282.0","","","","","","","{""judgement"":0}","[0]","0"
"","1345.0999999940395","survey-likert","283","864805","0.0-283.0","","","","","","","{""confidence"":2}","[0]",""
"","","call-function","284","864805","0.0-284.0","","","","","","","","",""
"","null","html-keyboard-response","285","867811","0.0-285.0","<span style=""color:Black; font-size:50px;"">Agent A","null","","","","","","",""
"","null","video-keyboard-response","286","870996","0.0-286.0","","null","","Agent A","scrambled","/Users/kirstenziman/Desktop/Desktop/DIDEC_entire_corpus/analysis_3/STIM_SET_1/0_285905.bmppp151_L1V1_freeview_scrambled.mp4","","",""
"","null","html-keyboard-response","287","873998","0.0-287.0","<span style=""color:Black; font-size:50px;"">Agent B","null","","","","","","",""
"","null","video-keyboard-response","288","877183","0.0-288.0","","null","","Agent B","veridical","/Users/kirstenziman/Desktop/Desktop/DIDEC_entire_corpus/analysis_3/STIM_SET_1/0_285905.bmppp151_L1V1_freeview_veridical.mp4","","",""
"","","call-function","289","877183","0.0-289.0","","","","","","","","",""
"","1850.6000000238419","survey-likert","290","879035","0.0-290.0","","","","","","","{""judgement"":0}","[0]","1"
"","1816.7999999821186","survey-likert","291","880853","0.0-291.0","","","","","","","{""confidence"":1}","[0]",""
"","","call-function","292","880854","0.0-292.0","","","","","","","","",""
"","null","html-keyboard-response","293","883856","0.0-293.0","<span style=""color:Black; font-size:50px;"">Agent A","null","","","","","","",""
"","null","video-keyboard-response","294","887101","0.0-294.0","","null","","Agent A","veridical","/Users/kirstenziman/Desktop/Desktop/DIDEC_entire_corpus/analysis_3/STIM_SET_1/0_150432.bmppp81_L1V1_freeview_veridical.mp4","","",""
"","null","html-keyboard-response","295","890106","0.0-295.0","<span style=""color:Black; font-size:50px;"">Agent B","null","","","","","","",""
"","null","video-keyboard-response","296","893349","0.0-296.0","","null","","Agent B","scrambled","/Users/kirstenziman/Desktop/Desktop/DIDEC_entire_corpus/analysis_3/STIM_SET_1/0_150432.bmppp81_L1V1_freeview_scrambled.mp4","","",""
"","","call-function","297","893349","0.0-297.0","","","","","","","","",""
"","3433.9000000059605","survey-likert","298","896785","0.0-298.0","","","","","","","{""judgement"":1}","[0]","0"
"","1551.5999999940395","survey-likert","299","898338","0.0-299.0","","","","","","","{""confidence"":1}","[0]",""
"","","call-function","300","898340","0.0-300.0","","","","","","","","",""
"","null","html-keyboard-response","301","901346","0.0-301.0","<span style=""color:Black; font-size:50px;"">Agent A","null","","","","","","",""
"","null","video-keyboard-response","302","904552","0.0-302.0","","null","","Agent A","veridical","/Users/kirstenziman/Desktop/Desktop/DIDEC_entire_corpus/analysis_3/STIM_SET_1/0_713769.bmppp58_L1V1_freeview_veridical.mp4","","",""
"","null","html-keyboard-response","303","907557","0.0-303.0","<span style=""color:Black; font-size:50px;"">Agent B","null","","","","","","",""
"","null","video-keyboard-response","304","910696","0.0-304.0","","null","","Agent B","scrambled","/Users/kirstenziman/Desktop/Desktop/DIDEC_entire_corpus/analysis_3/STIM_SET_1/0_713769.bmppp58_L1V1_freeview_scrambled.mp4","","",""
"","","call-function","305","910696","0.0-305.0","","","","","","","","",""
"","3152.0999999940395","survey-likert","306","913850","0.0-306.0","","","","","","","{""judgement"":1}","[0]","0"
"","1294.5","survey-likert","307","915145","0.0-307.0","","","","","","","{""confidence"":1}","[0]",""
"","","call-function","308","915146","0.0-308.0","","","","","","","","",""
"","null","html-keyboard-response","309","918149","0.0-309.0","<span style=""color:Black; font-size:50px;"">Agent A","null","","","","","","",""
"","null","video-keyboard-response","310","921351","0.0-310.0","","null","","Agent A","veridical","/Users/kirstenziman/Desktop/Desktop/DIDEC_entire_corpus/analysis_3/STIM_SET_1/0_713920.bmppp76_L1V1_freeview_veridical.mp4","","",""
"","null","html-keyboard-response","311","924356","0.0-311.0","<span style=""color:Black; font-size:50px;"">Agent B","null","","","","","","",""
"","null","video-keyboard-response","312","927534","0.0-312.0","","null","","Agent B","scrambled","/Users/kirstenziman/Desktop/Desktop/DIDEC_entire_corpus/analysis_3/STIM_SET_1/0_713920.bmppp76_L1V1_freeview_scrambled.mp4","","",""
"","","call-function","313","927534","0.0-313.0","","","","","","","","",""
"","3896.399999976158","survey-likert","314","931432","0.0-314.0","","","","","","","{""judgement"":1}","[0]","0"
"","2015.7999999821186","survey-likert","315","933449","0.0-315.0","","","","","","","{""confidence"":2}","[0]",""
"","","call-function","316","933450","0.0-316.0","","","","","","","","",""
"","null","html-keyboard-response","317","936456","0.0-317.0","<span style=""color:Black; font-size:50px;"">Agent A","null","","","","","","",""
"","null","video-keyboard-response","318","939800","0.0-318.0","","null","","Agent A","veridical","/Users/kirstenziman/Desktop/Desktop/DIDEC_entire_corpus/analysis_3/STIM_SET_1/0_150303.bmppp68_L1V1_freeview_veridical.mp4","","",""
"","null","html-keyboard-response","319","942805","0.0-319.0","<span style=""color:Black; font-size:50px;"">Agent B","null","","","","","","",""
"","null","video-keyboard-response","320","945983","0.0-320.0","","null","","Agent B","scrambled","/Users/kirstenziman/Desktop/Desktop/DIDEC_entire_corpus/analysis_3/STIM_SET_1/0_150303.bmppp68_L1V1_freeview_scrambled.mp4","","",""
"","","call-function","321","945984","0.0-321.0","","","","","","","","",""
"","4466.5999999940395","survey-likert","322","950451","0.0-322.0","","","","","","","{""judgement"":1}","[0]","0"
"","1933","survey-likert","323","952385","0.0-323.0","","","","","","","{""confidence"":1}","[0]",""
"","","call-function","324","952386","0.0-324.0","","","","","","","","",""
"","null","html-keyboard-response","325","955390","0.0-325.0","<span style=""color:Black; font-size:50px;"">Agent A","null","","","","","","",""
"","null","video-keyboard-response","326","958460","0.0-326.0","","null","","Agent A","scrambled","/Users/kirstenziman/Desktop/Desktop/DIDEC_entire_corpus/analysis_3/STIM_SET_1/0_713418.bmppp81_L1V1_freeview_scrambled.mp4","","",""
"","null","html-keyboard-response","327","961466","0.0-327.0","<span style=""color:Black; font-size:50px;"">Agent B","null","","","","","","",""
"","null","video-keyboard-response","328","964652","0.0-328.0","","null","","Agent B","veridical","/Users/kirstenziman/Desktop/Desktop/DIDEC_entire_corpus/analysis_3/STIM_SET_1/0_713418.bmppp81_L1V1_freeview_veridical.mp4","","",""
"","","call-function","329","964653","0.0-329.0","","","","","","","","",""
"","2593.600000023842","survey-likert","330","967247","0.0-330.0","","","","","","","{""judgement"":0}","[0]","1"
"","2757.9000000059605","survey-likert","331","970006","0.0-331.0","","","","","","","{""confidence"":1}","[0]",""
"[{""page_index"":0,""viewing_time"":69526.40000000596},{""page_index"":1,""viewing_time"":637.6999999880791},{""page_index"":2,""viewing_time"":670.4000000059605}]","70834.80000001192","instructions","332","1040842","0.0-332.0","","","","","","","","",""
"[{""page_index"":0,""viewing_time"":566.9000000059605},{""page_index"":1,""viewing_time"":605.1999999880791},{""page_index"":2,""viewing_time"":726.0999999940395}]","1898.2999999821186","instructions","333","1042741","0.0-333.0","","","","","","","","",""
"","","call-function","334","1042742","0.0-334.0","","","","","","","","",""
"","null","html-keyboard-response","335","1045746","0.0-335.0","<span style=""color:Black; font-size:50px;"">Agent A","null","","","","","","",""
"","null","video-keyboard-response","336","1048987","0.0-336.0","","null","","Agent A","veridical","/Users/kirstenziman/Desktop/Desktop/DIDEC_entire_corpus/analysis_3/STIM_SET_1/0_1592857.bmppp64_L1V1_freeview_veridical.mp4","","",""
"","null","html-keyboard-response","337","1051992","0.0-337.0","<span style=""color:Black; font-size:50px;"">Agent B","null","","","","","","",""
"","null","video-keyboard-response","338","1055284","0.0-338.0","","null","","Agent B","scrambled","/Users/kirstenziman/Desktop/Desktop/DIDEC_entire_corpus/analysis_3/STIM_SET_1/0_1592857.bmppp64_L1V1_freeview_scrambled.mp4","","",""
"","","call-function","339","1055285","0.0-339.0","","","","","","","","",""
"","2018.699999988079","survey-likert","340","1057305","0.0-340.0","","","","","","","{""judgement"":1}","[0]","0"
"","2083.199999988079","survey-likert","341","1059389","0.0-341.0","","","","","","","{""confidence"":2}","[0]",""
"","","call-function","342","1059390","0.0-342.0","","","","","","","","",""
"","null","html-keyboard-response","343","1062395","0.0-343.0","<span style=""color:Black; font-size:50px;"">Agent A","null","","","","","","",""
"","null","video-keyboard-response","344","1065589","0.0-344.0","","null","","Agent A","veridical","/Users/kirstenziman/Desktop/Desktop/DIDEC_entire_corpus/analysis_3/STIM_SET_1/0_1591838.bmppp154_L1V1_freeview_veridical.mp4","","",""
"","null","html-keyboard-response","345","1068591","0.0-345.0","<span style=""color:Black; font-size:50px;"">Agent B","null","","","","","","",""
"","null","video-keyboard-response","346","1071786","0.0-346.0","","null","","Agent B","scrambled","/Users/kirstenziman/Desktop/Desktop/DIDEC_entire_corpus/analysis_3/STIM_SET_1/0_1591838.bmppp154_L1V1_freeview_scrambled.mp4","","",""
"","","call-function","347","1071787","0.0-347.0","","","","","","","","",""
"","4368.9000000059605","survey-likert","348","1076156","0.0-348.0","","","","","","","{""judgement"":1}","[0]","0"
"","1583.800000011921","survey-likert","349","1077742","0.0-349.0","","","","","","","{""confidence"":2}","[0]",""
"","","call-function","350","1077744","0.0-350.0","","","","","","","","",""
"","null","html-keyboard-response","351","1080746","0.0-351.0","<span style=""color:Black; font-size:50px;"">Agent A","null","","","","","","",""
"","null","video-keyboard-response","352","1083970","0.0-352.0","","null","","Agent A","scrambled","/Users/kirstenziman/Desktop/Desktop/DIDEC_entire_corpus/analysis_3/STIM_SET_1/0_286066.bmppp151_L1V1_freeview_scrambled.mp4","","",""
"","null","html-keyboard-response","353","1086974","0.0-353.0","<span style=""color:Black; font-size:50px;"">Agent B","null","","","","","","",""
"","null","video-keyboard-response","354","1090175","0.0-354.0","","null","","Agent B","veridical","/Users/kirstenziman/Desktop/Desktop/DIDEC_entire_corpus/analysis_3/STIM_SET_1/0_286066.bmppp151_L1V1_freeview_veridical.mp4","","",""
"","","call-function","355","1090175","0.0-355.0","","","","","","","","",""
"","3508.5","survey-likert","356","1093685","0.0-356.0","","","","","","","{""judgement"":1}","[0]","1"
"","1591.7999999821186","survey-likert","357","1095279","0.0-357.0","","","","","","","{""confidence"":2}","[0]",""
"","","call-function","358","1095280","0.0-358.0","","","","","","","","",""
"","null","html-keyboard-response","359","1098281","0.0-359.0","<span style=""color:Black; font-size:50px;"">Agent A","null","","","","","","",""
"","null","video-keyboard-response","360","1101495","0.0-360.0","","null","","Agent A","veridical","/Users/kirstenziman/Desktop/Desktop/DIDEC_entire_corpus/analysis_3/STIM_SET_1/0_1592133.bmppp63_L1V1_freeview_veridical.mp4","","",""
"","null","html-keyboard-response","361","1104499","0.0-361.0","<span style=""color:Black; font-size:50px;"">Agent B","null","","","","","","",""
"","null","video-keyboard-response","362","1107675","0.0-362.0","","null","","Agent B","scrambled","/Users/kirstenziman/Desktop/Desktop/DIDEC_entire_corpus/analysis_3/STIM_SET_1/0_1592133.bmppp63_L1V1_freeview_scrambled.mp4","","",""
"","","call-function","363","1107675","0.0-363.0","","","","","","","","",""
"","3037.2999999821186","survey-likert","364","1110714","0.0-364.0","","","","","","","{""judgement"":1}","[0]","0"
"","1331.1000000238419","survey-likert","365","1112046","0.0-365.0","","","","","","","{""confidence"":1}","[0]",""
"","","call-function","366","1112047","0.0-366.0","","","","","","","","",""
"","null","html-keyboard-response","367","1115052","0.0-367.0","<span style=""color:Black; font-size:50px;"">Agent A","null","","","","","","",""
"","null","video-keyboard-response","368","1118385","0.0-368.0","","null","","Agent A","scrambled","/Users/kirstenziman/Desktop/Desktop/DIDEC_entire_corpus/analysis_3/STIM_SET_1/0_1159440.bmppp98_L1V1_freeview_scrambled.mp4","","",""
"","null","html-keyboard-response","369","1121391","0.0-369.0","<span style=""color:Black; font-size:50px;"">Agent B","null","","","","","","",""
"","null","video-keyboard-response","370","1124679","0.0-370.0","","null","","Agent B","veridical","/Users/kirstenziman/Desktop/Desktop/DIDEC_entire_corpus/analysis_3/STIM_SET_1/0_1159440.bmppp98_L1V1_freeview_veridical.mp4","","",""
"","","call-function","371","1124679","0.0-371.0","","","","","","","","",""
"","2759.0999999940395","survey-likert","372","1127439","0.0-372.0","","","","","","","{""judgement"":1}","[0]","1"
"","2159.4000000059605","survey-likert","373","1129600","0.0-373.0","","","","","","","{""confidence"":2}","[0]",""
"","","call-function","374","1129601","0.0-374.0","","","","","","","","",""
"","null","html-keyboard-response","375","1132606","0.0-375.0","<span style=""color:Black; font-size:50px;"">Agent A","null","","","","","","",""
"","null","video-keyboard-response","376","1135754","0.0-376.0","","null","","Agent A","veridical","/Users/kirstenziman/Desktop/Desktop/DIDEC_entire_corpus/analysis_3/STIM_SET_1/0_150273.bmppp57_L1V1_freeview_veridical.mp4","","",""
"","null","html-keyboard-response","377","1138760","0.0-377.0","<span style=""color:Black; font-size:50px;"">Agent B","null","","","","","","",""
"","null","video-keyboard-response","378","1142022","0.0-378.0","","null","","Agent B","scrambled","/Users/kirstenziman/Desktop/Desktop/DIDEC_entire_corpus/analysis_3/STIM_SET_1/0_150273.bmppp57_L1V1_freeview_scrambled.mp4","","",""
"","","call-function","379","1142022","0.0-379.0","","","","","","","","",""
"","2819.4000000059605","survey-likert","380","1144842","0.0-380.0","","","","","","","{""judgement"":0}","[0]","0"
"","1198.0999999940395","survey-likert","381","1146042","0.0-381.0","","","","","","","{""confidence"":1}","[0]",""
"","","call-function","382","1146043","0.0-382.0","","","","","","","","",""
"","null","html-keyboard-response","383","1149046","0.0-383.0","<span style=""color:Black; font-size:50px;"">Agent A","null","","","","","","",""
"","null","video-keyboard-response","384","1152394","0.0-384.0","","null","","Agent A","scrambled","/Users/kirstenziman/Desktop/Desktop/DIDEC_entire_corpus/analysis_3/STIM_SET_1/0_713633.bmppp57_L1V1_freeview_scrambled.mp4","","",""
"","null","html-keyboard-response","385","1155396","0.0-385.0","<span style=""color:Black; font-size:50px;"">Agent B","null","","","","","","",""
"","null","video-keyboard-response","386","1158687","0.0-386.0","","null","","Agent B","veridical","/Users/kirstenziman/Desktop/Desktop/DIDEC_entire_corpus/analysis_3/STIM_SET_1/0_713633.bmppp57_L1V1_freeview_veridical.mp4","","",""
"","","call-function","387","1158687","0.0-387.0","","","","","","","","",""
"","2990","survey-likert","388","1161678","0.0-388.0","","","","","","","{""judgement"":1}","[0]","1"
"","1550.199999988079","survey-likert","389","1163230","0.0-389.0","","","","","","","{""confidence"":1}","[0]",""
"","","call-function","390","1163231","0.0-390.0","","","","","","","","",""
"","null","html-keyboard-response","391","1166234","0.0-391.0","<span style=""color:Black; font-size:50px;"">Agent A","null","","","","","","",""
"","null","video-keyboard-response","392","1169413","0.0-392.0","","null","","Agent A","veridical","/Users/kirstenziman/Desktop/Desktop/DIDEC_entire_corpus/analysis_3/STIM_SET_1/0_498280.bmppp81_L1V1_freeview_veridical.mp4","","",""
"","null","html-keyboard-response","393","1172418","0.0-393.0","<span style=""color:Black; font-size:50px;"">Agent B","null","","","","","","",""
"","null","video-keyboard-response","394","1175561","0.0-394.0","","null","","Agent B","scrambled","/Users/kirstenziman/Desktop/Desktop/DIDEC_entire_corpus/analysis_3/STIM_SET_1/0_498280.bmppp81_L1V1_freeview_scrambled.mp4","","",""
"","","call-function","395","1175562","0.0-395.0","","","","","","","","",""
"","1736.7999999821186","survey-likert","396","1177300","0.0-396.0","","","","","","","{""judgement"":0}","[0]","0"
"","2087.600000023842","survey-likert","397","1179390","0.0-397.0","","","","","","","{""confidence"":3}","[0]",""
"","","call-function","398","1179390","0.0-398.0","","","","","","","","",""
"","null","html-keyboard-response","399","1182391","0.0-399.0","<span style=""color:Black; font-size:50px;"">Agent A","null","","","","","","",""
"","null","video-keyboard-response","400","1185646","0.0-400.0","","null","","Agent A","scrambled","/Users/kirstenziman/Desktop/Desktop/DIDEC_entire_corpus/analysis_3/STIM_SET_1/0_498258.bmppp76_L1V1_freeview_scrambled.mp4","","",""
"","null","html-keyboard-response","401","1188648","0.0-401.0","<span style=""color:Black; font-size:50px;"">Agent B","null","","","","","","",""
"","null","video-keyboard-response","402","1191815","0.0-402.0","","null","","Agent B","veridical","/Users/kirstenziman/Desktop/Desktop/DIDEC_entire_corpus/analysis_3/STIM_SET_1/0_498258.bmppp76_L1V1_freeview_veridical.mp4","","",""
"","","call-function","403","1191815","0.0-403.0","","","","","","","","",""
"","1758.0999999940395","survey-likert","404","1193574","0.0-404.0","","","","","","","{""judgement"":1}","[0]","1"
"","1387.3999999761581","survey-likert","405","1194963","0.0-405.0","","","","","","","{""confidence"":3}","[0]",""
"","","call-function","406","1194963","0.0-406.0","","","","","","","","",""
"","null","html-keyboard-response","407","1197967","0.0-407.0","<span style=""color:Black; font-size:50px;"">Agent A","null","","","","","","",""
"","null","video-keyboard-response","408","1201147","0.0-408.0","","null","","Agent A","scrambled","/Users/kirstenziman/Desktop/Desktop/DIDEC_entire_corpus/analysis_3/STIM_SET_1/0_1592137.bmppp52_L1V1_freeview_scrambled.mp4","","",""
"","null","html-keyboard-response","409","1204153","0.0-409.0","<span style=""color:Black; font-size:50px;"">Agent B","null","","","","","","",""
"","null","video-keyboard-response","410","1207282","0.0-410.0","","null","","Agent B","veridical","/Users/kirstenziman/Desktop/Desktop/DIDEC_entire_corpus/analysis_3/STIM_SET_1/0_1592137.bmppp52_L1V1_freeview_veridical.mp4","","",""
"","","call-function","411","1207282","0.0-411.0","","","","","","","","",""
"","2735.5","survey-likert","412","1210018","0.0-412.0","","","","","","","{""judgement"":1}","[0]","1"
"","1387.800000011921","survey-likert","413","1211407","0.0-413.0","","","","","","","{""confidence"":1}","[0]",""
"[{""page_index"":0,""viewing_time"":24969.29999998212},{""page_index"":1,""viewing_time"":569.5999999940395},{""page_index"":2,""viewing_time"":561.5}]","26100.899999976158","instructions","414","1237508","0.0-414.0","","","","","","","","",""
"[{""page_index"":0,""viewing_time"":455.09999999403954},{""page_index"":1,""viewing_time"":496.7000000178814},{""page_index"":2,""viewing_time"":619.3999999761581}]","1571.5","instructions","415","1239081","0.0-415.0","","","","","","","","",""
"","","call-function","416","1239081","0.0-416.0","","","","","","","","",""
"","null","html-keyboard-response","417","1242086","0.0-417.0","<span style=""color:Black; font-size:50px;"">Agent A","null","","","","","","",""
"","null","video-keyboard-response","418","1245265","0.0-418.0","","null","","Agent A","scrambled","/Users/kirstenziman/Desktop/Desktop/DIDEC_entire_corpus/analysis_3/STIM_SET_1/0_498339.bmppp63_L1V1_freeview_scrambled.mp4","","",""
"","null","html-keyboard-response","419","1248265","0.0-419.0","<span style=""color:Black; font-size:50px;"">Agent B","null","","","","","","",""
"","null","video-keyboard-response","420","1251538","0.0-420.0","","null","","Agent B","veridical","/Users/kirstenziman/Desktop/Desktop/DIDEC_entire_corpus/analysis_3/STIM_SET_1/0_498339.bmppp63_L1V1_freeview_veridical.mp4","","",""
"","","call-function","421","1251538","0.0-421.0","","","","","","","","",""
"","1714","survey-likert","422","1253253","0.0-422.0","","","","","","","{""judgement"":0}","[0]","1"
"","2330.7999999821186","survey-likert","423","1255585","0.0-423.0","","","","","","","{""confidence"":2}","[0]",""
"","","call-function","424","1255585","0.0-424.0","","","","","","","","",""
"","null","html-keyboard-response","425","1258591","0.0-425.0","<span style=""color:Black; font-size:50px;"">Agent A","null","","","","","","",""
"","null","video-keyboard-response","426","1261883","0.0-426.0","","null","","Agent A","veridical","/Users/kirstenziman/Desktop/Desktop/DIDEC_entire_corpus/analysis_3/STIM_SET_1/0_497974.bmppp98_L1V1_freeview_veridical.mp4","","",""
"","null","html-keyboard-response","427","1264885","0.0-427.0","<span style=""color:Black; font-size:50px;"">Agent B","null","","","","","","",""
"","null","video-keyboard-response","428","1268035","0.0-428.0","","null","","Agent B","scrambled","/Users/kirstenziman/Desktop/Desktop/DIDEC_entire_corpus/analysis_3/STIM_SET_1/0_497974.bmppp98_L1V1_freeview_scrambled.mp4","","",""
"","","call-function","429","1268036","0.0-429.0","","","","","","","","",""
"","3746.600000023842","survey-likert","430","1271784","0.0-430.0","","","","","","","{""judgement"":1}","[0]","0"
"","2162.5999999940395","survey-likert","431","1273949","0.0-431.0","","","","","","","{""confidence"":1}","[0]",""
"","","call-function","432","1273950","0.0-432.0","","","","","","","","",""
"","null","html-keyboard-response","433","1276954","0.0-433.0","<span style=""color:Black; font-size:50px;"">Agent A","null","","","","","","",""
"","null","video-keyboard-response","434","1280205","0.0-434.0","","null","","Agent A","scrambled","/Users/kirstenziman/Desktop/Desktop/DIDEC_entire_corpus/analysis_3/STIM_SET_1/0_285933.bmppp52_L1V1_freeview_scrambled.mp4","","",""
"","null","html-keyboard-response","435","1283209","0.0-435.0","<span style=""color:Black; font-size:50px;"">Agent B","null","","","","","","",""
"","null","video-keyboard-response","436","1286406","0.0-436.0","","null","","Agent B","veridical","/Users/kirstenziman/Desktop/Desktop/DIDEC_entire_corpus/analysis_3/STIM_SET_1/0_285933.bmppp52_L1V1_freeview_veridical.mp4","","",""
"","","call-function","437","1286406","0.0-437.0","","","","","","","","",""
"","1770.1000000238419","survey-likert","438","1288178","0.0-438.0","","","","","","","{""judgement"":1}","[0]","1"
"","1461.5999999940395","survey-likert","439","1289641","0.0-439.0","","","","","","","{""confidence"":3}","[0]",""
"","","call-function","440","1289642","0.0-440.0","","","","","","","","",""
"","null","html-keyboard-response","441","1292645","0.0-441.0","<span style=""color:Black; font-size:50px;"">Agent A","null","","","","","","",""
"","null","video-keyboard-response","442","1295875","0.0-442.0","","null","","Agent A","scrambled","/Users/kirstenziman/Desktop/Desktop/DIDEC_entire_corpus/analysis_3/STIM_SET_1/0_498326.bmppp63_L1V1_freeview_scrambled.mp4","","",""
"","null","html-keyboard-response","443","1298879","0.0-443.0","<span style=""color:Black; font-size:50px;"">Agent B","null","","","","","","",""
"","null","video-keyboard-response","444","1302026","0.0-444.0","","null","","Agent B","veridical","/Users/kirstenziman/Desktop/Desktop/DIDEC_entire_corpus/analysis_3/STIM_SET_1/0_498326.bmppp63_L1V1_freeview_veridical.mp4","","",""
"","","call-function","445","1302027","0.0-445.0","","","","","","","","",""
"","1771.4000000059605","survey-likert","446","1303799","0.0-446.0","","","","","","","{""judgement"":0}","[0]","1"
"","1196.9000000059605","survey-likert","447","1304997","0.0-447.0","","","","","","","{""confidence"":2}","[0]",""
"","","call-function","448","1304998","0.0-448.0","","","","","","","","",""
"","null","html-keyboard-response","449","1307999","0.0-449.0","<span style=""color:Black; font-size:50px;"">Agent A","null","","","","","","",""
"","null","video-keyboard-response","450","1311200","0.0-450.0","","null","","Agent A","scrambled","/Users/kirstenziman/Desktop/Desktop/DIDEC_entire_corpus/analysis_3/STIM_SET_1/0_1160189.bmppp89_L1V1_freeview_scrambled.mp4","","",""
"","null","html-keyboard-response","451","1314205","0.0-451.0","<span style=""color:Black; font-size:50px;"">Agent B","null","","","","","","",""
"","null","video-keyboard-response","452","1317357","0.0-452.0","","null","","Agent B","veridical","/Users/kirstenziman/Desktop/Desktop/DIDEC_entire_corpus/analysis_3/STIM_SET_1/0_1160189.bmppp89_L1V1_freeview_veridical.mp4","","",""
"","","call-function","453","1317357","0.0-453.0","","","","","","","","",""
"","1840.5","survey-likert","454","1319199","0.0-454.0","","","","","","","{""judgement"":1}","[0]","1"
"","2229.699999988079","survey-likert","455","1321430","0.0-455.0","","","","","","","{""confidence"":2}","[0]",""
"","","call-function","456","1321431","0.0-456.0","","","","","","","","",""
"","null","html-keyboard-response","457","1324433","0.0-457.0","<span style=""color:Black; font-size:50px;"">Agent A","null","","","","","","",""
"","null","video-keyboard-response","458","1327614","0.0-458.0","","null","","Agent A","scrambled","/Users/kirstenziman/Desktop/Desktop/DIDEC_entire_corpus/analysis_3/STIM_SET_1/0_1159486.bmppp98_L1V1_freeview_scrambled.mp4","","",""
"","null","html-keyboard-response","459","1330616","0.0-459.0","<span style=""color:Black; font-size:50px;"">Agent B","null","","","","","","",""
"","null","video-keyboard-response","460","1333800","0.0-460.0","","null","","Agent B","veridical","/Users/kirstenziman/Desktop/Desktop/DIDEC_entire_corpus/analysis_3/STIM_SET_1/0_1159486.bmppp98_L1V1_freeview_veridical.mp4","","",""
"","","call-function","461","1333800","0.0-461.0","","","","","","","","",""
"","2507.4000000059605","survey-likert","462","1336311","0.0-462.0","","","","","","","{""judgement"":0}","[0]","1"
"","2517.5","survey-likert","463","1338830","0.0-463.0","","","","","","","{""confidence"":1}","[0]",""
"","","call-function","464","1338830","0.0-464.0","","","","","","","","",""
"","null","html-keyboard-response","465","1341833","0.0-465.0","<span style=""color:Black; font-size:50px;"">Agent A","null","","","","","","",""
"","null","video-keyboard-response","466","1344992","0.0-466.0","","null","","Agent A","veridical","/Users/kirstenziman/Desktop/Desktop/DIDEC_entire_corpus/analysis_3/STIM_SET_1/0_498108.bmppp75_L1V1_freeview_veridical.mp4","","",""
"","null","html-keyboard-response","467","1347996","0.0-467.0","<span style=""color:Black; font-size:50px;"">Agent B","null","","","","","","",""
"","null","video-keyboard-response","468","1351160","0.0-468.0","","null","","Agent B","scrambled","/Users/kirstenziman/Desktop/Desktop/DIDEC_entire_corpus/analysis_3/STIM_SET_1/0_498108.bmppp75_L1V1_freeview_scrambled.mp4","","",""
"","","call-function","469","1351161","0.0-469.0","","","","","","","","",""
"","2401.300000011921","survey-likert","470","1353563","0.0-470.0","","","","","","","{""judgement"":1}","[0]","0"
"","1999.0999999940395","survey-likert","471","1355563","0.0-471.0","","","","","","","{""confidence"":1}","[0]",""
"","","call-function","472","1355563","0.0-472.0","","","","","","","","",""
"","null","html-keyboard-response","473","1358566","0.0-473.0","<span style=""color:Black; font-size:50px;"">Agent A","null","","","","","","",""
"","null","video-keyboard-response","474","1361711","0.0-474.0","","null","","Agent A","veridical","/Users/kirstenziman/Desktop/Desktop/DIDEC_entire_corpus/analysis_3/STIM_SET_1/0_1159508.bmppp154_L1V1_freeview_veridical.mp4","","",""
"","null","html-keyboard-response","475","1364714","0.0-475.0","<span style=""color:Black; font-size:50px;"">Agent B","null","","","","","","",""
"","null","video-keyboard-response","476","1367880","0.0-476.0","","null","","Agent B","scrambled","/Users/kirstenziman/Desktop/Desktop/DIDEC_entire_corpus/analysis_3/STIM_SET_1/0_1159508.bmppp154_L1V1_freeview_scrambled.mp4","","",""
"","","call-function","477","1367880","0.0-477.0","","","","","","","","",""
"","1966.199999988079","survey-likert","478","1369847","0.0-478.0","","","","","","","{""judgement"":0}","[0]","0"
"","1274.7000000178814","survey-likert","479","1371123","0.0-479.0","","","","","","","{""confidence"":1}","[0]",""
"","","call-function","480","1371125","0.0-480.0","","","","","","","","",""
"","null","html-keyboard-response","481","1374129","0.0-481.0","<span style=""color:Black; font-size:50px;"">Agent A","null","","","","","","",""
"","null","video-keyboard-response","482","1377349","0.0-482.0","","null","","Agent A","veridical","/Users/kirstenziman/Desktop/Desktop/DIDEC_entire_corpus/analysis_3/STIM_SET_1/0_497950.bmppp51_L1V1_freeview_veridical.mp4","","",""
"","null","html-keyboard-response","483","1380352","0.0-483.0","<span style=""color:Black; font-size:50px;"">Agent B","null","","","","","","",""
"","null","video-keyboard-response","484","1383547","0.0-484.0","","null","","Agent B","scrambled","/Users/kirstenziman/Desktop/Desktop/DIDEC_entire_corpus/analysis_3/STIM_SET_1/0_497950.bmppp51_L1V1_freeview_scrambled.mp4","","",""
"","","call-function","485","1383548","0.0-485.0","","","","","","","","",""
"","1886.800000011921","survey-likert","486","1385435","0.0-486.0","","","","","","","{""judgement"":1}","[0]","0"
"","1530.9000000059605","survey-likert","487","1386967","0.0-487.0","","","","","","","{""confidence"":2}","[0]",""
"","","call-function","488","1386968","0.0-488.0","","","","","","","","",""
"","null","html-keyboard-response","489","1389972","0.0-489.0","<span style=""color:Black; font-size:50px;"">Agent A","null","","","","","","",""
"","null","video-keyboard-response","490","1393126","0.0-490.0","","null","","Agent A","veridical","/Users/kirstenziman/Desktop/Desktop/DIDEC_entire_corpus/analysis_3/STIM_SET_1/0_1160140.bmppp76_L1V1_freeview_veridical.mp4","","",""
"","null","html-keyboard-response","491","1396131","0.0-491.0","<span style=""color:Black; font-size:50px;"">Agent B","null","","","","","","",""
"","null","video-keyboard-response","492","1399279","0.0-492.0","","null","","Agent B","scrambled","/Users/kirstenziman/Desktop/Desktop/DIDEC_entire_corpus/analysis_3/STIM_SET_1/0_1160140.bmppp76_L1V1_freeview_scrambled.mp4","","",""
"","","call-function","493","1399280","0.0-493.0","","","","","","","","",""
"","2909.0999999940395","survey-likert","494","1402190","0.0-494.0","","","","","","","{""judgement"":1}","[0]","0"
"","1583.9000000059605","survey-likert","495","1403775","0.0-495.0","","","","","","","{""confidence"":2}","[0]",""
"[{""page_index"":0,""viewing_time"":59541.5},{""page_index"":1,""viewing_time"":529.7999999821186},{""page_index"":2,""viewing_time"":503.7000000178814}]","60575.19999998808","instructions","496","1464351","0.0-496.0","","","","","","","","",""
"[{""page_index"":0,""viewing_time"":570.7999999821186},{""page_index"":1,""viewing_time"":646},{""page_index"":2,""viewing_time"":567.7000000178814}]","1784.699999988079","instructions","497","1466137","0.0-497.0","","","","","","","","",""
"","","call-function","498","1466137","0.0-498.0","","","","","","","","",""
"","null","html-keyboard-response","499","1469143","0.0-499.0","<span style=""color:Black; font-size:50px;"">Agent A","null","","","","","","",""
"","null","video-keyboard-response","500","1472447","0.0-500.0","","null","","Agent A","veridical","/Users/kirstenziman/Desktop/Desktop/DIDEC_entire_corpus/analysis_3/STIM_SET_1/0_712977.bmppp68_L1V1_freeview_veridical.mp4","","",""
"","null","html-keyboard-response","501","1475450","0.0-501.0","<span style=""color:Black; font-size:50px;"">Agent B","null","","","","","","",""
"","null","video-keyboard-response","502","1478630","0.0-502.0","","null","","Agent B","scrambled","/Users/kirstenziman/Desktop/Desktop/DIDEC_entire_corpus/analysis_3/STIM_SET_1/0_712977.bmppp68_L1V1_freeview_scrambled.mp4","","",""
"","","call-function","503","1478631","0.0-503.0","","","","","","","","",""
"","2590","survey-likert","504","1481222","0.0-504.0","","","","","","","{""judgement"":0}","[0]","0"
"","1187.7999999821186","survey-likert","505","1482411","0.0-505.0","","","","","","","{""confidence"":2}","[0]",""
"","","call-function","506","1482412","0.0-506.0","","","","","","","","",""
"","null","html-keyboard-response","507","1485418","0.0-507.0","<span style=""color:Black; font-size:50px;"">Agent A","null","","","","","","",""
"","null","video-keyboard-response","508","1488614","0.0-508.0","","null","","Agent A","veridical","/Users/kirstenziman/Desktop/Desktop/DIDEC_entire_corpus/analysis_3/STIM_SET_1/0_713786.bmppp68_L1V1_freeview_veridical.mp4","","",""
"","null","html-keyboard-response","509","1491618","0.0-509.0","<span style=""color:Black; font-size:50px;"">Agent B","null","","","","","","",""
"","null","video-keyboard-response","510","1494846","0.0-510.0","","null","","Agent B","scrambled","/Users/kirstenziman/Desktop/Desktop/DIDEC_entire_corpus/analysis_3/STIM_SET_1/0_713786.bmppp68_L1V1_freeview_scrambled.mp4","","",""
"","","call-function","511","1494847","0.0-511.0","","","","","","","","",""
"","2611.300000011921","survey-likert","512","1497459","0.0-512.0","","","","","","","{""judgement"":1}","[0]","0"
"","1604.9000000059605","survey-likert","513","1499066","0.0-513.0","","","","","","","{""confidence"":1}","[0]",""
"","","call-function","514","1499067","0.0-514.0","","","","","","","","",""
"","null","html-keyboard-response","515","1502067","0.0-515.0","<span style=""color:Black; font-size:50px;"">Agent A","null","","","","","","",""
"","null","video-keyboard-response","516","1505194","0.0-516.0","","null","","Agent A","scrambled","/Users/kirstenziman/Desktop/Desktop/DIDEC_entire_corpus/analysis_3/STIM_SET_1/0_1591909.bmppp89_L1V1_freeview_scrambled.mp4","","",""
"","null","html-keyboard-response","517","1508197","0.0-517.0","<span style=""color:Black; font-size:50px;"">Agent B","null","","","","","","",""
"","null","video-keyboard-response","518","1511348","0.0-518.0","","null","","Agent B","veridical","/Users/kirstenziman/Desktop/Desktop/DIDEC_entire_corpus/analysis_3/STIM_SET_1/0_1591909.bmppp89_L1V1_freeview_veridical.mp4","","",""
"","","call-function","519","1511348","0.0-519.0","","","","","","","","",""
"","3094.199999988079","survey-likert","520","1514444","0.0-520.0","","","","","","","{""judgement"":1}","[0]","1"
"","1661.800000011921","survey-likert","521","1516106","0.0-521.0","","","","","","","{""confidence"":2}","[0]",""
"","","call-function","522","1516107","0.0-522.0","","","","","","","","",""
"","null","html-keyboard-response","523","1519111","0.0-523.0","<span style=""color:Black; font-size:50px;"">Agent A","null","","","","","","",""
"","null","video-keyboard-response","524","1522263","0.0-524.0","","null","","Agent A","scrambled","/Users/kirstenziman/Desktop/Desktop/DIDEC_entire_corpus/analysis_3/STIM_SET_1/0_1592568.bmppp93_L1V1_freeview_scrambled.mp4","","",""
"","null","html-keyboard-response","525","1525264","0.0-525.0","<span style=""color:Black; font-size:50px;"">Agent B","null","","","","","","",""
"","null","video-keyboard-response","526","1528447","0.0-526.0","","null","","Agent B","veridical","/Users/kirstenziman/Desktop/Desktop/DIDEC_entire_corpus/analysis_3/STIM_SET_1/0_1592568.bmppp93_L1V1_freeview_veridical.mp4","","",""
"","","call-function","527","1528448","0.0-527.0","","","","","","","","",""
"","1932.6000000238419","survey-likert","528","1530381","0.0-528.0","","","","","","","{""judgement"":0}","[0]","1"
"","1891.300000011921","survey-likert","529","1532274","0.0-529.0","","","","","","","{""confidence"":1}","[0]",""
"","","call-function","530","1532275","0.0-530.0","","","","","","","","",""
"","null","html-keyboard-response","531","1535281","0.0-531.0","<span style=""color:Black; font-size:50px;"">Agent A","null","","","","","","",""
"","null","video-keyboard-response","532","1538454","0.0-532.0","","null","","Agent A","veridical","/Users/kirstenziman/Desktop/Desktop/DIDEC_entire_corpus/analysis_3/STIM_SET_1/0_107930.bmppp51_L1V1_freeview_veridical.mp4","","",""
"","null","html-keyboard-response","533","1541460","0.0-533.0","<span style=""color:Black; font-size:50px;"">Agent B","null","","","","","","",""
"","null","video-keyboard-response","534","1544658","0.0-534.0","","null","","Agent B","scrambled","/Users/kirstenziman/Desktop/Desktop/DIDEC_entire_corpus/analysis_3/STIM_SET_1/0_107930.bmppp51_L1V1_freeview_scrambled.mp4","","",""
"","","call-function","535","1544659","0.0-535.0","","","","","","","","",""
"","2251.5","survey-likert","536","1546911","0.0-536.0","","","","","","","{""judgement"":1}","[0]","0"
"","1554.300000011921","survey-likert","537","1548467","0.0-537.0","","","","","","","{""confidence"":2}","[0]",""
"","","call-function","538","1548468","0.0-538.0","","","","","","","","",""
"","null","html-keyboard-response","539","1551473","0.0-539.0","<span style=""color:Black; font-size:50px;"">Agent A","null","","","","","","",""
"","null","video-keyboard-response","540","1554659","0.0-540.0","","null","","Agent A","veridical","/Users/kirstenziman/Desktop/Desktop/DIDEC_entire_corpus/analysis_3/STIM_SET_1/0_1160062.bmppp71_L1V1_freeview_veridical.mp4","","",""
"","null","html-keyboard-response","541","1557661","0.0-541.0","<span style=""color:Black; font-size:50px;"">Agent B","null","","","","","","",""
"","null","video-keyboard-response","542","1560844","0.0-542.0","","null","","Agent B","scrambled","/Users/kirstenziman/Desktop/Desktop/DIDEC_entire_corpus/analysis_3/STIM_SET_1/0_1160062.bmppp71_L1V1_freeview_scrambled.mp4","","",""
"","","call-function","543","1560845","0.0-543.0","","","","","","","","",""
"","2611.9000000059605","survey-likert","544","1563457","0.0-544.0","","","","","","","{""judgement"":1}","[0]","0"
"","5391.300000011921","survey-likert","545","1568850","0.0-545.0","","","","","","","{""confidence"":2}","[0]",""
"","","call-function","546","1568851","0.0-546.0","","","","","","","","",""
"","null","html-keyboard-response","547","1571855","0.0-547.0","<span style=""color:Black; font-size:50px;"">Agent A","null","","","","","","",""
"","null","video-keyboard-response","548","1574964","0.0-548.0","","null","","Agent A","scrambled","/Users/kirstenziman/Desktop/Desktop/DIDEC_entire_corpus/analysis_3/STIM_SET_1/0_713788.bmppp81_L1V1_freeview_scrambled.mp4","","",""
"","null","html-keyboard-response","549","1577967","0.0-549.0","<span style=""color:Black; font-size:50px;"">Agent B","null","","","","","","",""
"","null","video-keyboard-response","550","1581081","0.0-550.0","","null","","Agent B","veridical","/Users/kirstenziman/Desktop/Desktop/DIDEC_entire_corpus/analysis_3/STIM_SET_1/0_713788.bmppp81_L1V1_freeview_veridical.mp4","","",""
"","","call-function","551","1581081","0.0-551.0","","","","","","","","",""
"","2959.4000000059605","survey-likert","552","1584041","0.0-552.0","","","","","","","{""judgement"":1}","[0]","1"
"","2568.100000023842","survey-likert","553","1586611","0.0-553.0","","","","","","","{""confidence"":1}","[0]",""
"","","call-function","554","1586613","0.0-554.0","","","","","","","","",""
"","null","html-keyboard-response","555","1589618","0.0-555.0","<span style=""color:Black; font-size:50px;"">Agent A","null","","","","","","",""
"","null","video-keyboard-response","556","1592775","0.0-556.0","","null","","Agent A","scrambled","/Users/kirstenziman/Desktop/Desktop/DIDEC_entire_corpus/analysis_3/STIM_SET_1/0_1593041.bmppp89_L1V1_freeview_scrambled.mp4","","",""
"","null","html-keyboard-response","557","1595777","0.0-557.0","<span style=""color:Black; font-size:50px;"">Agent B","null","","","","","","",""
"","null","video-keyboard-response","558","1598948","0.0-558.0","","null","","Agent B","veridical","/Users/kirstenziman/Desktop/Desktop/DIDEC_entire_corpus/analysis_3/STIM_SET_1/0_1593041.bmppp89_L1V1_freeview_veridical.mp4","","",""
"","","call-function","559","1598948","0.0-559.0","","","","","","","","",""
"","2821.300000011921","survey-likert","560","1601770","0.0-560.0","","","","","","","{""judgement"":1}","[0]","1"
"","4447","survey-likert","561","1606219","0.0-561.0","","","","","","","{""confidence"":1}","[0]",""
"","","call-function","562","1606220","0.0-562.0","","","","","","","","",""
"","null","html-keyboard-response","563","1609221","0.0-563.0","<span style=""color:Black; font-size:50px;"">Agent A","null","","","","","","",""
"","null","video-keyboard-response","564","1612448","0.0-564.0","","null","","Agent A","scrambled","/Users/kirstenziman/Desktop/Desktop/DIDEC_entire_corpus/analysis_3/STIM_SET_1/0_1592119.bmppp63_L1V1_freeview_scrambled.mp4","","",""
"","null","html-keyboard-response","565","1615450","0.0-565.0","<span style=""color:Black; font-size:50px;"">Agent B","null","","","","","","",""
"","null","video-keyboard-response","566","1618578","0.0-566.0","","null","","Agent B","veridical","/Users/kirstenziman/Desktop/Desktop/DIDEC_entire_corpus/analysis_3/STIM_SET_1/0_1592119.bmppp63_L1V1_freeview_veridical.mp4","","",""
"","","call-function","567","1618578","0.0-567.0","","","","","","","","",""
"","1995.800000011921","survey-likert","568","1620575","0.0-568.0","","","","","","","{""judgement"":1}","[0]","1"
"","1777.1000000238419","survey-likert","569","1622353","0.0-569.0","","","","","","","{""confidence"":2}","[0]",""
"","","call-function","570","1622354","0.0-570.0","","","","","","","","",""
"","null","html-keyboard-response","571","1625356","0.0-571.0","<span style=""color:Black; font-size:50px;"">Agent A","null","","","","","","",""
"","null","video-keyboard-response","572","1628573","0.0-572.0","","null","","Agent A","scrambled","/Users/kirstenziman/Desktop/Desktop/DIDEC_entire_corpus/analysis_3/STIM_SET_1/0_1592079.bmppp71_L1V1_freeview_scrambled.mp4","","",""
"","null","html-keyboard-response","573","1631577","0.0-573.0","<span style=""color:Black; font-size:50px;"">Agent B","null","","","","","","",""
"","null","video-keyboard-response","574","1634705","0.0-574.0","","null","","Agent B","veridical","/Users/kirstenziman/Desktop/Desktop/DIDEC_entire_corpus/analysis_3/STIM_SET_1/0_1592079.bmppp71_L1V1_freeview_veridical.mp4","","",""
"","","call-function","575","1634705","0.0-575.0","","","","","","","","",""
"","1726.9000000059605","survey-likert","576","1636433","0.0-576.0","","","","","","","{""judgement"":1}","[0]","1"
"","1723.5999999940395","survey-likert","577","1638158","0.0-577.0","","","","","","","{""confidence"":2}","[0]",""
"[{""page_index"":0,""viewing_time"":2289.7000000178814}]","2290.100000023842","instructions","578","1640449","0.0-578.0","","","","","","","","",""
"","13736.399999976158","survey-text","579","1654202","0.0-579.0","","","","","","","{""Q0"":""""}","",""
"","2528.699999988079","survey-text","580","1656732","0.0-580.0","","","","","","","{""Q0"":""""}","",""
"","3073.699999988079","survey-text","581","1659807","0.0-581.0","","","","","","","{""Q0"":""""}","",""
"[{""page_index"":0,""viewing_time"":1802.1000000238419}]","1802.7000000178814","instructions","582","1661610","0.0-582.0","","","","","","","","",""
