"view_history","rt","trial_type","trial_index","time_elapsed","internal_node_id","stimulus","key_press","value","agent","condition","image","responses","question_order","correct_answer"
"[{""page_index"":0,""viewing_time"":40933.09999999404}]","40933.80000001192","instructions","0","40940","0.0-0.0","","","","","","","","",""
"[{""page_index"":0,""viewing_time"":6525.800000011921},{""page_index"":1,""viewing_time"":2165.199999988079},{""page_index"":2,""viewing_time"":7301.600000023842}]","15992.800000011921","instructions","1","56934","0.0-1.0","","","","","","","","",""
"[{""page_index"":0,""viewing_time"":3489.5999999940395}]","3489.699999988079","instructions","2","60425","0.0-2.0","","","","","","","","",""
"","null","video-keyboard-response","3","63680","0.0-3.0","","null","","","","","","",""
"[{""page_index"":0,""viewing_time"":4152.800000011921},{""page_index"":1,""viewing_time"":3912.5},{""page_index"":2,""viewing_time"":8362.5}]","16427.90000000596","instructions","4","80109","0.0-4.0","","","","","","","","",""
"[{""page_index"":0,""viewing_time"":4054.9000000059605}]","4055.0999999940395","instructions","5","84164","0.0-5.0","","","","","","","","",""
"","null","video-keyboard-response","6","87281","0.0-6.0","","null","","","","","","",""
"[{""page_index"":0,""viewing_time"":2423.2000000178814},{""page_index"":1,""viewing_time"":7834.299999982119},{""page_index"":2,""viewing_time"":15930.300000011921}]","26188","instructions","7","113470","0.0-7.0","","","","","","","","",""
"[{""page_index"":0,""viewing_time"":3672.2000000178814}]","3672.4000000059605","instructions","8","117143","0.0-8.0","","","","","","","","",""
"","","call-function","9","117144","0.0-9.0","","","","","","","","",""
"","null","html-keyboard-response","10","120149","0.0-10.0","<span style=""color:Black; font-size:50px;"">Agent A","null","","","","","","",""
"","null","video-keyboard-response","11","123289","0.0-11.0","","null","","Agent A","veridical","/Users/kirstenziman/Desktop/Desktop/DIDEC_entire_corpus/analysis_3/STIM_SET_2/0_1159392.bmppp95_L1V1_freeview_veridical_mapOnly.mp4","","",""
"","null","html-keyboard-response","12","126293","0.0-12.0","<span style=""color:Black; font-size:50px;"">Agent B","null","","","","","","",""
"","null","video-keyboard-response","13","129372","0.0-13.0","","null","","Agent B","scrambled","/Users/kirstenziman/Desktop/Desktop/DIDEC_entire_corpus/analysis_3/STIM_SET_2/0_1159392.bmppp95_L1V1_freeview_scrambled_mapOnly.mp4","","",""
"","","call-function","14","129373","0.0-14.0","","","","","","","","",""
"","4053.9000000059605","survey-likert","15","133429","0.0-15.0","","","","","","","{""judgement"":1}","[0]","0"
"","4036.300000011921","survey-likert","16","137467","0.0-16.0","","","","","","","{""confidence"":2}","[0]",""
"","","call-function","17","137467","0.0-17.0","","","","","","","","",""
"","null","html-keyboard-response","18","140469","0.0-18.0","<span style=""color:Black; font-size:50px;"">Agent A","null","","","","","","",""
"","null","video-keyboard-response","19","143571","0.0-19.0","","null","","Agent A","scrambled","/Users/kirstenziman/Desktop/Desktop/DIDEC_entire_corpus/analysis_3/STIM_SET_2/0_1592193.bmppp70_L1V1_freeview_scrambled_mapOnly.mp4","","",""
"","null","html-keyboard-response","20","146575","0.0-20.0","<span style=""color:Black; font-size:50px;"">Agent B","null","","","","","","",""
"","null","video-keyboard-response","21","149766","0.0-21.0","","null","","Agent B","veridical","/Users/kirstenziman/Desktop/Desktop/DIDEC_entire_corpus/analysis_3/STIM_SET_2/0_1592193.bmppp70_L1V1_freeview_veridical_mapOnly.mp4","","",""
"","","call-function","22","149767","0.0-22.0","","","","","","","","",""
"","6151","survey-likert","23","155918","0.0-23.0","","","","","","","{""judgement"":0}","[0]","1"
"","2472.0999999940395","survey-likert","24","158391","0.0-24.0","","","","","","","{""confidence"":0}","[0]",""
"","","call-function","25","158392","0.0-25.0","","","","","","","","",""
"","null","html-keyboard-response","26","161396","0.0-26.0","<span style=""color:Black; font-size:50px;"">Agent A","null","","","","","","",""
"","null","video-keyboard-response","27","164612","0.0-27.0","","null","","Agent A","scrambled","/Users/kirstenziman/Desktop/Desktop/DIDEC_entire_corpus/analysis_3/STIM_SET_2/0_1591859.bmppp61_L1V1_freeview_scrambled_mapOnly.mp4","","",""
"","null","html-keyboard-response","28","167615","0.0-28.0","<span style=""color:Black; font-size:50px;"">Agent B","null","","","","","","",""
"","null","video-keyboard-response","29","170781","0.0-29.0","","null","","Agent B","veridical","/Users/kirstenziman/Desktop/Desktop/DIDEC_entire_corpus/analysis_3/STIM_SET_2/0_1591859.bmppp61_L1V1_freeview_veridical_mapOnly.mp4","","",""
"","","call-function","30","170781","0.0-30.0","","","","","","","","",""
"","2973.0999999940395","survey-likert","31","173755","0.0-31.0","","","","","","","{""judgement"":1}","[0]","1"
"","2835.300000011921","survey-likert","32","176591","0.0-32.0","","","","","","","{""confidence"":1}","[0]",""
"","","call-function","33","176592","0.0-33.0","","","","","","","","",""
"","null","html-keyboard-response","34","179594","0.0-34.0","<span style=""color:Black; font-size:50px;"">Agent A","null","","","","","","",""
"","null","video-keyboard-response","35","182730","0.0-35.0","","null","","Agent A","veridical","/Users/kirstenziman/Desktop/Desktop/DIDEC_entire_corpus/analysis_3/STIM_SET_2/0_1159397.bmppp86_L1V1_freeview_veridical_mapOnly.mp4","","",""
"","null","html-keyboard-response","36","185734","0.0-36.0","<span style=""color:Black; font-size:50px;"">Agent B","null","","","","","","",""
"","null","video-keyboard-response","37","188945","0.0-37.0","","null","","Agent B","scrambled","/Users/kirstenziman/Desktop/Desktop/DIDEC_entire_corpus/analysis_3/STIM_SET_2/0_1159397.bmppp86_L1V1_freeview_scrambled_mapOnly.mp4","","",""
"","","call-function","38","188945","0.0-38.0","","","","","","","","",""
"","4397","survey-likert","39","193343","0.0-39.0","","","","","","","{""judgement"":0}","[0]","0"
"","2495.0999999940395","survey-likert","40","195839","0.0-40.0","","","","","","","{""confidence"":0}","[0]",""
"","","call-function","41","195839","0.0-41.0","","","","","","","","",""
"","null","html-keyboard-response","42","198844","0.0-42.0","<span style=""color:Black; font-size:50px;"">Agent A","null","","","","","","",""
"","null","video-keyboard-response","43","202001","0.0-43.0","","null","","Agent A","veridical","/Users/kirstenziman/Desktop/Desktop/DIDEC_entire_corpus/analysis_3/STIM_SET_2/0_285859.bmppp53_L1V1_freeview_veridical_mapOnly.mp4","","",""
"","null","html-keyboard-response","44","205004","0.0-44.0","<span style=""color:Black; font-size:50px;"">Agent B","null","","","","","","",""
"","null","video-keyboard-response","45","208167","0.0-45.0","","null","","Agent B","scrambled","/Users/kirstenziman/Desktop/Desktop/DIDEC_entire_corpus/analysis_3/STIM_SET_2/0_285859.bmppp53_L1V1_freeview_scrambled_mapOnly.mp4","","",""
"","","call-function","46","208167","0.0-46.0","","","","","","","","",""
"","4045.5999999940395","survey-likert","47","212214","0.0-47.0","","","","","","","{""judgement"":0}","[0]","0"
"","2352.199999988079","survey-likert","48","214567","0.0-48.0","","","","","","","{""confidence"":1}","[0]",""
"","","call-function","49","214567","0.0-49.0","","","","","","","","",""
"","null","html-keyboard-response","50","217571","0.0-50.0","<span style=""color:Black; font-size:50px;"">Agent A","null","","","","","","",""
"","null","video-keyboard-response","51","220727","0.0-51.0","","null","","Agent A","scrambled","/Users/kirstenziman/Desktop/Desktop/DIDEC_entire_corpus/analysis_3/STIM_SET_2/0_1591961.bmppp88_L1V1_freeview_scrambled_mapOnly.mp4","","",""
"","null","html-keyboard-response","52","223731","0.0-52.0","<span style=""color:Black; font-size:50px;"">Agent B","null","","","","","","",""
"","null","video-keyboard-response","53","226918","0.0-53.0","","null","","Agent B","veridical","/Users/kirstenziman/Desktop/Desktop/DIDEC_entire_corpus/analysis_3/STIM_SET_2/0_1591961.bmppp88_L1V1_freeview_veridical_mapOnly.mp4","","",""
"","","call-function","54","226918","0.0-54.0","","","","","","","","",""
"","2416.9000000059605","survey-likert","55","229335","0.0-55.0","","","","","","","{""judgement"":1}","[0]","1"
"","2656","survey-likert","56","231992","0.0-56.0","","","","","","","{""confidence"":2}","[0]",""
"","","call-function","57","231993","0.0-57.0","","","","","","","","",""
"","null","html-keyboard-response","58","234994","0.0-58.0","<span style=""color:Black; font-size:50px;"">Agent A","null","","","","","","",""
"","null","video-keyboard-response","59","238272","0.0-59.0","","null","","Agent A","scrambled","/Users/kirstenziman/Desktop/Desktop/DIDEC_entire_corpus/analysis_3/STIM_SET_2/0_1160155.bmppp67_L1V1_freeview_scrambled_mapOnly.mp4","","",""
"","null","html-keyboard-response","60","241277","0.0-60.0","<span style=""color:Black; font-size:50px;"">Agent B","null","","","","","","",""
"","null","video-keyboard-response","61","244418","0.0-61.0","","null","","Agent B","veridical","/Users/kirstenziman/Desktop/Desktop/DIDEC_entire_corpus/analysis_3/STIM_SET_2/0_1160155.bmppp67_L1V1_freeview_veridical_mapOnly.mp4","","",""
"","","call-function","62","244418","0.0-62.0","","","","","","","","",""
"","2446.5","survey-likert","63","246865","0.0-63.0","","","","","","","{""judgement"":1}","[0]","1"
"","2503.300000011921","survey-likert","64","249370","0.0-64.0","","","","","","","{""confidence"":2}","[0]",""
"","","call-function","65","249370","0.0-65.0","","","","","","","","",""
"","null","html-keyboard-response","66","252374","0.0-66.0","<span style=""color:Black; font-size:50px;"">Agent A","null","","","","","","",""
"","null","video-keyboard-response","67","255518","0.0-67.0","","null","","Agent A","veridical","/Users/kirstenziman/Desktop/Desktop/DIDEC_entire_corpus/analysis_3/STIM_SET_2/0_713328.bmppp62_L1V1_freeview_veridical_mapOnly.mp4","","",""
"","null","html-keyboard-response","68","258523","0.0-68.0","<span style=""color:Black; font-size:50px;"">Agent B","null","","","","","","",""
"","null","video-keyboard-response","69","261697","0.0-69.0","","null","","Agent B","scrambled","/Users/kirstenziman/Desktop/Desktop/DIDEC_entire_corpus/analysis_3/STIM_SET_2/0_713328.bmppp62_L1V1_freeview_scrambled_mapOnly.mp4","","",""
"","","call-function","70","261697","0.0-70.0","","","","","","","","",""
"","3978.5999999940395","survey-likert","71","265676","0.0-71.0","","","","","","","{""judgement"":0}","[0]","0"
"","3279.5","survey-likert","72","268957","0.0-72.0","","","","","","","{""confidence"":2}","[0]",""
"","","call-function","73","268957","0.0-73.0","","","","","","","","",""
"","null","html-keyboard-response","74","271962","0.0-74.0","<span style=""color:Black; font-size:50px;"">Agent A","null","","","","","","",""
"","null","video-keyboard-response","75","275092","0.0-75.0","","null","","Agent A","scrambled","/Users/kirstenziman/Desktop/Desktop/DIDEC_entire_corpus/analysis_3/STIM_SET_2/0_61574.bmppp90_L1V1_freeview_scrambled_mapOnly.mp4","","",""
"","null","html-keyboard-response","76","278096","0.0-76.0","<span style=""color:Black; font-size:50px;"">Agent B","null","","","","","","",""
"","null","video-keyboard-response","77","281231","0.0-77.0","","null","","Agent B","veridical","/Users/kirstenziman/Desktop/Desktop/DIDEC_entire_corpus/analysis_3/STIM_SET_2/0_61574.bmppp90_L1V1_freeview_veridical_mapOnly.mp4","","",""
"","","call-function","78","281231","0.0-78.0","","","","","","","","",""
"","1958.9000000059605","survey-likert","79","283191","0.0-79.0","","","","","","","{""judgement"":0}","[0]","1"
"","1454","survey-likert","80","284645","0.0-80.0","","","","","","","{""confidence"":2}","[0]",""
"","","call-function","81","284646","0.0-81.0","","","","","","","","",""
"","null","html-keyboard-response","82","287652","0.0-82.0","<span style=""color:Black; font-size:50px;"">Agent A","null","","","","","","",""
"","null","video-keyboard-response","83","290781","0.0-83.0","","null","","Agent A","veridical","/Users/kirstenziman/Desktop/Desktop/DIDEC_entire_corpus/analysis_3/STIM_SET_2/0_498388.bmppp62_L1V1_freeview_veridical_mapOnly.mp4","","",""
"","null","html-keyboard-response","84","293785","0.0-84.0","<span style=""color:Black; font-size:50px;"">Agent B","null","","","","","","",""
"","null","video-keyboard-response","85","296914","0.0-85.0","","null","","Agent B","scrambled","/Users/kirstenziman/Desktop/Desktop/DIDEC_entire_corpus/analysis_3/STIM_SET_2/0_498388.bmppp62_L1V1_freeview_scrambled_mapOnly.mp4","","",""
"","","call-function","86","296914","0.0-86.0","","","","","","","","",""
"","8488.300000011921","survey-likert","87","305403","0.0-87.0","","","","","","","{""judgement"":0}","[0]","0"
"","2358.5","survey-likert","88","307762","0.0-88.0","","","","","","","{""confidence"":3}","[0]",""
"[{""page_index"":0,""viewing_time"":2350.2999999821186},{""page_index"":1,""viewing_time"":1209.7000000178814},{""page_index"":2,""viewing_time"":164.40000000596046}]","3724.5999999940395","instructions","89","311488","0.0-89.0","","","","","","","","",""
"[{""page_index"":0,""viewing_time"":1346},{""page_index"":1,""viewing_time"":165.69999998807907},{""page_index"":2,""viewing_time"":2058.4000000059605}]","3570.2999999821186","instructions","90","315058","0.0-90.0","","","","","","","","",""
"","","call-function","91","315059","0.0-91.0","","","","","","","","",""
"","null","html-keyboard-response","92","318062","0.0-92.0","<span style=""color:Black; font-size:50px;"">Agent A","null","","","","","","",""
"","null","video-keyboard-response","93","321228","0.0-93.0","","null","","Agent A","veridical","/Users/kirstenziman/Desktop/Desktop/DIDEC_entire_corpus/analysis_3/STIM_SET_2/0_1159897.bmppp53_L1V1_freeview_veridical_mapOnly.mp4","","",""
"","null","html-keyboard-response","94","324232","0.0-94.0","<span style=""color:Black; font-size:50px;"">Agent B","null","","","","","","",""
"","null","video-keyboard-response","95","327318","0.0-95.0","","null","","Agent B","scrambled","/Users/kirstenziman/Desktop/Desktop/DIDEC_entire_corpus/analysis_3/STIM_SET_2/0_1159897.bmppp53_L1V1_freeview_scrambled_mapOnly.mp4","","",""
"","","call-function","96","327318","0.0-96.0","","","","","","","","",""
"","1790.7999999821186","survey-likert","97","329109","0.0-97.0","","","","","","","{""judgement"":0}","[0]","0"
"","2632.9000000059605","survey-likert","98","331743","0.0-98.0","","","","","","","{""confidence"":3}","[0]",""
"","","call-function","99","331744","0.0-99.0","","","","","","","","",""
"","null","html-keyboard-response","100","334747","0.0-100.0","<span style=""color:Black; font-size:50px;"">Agent A","null","","","","","","",""
"","null","video-keyboard-response","101","337956","0.0-101.0","","null","","Agent A","veridical","/Users/kirstenziman/Desktop/Desktop/DIDEC_entire_corpus/analysis_3/STIM_SET_2/0_1159882.bmppp96_L1V1_freeview_veridical_mapOnly.mp4","","",""
"","null","html-keyboard-response","102","340958","0.0-102.0","<span style=""color:Black; font-size:50px;"">Agent B","null","","","","","","",""
"","null","video-keyboard-response","103","344107","0.0-103.0","","null","","Agent B","scrambled","/Users/kirstenziman/Desktop/Desktop/DIDEC_entire_corpus/analysis_3/STIM_SET_2/0_1159882.bmppp96_L1V1_freeview_scrambled_mapOnly.mp4","","",""
"","","call-function","104","344107","0.0-104.0","","","","","","","","",""
"","2377.0999999940395","survey-likert","105","346485","0.0-105.0","","","","","","","{""judgement"":1}","[0]","0"
"","2861.9000000059605","survey-likert","106","349348","0.0-106.0","","","","","","","{""confidence"":0}","[0]",""
"","","call-function","107","349348","0.0-107.0","","","","","","","","",""
"","null","html-keyboard-response","108","352353","0.0-108.0","<span style=""color:Black; font-size:50px;"">Agent A","null","","","","","","",""
"","null","video-keyboard-response","109","355429","0.0-109.0","","null","","Agent A","veridical","/Users/kirstenziman/Desktop/Desktop/DIDEC_entire_corpus/analysis_3/STIM_SET_2/0_713779.bmppp67_L1V1_freeview_veridical_mapOnly.mp4","","",""
"","null","html-keyboard-response","110","358431","0.0-110.0","<span style=""color:Black; font-size:50px;"">Agent B","null","","","","","","",""
"","null","video-keyboard-response","111","361612","0.0-111.0","","null","","Agent B","scrambled","/Users/kirstenziman/Desktop/Desktop/DIDEC_entire_corpus/analysis_3/STIM_SET_2/0_713779.bmppp67_L1V1_freeview_scrambled_mapOnly.mp4","","",""
"","","call-function","112","361612","0.0-112.0","","","","","","","","",""
"","2328.300000011921","survey-likert","113","363941","0.0-113.0","","","","","","","{""judgement"":0}","[0]","0"
"","1986.9000000059605","survey-likert","114","365929","0.0-114.0","","","","","","","{""confidence"":1}","[0]",""
"","","call-function","115","365929","0.0-115.0","","","","","","","","",""
"","null","html-keyboard-response","116","368932","0.0-116.0","<span style=""color:Black; font-size:50px;"">Agent A","null","","","","","","",""
"","null","video-keyboard-response","117","372152","0.0-117.0","","null","","Agent A","scrambled","/Users/kirstenziman/Desktop/Desktop/DIDEC_entire_corpus/analysis_3/STIM_SET_2/0_1592394.bmppp86_L1V1_freeview_scrambled_mapOnly.mp4","","",""
"","null","html-keyboard-response","118","375156","0.0-118.0","<span style=""color:Black; font-size:50px;"">Agent B","null","","","","","","",""
"","null","video-keyboard-response","119","378285","0.0-119.0","","null","","Agent B","veridical","/Users/kirstenziman/Desktop/Desktop/DIDEC_entire_corpus/analysis_3/STIM_SET_2/0_1592394.bmppp86_L1V1_freeview_veridical_mapOnly.mp4","","",""
"","","call-function","120","378285","0.0-120.0","","","","","","","","",""
"","2839.4000000059605","survey-likert","121","381125","0.0-121.0","","","","","","","{""judgement"":1}","[0]","1"
"","1736.199999988079","survey-likert","122","382862","0.0-122.0","","","","","","","{""confidence"":0}","[0]",""
"","","call-function","123","382863","0.0-123.0","","","","","","","","",""
"","null","html-keyboard-response","124","385870","0.0-124.0","<span style=""color:Black; font-size:50px;"">Agent A","null","","","","","","",""
"","null","video-keyboard-response","125","389060","0.0-125.0","","null","","Agent A","veridical","/Users/kirstenziman/Desktop/Desktop/DIDEC_entire_corpus/analysis_3/STIM_SET_2/0_1592499.bmppp152_L1V1_freeview_veridical_mapOnly.mp4","","",""
"","null","html-keyboard-response","126","392061","0.0-126.0","<span style=""color:Black; font-size:50px;"">Agent B","null","","","","","","",""
"","null","video-keyboard-response","127","395294","0.0-127.0","","null","","Agent B","scrambled","/Users/kirstenziman/Desktop/Desktop/DIDEC_entire_corpus/analysis_3/STIM_SET_2/0_1592499.bmppp152_L1V1_freeview_scrambled_mapOnly.mp4","","",""
"","","call-function","128","395294","0.0-128.0","","","","","","","","",""
"","3502.899999976158","survey-likert","129","398798","0.0-129.0","","","","","","","{""judgement"":1}","[0]","0"
"","2803","survey-likert","130","401602","0.0-130.0","","","","","","","{""confidence"":1}","[0]",""
"","","call-function","131","401603","0.0-131.0","","","","","","","","",""
"","null","html-keyboard-response","132","404606","0.0-132.0","<span style=""color:Black; font-size:50px;"">Agent A","null","","","","","","",""
"","null","video-keyboard-response","133","407784","0.0-133.0","","null","","Agent A","veridical","/Users/kirstenziman/Desktop/Desktop/DIDEC_entire_corpus/analysis_3/STIM_SET_2/0_498396.bmppp79_L1V1_freeview_veridical_mapOnly.mp4","","",""
"","null","html-keyboard-response","134","410788","0.0-134.0","<span style=""color:Black; font-size:50px;"">Agent B","null","","","","","","",""
"","null","video-keyboard-response","135","413901","0.0-135.0","","null","","Agent B","scrambled","/Users/kirstenziman/Desktop/Desktop/DIDEC_entire_corpus/analysis_3/STIM_SET_2/0_498396.bmppp79_L1V1_freeview_scrambled_mapOnly.mp4","","",""
"","","call-function","136","413902","0.0-136.0","","","","","","","","",""
"","5162.5999999940395","survey-likert","137","419065","0.0-137.0","","","","","","","{""judgement"":1}","[0]","0"
"","1792.7999999821186","survey-likert","138","420859","0.0-138.0","","","","","","","{""confidence"":1}","[0]",""
"","","call-function","139","420860","0.0-139.0","","","","","","","","",""
"","null","html-keyboard-response","140","423861","0.0-140.0","<span style=""color:Black; font-size:50px;"">Agent A","null","","","","","","",""
"","null","video-keyboard-response","141","426951","0.0-141.0","","null","","Agent A","scrambled","/Users/kirstenziman/Desktop/Desktop/DIDEC_entire_corpus/analysis_3/STIM_SET_2/0_498155.bmppp90_L1V1_freeview_scrambled_mapOnly.mp4","","",""
"","null","html-keyboard-response","142","429957","0.0-142.0","<span style=""color:Black; font-size:50px;"">Agent B","null","","","","","","",""
"","null","video-keyboard-response","143","433031","0.0-143.0","","null","","Agent B","veridical","/Users/kirstenziman/Desktop/Desktop/DIDEC_entire_corpus/analysis_3/STIM_SET_2/0_498155.bmppp90_L1V1_freeview_veridical_mapOnly.mp4","","",""
"","","call-function","144","433032","0.0-144.0","","","","","","","","",""
"","2243.699999988079","survey-likert","145","435276","0.0-145.0","","","","","","","{""judgement"":1}","[0]","1"
"","2253.7999999821186","survey-likert","146","437531","0.0-146.0","","","","","","","{""confidence"":1}","[0]",""
"","","call-function","147","437531","0.0-147.0","","","","","","","","",""
"","null","html-keyboard-response","148","440533","0.0-148.0","<span style=""color:Black; font-size:50px;"">Agent A","null","","","","","","",""
"","null","video-keyboard-response","149","443669","0.0-149.0","","null","","Agent A","scrambled","/Users/kirstenziman/Desktop/Desktop/DIDEC_entire_corpus/analysis_3/STIM_SET_2/0_150458.bmppp82_L1V1_freeview_scrambled_mapOnly.mp4","","",""
"","null","html-keyboard-response","150","446675","0.0-150.0","<span style=""color:Black; font-size:50px;"">Agent B","null","","","","","","",""
"","null","video-keyboard-response","151","449820","0.0-151.0","","null","","Agent B","veridical","/Users/kirstenziman/Desktop/Desktop/DIDEC_entire_corpus/analysis_3/STIM_SET_2/0_150458.bmppp82_L1V1_freeview_veridical_mapOnly.mp4","","",""
"","","call-function","152","449820","0.0-152.0","","","","","","","","",""
"","3482.7000000178814","survey-likert","153","453303","0.0-153.0","","","","","","","{""judgement"":0}","[0]","1"
"","2819","survey-likert","154","456123","0.0-154.0","","","","","","","{""confidence"":0}","[0]",""
"","","call-function","155","456124","0.0-155.0","","","","","","","","",""
"","null","html-keyboard-response","156","459128","0.0-156.0","<span style=""color:Black; font-size:50px;"">Agent A","null","","","","","","",""
"","null","video-keyboard-response","157","462327","0.0-157.0","","null","","Agent A","veridical","/Users/kirstenziman/Desktop/Desktop/DIDEC_entire_corpus/analysis_3/STIM_SET_2/0_1160093.bmppp152_L1V1_freeview_veridical_mapOnly.mp4","","",""
"","null","html-keyboard-response","158","465329","0.0-158.0","<span style=""color:Black; font-size:50px;"">Agent B","null","","","","","","",""
"","null","video-keyboard-response","159","468553","0.0-159.0","","null","","Agent B","scrambled","/Users/kirstenziman/Desktop/Desktop/DIDEC_entire_corpus/analysis_3/STIM_SET_2/0_1160093.bmppp152_L1V1_freeview_scrambled_mapOnly.mp4","","",""
"","","call-function","160","468553","0.0-160.0","","","","","","","","",""
"","1792.199999988079","survey-likert","161","470346","0.0-161.0","","","","","","","{""judgement"":0}","[0]","0"
"","1378","survey-likert","162","471725","0.0-162.0","","","","","","","{""confidence"":0}","[0]",""
"","","call-function","163","471725","0.0-163.0","","","","","","","","",""
"","null","html-keyboard-response","164","474729","0.0-164.0","<span style=""color:Black; font-size:50px;"">Agent A","null","","","","","","",""
"","null","video-keyboard-response","165","477945","0.0-165.0","","null","","Agent A","scrambled","/Users/kirstenziman/Desktop/Desktop/DIDEC_entire_corpus/analysis_3/STIM_SET_2/0_713749.bmppp88_L1V1_freeview_scrambled_mapOnly.mp4","","",""
"","null","html-keyboard-response","166","480951","0.0-166.0","<span style=""color:Black; font-size:50px;"">Agent B","null","","","","","","",""
"","null","video-keyboard-response","167","484068","0.0-167.0","","null","","Agent B","veridical","/Users/kirstenziman/Desktop/Desktop/DIDEC_entire_corpus/analysis_3/STIM_SET_2/0_713749.bmppp88_L1V1_freeview_veridical_mapOnly.mp4","","",""
"","","call-function","168","484068","0.0-168.0","","","","","","","","",""
"","1894.7000000178814","survey-likert","169","485963","0.0-169.0","","","","","","","{""judgement"":1}","[0]","1"
"","2083.4000000059605","survey-likert","170","488047","0.0-170.0","","","","","","","{""confidence"":2}","[0]",""
"[{""page_index"":0,""viewing_time"":4491.800000011921},{""page_index"":1,""viewing_time"":58371.69999998808},{""page_index"":2,""viewing_time"":1454.5999999940395}]","64318.30000001192","instructions","171","552368","0.0-171.0","","","","","","","","",""
"[{""page_index"":0,""viewing_time"":984.8000000119209},{""page_index"":1,""viewing_time"":3525.4000000059605},{""page_index"":2,""viewing_time"":882.7999999821186}]","5393.0999999940395","instructions","172","557761","0.0-172.0","","","","","","","","",""
"","","call-function","173","557762","0.0-173.0","","","","","","","","",""
"","null","html-keyboard-response","174","560765","0.0-174.0","<span style=""color:Black; font-size:50px;"">Agent A","null","","","","","","",""
"","null","video-keyboard-response","175","563884","0.0-175.0","","null","","Agent A","veridical","/Users/kirstenziman/Desktop/Desktop/DIDEC_entire_corpus/analysis_3/STIM_SET_2/0_713017.bmppp53_L1V1_freeview_veridical_mapOnly.mp4","","",""
"","null","html-keyboard-response","176","566888","0.0-176.0","<span style=""color:Black; font-size:50px;"">Agent B","null","","","","","","",""
"","null","video-keyboard-response","177","570050","0.0-177.0","","null","","Agent B","scrambled","/Users/kirstenziman/Desktop/Desktop/DIDEC_entire_corpus/analysis_3/STIM_SET_2/0_713017.bmppp53_L1V1_freeview_scrambled_mapOnly.mp4","","",""
"","","call-function","178","570050","0.0-178.0","","","","","","","","",""
"","3832.5","survey-likert","179","573884","0.0-179.0","","","","","","","{""judgement"":0}","[0]","0"
"","1760.8999999761581","survey-likert","180","575646","0.0-180.0","","","","","","","{""confidence"":0}","[0]",""
"","","call-function","181","575646","0.0-181.0","","","","","","","","",""
"","null","html-keyboard-response","182","578654","0.0-182.0","<span style=""color:Black; font-size:50px;"">Agent A","null","","","","","","",""
"","null","video-keyboard-response","183","581838","0.0-183.0","","null","","Agent A","veridical","/Users/kirstenziman/Desktop/Desktop/DIDEC_entire_corpus/analysis_3/STIM_SET_2/0_1159904.bmppp88_L1V1_freeview_veridical_mapOnly.mp4","","",""
"","null","html-keyboard-response","184","584843","0.0-184.0","<span style=""color:Black; font-size:50px;"">Agent B","null","","","","","","",""
"","null","video-keyboard-response","185","588055","0.0-185.0","","null","","Agent B","scrambled","/Users/kirstenziman/Desktop/Desktop/DIDEC_entire_corpus/analysis_3/STIM_SET_2/0_1159904.bmppp88_L1V1_freeview_scrambled_mapOnly.mp4","","",""
"","","call-function","186","588055","0.0-186.0","","","","","","","","",""
"","2260.4000000059605","survey-likert","187","590316","0.0-187.0","","","","","","","{""judgement"":0}","[0]","0"
"","1752.5","survey-likert","188","592069","0.0-188.0","","","","","","","{""confidence"":1}","[0]",""
"","","call-function","189","592070","0.0-189.0","","","","","","","","",""
"","null","html-keyboard-response","190","595072","0.0-190.0","<span style=""color:Black; font-size:50px;"">Agent A","null","","","","","","",""
"","null","video-keyboard-response","191","598300","0.0-191.0","","null","","Agent A","veridical","/Users/kirstenziman/Desktop/Desktop/DIDEC_entire_corpus/analysis_3/STIM_SET_2/0_1592367.bmppp79_L1V1_freeview_veridical_mapOnly.mp4","","",""
"","null","html-keyboard-response","192","601304","0.0-192.0","<span style=""color:Black; font-size:50px;"">Agent B","null","","","","","","",""
"","null","video-keyboard-response","193","604681","0.0-193.0","","null","","Agent B","scrambled","/Users/kirstenziman/Desktop/Desktop/DIDEC_entire_corpus/analysis_3/STIM_SET_2/0_1592367.bmppp79_L1V1_freeview_scrambled_mapOnly.mp4","","",""
"","","call-function","194","604682","0.0-194.0","","","","","","","","",""
"","5379.800000011921","survey-likert","195","610062","0.0-195.0","","","","","","","{""judgement"":0}","[0]","0"
"","2035.800000011921","survey-likert","196","612099","0.0-196.0","","","","","","","{""confidence"":0}","[0]",""
"","","call-function","197","612099","0.0-197.0","","","","","","","","",""
"","null","html-keyboard-response","198","615104","0.0-198.0","<span style=""color:Black; font-size:50px;"">Agent A","null","","","","","","",""
"","null","video-keyboard-response","199","618254","0.0-199.0","","null","","Agent A","scrambled","/Users/kirstenziman/Desktop/Desktop/DIDEC_entire_corpus/analysis_3/STIM_SET_2/0_1592656.bmppp95_L1V1_freeview_scrambled_mapOnly.mp4","","",""
"","null","html-keyboard-response","200","621259","0.0-200.0","<span style=""color:Black; font-size:50px;"">Agent B","null","","","","","","",""
"","null","video-keyboard-response","201","624360","0.0-201.0","","null","","Agent B","veridical","/Users/kirstenziman/Desktop/Desktop/DIDEC_entire_corpus/analysis_3/STIM_SET_2/0_1592656.bmppp95_L1V1_freeview_veridical_mapOnly.mp4","","",""
"","","call-function","202","624360","0.0-202.0","","","","","","","","",""
"","1492.5999999940395","survey-likert","203","625853","0.0-203.0","","","","","","","{""judgement"":1}","[0]","1"
"","2116.399999976158","survey-likert","204","627970","0.0-204.0","","","","","","","{""confidence"":1}","[0]",""
"","","call-function","205","627970","0.0-205.0","","","","","","","","",""
"","null","html-keyboard-response","206","630974","0.0-206.0","<span style=""color:Black; font-size:50px;"">Agent A","null","","","","","","",""
"","null","video-keyboard-response","207","634145","0.0-207.0","","null","","Agent A","veridical","/Users/kirstenziman/Desktop/Desktop/DIDEC_entire_corpus/analysis_3/STIM_SET_2/0_1160180.bmppp61_L1V1_freeview_veridical_mapOnly.mp4","","",""
"","null","html-keyboard-response","208","637150","0.0-208.0","<span style=""color:Black; font-size:50px;"">Agent B","null","","","","","","",""
"","null","video-keyboard-response","209","640288","0.0-209.0","","null","","Agent B","scrambled","/Users/kirstenziman/Desktop/Desktop/DIDEC_entire_corpus/analysis_3/STIM_SET_2/0_1160180.bmppp61_L1V1_freeview_scrambled_mapOnly.mp4","","",""
"","","call-function","210","640288","0.0-210.0","","","","","","","","",""
"","2593","survey-likert","211","642882","0.0-211.0","","","","","","","{""judgement"":0}","[0]","0"
"","4055.5","survey-likert","212","646938","0.0-212.0","","","","","","","{""confidence"":1}","[0]",""
"","","call-function","213","646939","0.0-213.0","","","","","","","","",""
"","null","html-keyboard-response","214","649943","0.0-214.0","<span style=""color:Black; font-size:50px;"">Agent A","null","","","","","","",""
"","null","video-keyboard-response","215","653117","0.0-215.0","","null","","Agent A","veridical","/Users/kirstenziman/Desktop/Desktop/DIDEC_entire_corpus/analysis_3/STIM_SET_2/0_713028.bmppp70_L1V1_freeview_veridical_mapOnly.mp4","","",""
"","null","html-keyboard-response","216","656119","0.0-216.0","<span style=""color:Black; font-size:50px;"">Agent B","null","","","","","","",""
"","null","video-keyboard-response","217","659285","0.0-217.0","","null","","Agent B","scrambled","/Users/kirstenziman/Desktop/Desktop/DIDEC_entire_corpus/analysis_3/STIM_SET_2/0_713028.bmppp70_L1V1_freeview_scrambled_mapOnly.mp4","","",""
"","","call-function","218","659285","0.0-218.0","","","","","","","","",""
"","1838.0999999940395","survey-likert","219","661124","0.0-219.0","","","","","","","{""judgement"":0}","[0]","0"
"","1403.7999999821186","survey-likert","220","662530","0.0-220.0","","","","","","","{""confidence"":1}","[0]",""
"","","call-function","221","662530","0.0-221.0","","","","","","","","",""
"","null","html-keyboard-response","222","665534","0.0-222.0","<span style=""color:Black; font-size:50px;"">Agent A","null","","","","","","",""
"","null","video-keyboard-response","223","668642","0.0-223.0","","null","","Agent A","scrambled","/Users/kirstenziman/Desktop/Desktop/DIDEC_entire_corpus/analysis_3/STIM_SET_2/0_713512.bmppp54_L1V1_freeview_scrambled_mapOnly.mp4","","",""
"","null","html-keyboard-response","224","671645","0.0-224.0","<span style=""color:Black; font-size:50px;"">Agent B","null","","","","","","",""
"","null","video-keyboard-response","225","674780","0.0-225.0","","null","","Agent B","veridical","/Users/kirstenziman/Desktop/Desktop/DIDEC_entire_corpus/analysis_3/STIM_SET_2/0_713512.bmppp54_L1V1_freeview_veridical_mapOnly.mp4","","",""
"","","call-function","226","674780","0.0-226.0","","","","","","","","",""
"","1693.9000000059605","survey-likert","227","676475","0.0-227.0","","","","","","","{""judgement"":1}","[0]","1"
"","3005.199999988079","survey-likert","228","679481","0.0-228.0","","","","","","","{""confidence"":2}","[0]",""
"","","call-function","229","679482","0.0-229.0","","","","","","","","",""
"","null","html-keyboard-response","230","682486","0.0-230.0","<span style=""color:Black; font-size:50px;"">Agent A","null","","","","","","",""
"","null","video-keyboard-response","231","685732","0.0-231.0","","null","","Agent A","veridical","/Users/kirstenziman/Desktop/Desktop/DIDEC_entire_corpus/analysis_3/STIM_SET_2/0_1159609.bmppp79_L1V1_freeview_veridical_mapOnly.mp4","","",""
"","null","html-keyboard-response","232","688735","0.0-232.0","<span style=""color:Black; font-size:50px;"">Agent B","null","","","","","","",""
"","null","video-keyboard-response","233","691940","0.0-233.0","","null","","Agent B","scrambled","/Users/kirstenziman/Desktop/Desktop/DIDEC_entire_corpus/analysis_3/STIM_SET_2/0_1159609.bmppp79_L1V1_freeview_scrambled_mapOnly.mp4","","",""
"","","call-function","234","691940","0.0-234.0","","","","","","","","",""
"","1939","survey-likert","235","693880","0.0-235.0","","","","","","","{""judgement"":0}","[0]","0"
"","1497.5999999940395","survey-likert","236","695378","0.0-236.0","","","","","","","{""confidence"":1}","[0]",""
"","","call-function","237","695379","0.0-237.0","","","","","","","","",""
"","null","html-keyboard-response","238","698384","0.0-238.0","<span style=""color:Black; font-size:50px;"">Agent A","null","","","","","","",""
"","null","video-keyboard-response","239","701555","0.0-239.0","","null","","Agent A","veridical","/Users/kirstenziman/Desktop/Desktop/DIDEC_entire_corpus/analysis_3/STIM_SET_2/0_498221.bmppp88_L1V1_freeview_veridical_mapOnly.mp4","","",""
"","null","html-keyboard-response","240","704558","0.0-240.0","<span style=""color:Black; font-size:50px;"">Agent B","null","","","","","","",""
"","null","video-keyboard-response","241","707721","0.0-241.0","","null","","Agent B","scrambled","/Users/kirstenziman/Desktop/Desktop/DIDEC_entire_corpus/analysis_3/STIM_SET_2/0_498221.bmppp88_L1V1_freeview_scrambled_mapOnly.mp4","","",""
"","","call-function","242","707721","0.0-242.0","","","","","","","","",""
"","2753","survey-likert","243","710474","0.0-243.0","","","","","","","{""judgement"":0}","[0]","0"
"","4249.299999982119","survey-likert","244","714725","0.0-244.0","","","","","","","{""confidence"":1}","[0]",""
"","","call-function","245","714733","0.0-245.0","","","","","","","","",""
"","null","html-keyboard-response","246","717743","0.0-246.0","<span style=""color:Black; font-size:50px;"">Agent A","null","","","","","","",""
"","null","video-keyboard-response","247","720929","0.0-247.0","","null","","Agent A","veridical","/Users/kirstenziman/Desktop/Desktop/DIDEC_entire_corpus/analysis_3/STIM_SET_2/0_1592352.bmppp82_L1V1_freeview_veridical_mapOnly.mp4","","",""
"","null","html-keyboard-response","248","723932","0.0-248.0","<span style=""color:Black; font-size:50px;"">Agent B","null","","","","","","",""
"","null","video-keyboard-response","249","727096","0.0-249.0","","null","","Agent B","scrambled","/Users/kirstenziman/Desktop/Desktop/DIDEC_entire_corpus/analysis_3/STIM_SET_2/0_1592352.bmppp82_L1V1_freeview_scrambled_mapOnly.mp4","","",""
"","","call-function","250","727096","0.0-250.0","","","","","","","","",""
"","2626.7000000178814","survey-likert","251","729724","0.0-251.0","","","","","","","{""judgement"":1}","[0]","0"
"","1652.5","survey-likert","252","731377","0.0-252.0","","","","","","","{""confidence"":0}","[0]",""
"[{""page_index"":0,""viewing_time"":1496.7999999821186},{""page_index"":1,""viewing_time"":1139.1000000238419},{""page_index"":2,""viewing_time"":1365.8999999761581}]","4001.9000000059605","instructions","253","735380","0.0-253.0","","","","","","","","",""
"[{""page_index"":0,""viewing_time"":1172.1000000238419},{""page_index"":1,""viewing_time"":919.5},{""page_index"":2,""viewing_time"":759.7999999821186}]","2851.5","instructions","254","738232","0.0-254.0","","","","","","","","",""
"","","call-function","255","738232","0.0-255.0","","","","","","","","",""
"","null","html-keyboard-response","256","741236","0.0-256.0","<span style=""color:Black; font-size:50px;"">Agent A","null","","","","","","",""
"","null","video-keyboard-response","257","744420","0.0-257.0","","null","","Agent A","scrambled","/Users/kirstenziman/Desktop/Desktop/DIDEC_entire_corpus/analysis_3/STIM_SET_2/0_713003.bmppp82_L1V1_freeview_scrambled_mapOnly.mp4","","",""
"","null","html-keyboard-response","258","747423","0.0-258.0","<span style=""color:Black; font-size:50px;"">Agent B","null","","","","","","",""
"","null","video-keyboard-response","259","750603","0.0-259.0","","null","","Agent B","veridical","/Users/kirstenziman/Desktop/Desktop/DIDEC_entire_corpus/analysis_3/STIM_SET_2/0_713003.bmppp82_L1V1_freeview_veridical_mapOnly.mp4","","",""
"","","call-function","260","750603","0.0-260.0","","","","","","","","",""
"","1547.800000011921","survey-likert","261","752151","0.0-261.0","","","","","","","{""judgement"":1}","[0]","1"
"","2100.199999988079","survey-likert","262","754252","0.0-262.0","","","","","","","{""confidence"":1}","[0]",""
"","","call-function","263","754253","0.0-263.0","","","","","","","","",""
"","null","html-keyboard-response","264","757254","0.0-264.0","<span style=""color:Black; font-size:50px;"">Agent A","null","","","","","","",""
"","null","video-keyboard-response","265","760354","0.0-265.0","","null","","Agent A","veridical","/Users/kirstenziman/Desktop/Desktop/DIDEC_entire_corpus/analysis_3/STIM_SET_2/0_61514.bmppp67_L1V1_freeview_veridical_mapOnly.mp4","","",""
"","null","html-keyboard-response","266","763360","0.0-266.0","<span style=""color:Black; font-size:50px;"">Agent B","null","","","","","","",""
"","null","video-keyboard-response","267","766447","0.0-267.0","","null","","Agent B","scrambled","/Users/kirstenziman/Desktop/Desktop/DIDEC_entire_corpus/analysis_3/STIM_SET_2/0_61514.bmppp67_L1V1_freeview_scrambled_mapOnly.mp4","","",""
"","","call-function","268","766447","0.0-268.0","","","","","","","","",""
"","2748.5999999940395","survey-likert","269","769196","0.0-269.0","","","","","","","{""judgement"":0}","[0]","0"
"","1356.0999999940395","survey-likert","270","770554","0.0-270.0","","","","","","","{""confidence"":1}","[0]",""
"","","call-function","271","770554","0.0-271.0","","","","","","","","",""
"","null","html-keyboard-response","272","773558","0.0-272.0","<span style=""color:Black; font-size:50px;"">Agent A","null","","","","","","",""
"","null","video-keyboard-response","273","776675","0.0-273.0","","null","","Agent A","scrambled","/Users/kirstenziman/Desktop/Desktop/DIDEC_entire_corpus/analysis_3/STIM_SET_2/0_107964.bmppp86_L1V1_freeview_scrambled_mapOnly.mp4","","",""
"","null","html-keyboard-response","274","779676","0.0-274.0","<span style=""color:Black; font-size:50px;"">Agent B","null","","","","","","",""
"","null","video-keyboard-response","275","782898","0.0-275.0","","null","","Agent B","veridical","/Users/kirstenziman/Desktop/Desktop/DIDEC_entire_corpus/analysis_3/STIM_SET_2/0_107964.bmppp86_L1V1_freeview_veridical_mapOnly.mp4","","",""
"","","call-function","276","782899","0.0-276.0","","","","","","","","",""
"","4447.200000017881","survey-likert","277","787350","0.0-277.0","","","","","","","{""judgement"":1}","[0]","1"
"","1949.7000000178814","survey-likert","278","789191","0.0-278.0","","","","","","","{""confidence"":1}","[0]",""
"","","call-function","279","789191","0.0-279.0","","","","","","","","",""
"","null","html-keyboard-response","280","792194","0.0-280.0","<span style=""color:Black; font-size:50px;"">Agent A","null","","","","","","",""
"","null","video-keyboard-response","281","795321","0.0-281.0","","null","","Agent A","scrambled","/Users/kirstenziman/Desktop/Desktop/DIDEC_entire_corpus/analysis_3/STIM_SET_2/0_1159724.bmppp79_L1V1_freeview_scrambled_mapOnly.mp4","","",""
"","null","html-keyboard-response","282","798322","0.0-282.0","<span style=""color:Black; font-size:50px;"">Agent B","null","","","","","","",""
"","null","video-keyboard-response","283","801451","0.0-283.0","","null","","Agent B","veridical","/Users/kirstenziman/Desktop/Desktop/DIDEC_entire_corpus/analysis_3/STIM_SET_2/0_1159724.bmppp79_L1V1_freeview_veridical_mapOnly.mp4","","",""
"","","call-function","284","801451","0.0-284.0","","","","","","","","",""
"","1737.5","survey-likert","285","803189","0.0-285.0","","","","","","","{""judgement"":0}","[0]","1"
"","1178.7999999821186","survey-likert","286","804369","0.0-286.0","","","","","","","{""confidence"":0}","[0]",""
"","","call-function","287","804369","0.0-287.0","","","","","","","","",""
"","null","html-keyboard-response","288","807370","0.0-288.0","<span style=""color:Black; font-size:50px;"">Agent A","null","","","","","","",""
"","null","video-keyboard-response","289","810508","0.0-289.0","","null","","Agent A","veridical","/Users/kirstenziman/Desktop/Desktop/DIDEC_entire_corpus/analysis_3/STIM_SET_2/0_713730.bmppp82_L1V1_freeview_veridical_mapOnly.mp4","","",""
"","null","html-keyboard-response","290","813513","0.0-290.0","<span style=""color:Black; font-size:50px;"">Agent B","null","","","","","","",""
"","null","video-keyboard-response","291","816600","0.0-291.0","","null","","Agent B","scrambled","/Users/kirstenziman/Desktop/Desktop/DIDEC_entire_corpus/analysis_3/STIM_SET_2/0_713730.bmppp82_L1V1_freeview_scrambled_mapOnly.mp4","","",""
"","","call-function","292","816601","0.0-292.0","","","","","","","","",""
"","1468.800000011921","survey-likert","293","818070","0.0-293.0","","","","","","","{""judgement"":0}","[0]","0"
"","1890.0999999940395","survey-likert","294","819961","0.0-294.0","","","","","","","{""confidence"":1}","[0]",""
"","","call-function","295","819961","0.0-295.0","","","","","","","","",""
"","null","html-keyboard-response","296","822962","0.0-296.0","<span style=""color:Black; font-size:50px;"">Agent A","null","","","","","","",""
"","null","video-keyboard-response","297","826147","0.0-297.0","","null","","Agent A","scrambled","/Users/kirstenziman/Desktop/Desktop/DIDEC_entire_corpus/analysis_3/STIM_SET_2/0_1159434.bmppp70_L1V1_freeview_scrambled_mapOnly.mp4","","",""
"","null","html-keyboard-response","298","829150","0.0-298.0","<span style=""color:Black; font-size:50px;"">Agent B","null","","","","","","",""
"","null","video-keyboard-response","299","832258","0.0-299.0","","null","","Agent B","veridical","/Users/kirstenziman/Desktop/Desktop/DIDEC_entire_corpus/analysis_3/STIM_SET_2/0_1159434.bmppp70_L1V1_freeview_veridical_mapOnly.mp4","","",""
"","","call-function","300","832258","0.0-300.0","","","","","","","","",""
"","4062.9000000059605","survey-likert","301","836321","0.0-301.0","","","","","","","{""judgement"":1}","[0]","1"
"","2406","survey-likert","302","838728","0.0-302.0","","","","","","","{""confidence"":2}","[0]",""
"","","call-function","303","838728","0.0-303.0","","","","","","","","",""
"","null","html-keyboard-response","304","841729","0.0-304.0","<span style=""color:Black; font-size:50px;"">Agent A","null","","","","","","",""
"","null","video-keyboard-response","305","844860","0.0-305.0","","null","","Agent A","veridical","/Users/kirstenziman/Desktop/Desktop/DIDEC_entire_corpus/analysis_3/STIM_SET_2/0_1591954.bmppp54_L1V1_freeview_veridical_mapOnly.mp4","","",""
"","null","html-keyboard-response","306","847868","0.0-306.0","<span style=""color:Black; font-size:50px;"">Agent B","null","","","","","","",""
"","null","video-keyboard-response","307","850973","0.0-307.0","","null","","Agent B","scrambled","/Users/kirstenziman/Desktop/Desktop/DIDEC_entire_corpus/analysis_3/STIM_SET_2/0_1591954.bmppp54_L1V1_freeview_scrambled_mapOnly.mp4","","",""
"","","call-function","308","850973","0.0-308.0","","","","","","","","",""
"","2230.899999976158","survey-likert","309","853205","0.0-309.0","","","","","","","{""judgement"":0}","[0]","0"
"","1375","survey-likert","310","854582","0.0-310.0","","","","","","","{""confidence"":1}","[0]",""
"","","call-function","311","854582","0.0-311.0","","","","","","","","",""
"","null","html-keyboard-response","312","857586","0.0-312.0","<span style=""color:Black; font-size:50px;"">Agent A","null","","","","","","",""
"","null","video-keyboard-response","313","860718","0.0-313.0","","null","","Agent A","scrambled","/Users/kirstenziman/Desktop/Desktop/DIDEC_entire_corpus/analysis_3/STIM_SET_2/0_1592038.bmppp94_L1V1_freeview_scrambled_mapOnly.mp4","","",""
"","null","html-keyboard-response","314","863723","0.0-314.0","<span style=""color:Black; font-size:50px;"">Agent B","null","","","","","","",""
"","null","video-keyboard-response","315","866851","0.0-315.0","","null","","Agent B","veridical","/Users/kirstenziman/Desktop/Desktop/DIDEC_entire_corpus/analysis_3/STIM_SET_2/0_1592038.bmppp94_L1V1_freeview_veridical_mapOnly.mp4","","",""
"","","call-function","316","866851","0.0-316.0","","","","","","","","",""
"","1784.4000000059605","survey-likert","317","868636","0.0-317.0","","","","","","","{""judgement"":1}","[0]","1"
"","2463.300000011921","survey-likert","318","871100","0.0-318.0","","","","","","","{""confidence"":2}","[0]",""
"","","call-function","319","871100","0.0-319.0","","","","","","","","",""
"","null","html-keyboard-response","320","874105","0.0-320.0","<span style=""color:Black; font-size:50px;"">Agent A","null","","","","","","",""
"","null","video-keyboard-response","321","877265","0.0-321.0","","null","","Agent A","veridical","/Users/kirstenziman/Desktop/Desktop/DIDEC_entire_corpus/analysis_3/STIM_SET_2/0_1592254.bmppp95_L1V1_freeview_veridical_mapOnly.mp4","","",""
"","null","html-keyboard-response","322","880269","0.0-322.0","<span style=""color:Black; font-size:50px;"">Agent B","null","","","","","","",""
"","null","video-keyboard-response","323","883433","0.0-323.0","","null","","Agent B","scrambled","/Users/kirstenziman/Desktop/Desktop/DIDEC_entire_corpus/analysis_3/STIM_SET_2/0_1592254.bmppp95_L1V1_freeview_scrambled_mapOnly.mp4","","",""
"","","call-function","324","883433","0.0-324.0","","","","","","","","",""
"","2893.5999999940395","survey-likert","325","886327","0.0-325.0","","","","","","","{""judgement"":1}","[0]","0"
"","2827.399999976158","survey-likert","326","889155","0.0-326.0","","","","","","","{""confidence"":1}","[0]",""
"","","call-function","327","889156","0.0-327.0","","","","","","","","",""
"","null","html-keyboard-response","328","892159","0.0-328.0","<span style=""color:Black; font-size:50px;"">Agent A","null","","","","","","",""
"","null","video-keyboard-response","329","895250","0.0-329.0","","null","","Agent A","veridical","/Users/kirstenziman/Desktop/Desktop/DIDEC_entire_corpus/analysis_3/STIM_SET_2/0_1592044.bmppp152_L1V1_freeview_veridical_mapOnly.mp4","","",""
"","null","html-keyboard-response","330","898254","0.0-330.0","<span style=""color:Black; font-size:50px;"">Agent B","null","","","","","","",""
"","null","video-keyboard-response","331","901400","0.0-331.0","","null","","Agent B","scrambled","/Users/kirstenziman/Desktop/Desktop/DIDEC_entire_corpus/analysis_3/STIM_SET_2/0_1592044.bmppp152_L1V1_freeview_scrambled_mapOnly.mp4","","",""
"","","call-function","332","901400","0.0-332.0","","","","","","","","",""
"","2827.5999999940395","survey-likert","333","904229","0.0-333.0","","","","","","","{""judgement"":0}","[0]","0"
"","1631.5","survey-likert","334","905861","0.0-334.0","","","","","","","{""confidence"":1}","[0]",""
"[{""page_index"":0,""viewing_time"":1858},{""page_index"":1,""viewing_time"":22533.40000000596},{""page_index"":2,""viewing_time"":1317.199999988079}]","25708.90000000596","instructions","335","931568","0.0-335.0","","","","","","","","",""
"[{""page_index"":0,""viewing_time"":694},{""page_index"":1,""viewing_time"":606.3000000119209},{""page_index"":2,""viewing_time"":945.1999999880791}]","2245.600000023842","instructions","336","933814","0.0-336.0","","","","","","","","",""
"","","call-function","337","933814","0.0-337.0","","","","","","","","",""
"","null","html-keyboard-response","338","936819","0.0-338.0","<span style=""color:Black; font-size:50px;"">Agent A","null","","","","","","",""
"","null","video-keyboard-response","339","939899","0.0-339.0","","null","","Agent A","scrambled","/Users/kirstenziman/Desktop/Desktop/DIDEC_entire_corpus/analysis_3/STIM_SET_2/0_1160168.bmppp96_L1V1_freeview_scrambled_mapOnly.mp4","","",""
"","null","html-keyboard-response","340","942904","0.0-340.0","<span style=""color:Black; font-size:50px;"">Agent B","null","","","","","","",""
"","null","video-keyboard-response","341","946049","0.0-341.0","","null","","Agent B","veridical","/Users/kirstenziman/Desktop/Desktop/DIDEC_entire_corpus/analysis_3/STIM_SET_2/0_1160168.bmppp96_L1V1_freeview_veridical_mapOnly.mp4","","",""
"","","call-function","342","946050","0.0-342.0","","","","","","","","",""
"","3507.0999999940395","survey-likert","343","949557","0.0-343.0","","","","","","","{""judgement"":0}","[0]","1"
"","1467.7999999821186","survey-likert","344","951026","0.0-344.0","","","","","","","{""confidence"":0}","[0]",""
"","","call-function","345","951026","0.0-345.0","","","","","","","","",""
"","null","html-keyboard-response","346","954031","0.0-346.0","<span style=""color:Black; font-size:50px;"">Agent A","null","","","","","","",""
"","null","video-keyboard-response","347","957102","0.0-347.0","","null","","Agent A","veridical","/Users/kirstenziman/Desktop/Desktop/DIDEC_entire_corpus/analysis_3/STIM_SET_2/0_498153.bmppp86_L1V1_freeview_veridical_mapOnly.mp4","","",""
"","null","html-keyboard-response","348","960107","0.0-348.0","<span style=""color:Black; font-size:50px;"">Agent B","null","","","","","","",""
"","null","video-keyboard-response","349","963218","0.0-349.0","","null","","Agent B","scrambled","/Users/kirstenziman/Desktop/Desktop/DIDEC_entire_corpus/analysis_3/STIM_SET_2/0_498153.bmppp86_L1V1_freeview_scrambled_mapOnly.mp4","","",""
"","","call-function","350","963218","0.0-350.0","","","","","","","","",""
"","1592","survey-likert","351","964811","0.0-351.0","","","","","","","{""judgement"":0}","[0]","0"
"","3068.699999988079","survey-likert","352","967880","0.0-352.0","","","","","","","{""confidence"":3}","[0]",""
"","","call-function","353","967881","0.0-353.0","","","","","","","","",""
"","null","html-keyboard-response","354","970883","0.0-354.0","<span style=""color:Black; font-size:50px;"">Agent A","null","","","","","","",""
"","null","video-keyboard-response","355","974027","0.0-355.0","","null","","Agent A","scrambled","/Users/kirstenziman/Desktop/Desktop/DIDEC_entire_corpus/analysis_3/STIM_SET_2/0_713513.bmppp96_L1V1_freeview_scrambled_mapOnly.mp4","","",""
"","null","html-keyboard-response","356","977029","0.0-356.0","<span style=""color:Black; font-size:50px;"">Agent B","null","","","","","","",""
"","null","video-keyboard-response","357","980200","0.0-357.0","","null","","Agent B","veridical","/Users/kirstenziman/Desktop/Desktop/DIDEC_entire_corpus/analysis_3/STIM_SET_2/0_713513.bmppp96_L1V1_freeview_veridical_mapOnly.mp4","","",""
"","","call-function","358","980200","0.0-358.0","","","","","","","","",""
"","1796.0999999940395","survey-likert","359","981997","0.0-359.0","","","","","","","{""judgement"":1}","[0]","1"
"","1538.5999999940395","survey-likert","360","983536","0.0-360.0","","","","","","","{""confidence"":3}","[0]",""
"","","call-function","361","983537","0.0-361.0","","","","","","","","",""
"","null","html-keyboard-response","362","986537","0.0-362.0","<span style=""color:Black; font-size:50px;"">Agent A","null","","","","","","",""
"","null","video-keyboard-response","363","989658","0.0-363.0","","null","","Agent A","scrambled","/Users/kirstenziman/Desktop/Desktop/DIDEC_entire_corpus/analysis_3/STIM_SET_2/0_713142.bmppp79_L1V1_freeview_scrambled_mapOnly.mp4","","",""
"","null","html-keyboard-response","364","992663","0.0-364.0","<span style=""color:Black; font-size:50px;"">Agent B","null","","","","","","",""
"","null","video-keyboard-response","365","995841","0.0-365.0","","null","","Agent B","veridical","/Users/kirstenziman/Desktop/Desktop/DIDEC_entire_corpus/analysis_3/STIM_SET_2/0_713142.bmppp79_L1V1_freeview_veridical_mapOnly.mp4","","",""
"","","call-function","366","995841","0.0-366.0","","","","","","","","",""
"","3112.300000011921","survey-likert","367","998954","0.0-367.0","","","","","","","{""judgement"":1}","[0]","1"
"","1428.699999988079","survey-likert","368","1000384","0.0-368.0","","","","","","","{""confidence"":1}","[0]",""
"","","call-function","369","1000384","0.0-369.0","","","","","","","","",""
"","null","html-keyboard-response","370","1003389","0.0-370.0","<span style=""color:Black; font-size:50px;"">Agent A","null","","","","","","",""
"","null","video-keyboard-response","371","1006546","0.0-371.0","","null","","Agent A","scrambled","/Users/kirstenziman/Desktop/Desktop/DIDEC_entire_corpus/analysis_3/STIM_SET_2/0_1159874.bmppp152_L1V1_freeview_scrambled_mapOnly.mp4","","",""
"","null","html-keyboard-response","372","1009548","0.0-372.0","<span style=""color:Black; font-size:50px;"">Agent B","null","","","","","","",""
"","null","video-keyboard-response","373","1012656","0.0-373.0","","null","","Agent B","veridical","/Users/kirstenziman/Desktop/Desktop/DIDEC_entire_corpus/analysis_3/STIM_SET_2/0_1159874.bmppp152_L1V1_freeview_veridical_mapOnly.mp4","","",""
"","","call-function","374","1012657","0.0-374.0","","","","","","","","",""
"","2044.2999999821186","survey-likert","375","1014701","0.0-375.0","","","","","","","{""judgement"":1}","[0]","1"
"","2711.4000000059605","survey-likert","376","1017413","0.0-376.0","","","","","","","{""confidence"":1}","[0]",""
"","","call-function","377","1017414","0.0-377.0","","","","","","","","",""
"","null","html-keyboard-response","378","1020419","0.0-378.0","<span style=""color:Black; font-size:50px;"">Agent A","null","","","","","","",""
"","null","video-keyboard-response","379","1023514","0.0-379.0","","null","","Agent A","veridical","/Users/kirstenziman/Desktop/Desktop/DIDEC_entire_corpus/analysis_3/STIM_SET_2/0_498253.bmppp54_L1V1_freeview_veridical_mapOnly.mp4","","",""
"","null","html-keyboard-response","380","1026517","0.0-380.0","<span style=""color:Black; font-size:50px;"">Agent B","null","","","","","","",""
"","null","video-keyboard-response","381","1029630","0.0-381.0","","null","","Agent B","scrambled","/Users/kirstenziman/Desktop/Desktop/DIDEC_entire_corpus/analysis_3/STIM_SET_2/0_498253.bmppp54_L1V1_freeview_scrambled_mapOnly.mp4","","",""
"","","call-function","382","1029630","0.0-382.0","","","","","","","","",""
"","3125.0999999940395","survey-likert","383","1032756","0.0-383.0","","","","","","","{""judgement"":0}","[0]","0"
"","1848","survey-likert","384","1034604","0.0-384.0","","","","","","","{""confidence"":1}","[0]",""
"","","call-function","385","1034605","0.0-385.0","","","","","","","","",""
"","null","html-keyboard-response","386","1037606","0.0-386.0","<span style=""color:Black; font-size:50px;"">Agent A","null","","","","","","",""
"","null","video-keyboard-response","387","1040740","0.0-387.0","","null","","Agent A","scrambled","/Users/kirstenziman/Desktop/Desktop/DIDEC_entire_corpus/analysis_3/STIM_SET_2/0_1592033.bmppp94_L1V1_freeview_scrambled_mapOnly.mp4","","",""
"","null","html-keyboard-response","388","1043742","0.0-388.0","<span style=""color:Black; font-size:50px;"">Agent B","null","","","","","","",""
"","null","video-keyboard-response","389","1046889","0.0-389.0","","null","","Agent B","veridical","/Users/kirstenziman/Desktop/Desktop/DIDEC_entire_corpus/analysis_3/STIM_SET_2/0_1592033.bmppp94_L1V1_freeview_veridical_mapOnly.mp4","","",""
"","","call-function","390","1046889","0.0-390.0","","","","","","","","",""
"","1981.5999999940395","survey-likert","391","1048871","0.0-391.0","","","","","","","{""judgement"":1}","[0]","1"
"","3133.7000000178814","survey-likert","392","1052006","0.0-392.0","","","","","","","{""confidence"":2}","[0]",""
"","","call-function","393","1052006","0.0-393.0","","","","","","","","",""
"","null","html-keyboard-response","394","1055009","0.0-394.0","<span style=""color:Black; font-size:50px;"">Agent A","null","","","","","","",""
"","null","video-keyboard-response","395","1058234","0.0-395.0","","null","","Agent A","veridical","/Users/kirstenziman/Desktop/Desktop/DIDEC_entire_corpus/analysis_3/STIM_SET_2/0_1592747.bmppp62_L1V1_freeview_veridical_mapOnly.mp4","","",""
"","null","html-keyboard-response","396","1061236","0.0-396.0","<span style=""color:Black; font-size:50px;"">Agent B","null","","","","","","",""
"","null","video-keyboard-response","397","1064393","0.0-397.0","","null","","Agent B","scrambled","/Users/kirstenziman/Desktop/Desktop/DIDEC_entire_corpus/analysis_3/STIM_SET_2/0_1592747.bmppp62_L1V1_freeview_scrambled_mapOnly.mp4","","",""
"","","call-function","398","1064394","0.0-398.0","","","","","","","","",""
"","3287.5999999940395","survey-likert","399","1067682","0.0-399.0","","","","","","","{""judgement"":1}","[0]","0"
"","1825","survey-likert","400","1069507","0.0-400.0","","","","","","","{""confidence"":0}","[0]",""
"","","call-function","401","1069508","0.0-401.0","","","","","","","","",""
"","null","html-keyboard-response","402","1072510","0.0-402.0","<span style=""color:Black; font-size:50px;"">Agent A","null","","","","","","",""
"","null","video-keyboard-response","403","1075629","0.0-403.0","","null","","Agent A","veridical","/Users/kirstenziman/Desktop/Desktop/DIDEC_entire_corpus/analysis_3/STIM_SET_2/0_1592362.bmppp53_L1V1_freeview_veridical_mapOnly.mp4","","",""
"","null","html-keyboard-response","404","1078634","0.0-404.0","<span style=""color:Black; font-size:50px;"">Agent B","null","","","","","","",""
"","null","video-keyboard-response","405","1081778","0.0-405.0","","null","","Agent B","scrambled","/Users/kirstenziman/Desktop/Desktop/DIDEC_entire_corpus/analysis_3/STIM_SET_2/0_1592362.bmppp53_L1V1_freeview_scrambled_mapOnly.mp4","","",""
"","","call-function","406","1081779","0.0-406.0","","","","","","","","",""
"","4761.4000000059605","survey-likert","407","1086540","0.0-407.0","","","","","","","{""judgement"":0}","[0]","0"
"","2522.899999976158","survey-likert","408","1089064","0.0-408.0","","","","","","","{""confidence"":0}","[0]",""
"","","call-function","409","1089064","0.0-409.0","","","","","","","","",""
"","null","html-keyboard-response","410","1092065","0.0-410.0","<span style=""color:Black; font-size:50px;"">Agent A","null","","","","","","",""
"","null","video-keyboard-response","411","1095156","0.0-411.0","","null","","Agent A","scrambled","/Users/kirstenziman/Desktop/Desktop/DIDEC_entire_corpus/analysis_3/STIM_SET_2/0_285715.bmppp53_L1V1_freeview_scrambled_mapOnly.mp4","","",""
"","null","html-keyboard-response","412","1098160","0.0-412.0","<span style=""color:Black; font-size:50px;"">Agent B","null","","","","","","",""
"","null","video-keyboard-response","413","1101296","0.0-413.0","","null","","Agent B","veridical","/Users/kirstenziman/Desktop/Desktop/DIDEC_entire_corpus/analysis_3/STIM_SET_2/0_285715.bmppp53_L1V1_freeview_veridical_mapOnly.mp4","","",""
"","","call-function","414","1101296","0.0-414.0","","","","","","","","",""
"","1810.0999999940395","survey-likert","415","1103107","0.0-415.0","","","","","","","{""judgement"":0}","[0]","1"
"","1396.7999999821186","survey-likert","416","1104504","0.0-416.0","","","","","","","{""confidence"":0}","[0]",""
"[{""page_index"":0,""viewing_time"":1494.0999999940395},{""page_index"":1,""viewing_time"":533.0999999940395},{""page_index"":2,""viewing_time"":533.4000000059605}]","2560.7999999821186","instructions","417","1107065","0.0-417.0","","","","","","","","",""
"[{""page_index"":0,""viewing_time"":564.5999999940395},{""page_index"":1,""viewing_time"":534.7000000178814},{""page_index"":2,""viewing_time"":588.5}]","1687.9000000059605","instructions","418","1108753","0.0-418.0","","","","","","","","",""
"","","call-function","419","1108754","0.0-419.0","","","","","","","","",""
"","null","html-keyboard-response","420","1111758","0.0-420.0","<span style=""color:Black; font-size:50px;"">Agent A","null","","","","","","",""
"","null","video-keyboard-response","421","1114826","0.0-421.0","","null","","Agent A","scrambled","/Users/kirstenziman/Desktop/Desktop/DIDEC_entire_corpus/analysis_3/STIM_SET_2/0_1159813.bmppp54_L1V1_freeview_scrambled_mapOnly.mp4","","",""
"","null","html-keyboard-response","422","1117826","0.0-422.0","<span style=""color:Black; font-size:50px;"">Agent B","null","","","","","","",""
"","null","video-keyboard-response","423","1120933","0.0-423.0","","null","","Agent B","veridical","/Users/kirstenziman/Desktop/Desktop/DIDEC_entire_corpus/analysis_3/STIM_SET_2/0_1159813.bmppp54_L1V1_freeview_veridical_mapOnly.mp4","","",""
"","","call-function","424","1120933","0.0-424.0","","","","","","","","",""
"","2693.7999999821186","survey-likert","425","1123627","0.0-425.0","","","","","","","{""judgement"":0}","[0]","1"
"","4573.299999982119","survey-likert","426","1128201","0.0-426.0","","","","","","","{""confidence"":1}","[0]",""
"","","call-function","427","1128202","0.0-427.0","","","","","","","","",""
"","null","html-keyboard-response","428","1131206","0.0-428.0","<span style=""color:Black; font-size:50px;"">Agent A","null","","","","","","",""
"","null","video-keyboard-response","429","1134401","0.0-429.0","","null","","Agent A","scrambled","/Users/kirstenziman/Desktop/Desktop/DIDEC_entire_corpus/analysis_3/STIM_SET_2/0_107909.bmppp94_L1V1_freeview_scrambled_mapOnly.mp4","","",""
"","null","html-keyboard-response","430","1137407","0.0-430.0","<span style=""color:Black; font-size:50px;"">Agent B","null","","","","","","",""
"","null","video-keyboard-response","431","1140575","0.0-431.0","","null","","Agent B","veridical","/Users/kirstenziman/Desktop/Desktop/DIDEC_entire_corpus/analysis_3/STIM_SET_2/0_107909.bmppp94_L1V1_freeview_veridical_mapOnly.mp4","","",""
"","","call-function","432","1140575","0.0-432.0","","","","","","","","",""
"","2281.4000000059605","survey-likert","433","1142857","0.0-433.0","","","","","","","{""judgement"":1}","[0]","1"
"","4158.0999999940395","survey-likert","434","1147016","0.0-434.0","","","","","","","{""confidence"":2}","[0]",""
"","","call-function","435","1147016","0.0-435.0","","","","","","","","",""
"","null","html-keyboard-response","436","1150019","0.0-436.0","<span style=""color:Black; font-size:50px;"">Agent A","null","","","","","","",""
"","null","video-keyboard-response","437","1153155","0.0-437.0","","null","","Agent A","scrambled","/Users/kirstenziman/Desktop/Desktop/DIDEC_entire_corpus/analysis_3/STIM_SET_2/0_498281.bmppp90_L1V1_freeview_scrambled_mapOnly.mp4","","",""
"","null","html-keyboard-response","438","1156160","0.0-438.0","<span style=""color:Black; font-size:50px;"">Agent B","null","","","","","","",""
"","null","video-keyboard-response","439","1159255","0.0-439.0","","null","","Agent B","veridical","/Users/kirstenziman/Desktop/Desktop/DIDEC_entire_corpus/analysis_3/STIM_SET_2/0_498281.bmppp90_L1V1_freeview_veridical_mapOnly.mp4","","",""
"","","call-function","440","1159256","0.0-440.0","","","","","","","","",""
"","3923","survey-likert","441","1163179","0.0-441.0","","","","","","","{""judgement"":1}","[0]","1"
"","2204.9000000059605","survey-likert","442","1165385","0.0-442.0","","","","","","","{""confidence"":1}","[0]",""
"","","call-function","443","1165385","0.0-443.0","","","","","","","","",""
"","null","html-keyboard-response","444","1168388","0.0-444.0","<span style=""color:Black; font-size:50px;"">Agent A","null","","","","","","",""
"","null","video-keyboard-response","445","1171488","0.0-445.0","","null","","Agent A","scrambled","/Users/kirstenziman/Desktop/Desktop/DIDEC_entire_corpus/analysis_3/STIM_SET_2/0_1160127.bmppp62_L1V1_freeview_scrambled_mapOnly.mp4","","",""
"","null","html-keyboard-response","446","1174491","0.0-446.0","<span style=""color:Black; font-size:50px;"">Agent B","null","","","","","","",""
"","null","video-keyboard-response","447","1177598","0.0-447.0","","null","","Agent B","veridical","/Users/kirstenziman/Desktop/Desktop/DIDEC_entire_corpus/analysis_3/STIM_SET_2/0_1160127.bmppp62_L1V1_freeview_veridical_mapOnly.mp4","","",""
"","","call-function","448","1177598","0.0-448.0","","","","","","","","",""
"","2242.800000011921","survey-likert","449","1179841","0.0-449.0","","","","","","","{""judgement"":1}","[0]","1"
"","1356.7000000178814","survey-likert","450","1181198","0.0-450.0","","","","","","","{""confidence"":1}","[0]",""
"","","call-function","451","1181199","0.0-451.0","","","","","","","","",""
"","null","html-keyboard-response","452","1184204","0.0-452.0","<span style=""color:Black; font-size:50px;"">Agent A","null","","","","","","",""
"","null","video-keyboard-response","453","1187300","0.0-453.0","","null","","Agent A","scrambled","/Users/kirstenziman/Desktop/Desktop/DIDEC_entire_corpus/analysis_3/STIM_SET_2/0_713681.bmppp88_L1V1_freeview_scrambled_mapOnly.mp4","","",""
"","null","html-keyboard-response","454","1190303","0.0-454.0","<span style=""color:Black; font-size:50px;"">Agent B","null","","","","","","",""
"","null","video-keyboard-response","455","1193488","0.0-455.0","","null","","Agent B","veridical","/Users/kirstenziman/Desktop/Desktop/DIDEC_entire_corpus/analysis_3/STIM_SET_2/0_713681.bmppp88_L1V1_freeview_veridical_mapOnly.mp4","","",""
"","","call-function","456","1193488","0.0-456.0","","","","","","","","",""
"","2868.9000000059605","survey-likert","457","1196358","0.0-457.0","","","","","","","{""judgement"":0}","[0]","1"
"","1396.5","survey-likert","458","1197755","0.0-458.0","","","","","","","{""confidence"":0}","[0]",""
"","","call-function","459","1197755","0.0-459.0","","","","","","","","",""
"","null","html-keyboard-response","460","1200763","0.0-460.0","<span style=""color:Black; font-size:50px;"">Agent A","null","","","","","","",""
"","null","video-keyboard-response","461","1203903","0.0-461.0","","null","","Agent A","scrambled","/Users/kirstenziman/Desktop/Desktop/DIDEC_entire_corpus/analysis_3/STIM_SET_2/0_1159325.bmppp99_L1V1_freeview_scrambled_mapOnly.mp4","","",""
"","null","html-keyboard-response","462","1206904","0.0-462.0","<span style=""color:Black; font-size:50px;"">Agent B","null","","","","","","",""
"","null","video-keyboard-response","463","1209974","0.0-463.0","","null","","Agent B","veridical","/Users/kirstenziman/Desktop/Desktop/DIDEC_entire_corpus/analysis_3/STIM_SET_2/0_1159325.bmppp99_L1V1_freeview_veridical_mapOnly.mp4","","",""
"","","call-function","464","1209974","0.0-464.0","","","","","","","","",""
"","2216.9000000059605","survey-likert","465","1212192","0.0-465.0","","","","","","","{""judgement"":1}","[0]","1"
"","3021.300000011921","survey-likert","466","1215214","0.0-466.0","","","","","","","{""confidence"":0}","[0]",""
"","","call-function","467","1215214","0.0-467.0","","","","","","","","",""
"","null","html-keyboard-response","468","1218218","0.0-468.0","<span style=""color:Black; font-size:50px;"">Agent A","null","","","","","","",""
"","null","video-keyboard-response","469","1221364","0.0-469.0","","null","","Agent A","scrambled","/Users/kirstenziman/Desktop/Desktop/DIDEC_entire_corpus/analysis_3/STIM_SET_2/0_1160049.bmppp90_L1V1_freeview_scrambled_mapOnly.mp4","","",""
"","null","html-keyboard-response","470","1224368","0.0-470.0","<span style=""color:Black; font-size:50px;"">Agent B","null","","","","","","",""
"","null","video-keyboard-response","471","1227480","0.0-471.0","","null","","Agent B","veridical","/Users/kirstenziman/Desktop/Desktop/DIDEC_entire_corpus/analysis_3/STIM_SET_2/0_1160049.bmppp90_L1V1_freeview_veridical_mapOnly.mp4","","",""
"","","call-function","472","1227480","0.0-472.0","","","","","","","","",""
"","5341.100000023842","survey-likert","473","1232822","0.0-473.0","","","","","","","{""judgement"":1}","[0]","1"
"","1856.9000000059605","survey-likert","474","1234679","0.0-474.0","","","","","","","{""confidence"":1}","[0]",""
"","","call-function","475","1234680","0.0-475.0","","","","","","","","",""
"","null","html-keyboard-response","476","1237684","0.0-476.0","<span style=""color:Black; font-size:50px;"">Agent A","null","","","","","","",""
"","null","video-keyboard-response","477","1240802","0.0-477.0","","null","","Agent A","veridical","/Users/kirstenziman/Desktop/Desktop/DIDEC_entire_corpus/analysis_3/STIM_SET_2/0_1159889.bmppp61_L1V1_freeview_veridical_mapOnly.mp4","","",""
"","null","html-keyboard-response","478","1243805","0.0-478.0","<span style=""color:Black; font-size:50px;"">Agent B","null","","","","","","",""
"","null","video-keyboard-response","479","1246999","0.0-479.0","","null","","Agent B","scrambled","/Users/kirstenziman/Desktop/Desktop/DIDEC_entire_corpus/analysis_3/STIM_SET_2/0_1159889.bmppp61_L1V1_freeview_scrambled_mapOnly.mp4","","",""
"","","call-function","480","1246999","0.0-480.0","","","","","","","","",""
"","2244.300000011921","survey-likert","481","1249244","0.0-481.0","","","","","","","{""judgement"":0}","[0]","0"
"","1608.5999999940395","survey-likert","482","1250853","0.0-482.0","","","","","","","{""confidence"":1}","[0]",""
"","","call-function","483","1250854","0.0-483.0","","","","","","","","",""
"","null","html-keyboard-response","484","1253858","0.0-484.0","<span style=""color:Black; font-size:50px;"">Agent A","null","","","","","","",""
"","null","video-keyboard-response","485","1256970","0.0-485.0","","null","","Agent A","veridical","/Users/kirstenziman/Desktop/Desktop/DIDEC_entire_corpus/analysis_3/STIM_SET_2/0_498372.bmppp82_L1V1_freeview_veridical_mapOnly.mp4","","",""
"","null","html-keyboard-response","486","1259973","0.0-486.0","<span style=""color:Black; font-size:50px;"">Agent B","null","","","","","","",""
"","null","video-keyboard-response","487","1263171","0.0-487.0","","null","","Agent B","scrambled","/Users/kirstenziman/Desktop/Desktop/DIDEC_entire_corpus/analysis_3/STIM_SET_2/0_498372.bmppp82_L1V1_freeview_scrambled_mapOnly.mp4","","",""
"","","call-function","488","1263172","0.0-488.0","","","","","","","","",""
"","1741.199999988079","survey-likert","489","1264913","0.0-489.0","","","","","","","{""judgement"":0}","[0]","0"
"","1906.4000000059605","survey-likert","490","1266820","0.0-490.0","","","","","","","{""confidence"":1}","[0]",""
"","","call-function","491","1266821","0.0-491.0","","","","","","","","",""
"","null","html-keyboard-response","492","1269826","0.0-492.0","<span style=""color:Black; font-size:50px;"">Agent A","null","","","","","","",""
"","null","video-keyboard-response","493","1272941","0.0-493.0","","null","","Agent A","scrambled","/Users/kirstenziman/Desktop/Desktop/DIDEC_entire_corpus/analysis_3/STIM_SET_2/0_1160227.bmppp67_L1V1_freeview_scrambled_mapOnly.mp4","","",""
"","null","html-keyboard-response","494","1275945","0.0-494.0","<span style=""color:Black; font-size:50px;"">Agent B","null","","","","","","",""
"","null","video-keyboard-response","495","1279136","0.0-495.0","","null","","Agent B","veridical","/Users/kirstenziman/Desktop/Desktop/DIDEC_entire_corpus/analysis_3/STIM_SET_2/0_1160227.bmppp67_L1V1_freeview_veridical_mapOnly.mp4","","",""
"","","call-function","496","1279137","0.0-496.0","","","","","","","","",""
"","3156.800000011921","survey-likert","497","1282294","0.0-497.0","","","","","","","{""judgement"":1}","[0]","1"
"","1639.5","survey-likert","498","1283935","0.0-498.0","","","","","","","{""confidence"":1}","[0]",""
"[{""page_index"":0,""viewing_time"":4830.4000000059605},{""page_index"":1,""viewing_time"":1348.5999999940395},{""page_index"":2,""viewing_time"":460.5}]","6639.699999988079","instructions","499","1290575","0.0-499.0","","","","","","","","",""
"[{""page_index"":0,""viewing_time"":476.40000000596046},{""page_index"":1,""viewing_time"":481.69999998807907},{""page_index"":2,""viewing_time"":673.5999999940395}]","1631.800000011921","instructions","500","1292207","0.0-500.0","","","","","","","","",""
"","","call-function","501","1292207","0.0-501.0","","","","","","","","",""
"","null","html-keyboard-response","502","1295210","0.0-502.0","<span style=""color:Black; font-size:50px;"">Agent A","null","","","","","","",""
"","null","video-keyboard-response","503","1298381","0.0-503.0","","null","","Agent A","scrambled","/Users/kirstenziman/Desktop/Desktop/DIDEC_entire_corpus/analysis_3/STIM_SET_2/0_150374.bmppp96_L1V1_freeview_scrambled_mapOnly.mp4","","",""
"","null","html-keyboard-response","504","1301385","0.0-504.0","<span style=""color:Black; font-size:50px;"">Agent B","null","","","","","","",""
"","null","video-keyboard-response","505","1304517","0.0-505.0","","null","","Agent B","veridical","/Users/kirstenziman/Desktop/Desktop/DIDEC_entire_corpus/analysis_3/STIM_SET_2/0_150374.bmppp96_L1V1_freeview_veridical_mapOnly.mp4","","",""
"","","call-function","506","1304518","0.0-506.0","","","","","","","","",""
"","1591.5999999940395","survey-likert","507","1306118","0.0-507.0","","","","","","","{""judgement"":1}","[0]","1"
"","4208.5","survey-likert","508","1310327","0.0-508.0","","","","","","","{""confidence"":2}","[0]",""
"","","call-function","509","1310328","0.0-509.0","","","","","","","","",""
"","null","html-keyboard-response","510","1313329","0.0-510.0","<span style=""color:Black; font-size:50px;"">Agent A","null","","","","","","",""
"","null","video-keyboard-response","511","1316492","0.0-511.0","","null","","Agent A","veridical","/Users/kirstenziman/Desktop/Desktop/DIDEC_entire_corpus/analysis_3/STIM_SET_2/0_1159329.bmppp99_L1V1_freeview_veridical_mapOnly.mp4","","",""
"","null","html-keyboard-response","512","1319497","0.0-512.0","<span style=""color:Black; font-size:50px;"">Agent B","null","","","","","","",""
"","null","video-keyboard-response","513","1322693","0.0-513.0","","null","","Agent B","scrambled","/Users/kirstenziman/Desktop/Desktop/DIDEC_entire_corpus/analysis_3/STIM_SET_2/0_1159329.bmppp99_L1V1_freeview_scrambled_mapOnly.mp4","","",""
"","","call-function","514","1322693","0.0-514.0","","","","","","","","",""
"","2203.5","survey-likert","515","1324897","0.0-515.0","","","","","","","{""judgement"":0}","[0]","0"
"","2496.199999988079","survey-likert","516","1327394","0.0-516.0","","","","","","","{""confidence"":2}","[0]",""
"","","call-function","517","1327394","0.0-517.0","","","","","","","","",""
"","null","html-keyboard-response","518","1330403","0.0-518.0","<span style=""color:Black; font-size:50px;"">Agent A","null","","","","","","",""
"","null","video-keyboard-response","519","1333504","0.0-519.0","","null","","Agent A","scrambled","/Users/kirstenziman/Desktop/Desktop/DIDEC_entire_corpus/analysis_3/STIM_SET_2/0_1592083.bmppp99_L1V1_freeview_scrambled_mapOnly.mp4","","",""
"","null","html-keyboard-response","520","1336505","0.0-520.0","<span style=""color:Black; font-size:50px;"">Agent B","null","","","","","","",""
"","null","video-keyboard-response","521","1339575","0.0-521.0","","null","","Agent B","veridical","/Users/kirstenziman/Desktop/Desktop/DIDEC_entire_corpus/analysis_3/STIM_SET_2/0_1592083.bmppp99_L1V1_freeview_veridical_mapOnly.mp4","","",""
"","","call-function","522","1339576","0.0-522.0","","","","","","","","",""
"","2224.699999988079","survey-likert","523","1341801","0.0-523.0","","","","","","","{""judgement"":0}","[0]","1"
"","1431.7999999821186","survey-likert","524","1343233","0.0-524.0","","","","","","","{""confidence"":0}","[0]",""
"","","call-function","525","1343234","0.0-525.0","","","","","","","","",""
"","null","html-keyboard-response","526","1346239","0.0-526.0","<span style=""color:Black; font-size:50px;"">Agent A","null","","","","","","",""
"","null","video-keyboard-response","527","1349326","0.0-527.0","","null","","Agent A","scrambled","/Users/kirstenziman/Desktop/Desktop/DIDEC_entire_corpus/analysis_3/STIM_SET_2/0_1592890.bmppp95_L1V1_freeview_scrambled_mapOnly.mp4","","",""
"","null","html-keyboard-response","528","1352328","0.0-528.0","<span style=""color:Black; font-size:50px;"">Agent B","null","","","","","","",""
"","null","video-keyboard-response","529","1355500","0.0-529.0","","null","","Agent B","veridical","/Users/kirstenziman/Desktop/Desktop/DIDEC_entire_corpus/analysis_3/STIM_SET_2/0_1592890.bmppp95_L1V1_freeview_veridical_mapOnly.mp4","","",""
"","","call-function","530","1355500","0.0-530.0","","","","","","","","",""
"","2788","survey-likert","531","1358289","0.0-531.0","","","","","","","{""judgement"":0}","[0]","1"
"","1680","survey-likert","532","1359969","0.0-532.0","","","","","","","{""confidence"":0}","[0]",""
"","","call-function","533","1359970","0.0-533.0","","","","","","","","",""
"","null","html-keyboard-response","534","1362974","0.0-534.0","<span style=""color:Black; font-size:50px;"">Agent A","null","","","","","","",""
"","null","video-keyboard-response","535","1366126","0.0-535.0","","null","","Agent A","scrambled","/Users/kirstenziman/Desktop/Desktop/DIDEC_entire_corpus/analysis_3/STIM_SET_2/0_713135.bmppp99_L1V1_freeview_scrambled_mapOnly.mp4","","",""
"","null","html-keyboard-response","536","1369127","0.0-536.0","<span style=""color:Black; font-size:50px;"">Agent B","null","","","","","","",""
"","null","video-keyboard-response","537","1372369","0.0-537.0","","null","","Agent B","veridical","/Users/kirstenziman/Desktop/Desktop/DIDEC_entire_corpus/analysis_3/STIM_SET_2/0_713135.bmppp99_L1V1_freeview_veridical_mapOnly.mp4","","",""
"","","call-function","538","1372369","0.0-538.0","","","","","","","","",""
"","2889.9000000059605","survey-likert","539","1375260","0.0-539.0","","","","","","","{""judgement"":0}","[0]","1"
"","1607","survey-likert","540","1376868","0.0-540.0","","","","","","","{""confidence"":1}","[0]",""
"","","call-function","541","1376868","0.0-541.0","","","","","","","","",""
"","null","html-keyboard-response","542","1379875","0.0-542.0","<span style=""color:Black; font-size:50px;"">Agent A","null","","","","","","",""
"","null","video-keyboard-response","543","1383055","0.0-543.0","","null","","Agent A","veridical","/Users/kirstenziman/Desktop/Desktop/DIDEC_entire_corpus/analysis_3/STIM_SET_2/0_1159847.bmppp95_L1V1_freeview_veridical_mapOnly.mp4","","",""
"","null","html-keyboard-response","544","1386060","0.0-544.0","<span style=""color:Black; font-size:50px;"">Agent B","null","","","","","","",""
"","null","video-keyboard-response","545","1389168","0.0-545.0","","null","","Agent B","scrambled","/Users/kirstenziman/Desktop/Desktop/DIDEC_entire_corpus/analysis_3/STIM_SET_2/0_1159847.bmppp95_L1V1_freeview_scrambled_mapOnly.mp4","","",""
"","","call-function","546","1389169","0.0-546.0","","","","","","","","",""
"","2870.9000000059605","survey-likert","547","1392040","0.0-547.0","","","","","","","{""judgement"":1}","[0]","0"
"","1510.9000000059605","survey-likert","548","1393551","0.0-548.0","","","","","","","{""confidence"":1}","[0]",""
"","","call-function","549","1393552","0.0-549.0","","","","","","","","",""
"","null","html-keyboard-response","550","1396554","0.0-550.0","<span style=""color:Black; font-size:50px;"">Agent A","null","","","","","","",""
"","null","video-keyboard-response","551","1399739","0.0-551.0","","null","","Agent A","veridical","/Users/kirstenziman/Desktop/Desktop/DIDEC_entire_corpus/analysis_3/STIM_SET_2/0_498286.bmppp94_L1V1_freeview_veridical_mapOnly.mp4","","",""
"","null","html-keyboard-response","552","1402741","0.0-552.0","<span style=""color:Black; font-size:50px;"">Agent B","null","","","","","","",""
"","null","video-keyboard-response","553","1405937","0.0-553.0","","null","","Agent B","scrambled","/Users/kirstenziman/Desktop/Desktop/DIDEC_entire_corpus/analysis_3/STIM_SET_2/0_498286.bmppp94_L1V1_freeview_scrambled_mapOnly.mp4","","",""
"","","call-function","554","1405938","0.0-554.0","","","","","","","","",""
"","1902.0999999940395","survey-likert","555","1407840","0.0-555.0","","","","","","","{""judgement"":1}","[0]","0"
"","2237.7000000178814","survey-likert","556","1410079","0.0-556.0","","","","","","","{""confidence"":1}","[0]",""
"","","call-function","557","1410079","0.0-557.0","","","","","","","","",""
"","null","html-keyboard-response","558","1413081","0.0-558.0","<span style=""color:Black; font-size:50px;"">Agent A","null","","","","","","",""
"","null","video-keyboard-response","559","1416420","0.0-559.0","","null","","Agent A","veridical","/Users/kirstenziman/Desktop/Desktop/DIDEC_entire_corpus/analysis_3/STIM_SET_2/0_1593006.bmppp94_L1V1_freeview_veridical_mapOnly.mp4","","",""
"","null","html-keyboard-response","560","1419424","0.0-560.0","<span style=""color:Black; font-size:50px;"">Agent B","null","","","","","","",""
"","null","video-keyboard-response","561","1422808","0.0-561.0","","null","","Agent B","scrambled","/Users/kirstenziman/Desktop/Desktop/DIDEC_entire_corpus/analysis_3/STIM_SET_2/0_1593006.bmppp94_L1V1_freeview_scrambled_mapOnly.mp4","","",""
"","","call-function","562","1422808","0.0-562.0","","","","","","","","",""
"","2770.300000011921","survey-likert","563","1425579","0.0-563.0","","","","","","","{""judgement"":1}","[0]","0"
"","1616.300000011921","survey-likert","564","1427196","0.0-564.0","","","","","","","{""confidence"":0}","[0]",""
"","","call-function","565","1427197","0.0-565.0","","","","","","","","",""
"","null","html-keyboard-response","566","1430197","0.0-566.0","<span style=""color:Black; font-size:50px;"">Agent A","null","","","","","","",""
"","null","video-keyboard-response","567","1433476","0.0-567.0","","null","","Agent A","scrambled","/Users/kirstenziman/Desktop/Desktop/DIDEC_entire_corpus/analysis_3/STIM_SET_2/0_1591805.bmppp70_L1V1_freeview_scrambled_mapOnly.mp4","","",""
"","null","html-keyboard-response","568","1436482","0.0-568.0","<span style=""color:Black; font-size:50px;"">Agent B","null","","","","","","",""
"","null","video-keyboard-response","569","1439652","0.0-569.0","","null","","Agent B","veridical","/Users/kirstenziman/Desktop/Desktop/DIDEC_entire_corpus/analysis_3/STIM_SET_2/0_1591805.bmppp70_L1V1_freeview_veridical_mapOnly.mp4","","",""
"","","call-function","570","1439652","0.0-570.0","","","","","","","","",""
"","2470.100000023842","survey-likert","571","1442123","0.0-571.0","","","","","","","{""judgement"":1}","[0]","1"
"","2625.7999999821186","survey-likert","572","1444750","0.0-572.0","","","","","","","{""confidence"":1}","[0]",""
"","","call-function","573","1444750","0.0-573.0","","","","","","","","",""
"","null","html-keyboard-response","574","1447755","0.0-574.0","<span style=""color:Black; font-size:50px;"">Agent A","null","","","","","","",""
"","null","video-keyboard-response","575","1450849","0.0-575.0","","null","","Agent A","veridical","/Users/kirstenziman/Desktop/Desktop/DIDEC_entire_corpus/analysis_3/STIM_SET_2/0_713146.bmppp61_L1V1_freeview_veridical_mapOnly.mp4","","",""
"","null","html-keyboard-response","576","1453858","0.0-576.0","<span style=""color:Black; font-size:50px;"">Agent B","null","","","","","","",""
"","null","video-keyboard-response","577","1457004","0.0-577.0","","null","","Agent B","scrambled","/Users/kirstenziman/Desktop/Desktop/DIDEC_entire_corpus/analysis_3/STIM_SET_2/0_713146.bmppp61_L1V1_freeview_scrambled_mapOnly.mp4","","",""
"","","call-function","578","1457004","0.0-578.0","","","","","","","","",""
"","1729.2000000178814","survey-likert","579","1458733","0.0-579.0","","","","","","","{""judgement"":0}","[0]","0"
"","1042.1000000238419","survey-likert","580","1459776","0.0-580.0","","","","","","","{""confidence"":1}","[0]",""
"[{""page_index"":0,""viewing_time"":2220.5}]","2220.699999988079","instructions","581","1461997","0.0-581.0","","","","","","","","",""
"","144253.40000000596","survey-text","582","1606298","0.0-582.0","","","","","","","{""Q0"":""artificial = if the saccade was especially jumpy (large distance from previous location), or if the timecourse wasn't continuous. For like 25% i guessed cuz i couldn't use either of these heuristics ""}","",""
"","40646.5","survey-text","583","1646943","0.0-583.0","","","","","","","{""Q0"":""yes see previous. it was easier when there was a large difference between the two trajectories""}","",""
"","43871.09999999404","survey-text","584","1690813","0.0-584.0","","","","","","","{""Q0"":""i had no idea whether the heuristics i was using were right or wrong. maybe feedback on a few hard trials?""}","",""
"[{""page_index"":0,""viewing_time"":2581.300000011921}]","2581.5999999940395","instructions","585","1693394","0.0-585.0","","","","","","","","",""
