"view_history","rt","trial_type","trial_index","time_elapsed","internal_node_id","stimulus","key_press","value","agent","condition","image","responses","question_order","correct_answer"
"[{""page_index"":0,""viewing_time"":31277.20000001788}]","31277.5","instructions","0","31280","0.0-0.0","","","","","","","","",""
"[{""page_index"":0,""viewing_time"":3790.9000000059605},{""page_index"":1,""viewing_time"":5490.5},{""page_index"":2,""viewing_time"":4547}]","13828.59999999404","instructions","1","45111","0.0-1.0","","","","","","","","",""
"[{""page_index"":0,""viewing_time"":2940.5999999940395}]","2940.800000011921","instructions","2","48052","0.0-2.0","","","","","","","","",""
"","null","video-keyboard-response","3","51197","0.0-3.0","","null","","","","","","",""
"[{""page_index"":0,""viewing_time"":4661.699999988079},{""page_index"":1,""viewing_time"":4224.5999999940395},{""page_index"":2,""viewing_time"":2765.600000023842},{""page_index"":3,""viewing_time"":5618.299999982119},{""page_index"":4,""viewing_time"":7268.5}]","24538.90000000596","instructions","4","75737","0.0-4.0","","","","","","","","",""
"[{""page_index"":0,""viewing_time"":7082.4000000059605}]","7082.5999999940395","instructions","5","82821","0.0-5.0","","","","","","","","",""
"","","call-function","6","82823","0.0-6.0","","","","","","","","",""
"","null","html-keyboard-response","7","85829","0.0-7.0","<span style=""color:Black; font-size:50px;"">Agent A","null","","","","","","",""
"","null","video-keyboard-response","8","88906","0.0-8.0","","null","","Agent A","veridical","/Users/kirstenziman/Desktop/Desktop/DIDEC_entire_corpus/analysis_3/STIM_SET_1/0_285851.bmppp64_L1V1_freeview_veridical.mp4","","",""
"","null","html-keyboard-response","9","91908","0.0-9.0","<span style=""color:Black; font-size:50px;"">Agent B","null","","","","","","",""
"","null","video-keyboard-response","10","94988","0.0-10.0","","null","","Agent B","scrambled","/Users/kirstenziman/Desktop/Desktop/DIDEC_entire_corpus/analysis_3/STIM_SET_1/0_285851.bmppp64_L1V1_freeview_scrambled.mp4","","",""
"","","call-function","11","94988","0.0-11.0","","","","","","","","",""
"","2543.300000011921","survey-likert","12","97534","0.0-12.0","","","","","","","{""judgement"":0}","[0]","0"
"","3083.699999988079","survey-likert","13","100619","0.0-13.0","","","","","","","{""confidence"":2}","[0]",""
"","","call-function","14","100621","0.0-14.0","","","","","","","","",""
"","null","html-keyboard-response","15","103625","0.0-15.0","<span style=""color:Black; font-size:50px;"">Agent A","null","","","","","","",""
"","null","video-keyboard-response","16","106767","0.0-16.0","","null","","Agent A","veridical","/Users/kirstenziman/Desktop/Desktop/DIDEC_entire_corpus/analysis_3/STIM_SET_1/0_713174.bmppp154_L1V1_freeview_veridical.mp4","","",""
"","null","html-keyboard-response","17","109771","0.0-17.0","<span style=""color:Black; font-size:50px;"">Agent B","null","","","","","","",""
"","null","video-keyboard-response","18","112846","0.0-18.0","","null","","Agent B","scrambled","/Users/kirstenziman/Desktop/Desktop/DIDEC_entire_corpus/analysis_3/STIM_SET_1/0_713174.bmppp154_L1V1_freeview_scrambled.mp4","","",""
"","","call-function","19","112847","0.0-19.0","","","","","","","","",""
"","3145.5","survey-likert","20","115993","0.0-20.0","","","","","","","{""judgement"":0}","[0]","0"
"","2164.5999999940395","survey-likert","21","118159","0.0-21.0","","","","","","","{""confidence"":1}","[0]",""
"","","call-function","22","118160","0.0-22.0","","","","","","","","",""
"","null","html-keyboard-response","23","121165","0.0-23.0","<span style=""color:Black; font-size:50px;"">Agent A","null","","","","","","",""
"","null","video-keyboard-response","24","124265","0.0-24.0","","null","","Agent A","scrambled","/Users/kirstenziman/Desktop/Desktop/DIDEC_entire_corpus/analysis_3/STIM_SET_1/0_498398.bmppp93_L1V1_freeview_scrambled.mp4","","",""
"","null","html-keyboard-response","25","127266","0.0-25.0","<span style=""color:Black; font-size:50px;"">Agent B","null","","","","","","",""
"","null","video-keyboard-response","26","130347","0.0-26.0","","null","","Agent B","veridical","/Users/kirstenziman/Desktop/Desktop/DIDEC_entire_corpus/analysis_3/STIM_SET_1/0_498398.bmppp93_L1V1_freeview_veridical.mp4","","",""
"","","call-function","27","130348","0.0-27.0","","","","","","","","",""
"","3286.9000000059605","survey-likert","28","133636","0.0-28.0","","","","","","","{""judgement"":1}","[0]","1"
"","1525.5","survey-likert","29","135163","0.0-29.0","","","","","","","{""confidence"":1}","[0]",""
"","","call-function","30","135164","0.0-30.0","","","","","","","","",""
"","null","html-keyboard-response","31","138168","0.0-31.0","<span style=""color:Black; font-size:50px;"">Agent A","null","","","","","","",""
"","null","video-keyboard-response","32","141246","0.0-32.0","","null","","Agent A","scrambled","/Users/kirstenziman/Desktop/Desktop/DIDEC_entire_corpus/analysis_3/STIM_SET_1/0_1592530.bmppp89_L1V1_freeview_scrambled.mp4","","",""
"","null","html-keyboard-response","33","144251","0.0-33.0","<span style=""color:Black; font-size:50px;"">Agent B","null","","","","","","",""
"","null","video-keyboard-response","34","147327","0.0-34.0","","null","","Agent B","veridical","/Users/kirstenziman/Desktop/Desktop/DIDEC_entire_corpus/analysis_3/STIM_SET_1/0_1592530.bmppp89_L1V1_freeview_veridical.mp4","","",""
"","","call-function","35","147333","0.0-35.0","","","","","","","","",""
"","5739.800000011921","survey-likert","36","153074","0.0-36.0","","","","","","","{""judgement"":1}","[0]","1"
"","1679.9000000059605","survey-likert","37","154756","0.0-37.0","","","","","","","{""confidence"":2}","[0]",""
"","","call-function","38","154756","0.0-38.0","","","","","","","","",""
"","null","html-keyboard-response","39","157760","0.0-39.0","<span style=""color:Black; font-size:50px;"">Agent A","null","","","","","","",""
"","null","video-keyboard-response","40","160853","0.0-40.0","","null","","Agent A","veridical","/Users/kirstenziman/Desktop/Desktop/DIDEC_entire_corpus/analysis_3/STIM_SET_1/0_713760.bmppp75_L1V1_freeview_veridical.mp4","","",""
"","null","html-keyboard-response","41","163855","0.0-41.0","<span style=""color:Black; font-size:50px;"">Agent B","null","","","","","","",""
"","null","video-keyboard-response","42","166954","0.0-42.0","","null","","Agent B","scrambled","/Users/kirstenziman/Desktop/Desktop/DIDEC_entire_corpus/analysis_3/STIM_SET_1/0_713760.bmppp75_L1V1_freeview_scrambled.mp4","","",""
"","","call-function","43","166955","0.0-43.0","","","","","","","","",""
"","5738.699999988079","survey-likert","44","172695","0.0-44.0","","","","","","","{""judgement"":1}","[0]","0"
"","1695.5","survey-likert","45","174392","0.0-45.0","","","","","","","{""confidence"":1}","[0]",""
"","","call-function","46","174393","0.0-46.0","","","","","","","","",""
"","null","html-keyboard-response","47","177398","0.0-47.0","<span style=""color:Black; font-size:50px;"">Agent A","null","","","","","","",""
"","null","video-keyboard-response","48","180497","0.0-48.0","","null","","Agent A","veridical","/Users/kirstenziman/Desktop/Desktop/DIDEC_entire_corpus/analysis_3/STIM_SET_1/0_285932.bmppp151_L1V1_freeview_veridical.mp4","","",""
"","null","html-keyboard-response","49","183499","0.0-49.0","<span style=""color:Black; font-size:50px;"">Agent B","null","","","","","","",""
"","null","video-keyboard-response","50","186595","0.0-50.0","","null","","Agent B","scrambled","/Users/kirstenziman/Desktop/Desktop/DIDEC_entire_corpus/analysis_3/STIM_SET_1/0_285932.bmppp151_L1V1_freeview_scrambled.mp4","","",""
"","","call-function","51","186596","0.0-51.0","","","","","","","","",""
"","3066.7000000178814","survey-likert","52","189663","0.0-52.0","","","","","","","{""judgement"":0}","[0]","0"
"","2029.800000011921","survey-likert","53","191694","0.0-53.0","","","","","","","{""confidence"":2}","[0]",""
"","","call-function","54","191695","0.0-54.0","","","","","","","","",""
"","null","html-keyboard-response","55","194697","0.0-55.0","<span style=""color:Black; font-size:50px;"">Agent A","null","","","","","","",""
"","null","video-keyboard-response","56","197794","0.0-56.0","","null","","Agent A","veridical","/Users/kirstenziman/Desktop/Desktop/DIDEC_entire_corpus/analysis_3/STIM_SET_1/0_150273.bmppp57_L1V1_freeview_veridical.mp4","","",""
"","null","html-keyboard-response","57","200798","0.0-57.0","<span style=""color:Black; font-size:50px;"">Agent B","null","","","","","","",""
"","null","video-keyboard-response","58","203885","0.0-58.0","","null","","Agent B","scrambled","/Users/kirstenziman/Desktop/Desktop/DIDEC_entire_corpus/analysis_3/STIM_SET_1/0_150273.bmppp57_L1V1_freeview_scrambled.mp4","","",""
"","","call-function","59","203886","0.0-59.0","","","","","","","","",""
"","3197.699999988079","survey-likert","60","207084","0.0-60.0","","","","","","","{""judgement"":0}","[0]","0"
"","1911.199999988079","survey-likert","61","208997","0.0-61.0","","","","","","","{""confidence"":3}","[0]",""
"","","call-function","62","208998","0.0-62.0","","","","","","","","",""
"","null","html-keyboard-response","63","212002","0.0-63.0","<span style=""color:Black; font-size:50px;"">Agent A","null","","","","","","",""
"","null","video-keyboard-response","64","215093","0.0-64.0","","null","","Agent A","scrambled","/Users/kirstenziman/Desktop/Desktop/DIDEC_entire_corpus/analysis_3/STIM_SET_1/0_1160062.bmppp71_L1V1_freeview_scrambled.mp4","","",""
"","null","html-keyboard-response","65","218100","0.0-65.0","<span style=""color:Black; font-size:50px;"">Agent B","null","","","","","","",""
"","null","video-keyboard-response","66","221176","0.0-66.0","","null","","Agent B","veridical","/Users/kirstenziman/Desktop/Desktop/DIDEC_entire_corpus/analysis_3/STIM_SET_1/0_1160062.bmppp71_L1V1_freeview_veridical.mp4","","",""
"","","call-function","67","221177","0.0-67.0","","","","","","","","",""
"","2112.100000023842","survey-likert","68","223290","0.0-68.0","","","","","","","{""judgement"":1}","[0]","1"
"","2454.800000011921","survey-likert","69","225747","0.0-69.0","","","","","","","{""confidence"":3}","[0]",""
"","","call-function","70","225748","0.0-70.0","","","","","","","","",""
"","null","html-keyboard-response","71","228749","0.0-71.0","<span style=""color:Black; font-size:50px;"">Agent A","null","","","","","","",""
"","null","video-keyboard-response","72","231837","0.0-72.0","","null","","Agent A","veridical","/Users/kirstenziman/Desktop/Desktop/DIDEC_entire_corpus/analysis_3/STIM_SET_1/0_1160140.bmppp76_L1V1_freeview_veridical.mp4","","",""
"","null","html-keyboard-response","73","234839","0.0-73.0","<span style=""color:Black; font-size:50px;"">Agent B","null","","","","","","",""
"","null","video-keyboard-response","74","237916","0.0-74.0","","null","","Agent B","scrambled","/Users/kirstenziman/Desktop/Desktop/DIDEC_entire_corpus/analysis_3/STIM_SET_1/0_1160140.bmppp76_L1V1_freeview_scrambled.mp4","","",""
"","","call-function","75","237916","0.0-75.0","","","","","","","","",""
"","3551.5","survey-likert","76","241468","0.0-76.0","","","","","","","{""judgement"":0}","[0]","0"
"","1908.9000000059605","survey-likert","77","243378","0.0-77.0","","","","","","","{""confidence"":3}","[0]",""
"","","call-function","78","243379","0.0-78.0","","","","","","","","",""
"","null","html-keyboard-response","79","246385","0.0-79.0","<span style=""color:Black; font-size:50px;"">Agent A","null","","","","","","",""
"","null","video-keyboard-response","80","249469","0.0-80.0","","null","","Agent A","scrambled","/Users/kirstenziman/Desktop/Desktop/DIDEC_entire_corpus/analysis_3/STIM_SET_1/0_1592286.bmppp57_L1V1_freeview_scrambled.mp4","","",""
"","null","html-keyboard-response","81","252475","0.0-81.0","<span style=""color:Black; font-size:50px;"">Agent B","null","","","","","","",""
"","null","video-keyboard-response","82","255568","0.0-82.0","","null","","Agent B","veridical","/Users/kirstenziman/Desktop/Desktop/DIDEC_entire_corpus/analysis_3/STIM_SET_1/0_1592286.bmppp57_L1V1_freeview_veridical.mp4","","",""
"","","call-function","83","255569","0.0-83.0","","","","","","","","",""
"","2248","survey-likert","84","257817","0.0-84.0","","","","","","","{""judgement"":1}","[0]","1"
"","1736.199999988079","survey-likert","85","259555","0.0-85.0","","","","","","","{""confidence"":3}","[0]",""
"[{""page_index"":0,""viewing_time"":2398.699999988079},{""page_index"":1,""viewing_time"":1478.7000000178814},{""page_index"":2,""viewing_time"":2916.199999988079}]","6793.9000000059605","instructions","86","266350","0.0-86.0","","","","","","","","",""
"[{""page_index"":0,""viewing_time"":2480.2999999821186},{""page_index"":1,""viewing_time"":3067.2000000178814},{""page_index"":2,""viewing_time"":1690.699999988079}]","7238.5","instructions","87","273589","0.0-87.0","","","","","","","","",""
"","","call-function","88","273590","0.0-88.0","","","","","","","","",""
"","null","html-keyboard-response","89","276594","0.0-89.0","<span style=""color:Black; font-size:50px;"">Agent A","null","","","","","","",""
"","null","video-keyboard-response","90","279669","0.0-90.0","","null","","Agent A","veridical","/Users/kirstenziman/Desktop/Desktop/DIDEC_entire_corpus/analysis_3/STIM_SET_1/0_1159353.bmppp151_L1V1_freeview_veridical.mp4","","",""
"","null","html-keyboard-response","91","282674","0.0-91.0","<span style=""color:Black; font-size:50px;"">Agent B","null","","","","","","",""
"","null","video-keyboard-response","92","285770","0.0-92.0","","null","","Agent B","scrambled","/Users/kirstenziman/Desktop/Desktop/DIDEC_entire_corpus/analysis_3/STIM_SET_1/0_1159353.bmppp151_L1V1_freeview_scrambled.mp4","","",""
"","","call-function","93","285770","0.0-93.0","","","","","","","","",""
"","2239.800000011921","survey-likert","94","288011","0.0-94.0","","","","","","","{""judgement"":0}","[0]","0"
"","1857.6000000238419","survey-likert","95","289871","0.0-95.0","","","","","","","{""confidence"":2}","[0]",""
"","","call-function","96","289872","0.0-96.0","","","","","","","","",""
"","null","html-keyboard-response","97","292877","0.0-97.0","<span style=""color:Black; font-size:50px;"">Agent A","null","","","","","","",""
"","null","video-keyboard-response","98","296037","0.0-98.0","","null","","Agent A","scrambled","/Users/kirstenziman/Desktop/Desktop/DIDEC_entire_corpus/analysis_3/STIM_SET_1/0_1159819.bmppp52_L1V1_freeview_scrambled.mp4","","",""
"","null","html-keyboard-response","99","299042","0.0-99.0","<span style=""color:Black; font-size:50px;"">Agent B","null","","","","","","",""
"","null","video-keyboard-response","100","302181","0.0-100.0","","null","","Agent B","veridical","/Users/kirstenziman/Desktop/Desktop/DIDEC_entire_corpus/analysis_3/STIM_SET_1/0_1159819.bmppp52_L1V1_freeview_veridical.mp4","","",""
"","","call-function","101","302181","0.0-101.0","","","","","","","","",""
"","3832.5","survey-likert","102","306015","0.0-102.0","","","","","","","{""judgement"":1}","[0]","1"
"","5160.300000011921","survey-likert","103","311177","0.0-103.0","","","","","","","{""confidence"":0}","[0]",""
"","","call-function","104","311177","0.0-104.0","","","","","","","","",""
"","null","html-keyboard-response","105","314182","0.0-105.0","<span style=""color:Black; font-size:50px;"">Agent A","null","","","","","","",""
"","null","video-keyboard-response","106","317270","0.0-106.0","","null","","Agent A","scrambled","/Users/kirstenziman/Desktop/Desktop/DIDEC_entire_corpus/analysis_3/STIM_SET_1/0_1591909.bmppp89_L1V1_freeview_scrambled.mp4","","",""
"","null","html-keyboard-response","107","320272","0.0-107.0","<span style=""color:Black; font-size:50px;"">Agent B","null","","","","","","",""
"","null","video-keyboard-response","108","323362","0.0-108.0","","null","","Agent B","veridical","/Users/kirstenziman/Desktop/Desktop/DIDEC_entire_corpus/analysis_3/STIM_SET_1/0_1591909.bmppp89_L1V1_freeview_veridical.mp4","","",""
"","","call-function","109","323362","0.0-109.0","","","","","","","","",""
"","3856.4000000059605","survey-likert","110","327219","0.0-110.0","","","","","","","{""judgement"":1}","[0]","1"
"","1577.3999999761581","survey-likert","111","328798","0.0-111.0","","","","","","","{""confidence"":1}","[0]",""
"","","call-function","112","328799","0.0-112.0","","","","","","","","",""
"","null","html-keyboard-response","113","331800","0.0-113.0","<span style=""color:Black; font-size:50px;"">Agent A","null","","","","","","",""
"","null","video-keyboard-response","114","334887","0.0-114.0","","null","","Agent A","scrambled","/Users/kirstenziman/Desktop/Desktop/DIDEC_entire_corpus/analysis_3/STIM_SET_1/0_497950.bmppp51_L1V1_freeview_scrambled.mp4","","",""
"","null","html-keyboard-response","115","337889","0.0-115.0","<span style=""color:Black; font-size:50px;"">Agent B","null","","","","","","",""
"","null","video-keyboard-response","116","340974","0.0-116.0","","null","","Agent B","veridical","/Users/kirstenziman/Desktop/Desktop/DIDEC_entire_corpus/analysis_3/STIM_SET_1/0_497950.bmppp51_L1V1_freeview_veridical.mp4","","",""
"","","call-function","117","340974","0.0-117.0","","","","","","","","",""
"","1718.4000000059605","survey-likert","118","342693","0.0-118.0","","","","","","","{""judgement"":1}","[0]","1"
"","2149.5","survey-likert","119","344843","0.0-119.0","","","","","","","{""confidence"":3}","[0]",""
"","","call-function","120","344844","0.0-120.0","","","","","","","","",""
"","null","html-keyboard-response","121","347845","0.0-121.0","<span style=""color:Black; font-size:50px;"">Agent A","null","","","","","","",""
"","null","video-keyboard-response","122","350935","0.0-122.0","","null","","Agent A","veridical","/Users/kirstenziman/Desktop/Desktop/DIDEC_entire_corpus/analysis_3/STIM_SET_1/0_286066.bmppp151_L1V1_freeview_veridical.mp4","","",""
"","null","html-keyboard-response","123","353940","0.0-123.0","<span style=""color:Black; font-size:50px;"">Agent B","null","","","","","","",""
"","null","video-keyboard-response","124","357034","0.0-124.0","","null","","Agent B","scrambled","/Users/kirstenziman/Desktop/Desktop/DIDEC_entire_corpus/analysis_3/STIM_SET_1/0_286066.bmppp151_L1V1_freeview_scrambled.mp4","","",""
"","","call-function","125","357035","0.0-125.0","","","","","","","","",""
"","2834","survey-likert","126","359870","0.0-126.0","","","","","","","{""judgement"":0}","[0]","0"
"","2762","survey-likert","127","362634","0.0-127.0","","","","","","","{""confidence"":3}","[0]",""
"","","call-function","128","362635","0.0-128.0","","","","","","","","",""
"","null","html-keyboard-response","129","365640","0.0-129.0","<span style=""color:Black; font-size:50px;"">Agent A","null","","","","","","",""
"","null","video-keyboard-response","130","368714","0.0-130.0","","null","","Agent A","scrambled","/Users/kirstenziman/Desktop/Desktop/DIDEC_entire_corpus/analysis_3/STIM_SET_1/0_498280.bmppp81_L1V1_freeview_scrambled.mp4","","",""
"","null","html-keyboard-response","131","371715","0.0-131.0","<span style=""color:Black; font-size:50px;"">Agent B","null","","","","","","",""
"","null","video-keyboard-response","132","374814","0.0-132.0","","null","","Agent B","veridical","/Users/kirstenziman/Desktop/Desktop/DIDEC_entire_corpus/analysis_3/STIM_SET_1/0_498280.bmppp81_L1V1_freeview_veridical.mp4","","",""
"","","call-function","133","374815","0.0-133.0","","","","","","","","",""
"","2621.7000000178814","survey-likert","134","377438","0.0-134.0","","","","","","","{""judgement"":1}","[0]","1"
"","1581.9000000059605","survey-likert","135","379021","0.0-135.0","","","","","","","{""confidence"":3}","[0]",""
"","","call-function","136","379022","0.0-136.0","","","","","","","","",""
"","null","html-keyboard-response","137","382025","0.0-137.0","<span style=""color:Black; font-size:50px;"">Agent A","null","","","","","","",""
"","null","video-keyboard-response","138","385108","0.0-138.0","","null","","Agent A","scrambled","/Users/kirstenziman/Desktop/Desktop/DIDEC_entire_corpus/analysis_3/STIM_SET_1/0_285992.bmppp64_L1V1_freeview_scrambled.mp4","","",""
"","null","html-keyboard-response","139","388114","0.0-139.0","<span style=""color:Black; font-size:50px;"">Agent B","null","","","","","","",""
"","null","video-keyboard-response","140","391206","0.0-140.0","","null","","Agent B","veridical","/Users/kirstenziman/Desktop/Desktop/DIDEC_entire_corpus/analysis_3/STIM_SET_1/0_285992.bmppp64_L1V1_freeview_veridical.mp4","","",""
"","","call-function","141","391206","0.0-141.0","","","","","","","","",""
"","1870.7000000178814","survey-likert","142","393078","0.0-142.0","","","","","","","{""judgement"":1}","[0]","1"
"","1738.9000000059605","survey-likert","143","394818","0.0-143.0","","","","","","","{""confidence"":3}","[0]",""
"","","call-function","144","394818","0.0-144.0","","","","","","","","",""
"","null","html-keyboard-response","145","397823","0.0-145.0","<span style=""color:Black; font-size:50px;"">Agent A","null","","","","","","",""
"","null","video-keyboard-response","146","400905","0.0-146.0","","null","","Agent A","veridical","/Users/kirstenziman/Desktop/Desktop/DIDEC_entire_corpus/analysis_3/STIM_SET_1/0_713770.bmppp52_L1V1_freeview_veridical.mp4","","",""
"","null","html-keyboard-response","147","403909","0.0-147.0","<span style=""color:Black; font-size:50px;"">Agent B","null","","","","","","",""
"","null","video-keyboard-response","148","406972","0.0-148.0","","null","","Agent B","scrambled","/Users/kirstenziman/Desktop/Desktop/DIDEC_entire_corpus/analysis_3/STIM_SET_1/0_713770.bmppp52_L1V1_freeview_scrambled.mp4","","",""
"","","call-function","149","406973","0.0-149.0","","","","","","","","",""
"","2889.300000011921","survey-likert","150","409866","0.0-150.0","","","","","","","{""judgement"":0}","[0]","0"
"","2288.5","survey-likert","151","412156","0.0-151.0","","","","","","","{""confidence"":2}","[0]",""
"","","call-function","152","412157","0.0-152.0","","","","","","","","",""
"","null","html-keyboard-response","153","415160","0.0-153.0","<span style=""color:Black; font-size:50px;"">Agent A","null","","","","","","",""
"","null","video-keyboard-response","154","418259","0.0-154.0","","null","","Agent A","scrambled","/Users/kirstenziman/Desktop/Desktop/DIDEC_entire_corpus/analysis_3/STIM_SET_1/0_1592836.bmppp68_L1V1_freeview_scrambled.mp4","","",""
"","null","html-keyboard-response","155","421262","0.0-155.0","<span style=""color:Black; font-size:50px;"">Agent B","null","","","","","","",""
"","null","video-keyboard-response","156","424346","0.0-156.0","","null","","Agent B","veridical","/Users/kirstenziman/Desktop/Desktop/DIDEC_entire_corpus/analysis_3/STIM_SET_1/0_1592836.bmppp68_L1V1_freeview_veridical.mp4","","",""
"","","call-function","157","424346","0.0-157.0","","","","","","","","",""
"","3329.399999976158","survey-likert","158","427676","0.0-158.0","","","","","","","{""judgement"":1}","[0]","1"
"","5486","survey-likert","159","433164","0.0-159.0","","","","","","","{""confidence"":1}","[0]",""
"","","call-function","160","433165","0.0-160.0","","","","","","","","",""
"","null","html-keyboard-response","161","436168","0.0-161.0","<span style=""color:Black; font-size:50px;"">Agent A","null","","","","","","",""
"","null","video-keyboard-response","162","439268","0.0-162.0","","null","","Agent A","scrambled","/Users/kirstenziman/Desktop/Desktop/DIDEC_entire_corpus/analysis_3/STIM_SET_1/0_1593056.bmppp51_L1V1_freeview_scrambled.mp4","","",""
"","null","html-keyboard-response","163","442273","0.0-163.0","<span style=""color:Black; font-size:50px;"">Agent B","null","","","","","","",""
"","null","video-keyboard-response","164","445357","0.0-164.0","","null","","Agent B","veridical","/Users/kirstenziman/Desktop/Desktop/DIDEC_entire_corpus/analysis_3/STIM_SET_1/0_1593056.bmppp51_L1V1_freeview_veridical.mp4","","",""
"","","call-function","165","445357","0.0-165.0","","","","","","","","",""
"","2753.699999988079","survey-likert","166","448112","0.0-166.0","","","","","","","{""judgement"":1}","[0]","1"
"","1606.3999999761581","survey-likert","167","449720","0.0-167.0","","","","","","","{""confidence"":2}","[0]",""
"[{""page_index"":0,""viewing_time"":1895.9000000059605},{""page_index"":1,""viewing_time"":995.9000000059605},{""page_index"":2,""viewing_time"":759.7999999821186}]","3652.0999999940395","instructions","168","453373","0.0-168.0","","","","","","","","",""
"[{""page_index"":0,""viewing_time"":621.2000000178814},{""page_index"":1,""viewing_time"":3324.5999999940395},{""page_index"":2,""viewing_time"":871.1999999880791}]","4817.300000011921","instructions","169","458191","0.0-169.0","","","","","","","","",""
"","","call-function","170","458191","0.0-170.0","","","","","","","","",""
"","null","html-keyboard-response","171","461193","0.0-171.0","<span style=""color:Black; font-size:50px;"">Agent A","null","","","","","","",""
"","null","video-keyboard-response","172","464296","0.0-172.0","","null","","Agent A","veridical","/Users/kirstenziman/Desktop/Desktop/DIDEC_entire_corpus/analysis_3/STIM_SET_1/0_713450.bmppp154_L1V1_freeview_veridical.mp4","","",""
"","null","html-keyboard-response","173","467300","0.0-173.0","<span style=""color:Black; font-size:50px;"">Agent B","null","","","","","","",""
"","null","video-keyboard-response","174","470412","0.0-174.0","","null","","Agent B","scrambled","/Users/kirstenziman/Desktop/Desktop/DIDEC_entire_corpus/analysis_3/STIM_SET_1/0_713450.bmppp154_L1V1_freeview_scrambled.mp4","","",""
"","","call-function","175","470412","0.0-175.0","","","","","","","","",""
"","2857.699999988079","survey-likert","176","473271","0.0-176.0","","","","","","","{""judgement"":0}","[0]","0"
"","2269","survey-likert","177","475542","0.0-177.0","","","","","","","{""confidence"":0}","[0]",""
"","","call-function","178","475543","0.0-178.0","","","","","","","","",""
"","null","html-keyboard-response","179","478544","0.0-179.0","<span style=""color:Black; font-size:50px;"">Agent A","null","","","","","","",""
"","null","video-keyboard-response","180","481629","0.0-180.0","","null","","Agent A","veridical","/Users/kirstenziman/Desktop/Desktop/DIDEC_entire_corpus/analysis_3/STIM_SET_1/0_713788.bmppp81_L1V1_freeview_veridical.mp4","","",""
"","null","html-keyboard-response","181","484634","0.0-181.0","<span style=""color:Black; font-size:50px;"">Agent B","null","","","","","","",""
"","null","video-keyboard-response","182","487701","0.0-182.0","","null","","Agent B","scrambled","/Users/kirstenziman/Desktop/Desktop/DIDEC_entire_corpus/analysis_3/STIM_SET_1/0_713788.bmppp81_L1V1_freeview_scrambled.mp4","","",""
"","","call-function","183","487701","0.0-183.0","","","","","","","","",""
"","6299.699999988079","survey-likert","184","494002","0.0-184.0","","","","","","","{""judgement"":0}","[0]","0"
"","2455","survey-likert","185","496459","0.0-185.0","","","","","","","{""confidence"":3}","[0]",""
"","","call-function","186","496459","0.0-186.0","","","","","","","","",""
"","null","html-keyboard-response","187","499460","0.0-187.0","<span style=""color:Black; font-size:50px;"">Agent A","null","","","","","","",""
"","null","video-keyboard-response","188","502556","0.0-188.0","","null","","Agent A","scrambled","/Users/kirstenziman/Desktop/Desktop/DIDEC_entire_corpus/analysis_3/STIM_SET_1/0_1159486.bmppp98_L1V1_freeview_scrambled.mp4","","",""
"","null","html-keyboard-response","189","505561","0.0-189.0","<span style=""color:Black; font-size:50px;"">Agent B","null","","","","","","",""
"","null","video-keyboard-response","190","508649","0.0-190.0","","null","","Agent B","veridical","/Users/kirstenziman/Desktop/Desktop/DIDEC_entire_corpus/analysis_3/STIM_SET_1/0_1159486.bmppp98_L1V1_freeview_veridical.mp4","","",""
"","","call-function","191","508649","0.0-191.0","","","","","","","","",""
"","3755.5999999940395","survey-likert","192","512406","0.0-192.0","","","","","","","{""judgement"":1}","[0]","1"
"","10518.59999999404","survey-likert","193","522926","0.0-193.0","","","","","","","{""confidence"":3}","[0]",""
"","","call-function","194","522927","0.0-194.0","","","","","","","","",""
"","null","html-keyboard-response","195","525931","0.0-195.0","<span style=""color:Black; font-size:50px;"">Agent A","null","","","","","","",""
"","null","video-keyboard-response","196","529021","0.0-196.0","","null","","Agent A","scrambled","/Users/kirstenziman/Desktop/Desktop/DIDEC_entire_corpus/analysis_3/STIM_SET_1/0_150303.bmppp68_L1V1_freeview_scrambled.mp4","","",""
"","null","html-keyboard-response","197","532025","0.0-197.0","<span style=""color:Black; font-size:50px;"">Agent B","null","","","","","","",""
"","null","video-keyboard-response","198","535120","0.0-198.0","","null","","Agent B","veridical","/Users/kirstenziman/Desktop/Desktop/DIDEC_entire_corpus/analysis_3/STIM_SET_1/0_150303.bmppp68_L1V1_freeview_veridical.mp4","","",""
"","","call-function","199","535120","0.0-199.0","","","","","","","","",""
"","3658.300000011921","survey-likert","200","538779","0.0-200.0","","","","","","","{""judgement"":1}","[0]","1"
"","2504.4000000059605","survey-likert","201","541285","0.0-201.0","","","","","","","{""confidence"":0}","[0]",""
"","","call-function","202","541285","0.0-202.0","","","","","","","","",""
"","null","html-keyboard-response","203","544290","0.0-203.0","<span style=""color:Black; font-size:50px;"">Agent A","null","","","","","","",""
"","null","video-keyboard-response","204","547381","0.0-204.0","","null","","Agent A","scrambled","/Users/kirstenziman/Desktop/Desktop/DIDEC_entire_corpus/analysis_3/STIM_SET_1/0_1592233.bmppp58_L1V1_freeview_scrambled.mp4","","",""
"","null","html-keyboard-response","205","550385","0.0-205.0","<span style=""color:Black; font-size:50px;"">Agent B","null","","","","","","",""
"","null","video-keyboard-response","206","553481","0.0-206.0","","null","","Agent B","veridical","/Users/kirstenziman/Desktop/Desktop/DIDEC_entire_corpus/analysis_3/STIM_SET_1/0_1592233.bmppp58_L1V1_freeview_veridical.mp4","","",""
"","","call-function","207","553482","0.0-207.0","","","","","","","","",""
"","2116.4000000059605","survey-likert","208","555601","0.0-208.0","","","","","","","{""judgement"":1}","[0]","1"
"","3781.9000000059605","survey-likert","209","559384","0.0-209.0","","","","","","","{""confidence"":3}","[0]",""
"","","call-function","210","559384","0.0-210.0","","","","","","","","",""
"","null","html-keyboard-response","211","562390","0.0-211.0","<span style=""color:Black; font-size:50px;"">Agent A","null","","","","","","",""
"","null","video-keyboard-response","212","565482","0.0-212.0","","null","","Agent A","scrambled","/Users/kirstenziman/Desktop/Desktop/DIDEC_entire_corpus/analysis_3/STIM_SET_1/0_713652.bmppp71_L1V1_freeview_scrambled.mp4","","",""
"","null","html-keyboard-response","213","568486","0.0-213.0","<span style=""color:Black; font-size:50px;"">Agent B","null","","","","","","",""
"","null","video-keyboard-response","214","571597","0.0-214.0","","null","","Agent B","veridical","/Users/kirstenziman/Desktop/Desktop/DIDEC_entire_corpus/analysis_3/STIM_SET_1/0_713652.bmppp71_L1V1_freeview_veridical.mp4","","",""
"","","call-function","215","571597","0.0-215.0","","","","","","","","",""
"","2652.5","survey-likert","216","574251","0.0-216.0","","","","","","","{""judgement"":1}","[0]","1"
"","1808.2000000178814","survey-likert","217","576060","0.0-217.0","","","","","","","{""confidence"":3}","[0]",""
"","","call-function","218","576060","0.0-218.0","","","","","","","","",""
"","null","html-keyboard-response","219","579064","0.0-219.0","<span style=""color:Black; font-size:50px;"">Agent A","null","","","","","","",""
"","null","video-keyboard-response","220","582164","0.0-220.0","","null","","Agent A","veridical","/Users/kirstenziman/Desktop/Desktop/DIDEC_entire_corpus/analysis_3/STIM_SET_1/0_498258.bmppp76_L1V1_freeview_veridical.mp4","","",""
"","null","html-keyboard-response","221","585165","0.0-221.0","<span style=""color:Black; font-size:50px;"">Agent B","null","","","","","","",""
"","null","video-keyboard-response","222","588278","0.0-222.0","","null","","Agent B","scrambled","/Users/kirstenziman/Desktop/Desktop/DIDEC_entire_corpus/analysis_3/STIM_SET_1/0_498258.bmppp76_L1V1_freeview_scrambled.mp4","","",""
"","","call-function","223","588278","0.0-223.0","","","","","","","","",""
"","2782.300000011921","survey-likert","224","591062","0.0-224.0","","","","","","","{""judgement"":0}","[0]","0"
"","2338.699999988079","survey-likert","225","593401","0.0-225.0","","","","","","","{""confidence"":3}","[0]",""
"","","call-function","226","593402","0.0-226.0","","","","","","","","",""
"","null","html-keyboard-response","227","596407","0.0-227.0","<span style=""color:Black; font-size:50px;"">Agent A","null","","","","","","",""
"","null","video-keyboard-response","228","599514","0.0-228.0","","null","","Agent A","veridical","/Users/kirstenziman/Desktop/Desktop/DIDEC_entire_corpus/analysis_3/STIM_SET_1/0_713707.bmppp154_L1V1_freeview_veridical.mp4","","",""
"","null","html-keyboard-response","229","602516","0.0-229.0","<span style=""color:Black; font-size:50px;"">Agent B","null","","","","","","",""
"","null","video-keyboard-response","230","605598","0.0-230.0","","null","","Agent B","scrambled","/Users/kirstenziman/Desktop/Desktop/DIDEC_entire_corpus/analysis_3/STIM_SET_1/0_713707.bmppp154_L1V1_freeview_scrambled.mp4","","",""
"","","call-function","231","605599","0.0-231.0","","","","","","","","",""
"","2463.5","survey-likert","232","608063","0.0-232.0","","","","","","","{""judgement"":0}","[0]","0"
"","2231.800000011921","survey-likert","233","610297","0.0-233.0","","","","","","","{""confidence"":0}","[0]",""
"","","call-function","234","610297","0.0-234.0","","","","","","","","",""
"","null","html-keyboard-response","235","613302","0.0-235.0","<span style=""color:Black; font-size:50px;"">Agent A","null","","","","","","",""
"","null","video-keyboard-response","236","616388","0.0-236.0","","null","","Agent A","veridical","/Users/kirstenziman/Desktop/Desktop/DIDEC_entire_corpus/analysis_3/STIM_SET_1/0_713936.bmppp76_L1V1_freeview_veridical.mp4","","",""
"","null","html-keyboard-response","237","619393","0.0-237.0","<span style=""color:Black; font-size:50px;"">Agent B","null","","","","","","",""
"","null","video-keyboard-response","238","622470","0.0-238.0","","null","","Agent B","scrambled","/Users/kirstenziman/Desktop/Desktop/DIDEC_entire_corpus/analysis_3/STIM_SET_1/0_713936.bmppp76_L1V1_freeview_scrambled.mp4","","",""
"","","call-function","239","622470","0.0-239.0","","","","","","","","",""
"","1844","survey-likert","240","624315","0.0-240.0","","","","","","","{""judgement"":1}","[0]","0"
"","2682.199999988079","survey-likert","241","626998","0.0-241.0","","","","","","","{""confidence"":3}","[0]",""
"","","call-function","242","626999","0.0-242.0","","","","","","","","",""
"","null","html-keyboard-response","243","630003","0.0-243.0","<span style=""color:Black; font-size:50px;"">Agent A","null","","","","","","",""
"","null","video-keyboard-response","244","633091","0.0-244.0","","null","","Agent A","scrambled","/Users/kirstenziman/Desktop/Desktop/DIDEC_entire_corpus/analysis_3/STIM_SET_1/0_285807.bmppp51_L1V1_freeview_scrambled.mp4","","",""
"","null","html-keyboard-response","245","636104","0.0-245.0","<span style=""color:Black; font-size:50px;"">Agent B","null","","","","","","",""
"","null","video-keyboard-response","246","639188","0.0-246.0","","null","","Agent B","veridical","/Users/kirstenziman/Desktop/Desktop/DIDEC_entire_corpus/analysis_3/STIM_SET_1/0_285807.bmppp51_L1V1_freeview_veridical.mp4","","",""
"","","call-function","247","639189","0.0-247.0","","","","","","","","",""
"","4190.4000000059605","survey-likert","248","643380","0.0-248.0","","","","","","","{""judgement"":0}","[0]","1"
"","1625.0999999940395","survey-likert","249","645006","0.0-249.0","","","","","","","{""confidence"":1}","[0]",""
"[{""page_index"":0,""viewing_time"":1301.5999999940395},{""page_index"":1,""viewing_time"":864.5},{""page_index"":2,""viewing_time"":718.5}]","2884.800000011921","instructions","250","647891","0.0-250.0","","","","","","","","",""
"[{""page_index"":0,""viewing_time"":1907},{""page_index"":1,""viewing_time"":1105.9000000059605},{""page_index"":2,""viewing_time"":809.2999999821186}]","3822.4000000059605","instructions","251","651714","0.0-251.0","","","","","","","","",""
"","","call-function","252","651715","0.0-252.0","","","","","","","","",""
"","null","html-keyboard-response","253","654717","0.0-253.0","<span style=""color:Black; font-size:50px;"">Agent A","null","","","","","","",""
"","null","video-keyboard-response","254","657801","0.0-254.0","","null","","Agent A","veridical","/Users/kirstenziman/Desktop/Desktop/DIDEC_entire_corpus/analysis_3/STIM_SET_1/0_1591838.bmppp154_L1V1_freeview_veridical.mp4","","",""
"","null","html-keyboard-response","255","660807","0.0-255.0","<span style=""color:Black; font-size:50px;"">Agent B","null","","","","","","",""
"","null","video-keyboard-response","256","663920","0.0-256.0","","null","","Agent B","scrambled","/Users/kirstenziman/Desktop/Desktop/DIDEC_entire_corpus/analysis_3/STIM_SET_1/0_1591838.bmppp154_L1V1_freeview_scrambled.mp4","","",""
"","","call-function","257","663920","0.0-257.0","","","","","","","","",""
"","3606.0999999940395","survey-likert","258","667527","0.0-258.0","","","","","","","{""judgement"":0}","[0]","0"
"","1928.6000000238419","survey-likert","259","669457","0.0-259.0","","","","","","","{""confidence"":0}","[0]",""
"","","call-function","260","669457","0.0-260.0","","","","","","","","",""
"","null","html-keyboard-response","261","672461","0.0-261.0","<span style=""color:Black; font-size:50px;"">Agent A","null","","","","","","",""
"","null","video-keyboard-response","262","675552","0.0-262.0","","null","","Agent A","scrambled","/Users/kirstenziman/Desktop/Desktop/DIDEC_entire_corpus/analysis_3/STIM_SET_1/0_713371.bmppp93_L1V1_freeview_scrambled.mp4","","",""
"","null","html-keyboard-response","263","678557","0.0-263.0","<span style=""color:Black; font-size:50px;"">Agent B","null","","","","","","",""
"","null","video-keyboard-response","264","681634","0.0-264.0","","null","","Agent B","veridical","/Users/kirstenziman/Desktop/Desktop/DIDEC_entire_corpus/analysis_3/STIM_SET_1/0_713371.bmppp93_L1V1_freeview_veridical.mp4","","",""
"","","call-function","265","681634","0.0-265.0","","","","","","","","",""
"","2951.199999988079","survey-likert","266","684586","0.0-266.0","","","","","","","{""judgement"":1}","[0]","1"
"","2052.699999988079","survey-likert","267","686640","0.0-267.0","","","","","","","{""confidence"":3}","[0]",""
"","","call-function","268","686641","0.0-268.0","","","","","","","","",""
"","null","html-keyboard-response","269","689644","0.0-269.0","<span style=""color:Black; font-size:50px;"">Agent A","null","","","","","","",""
"","null","video-keyboard-response","270","692711","0.0-270.0","","null","","Agent A","scrambled","/Users/kirstenziman/Desktop/Desktop/DIDEC_entire_corpus/analysis_3/STIM_SET_1/0_713418.bmppp81_L1V1_freeview_scrambled.mp4","","",""
"","null","html-keyboard-response","271","695716","0.0-271.0","<span style=""color:Black; font-size:50px;"">Agent B","null","","","","","","",""
"","null","video-keyboard-response","272","698784","0.0-272.0","","null","","Agent B","veridical","/Users/kirstenziman/Desktop/Desktop/DIDEC_entire_corpus/analysis_3/STIM_SET_1/0_713418.bmppp81_L1V1_freeview_veridical.mp4","","",""
"","","call-function","273","698785","0.0-273.0","","","","","","","","",""
"","2982.5999999940395","survey-likert","274","701768","0.0-274.0","","","","","","","{""judgement"":1}","[0]","1"
"","2082.600000023842","survey-likert","275","703853","0.0-275.0","","","","","","","{""confidence"":3}","[0]",""
"","","call-function","276","703853","0.0-276.0","","","","","","","","",""
"","null","html-keyboard-response","277","706857","0.0-277.0","<span style=""color:Black; font-size:50px;"">Agent A","null","","","","","","",""
"","null","video-keyboard-response","278","709946","0.0-278.0","","null","","Agent A","scrambled","/Users/kirstenziman/Desktop/Desktop/DIDEC_entire_corpus/analysis_3/STIM_SET_1/0_1593041.bmppp89_L1V1_freeview_scrambled.mp4","","",""
"","null","html-keyboard-response","279","712951","0.0-279.0","<span style=""color:Black; font-size:50px;"">Agent B","null","","","","","","",""
"","null","video-keyboard-response","280","716029","0.0-280.0","","null","","Agent B","veridical","/Users/kirstenziman/Desktop/Desktop/DIDEC_entire_corpus/analysis_3/STIM_SET_1/0_1593041.bmppp89_L1V1_freeview_veridical.mp4","","",""
"","","call-function","281","716029","0.0-281.0","","","","","","","","",""
"","2364.5","survey-likert","282","718395","0.0-282.0","","","","","","","{""judgement"":1}","[0]","1"
"","1526.3999999761581","survey-likert","283","719922","0.0-283.0","","","","","","","{""confidence"":1}","[0]",""
"","","call-function","284","719923","0.0-284.0","","","","","","","","",""
"","null","html-keyboard-response","285","722924","0.0-285.0","<span style=""color:Black; font-size:50px;"">Agent A","null","","","","","","",""
"","null","video-keyboard-response","286","726011","0.0-286.0","","null","","Agent A","scrambled","/Users/kirstenziman/Desktop/Desktop/DIDEC_entire_corpus/analysis_3/STIM_SET_1/0_285905.bmppp151_L1V1_freeview_scrambled.mp4","","",""
"","null","html-keyboard-response","287","729013","0.0-287.0","<span style=""color:Black; font-size:50px;"">Agent B","null","","","","","","",""
"","null","video-keyboard-response","288","732086","0.0-288.0","","null","","Agent B","veridical","/Users/kirstenziman/Desktop/Desktop/DIDEC_entire_corpus/analysis_3/STIM_SET_1/0_285905.bmppp151_L1V1_freeview_veridical.mp4","","",""
"","","call-function","289","732087","0.0-289.0","","","","","","","","",""
"","2265.4000000059605","survey-likert","290","734353","0.0-290.0","","","","","","","{""judgement"":1}","[0]","1"
"","1540.800000011921","survey-likert","291","735895","0.0-291.0","","","","","","","{""confidence"":3}","[0]",""
"","","call-function","292","735895","0.0-292.0","","","","","","","","",""
"","null","html-keyboard-response","293","738904","0.0-293.0","<span style=""color:Black; font-size:50px;"">Agent A","null","","","","","","",""
"","null","video-keyboard-response","294","741986","0.0-294.0","","null","","Agent A","scrambled","/Users/kirstenziman/Desktop/Desktop/DIDEC_entire_corpus/analysis_3/STIM_SET_1/0_713593.bmppp75_L1V1_freeview_scrambled.mp4","","",""
"","null","html-keyboard-response","295","744991","0.0-295.0","<span style=""color:Black; font-size:50px;"">Agent B","null","","","","","","",""
"","null","video-keyboard-response","296","748070","0.0-296.0","","null","","Agent B","veridical","/Users/kirstenziman/Desktop/Desktop/DIDEC_entire_corpus/analysis_3/STIM_SET_1/0_713593.bmppp75_L1V1_freeview_veridical.mp4","","",""
"","","call-function","297","748070","0.0-297.0","","","","","","","","",""
"","2033","survey-likert","298","750104","0.0-298.0","","","","","","","{""judgement"":1}","[0]","1"
"","4298","survey-likert","299","754403","0.0-299.0","","","","","","","{""confidence"":2}","[0]",""
"","","call-function","300","754403","0.0-300.0","","","","","","","","",""
"","null","html-keyboard-response","301","757407","0.0-301.0","<span style=""color:Black; font-size:50px;"">Agent A","null","","","","","","",""
"","null","video-keyboard-response","302","760502","0.0-302.0","","null","","Agent A","veridical","/Users/kirstenziman/Desktop/Desktop/DIDEC_entire_corpus/analysis_3/STIM_SET_1/0_285933.bmppp52_L1V1_freeview_veridical.mp4","","",""
"","null","html-keyboard-response","303","763507","0.0-303.0","<span style=""color:Black; font-size:50px;"">Agent B","null","","","","","","",""
"","null","video-keyboard-response","304","766602","0.0-304.0","","null","","Agent B","scrambled","/Users/kirstenziman/Desktop/Desktop/DIDEC_entire_corpus/analysis_3/STIM_SET_1/0_285933.bmppp52_L1V1_freeview_scrambled.mp4","","",""
"","","call-function","305","766603","0.0-305.0","","","","","","","","",""
"","3586.300000011921","survey-likert","306","770190","0.0-306.0","","","","","","","{""judgement"":0}","[0]","0"
"","3416.2000000178814","survey-likert","307","773608","0.0-307.0","","","","","","","{""confidence"":0}","[0]",""
"","","call-function","308","773608","0.0-308.0","","","","","","","","",""
"","null","html-keyboard-response","309","776609","0.0-309.0","<span style=""color:Black; font-size:50px;"">Agent A","null","","","","","","",""
"","null","video-keyboard-response","310","779703","0.0-310.0","","null","","Agent A","scrambled","/Users/kirstenziman/Desktop/Desktop/DIDEC_entire_corpus/analysis_3/STIM_SET_1/0_150432.bmppp81_L1V1_freeview_scrambled.mp4","","",""
"","null","html-keyboard-response","311","782707","0.0-311.0","<span style=""color:Black; font-size:50px;"">Agent B","null","","","","","","",""
"","null","video-keyboard-response","312","785800","0.0-312.0","","null","","Agent B","veridical","/Users/kirstenziman/Desktop/Desktop/DIDEC_entire_corpus/analysis_3/STIM_SET_1/0_150432.bmppp81_L1V1_freeview_veridical.mp4","","",""
"","","call-function","313","785800","0.0-313.0","","","","","","","","",""
"","2106.699999988079","survey-likert","314","787908","0.0-314.0","","","","","","","{""judgement"":1}","[0]","1"
"","1800.2999999821186","survey-likert","315","789709","0.0-315.0","","","","","","","{""confidence"":1}","[0]",""
"","","call-function","316","789710","0.0-316.0","","","","","","","","",""
"","null","html-keyboard-response","317","792711","0.0-317.0","<span style=""color:Black; font-size:50px;"">Agent A","null","","","","","","",""
"","null","video-keyboard-response","318","795795","0.0-318.0","","null","","Agent A","scrambled","/Users/kirstenziman/Desktop/Desktop/DIDEC_entire_corpus/analysis_3/STIM_SET_1/0_713769.bmppp58_L1V1_freeview_scrambled.mp4","","",""
"","null","html-keyboard-response","319","798801","0.0-319.0","<span style=""color:Black; font-size:50px;"">Agent B","null","","","","","","",""
"","null","video-keyboard-response","320","801894","0.0-320.0","","null","","Agent B","veridical","/Users/kirstenziman/Desktop/Desktop/DIDEC_entire_corpus/analysis_3/STIM_SET_1/0_713769.bmppp58_L1V1_freeview_veridical.mp4","","",""
"","","call-function","321","801894","0.0-321.0","","","","","","","","",""
"","4387.0999999940395","survey-likert","322","806282","0.0-322.0","","","","","","","{""judgement"":0}","[0]","1"
"","2277.199999988079","survey-likert","323","808560","0.0-323.0","","","","","","","{""confidence"":1}","[0]",""
"","","call-function","324","808561","0.0-324.0","","","","","","","","",""
"","null","html-keyboard-response","325","811566","0.0-325.0","<span style=""color:Black; font-size:50px;"">Agent A","null","","","","","","",""
"","null","video-keyboard-response","326","814678","0.0-326.0","","null","","Agent A","veridical","/Users/kirstenziman/Desktop/Desktop/DIDEC_entire_corpus/analysis_3/STIM_SET_1/0_713858.bmppp75_L1V1_freeview_veridical.mp4","","",""
"","null","html-keyboard-response","327","817681","0.0-327.0","<span style=""color:Black; font-size:50px;"">Agent B","null","","","","","","",""
"","null","video-keyboard-response","328","820780","0.0-328.0","","null","","Agent B","scrambled","/Users/kirstenziman/Desktop/Desktop/DIDEC_entire_corpus/analysis_3/STIM_SET_1/0_713858.bmppp75_L1V1_freeview_scrambled.mp4","","",""
"","","call-function","329","820780","0.0-329.0","","","","","","","","",""
"","2717.9000000059605","survey-likert","330","823499","0.0-330.0","","","","","","","{""judgement"":0}","[0]","0"
"","2271.100000023842","survey-likert","331","825771","0.0-331.0","","","","","","","{""confidence"":2}","[0]",""
"[{""page_index"":0,""viewing_time"":2641.199999988079},{""page_index"":1,""viewing_time"":371.90000000596046},{""page_index"":2,""viewing_time"":346.69999998807907}]","3360","instructions","332","829131","0.0-332.0","","","","","","","","",""
"[{""page_index"":0,""viewing_time"":210},{""page_index"":1,""viewing_time"":453.90000000596046},{""page_index"":2,""viewing_time"":460.5}]","1124.5","instructions","333","830256","0.0-333.0","","","","","","","","",""
"","","call-function","334","830257","0.0-334.0","","","","","","","","",""
"","null","html-keyboard-response","335","833259","0.0-335.0","<span style=""color:Black; font-size:50px;"">Agent A","null","","","","","","",""
"","null","video-keyboard-response","336","836327","0.0-336.0","","null","","Agent A","scrambled","/Users/kirstenziman/Desktop/Desktop/DIDEC_entire_corpus/analysis_3/STIM_SET_1/0_1159508.bmppp154_L1V1_freeview_scrambled.mp4","","",""
"","null","html-keyboard-response","337","839331","0.0-337.0","<span style=""color:Black; font-size:50px;"">Agent B","null","","","","","","",""
"","null","video-keyboard-response","338","842393","0.0-338.0","","null","","Agent B","veridical","/Users/kirstenziman/Desktop/Desktop/DIDEC_entire_corpus/analysis_3/STIM_SET_1/0_1159508.bmppp154_L1V1_freeview_veridical.mp4","","",""
"","","call-function","339","842393","0.0-339.0","","","","","","","","",""
"","2036.7999999821186","survey-likert","340","844431","0.0-340.0","","","","","","","{""judgement"":1}","[0]","1"
"","3641.899999976158","survey-likert","341","849533","0.0-341.0","","","","","","","{""confidence"":3}","[0]",""
"","","call-function","342","849533","0.0-342.0","","","","","","","","",""
"","null","html-keyboard-response","343","852538","0.0-343.0","<span style=""color:Black; font-size:50px;"">Agent A","null","","","","","","",""
"","null","video-keyboard-response","344","855626","0.0-344.0","","null","","Agent A","scrambled","/Users/kirstenziman/Desktop/Desktop/DIDEC_entire_corpus/analysis_3/STIM_SET_1/0_1159463.bmppp63_L1V1_freeview_scrambled.mp4","","",""
"","null","html-keyboard-response","345","858632","0.0-345.0","<span style=""color:Black; font-size:50px;"">Agent B","null","","","","","","",""
"","null","video-keyboard-response","346","861726","0.0-346.0","","null","","Agent B","veridical","/Users/kirstenziman/Desktop/Desktop/DIDEC_entire_corpus/analysis_3/STIM_SET_1/0_1159463.bmppp63_L1V1_freeview_veridical.mp4","","",""
"","","call-function","347","861726","0.0-347.0","","","","","","","","",""
"","2724.7000000178814","survey-likert","348","864451","0.0-348.0","","","","","","","{""judgement"":1}","[0]","1"
"","1880.199999988079","survey-likert","349","866333","0.0-349.0","","","","","","","{""confidence"":3}","[0]",""
"","","call-function","350","866333","0.0-350.0","","","","","","","","",""
"","null","html-keyboard-response","351","869338","0.0-351.0","<span style=""color:Black; font-size:50px;"">Agent A","null","","","","","","",""
"","null","video-keyboard-response","352","872416","0.0-352.0","","null","","Agent A","veridical","/Users/kirstenziman/Desktop/Desktop/DIDEC_entire_corpus/analysis_3/STIM_SET_1/0_1160189.bmppp89_L1V1_freeview_veridical.mp4","","",""
"","null","html-keyboard-response","353","875417","0.0-353.0","<span style=""color:Black; font-size:50px;"">Agent B","null","","","","","","",""
"","null","video-keyboard-response","354","878502","0.0-354.0","","null","","Agent B","scrambled","/Users/kirstenziman/Desktop/Desktop/DIDEC_entire_corpus/analysis_3/STIM_SET_1/0_1160189.bmppp89_L1V1_freeview_scrambled.mp4","","",""
"","","call-function","355","878503","0.0-355.0","","","","","","","","",""
"","1823.300000011921","survey-likert","356","880327","0.0-356.0","","","","","","","{""judgement"":0}","[0]","0"
"","1970.0999999940395","survey-likert","357","882298","0.0-357.0","","","","","","","{""confidence"":3}","[0]",""
"","","call-function","358","882299","0.0-358.0","","","","","","","","",""
"","null","html-keyboard-response","359","885302","0.0-359.0","<span style=""color:Black; font-size:50px;"">Agent A","null","","","","","","",""
"","null","video-keyboard-response","360","888384","0.0-360.0","","null","","Agent A","veridical","/Users/kirstenziman/Desktop/Desktop/DIDEC_entire_corpus/analysis_3/STIM_SET_1/0_498108.bmppp75_L1V1_freeview_veridical.mp4","","",""
"","null","html-keyboard-response","361","891387","0.0-361.0","<span style=""color:Black; font-size:50px;"">Agent B","null","","","","","","",""
"","null","video-keyboard-response","362","894468","0.0-362.0","","null","","Agent B","scrambled","/Users/kirstenziman/Desktop/Desktop/DIDEC_entire_corpus/analysis_3/STIM_SET_1/0_498108.bmppp75_L1V1_freeview_scrambled.mp4","","",""
"","","call-function","363","894469","0.0-363.0","","","","","","","","",""
"","1880.5999999940395","survey-likert","364","896351","0.0-364.0","","","","","","","{""judgement"":1}","[0]","0"
"","5969.700000017881","survey-likert","365","902322","0.0-365.0","","","","","","","{""confidence"":0}","[0]",""
"","","call-function","366","902322","0.0-366.0","","","","","","","","",""
"","null","html-keyboard-response","367","905325","0.0-367.0","<span style=""color:Black; font-size:50px;"">Agent A","null","","","","","","",""
"","null","video-keyboard-response","368","908409","0.0-368.0","","null","","Agent A","scrambled","/Users/kirstenziman/Desktop/Desktop/DIDEC_entire_corpus/analysis_3/STIM_SET_1/0_1592137.bmppp52_L1V1_freeview_scrambled.mp4","","",""
"","null","html-keyboard-response","369","911414","0.0-369.0","<span style=""color:Black; font-size:50px;"">Agent B","null","","","","","","",""
"","null","video-keyboard-response","370","914509","0.0-370.0","","null","","Agent B","veridical","/Users/kirstenziman/Desktop/Desktop/DIDEC_entire_corpus/analysis_3/STIM_SET_1/0_1592137.bmppp52_L1V1_freeview_veridical.mp4","","",""
"","","call-function","371","914509","0.0-371.0","","","","","","","","",""
"","3112.7999999821186","survey-likert","372","917624","0.0-372.0","","","","","","","{""judgement"":1}","[0]","1"
"","1479.4000000059605","survey-likert","373","919104","0.0-373.0","","","","","","","{""confidence"":2}","[0]",""
"","","call-function","374","919105","0.0-374.0","","","","","","","","",""
"","null","html-keyboard-response","375","922107","0.0-375.0","<span style=""color:Black; font-size:50px;"">Agent A","null","","","","","","",""
"","null","video-keyboard-response","376","925197","0.0-376.0","","null","","Agent A","veridical","/Users/kirstenziman/Desktop/Desktop/DIDEC_entire_corpus/analysis_3/STIM_SET_1/0_1592568.bmppp93_L1V1_freeview_veridical.mp4","","",""
"","null","html-keyboard-response","377","928203","0.0-377.0","<span style=""color:Black; font-size:50px;"">Agent B","null","","","","","","",""
"","null","video-keyboard-response","378","931284","0.0-378.0","","null","","Agent B","scrambled","/Users/kirstenziman/Desktop/Desktop/DIDEC_entire_corpus/analysis_3/STIM_SET_1/0_1592568.bmppp93_L1V1_freeview_scrambled.mp4","","",""
"","","call-function","379","931284","0.0-379.0","","","","","","","","",""
"","2136.5999999940395","survey-likert","380","933422","0.0-380.0","","","","","","","{""judgement"":0}","[0]","0"
"","1462.4000000059605","survey-likert","381","934885","0.0-381.0","","","","","","","{""confidence"":2}","[0]",""
"","","call-function","382","934886","0.0-382.0","","","","","","","","",""
"","null","html-keyboard-response","383","937891","0.0-383.0","<span style=""color:Black; font-size:50px;"">Agent A","null","","","","","","",""
"","null","video-keyboard-response","384","940983","0.0-384.0","","null","","Agent A","scrambled","/Users/kirstenziman/Desktop/Desktop/DIDEC_entire_corpus/analysis_3/STIM_SET_1/0_1592017.bmppp64_L1V1_freeview_scrambled.mp4","","",""
"","null","html-keyboard-response","385","943987","0.0-385.0","<span style=""color:Black; font-size:50px;"">Agent B","null","","","","","","",""
"","null","video-keyboard-response","386","947084","0.0-386.0","","null","","Agent B","veridical","/Users/kirstenziman/Desktop/Desktop/DIDEC_entire_corpus/analysis_3/STIM_SET_1/0_1592017.bmppp64_L1V1_freeview_veridical.mp4","","",""
"","","call-function","387","947085","0.0-387.0","","","","","","","","",""
"","1762.0999999940395","survey-likert","388","948849","0.0-388.0","","","","","","","{""judgement"":1}","[0]","1"
"","2318.9000000059605","survey-likert","389","951169","0.0-389.0","","","","","","","{""confidence"":3}","[0]",""
"","","call-function","390","951171","0.0-390.0","","","","","","","","",""
"","null","html-keyboard-response","391","954174","0.0-391.0","<span style=""color:Black; font-size:50px;"">Agent A","null","","","","","","",""
"","null","video-keyboard-response","392","957299","0.0-392.0","","null","","Agent A","veridical","/Users/kirstenziman/Desktop/Desktop/DIDEC_entire_corpus/analysis_3/STIM_SET_1/0_712977.bmppp68_L1V1_freeview_veridical.mp4","","",""
"","null","html-keyboard-response","393","960301","0.0-393.0","<span style=""color:Black; font-size:50px;"">Agent B","null","","","","","","",""
"","null","video-keyboard-response","394","963387","0.0-394.0","","null","","Agent B","scrambled","/Users/kirstenziman/Desktop/Desktop/DIDEC_entire_corpus/analysis_3/STIM_SET_1/0_712977.bmppp68_L1V1_freeview_scrambled.mp4","","",""
"","","call-function","395","963387","0.0-395.0","","","","","","","","",""
"","2572.4000000059605","survey-likert","396","965961","0.0-396.0","","","","","","","{""judgement"":1}","[0]","0"
"","1964.8999999761581","survey-likert","397","967926","0.0-397.0","","","","","","","{""confidence"":0}","[0]",""
"","","call-function","398","967927","0.0-398.0","","","","","","","","",""
"","null","html-keyboard-response","399","970928","0.0-399.0","<span style=""color:Black; font-size:50px;"">Agent A","null","","","","","","",""
"","null","video-keyboard-response","400","974011","0.0-400.0","","null","","Agent A","veridical","/Users/kirstenziman/Desktop/Desktop/DIDEC_entire_corpus/analysis_3/STIM_SET_1/0_1592133.bmppp63_L1V1_freeview_veridical.mp4","","",""
"","null","html-keyboard-response","401","977013","0.0-401.0","<span style=""color:Black; font-size:50px;"">Agent B","null","","","","","","",""
"","null","video-keyboard-response","402","980161","0.0-402.0","","null","","Agent B","scrambled","/Users/kirstenziman/Desktop/Desktop/DIDEC_entire_corpus/analysis_3/STIM_SET_1/0_1592133.bmppp63_L1V1_freeview_scrambled.mp4","","",""
"","","call-function","403","980161","0.0-403.0","","","","","","","","",""
"","2260.4000000059605","survey-likert","404","982423","0.0-404.0","","","","","","","{""judgement"":0}","[0]","0"
"","2914.9000000059605","survey-likert","405","985339","0.0-405.0","","","","","","","{""confidence"":3}","[0]",""
"","","call-function","406","985339","0.0-406.0","","","","","","","","",""
"","null","html-keyboard-response","407","988343","0.0-407.0","<span style=""color:Black; font-size:50px;"">Agent A","null","","","","","","",""
"","null","video-keyboard-response","408","991424","0.0-408.0","","null","","Agent A","veridical","/Users/kirstenziman/Desktop/Desktop/DIDEC_entire_corpus/analysis_3/STIM_SET_1/0_713920.bmppp76_L1V1_freeview_veridical.mp4","","",""
"","null","html-keyboard-response","409","994427","0.0-409.0","<span style=""color:Black; font-size:50px;"">Agent B","null","","","","","","",""
"","null","video-keyboard-response","410","997506","0.0-410.0","","null","","Agent B","scrambled","/Users/kirstenziman/Desktop/Desktop/DIDEC_entire_corpus/analysis_3/STIM_SET_1/0_713920.bmppp76_L1V1_freeview_scrambled.mp4","","",""
"","","call-function","411","997507","0.0-411.0","","","","","","","","",""
"","5406","survey-likert","412","1002914","0.0-412.0","","","","","","","{""judgement"":0}","[0]","0"
"","3078.2999999821186","survey-likert","413","1005993","0.0-413.0","","","","","","","{""confidence"":2}","[0]",""
"[{""page_index"":0,""viewing_time"":3264.199999988079},{""page_index"":1,""viewing_time"":679.3000000119209},{""page_index"":2,""viewing_time"":435.59999999403954}]","4379.299999982119","instructions","414","1010373","0.0-414.0","","","","","","","","",""
"[{""page_index"":0,""viewing_time"":409.40000000596046},{""page_index"":1,""viewing_time"":487.2999999821186},{""page_index"":2,""viewing_time"":419.09999999403954}]","1316","instructions","415","1011690","0.0-415.0","","","","","","","","",""
"","","call-function","416","1011691","0.0-416.0","","","","","","","","",""
"","null","html-keyboard-response","417","1014693","0.0-417.0","<span style=""color:Black; font-size:50px;"">Agent A","null","","","","","","",""
"","null","video-keyboard-response","418","1017780","0.0-418.0","","null","","Agent A","veridical","/Users/kirstenziman/Desktop/Desktop/DIDEC_entire_corpus/analysis_3/STIM_SET_1/0_713888.bmppp68_L1V1_freeview_veridical.mp4","","",""
"","null","html-keyboard-response","419","1020786","0.0-419.0","<span style=""color:Black; font-size:50px;"">Agent B","null","","","","","","",""
"","null","video-keyboard-response","420","1023978","0.0-420.0","","null","","Agent B","scrambled","/Users/kirstenziman/Desktop/Desktop/DIDEC_entire_corpus/analysis_3/STIM_SET_1/0_713888.bmppp68_L1V1_freeview_scrambled.mp4","","",""
"","","call-function","421","1023979","0.0-421.0","","","","","","","","",""
"","2538.0999999940395","survey-likert","422","1026518","0.0-422.0","","","","","","","{""judgement"":0}","[0]","0"
"","2793.0999999940395","survey-likert","423","1029313","0.0-423.0","","","","","","","{""confidence"":1}","[0]",""
"","","call-function","424","1029313","0.0-424.0","","","","","","","","",""
"","null","html-keyboard-response","425","1032316","0.0-425.0","<span style=""color:Black; font-size:50px;"">Agent A","null","","","","","","",""
"","null","video-keyboard-response","426","1035398","0.0-426.0","","null","","Agent A","veridical","/Users/kirstenziman/Desktop/Desktop/DIDEC_entire_corpus/analysis_3/STIM_SET_1/0_1159365.bmppp58_L1V1_freeview_veridical.mp4","","",""
"","null","html-keyboard-response","427","1038403","0.0-427.0","<span style=""color:Black; font-size:50px;"">Agent B","null","","","","","","",""
"","null","video-keyboard-response","428","1041480","0.0-428.0","","null","","Agent B","scrambled","/Users/kirstenziman/Desktop/Desktop/DIDEC_entire_corpus/analysis_3/STIM_SET_1/0_1159365.bmppp58_L1V1_freeview_scrambled.mp4","","",""
"","","call-function","429","1041481","0.0-429.0","","","","","","","","",""
"","2579.9000000059605","survey-likert","430","1044062","0.0-430.0","","","","","","","{""judgement"":0}","[0]","0"
"","1768.199999988079","survey-likert","431","1045831","0.0-431.0","","","","","","","{""confidence"":0}","[0]",""
"","","call-function","432","1045832","0.0-432.0","","","","","","","","",""
"","null","html-keyboard-response","433","1048836","0.0-433.0","<span style=""color:Black; font-size:50px;"">Agent A","null","","","","","","",""
"","null","video-keyboard-response","434","1052012","0.0-434.0","","null","","Agent A","veridical","/Users/kirstenziman/Desktop/Desktop/DIDEC_entire_corpus/analysis_3/STIM_SET_1/0_498339.bmppp63_L1V1_freeview_veridical.mp4","","",""
"","null","html-keyboard-response","435","1055015","0.0-435.0","<span style=""color:Black; font-size:50px;"">Agent B","null","","","","","","",""
"","null","video-keyboard-response","436","1058102","0.0-436.0","","null","","Agent B","scrambled","/Users/kirstenziman/Desktop/Desktop/DIDEC_entire_corpus/analysis_3/STIM_SET_1/0_498339.bmppp63_L1V1_freeview_scrambled.mp4","","",""
"","","call-function","437","1058103","0.0-437.0","","","","","","","","",""
"","1826.5","survey-likert","438","1059931","0.0-438.0","","","","","","","{""judgement"":0}","[0]","0"
"","4409.600000023842","survey-likert","439","1064342","0.0-439.0","","","","","","","{""confidence"":2}","[0]",""
"","","call-function","440","1064342","0.0-440.0","","","","","","","","",""
"","null","html-keyboard-response","441","1067345","0.0-441.0","<span style=""color:Black; font-size:50px;"">Agent A","null","","","","","","",""
"","null","video-keyboard-response","442","1070439","0.0-442.0","","null","","Agent A","veridical","/Users/kirstenziman/Desktop/Desktop/DIDEC_entire_corpus/analysis_3/STIM_SET_1/0_713786.bmppp68_L1V1_freeview_veridical.mp4","","",""
"","null","html-keyboard-response","443","1073444","0.0-443.0","<span style=""color:Black; font-size:50px;"">Agent B","null","","","","","","",""
"","null","video-keyboard-response","444","1076524","0.0-444.0","","null","","Agent B","scrambled","/Users/kirstenziman/Desktop/Desktop/DIDEC_entire_corpus/analysis_3/STIM_SET_1/0_713786.bmppp68_L1V1_freeview_scrambled.mp4","","",""
"","","call-function","445","1076524","0.0-445.0","","","","","","","","",""
"","3080.699999988079","survey-likert","446","1079607","0.0-446.0","","","","","","","{""judgement"":0}","[0]","0"
"","1403.5","survey-likert","447","1081011","0.0-447.0","","","","","","","{""confidence"":0}","[0]",""
"","","call-function","448","1081012","0.0-448.0","","","","","","","","",""
"","null","html-keyboard-response","449","1084017","0.0-449.0","<span style=""color:Black; font-size:50px;"">Agent A","null","","","","","","",""
"","null","video-keyboard-response","450","1087107","0.0-450.0","","null","","Agent A","veridical","/Users/kirstenziman/Desktop/Desktop/DIDEC_entire_corpus/analysis_3/STIM_SET_1/0_1159440.bmppp98_L1V1_freeview_veridical.mp4","","",""
"","null","html-keyboard-response","451","1090113","0.0-451.0","<span style=""color:Black; font-size:50px;"">Agent B","null","","","","","","",""
"","null","video-keyboard-response","452","1093201","0.0-452.0","","null","","Agent B","scrambled","/Users/kirstenziman/Desktop/Desktop/DIDEC_entire_corpus/analysis_3/STIM_SET_1/0_1159440.bmppp98_L1V1_freeview_scrambled.mp4","","",""
"","","call-function","453","1093201","0.0-453.0","","","","","","","","",""
"","3216.4000000059605","survey-likert","454","1096419","0.0-454.0","","","","","","","{""judgement"":0}","[0]","0"
"","1727.7999999821186","survey-likert","455","1098148","0.0-455.0","","","","","","","{""confidence"":2}","[0]",""
"","","call-function","456","1098149","0.0-456.0","","","","","","","","",""
"","null","html-keyboard-response","457","1101154","0.0-457.0","<span style=""color:Black; font-size:50px;"">Agent A","null","","","","","","",""
"","null","video-keyboard-response","458","1104231","0.0-458.0","","null","","Agent A","veridical","/Users/kirstenziman/Desktop/Desktop/DIDEC_entire_corpus/analysis_3/STIM_SET_1/0_1592119.bmppp63_L1V1_freeview_veridical.mp4","","",""
"","null","html-keyboard-response","459","1107234","0.0-459.0","<span style=""color:Black; font-size:50px;"">Agent B","null","","","","","","",""
"","null","video-keyboard-response","460","1110315","0.0-460.0","","null","","Agent B","scrambled","/Users/kirstenziman/Desktop/Desktop/DIDEC_entire_corpus/analysis_3/STIM_SET_1/0_1592119.bmppp63_L1V1_freeview_scrambled.mp4","","",""
"","","call-function","461","1110315","0.0-461.0","","","","","","","","",""
"","3569.9000000059605","survey-likert","462","1113887","0.0-462.0","","","","","","","{""judgement"":0}","[0]","0"
"","2591.2999999821186","survey-likert","463","1116479","0.0-463.0","","","","","","","{""confidence"":1}","[0]",""
"","","call-function","464","1116479","0.0-464.0","","","","","","","","",""
"","null","html-keyboard-response","465","1119481","0.0-465.0","<span style=""color:Black; font-size:50px;"">Agent A","null","","","","","","",""
"","null","video-keyboard-response","466","1122560","0.0-466.0","","null","","Agent A","veridical","/Users/kirstenziman/Desktop/Desktop/DIDEC_entire_corpus/analysis_3/STIM_SET_1/0_1592025.bmppp57_L1V1_freeview_veridical.mp4","","",""
"","null","html-keyboard-response","467","1125564","0.0-467.0","<span style=""color:Black; font-size:50px;"">Agent B","null","","","","","","",""
"","null","video-keyboard-response","468","1128640","0.0-468.0","","null","","Agent B","scrambled","/Users/kirstenziman/Desktop/Desktop/DIDEC_entire_corpus/analysis_3/STIM_SET_1/0_1592025.bmppp57_L1V1_freeview_scrambled.mp4","","",""
"","","call-function","469","1128640","0.0-469.0","","","","","","","","",""
"","4186.300000011921","survey-likert","470","1132828","0.0-470.0","","","","","","","{""judgement"":0}","[0]","0"
"","3592.5999999940395","survey-likert","471","1136421","0.0-471.0","","","","","","","{""confidence"":2}","[0]",""
"","","call-function","472","1136422","0.0-472.0","","","","","","","","",""
"","null","html-keyboard-response","473","1139427","0.0-473.0","<span style=""color:Black; font-size:50px;"">Agent A","null","","","","","","",""
"","null","video-keyboard-response","474","1142573","0.0-474.0","","null","","Agent A","scrambled","/Users/kirstenziman/Desktop/Desktop/DIDEC_entire_corpus/analysis_3/STIM_SET_1/0_498326.bmppp63_L1V1_freeview_scrambled.mp4","","",""
"","null","html-keyboard-response","475","1145575","0.0-475.0","<span style=""color:Black; font-size:50px;"">Agent B","null","","","","","","",""
"","null","video-keyboard-response","476","1148656","0.0-476.0","","null","","Agent B","veridical","/Users/kirstenziman/Desktop/Desktop/DIDEC_entire_corpus/analysis_3/STIM_SET_1/0_498326.bmppp63_L1V1_freeview_veridical.mp4","","",""
"","","call-function","477","1148657","0.0-477.0","","","","","","","","",""
"","3162.699999988079","survey-likert","478","1151820","0.0-478.0","","","","","","","{""judgement"":1}","[0]","1"
"","2424.4000000059605","survey-likert","479","1154245","0.0-479.0","","","","","","","{""confidence"":3}","[0]",""
"","","call-function","480","1154246","0.0-480.0","","","","","","","","",""
"","null","html-keyboard-response","481","1157250","0.0-481.0","<span style=""color:Black; font-size:50px;"">Agent A","null","","","","","","",""
"","null","video-keyboard-response","482","1160362","0.0-482.0","","null","","Agent A","veridical","/Users/kirstenziman/Desktop/Desktop/DIDEC_entire_corpus/analysis_3/STIM_SET_1/0_1159425.bmppp58_L1V1_freeview_veridical.mp4","","",""
"","null","html-keyboard-response","483","1163367","0.0-483.0","<span style=""color:Black; font-size:50px;"">Agent B","null","","","","","","",""
"","null","video-keyboard-response","484","1166456","0.0-484.0","","null","","Agent B","scrambled","/Users/kirstenziman/Desktop/Desktop/DIDEC_entire_corpus/analysis_3/STIM_SET_1/0_1159425.bmppp58_L1V1_freeview_scrambled.mp4","","",""
"","","call-function","485","1166456","0.0-485.0","","","","","","","","",""
"","2726.7999999821186","survey-likert","486","1169184","0.0-486.0","","","","","","","{""judgement"":0}","[0]","0"
"","2122.600000023842","survey-likert","487","1171307","0.0-487.0","","","","","","","{""confidence"":2}","[0]",""
"","","call-function","488","1171308","0.0-488.0","","","","","","","","",""
"","null","html-keyboard-response","489","1174311","0.0-489.0","<span style=""color:Black; font-size:50px;"">Agent A","null","","","","","","",""
"","null","video-keyboard-response","490","1177399","0.0-490.0","","null","","Agent A","scrambled","/Users/kirstenziman/Desktop/Desktop/DIDEC_entire_corpus/analysis_3/STIM_SET_1/0_497974.bmppp98_L1V1_freeview_scrambled.mp4","","",""
"","null","html-keyboard-response","491","1180401","0.0-491.0","<span style=""color:Black; font-size:50px;"">Agent B","null","","","","","","",""
"","null","video-keyboard-response","492","1183484","0.0-492.0","","null","","Agent B","veridical","/Users/kirstenziman/Desktop/Desktop/DIDEC_entire_corpus/analysis_3/STIM_SET_1/0_497974.bmppp98_L1V1_freeview_veridical.mp4","","",""
"","","call-function","493","1183484","0.0-493.0","","","","","","","","",""
"","2300.7000000178814","survey-likert","494","1185786","0.0-494.0","","","","","","","{""judgement"":1}","[0]","1"
"","2606.199999988079","survey-likert","495","1188393","0.0-495.0","","","","","","","{""confidence"":3}","[0]",""
"[{""page_index"":0,""viewing_time"":1140.199999988079},{""page_index"":1,""viewing_time"":810.4000000059605},{""page_index"":2,""viewing_time"":1137.4000000059605}]","3088.199999988079","instructions","496","1191482","0.0-496.0","","","","","","","","",""
"[{""page_index"":0,""viewing_time"":307.5},{""page_index"":1,""viewing_time"":409.39999997615814},{""page_index"":2,""viewing_time"":479.80000001192093}]","1196.7999999821186","instructions","497","1192679","0.0-497.0","","","","","","","","",""
"","","call-function","498","1192680","0.0-498.0","","","","","","","","",""
"","null","html-keyboard-response","499","1195685","0.0-499.0","<span style=""color:Black; font-size:50px;"">Agent A","null","","","","","","",""
"","null","video-keyboard-response","500","1198763","0.0-500.0","","null","","Agent A","veridical","/Users/kirstenziman/Desktop/Desktop/DIDEC_entire_corpus/analysis_3/STIM_SET_1/0_713633.bmppp57_L1V1_freeview_veridical.mp4","","",""
"","null","html-keyboard-response","501","1201768","0.0-501.0","<span style=""color:Black; font-size:50px;"">Agent B","null","","","","","","",""
"","null","video-keyboard-response","502","1204864","0.0-502.0","","null","","Agent B","scrambled","/Users/kirstenziman/Desktop/Desktop/DIDEC_entire_corpus/analysis_3/STIM_SET_1/0_713633.bmppp57_L1V1_freeview_scrambled.mp4","","",""
"","","call-function","503","1204864","0.0-503.0","","","","","","","","",""
"","2843.800000011921","survey-likert","504","1207709","0.0-504.0","","","","","","","{""judgement"":0}","[0]","0"
"","1590.3999999761581","survey-likert","505","1209301","0.0-505.0","","","","","","","{""confidence"":3}","[0]",""
"","","call-function","506","1209302","0.0-506.0","","","","","","","","",""
"","null","html-keyboard-response","507","1212307","0.0-507.0","<span style=""color:Black; font-size:50px;"">Agent A","null","","","","","","",""
"","null","video-keyboard-response","508","1215384","0.0-508.0","","null","","Agent A","veridical","/Users/kirstenziman/Desktop/Desktop/DIDEC_entire_corpus/analysis_3/STIM_SET_1/0_1592079.bmppp71_L1V1_freeview_veridical.mp4","","",""
"","null","html-keyboard-response","509","1218390","0.0-509.0","<span style=""color:Black; font-size:50px;"">Agent B","null","","","","","","",""
"","null","video-keyboard-response","510","1221465","0.0-510.0","","null","","Agent B","scrambled","/Users/kirstenziman/Desktop/Desktop/DIDEC_entire_corpus/analysis_3/STIM_SET_1/0_1592079.bmppp71_L1V1_freeview_scrambled.mp4","","",""
"","","call-function","511","1221466","0.0-511.0","","","","","","","","",""
"","9567.200000017881","survey-likert","512","1231036","0.0-512.0","","","","","","","{""judgement"":0}","[0]","0"
"","1720.2000000178814","survey-likert","513","1232757","0.0-513.0","","","","","","","{""confidence"":0}","[0]",""
"","","call-function","514","1232758","0.0-514.0","","","","","","","","",""
"","null","html-keyboard-response","515","1235763","0.0-515.0","<span style=""color:Black; font-size:50px;"">Agent A","null","","","","","","",""
"","null","video-keyboard-response","516","1238845","0.0-516.0","","null","","Agent A","scrambled","/Users/kirstenziman/Desktop/Desktop/DIDEC_entire_corpus/analysis_3/STIM_SET_1/0_1592189.bmppp151_L1V1_freeview_scrambled.mp4","","",""
"","null","html-keyboard-response","517","1241847","0.0-517.0","<span style=""color:Black; font-size:50px;"">Agent B","null","","","","","","",""
"","null","video-keyboard-response","518","1244940","0.0-518.0","","null","","Agent B","veridical","/Users/kirstenziman/Desktop/Desktop/DIDEC_entire_corpus/analysis_3/STIM_SET_1/0_1592189.bmppp151_L1V1_freeview_veridical.mp4","","",""
"","","call-function","519","1244940","0.0-519.0","","","","","","","","",""
"","3893.9000000059605","survey-likert","520","1248835","0.0-520.0","","","","","","","{""judgement"":1}","[0]","1"
"","1630.5999999940395","survey-likert","521","1250467","0.0-521.0","","","","","","","{""confidence"":3}","[0]",""
"","","call-function","522","1250467","0.0-522.0","","","","","","","","",""
"","null","html-keyboard-response","523","1253469","0.0-523.0","<span style=""color:Black; font-size:50px;"">Agent A","null","","","","","","",""
"","null","video-keyboard-response","524","1256550","0.0-524.0","","null","","Agent A","scrambled","/Users/kirstenziman/Desktop/Desktop/DIDEC_entire_corpus/analysis_3/STIM_SET_1/0_713765.bmppp93_L1V1_freeview_scrambled.mp4","","",""
"","null","html-keyboard-response","525","1259552","0.0-525.0","<span style=""color:Black; font-size:50px;"">Agent B","null","","","","","","",""
"","null","video-keyboard-response","526","1262664","0.0-526.0","","null","","Agent B","veridical","/Users/kirstenziman/Desktop/Desktop/DIDEC_entire_corpus/analysis_3/STIM_SET_1/0_713765.bmppp93_L1V1_freeview_veridical.mp4","","",""
"","","call-function","527","1262665","0.0-527.0","","","","","","","","",""
"","2832.9000000059605","survey-likert","528","1265499","0.0-528.0","","","","","","","{""judgement"":1}","[0]","1"
"","1788.9000000059605","survey-likert","529","1267289","0.0-529.0","","","","","","","{""confidence"":1}","[0]",""
"","","call-function","530","1267290","0.0-530.0","","","","","","","","",""
"","null","html-keyboard-response","531","1270292","0.0-531.0","<span style=""color:Black; font-size:50px;"">Agent A","null","","","","","","",""
"","null","video-keyboard-response","532","1273364","0.0-532.0","","null","","Agent A","scrambled","/Users/kirstenziman/Desktop/Desktop/DIDEC_entire_corpus/analysis_3/STIM_SET_1/0_285959.bmppp71_L1V1_freeview_scrambled.mp4","","",""
"","null","html-keyboard-response","533","1276367","0.0-533.0","<span style=""color:Black; font-size:50px;"">Agent B","null","","","","","","",""
"","null","video-keyboard-response","534","1279477","0.0-534.0","","null","","Agent B","veridical","/Users/kirstenziman/Desktop/Desktop/DIDEC_entire_corpus/analysis_3/STIM_SET_1/0_285959.bmppp71_L1V1_freeview_veridical.mp4","","",""
"","","call-function","535","1279477","0.0-535.0","","","","","","","","",""
"","2865.199999988079","survey-likert","536","1282344","0.0-536.0","","","","","","","{""judgement"":0}","[0]","1"
"","2126.4000000059605","survey-likert","537","1284472","0.0-537.0","","","","","","","{""confidence"":0}","[0]",""
"","","call-function","538","1284473","0.0-538.0","","","","","","","","",""
"","null","html-keyboard-response","539","1287475","0.0-539.0","<span style=""color:Black; font-size:50px;"">Agent A","null","","","","","","",""
"","null","video-keyboard-response","540","1290556","0.0-540.0","","null","","Agent A","scrambled","/Users/kirstenziman/Desktop/Desktop/DIDEC_entire_corpus/analysis_3/STIM_SET_1/0_713228.bmppp51_L1V1_freeview_scrambled.mp4","","",""
"","null","html-keyboard-response","541","1293559","0.0-541.0","<span style=""color:Black; font-size:50px;"">Agent B","null","","","","","","",""
"","null","video-keyboard-response","542","1296654","0.0-542.0","","null","","Agent B","veridical","/Users/kirstenziman/Desktop/Desktop/DIDEC_entire_corpus/analysis_3/STIM_SET_1/0_713228.bmppp51_L1V1_freeview_veridical.mp4","","",""
"","","call-function","543","1296655","0.0-543.0","","","","","","","","",""
"","3174.4000000059605","survey-likert","544","1299830","0.0-544.0","","","","","","","{""judgement"":1}","[0]","1"
"","2228.5","survey-likert","545","1302060","0.0-545.0","","","","","","","{""confidence"":2}","[0]",""
"","","call-function","546","1302061","0.0-546.0","","","","","","","","",""
"","null","html-keyboard-response","547","1305064","0.0-547.0","<span style=""color:Black; font-size:50px;"">Agent A","null","","","","","","",""
"","null","video-keyboard-response","548","1308145","0.0-548.0","","null","","Agent A","scrambled","/Users/kirstenziman/Desktop/Desktop/DIDEC_entire_corpus/analysis_3/STIM_SET_1/0_107930.bmppp51_L1V1_freeview_scrambled.mp4","","",""
"","null","html-keyboard-response","549","1311148","0.0-549.0","<span style=""color:Black; font-size:50px;"">Agent B","null","","","","","","",""
"","null","video-keyboard-response","550","1314243","0.0-550.0","","null","","Agent B","veridical","/Users/kirstenziman/Desktop/Desktop/DIDEC_entire_corpus/analysis_3/STIM_SET_1/0_107930.bmppp51_L1V1_freeview_veridical.mp4","","",""
"","","call-function","551","1314243","0.0-551.0","","","","","","","","",""
"","1707","survey-likert","552","1315951","0.0-552.0","","","","","","","{""judgement"":1}","[0]","1"
"","2659","survey-likert","553","1318611","0.0-553.0","","","","","","","{""confidence"":3}","[0]",""
"","","call-function","554","1318611","0.0-554.0","","","","","","","","",""
"","null","html-keyboard-response","555","1321614","0.0-555.0","<span style=""color:Black; font-size:50px;"">Agent A","null","","","","","","",""
"","null","video-keyboard-response","556","1324704","0.0-556.0","","null","","Agent A","scrambled","/Users/kirstenziman/Desktop/Desktop/DIDEC_entire_corpus/analysis_3/STIM_SET_1/0_1159318.bmppp98_L1V1_freeview_scrambled.mp4","","",""
"","null","html-keyboard-response","557","1327710","0.0-557.0","<span style=""color:Black; font-size:50px;"">Agent B","null","","","","","","",""
"","null","video-keyboard-response","558","1330803","0.0-558.0","","null","","Agent B","veridical","/Users/kirstenziman/Desktop/Desktop/DIDEC_entire_corpus/analysis_3/STIM_SET_1/0_1159318.bmppp98_L1V1_freeview_veridical.mp4","","",""
"","","call-function","559","1330804","0.0-559.0","","","","","","","","",""
"","1582","survey-likert","560","1332386","0.0-560.0","","","","","","","{""judgement"":1}","[0]","1"
"","2349.2999999821186","survey-likert","561","1334737","0.0-561.0","","","","","","","{""confidence"":1}","[0]",""
"","","call-function","562","1334737","0.0-562.0","","","","","","","","",""
"","null","html-keyboard-response","563","1337742","0.0-563.0","<span style=""color:Black; font-size:50px;"">Agent A","null","","","","","","",""
"","null","video-keyboard-response","564","1340833","0.0-564.0","","null","","Agent A","veridical","/Users/kirstenziman/Desktop/Desktop/DIDEC_entire_corpus/analysis_3/STIM_SET_1/0_1592857.bmppp64_L1V1_freeview_veridical.mp4","","",""
"","null","html-keyboard-response","565","1343836","0.0-565.0","<span style=""color:Black; font-size:50px;"">Agent B","null","","","","","","",""
"","null","video-keyboard-response","566","1346916","0.0-566.0","","null","","Agent B","scrambled","/Users/kirstenziman/Desktop/Desktop/DIDEC_entire_corpus/analysis_3/STIM_SET_1/0_1592857.bmppp64_L1V1_freeview_scrambled.mp4","","",""
"","","call-function","567","1346916","0.0-567.0","","","","","","","","",""
"","1893.8999999761581","survey-likert","568","1348811","0.0-568.0","","","","","","","{""judgement"":1}","[0]","0"
"","1469.699999988079","survey-likert","569","1350282","0.0-569.0","","","","","","","{""confidence"":3}","[0]",""
"","","call-function","570","1350283","0.0-570.0","","","","","","","","",""
"","null","html-keyboard-response","571","1353288","0.0-571.0","<span style=""color:Black; font-size:50px;"">Agent A","null","","","","","","",""
"","null","video-keyboard-response","572","1356359","0.0-572.0","","null","","Agent A","veridical","/Users/kirstenziman/Desktop/Desktop/DIDEC_entire_corpus/analysis_3/STIM_SET_1/0_1592874.bmppp64_L1V1_freeview_veridical.mp4","","",""
"","null","html-keyboard-response","573","1359360","0.0-573.0","<span style=""color:Black; font-size:50px;"">Agent B","null","","","","","","",""
"","null","video-keyboard-response","574","1362431","0.0-574.0","","null","","Agent B","scrambled","/Users/kirstenziman/Desktop/Desktop/DIDEC_entire_corpus/analysis_3/STIM_SET_1/0_1592874.bmppp64_L1V1_freeview_scrambled.mp4","","",""
"","","call-function","575","1362431","0.0-575.0","","","","","","","","",""
"","2679.100000023842","survey-likert","576","1365120","0.0-576.0","","","","","","","{""judgement"":1}","[0]","0"
"","1499.4000000059605","survey-likert","577","1366622","0.0-577.0","","","","","","","{""confidence"":2}","[0]",""
"[{""page_index"":0,""viewing_time"":4134.9000000059605}]","4135.199999988079","instructions","578","1370758","0.0-578.0","","","","","","","","",""
"","176177.90000000596","survey-text","579","1546966","0.0-579.0","","","","","","","{""Q0"":""The gaze path in some of the images look very similar to each other, either because 1) they have been rearranged in a way that is human-like. Some \""scrambling index\"" would be useful if this is the case, and/or 2) gaze points have low variance, so all the spots are concentrated on a small region of the screen. ""}","",""
"","75569.70000001788","survey-text","580","1622541","0.0-580.0","","","","","","","{""Q0"":""Smoother trajectories are more human-like. Human gaze paths follow spatial or object relations. ""}","",""
"","23842.69999998808","survey-text","581","1646386","0.0-581.0","","","","","","","{""Q0"":""Distinguishing some of the very similar images from each other. ""}","",""
"[{""page_index"":0,""viewing_time"":1509.2999999821186}]","1509.5","instructions","582","1647896","0.0-582.0","","","","","","","","",""
