"rt","responses","question_order","trial_type","trial_index","time_elapsed","internal_node_id","ID","view_history","value","stimulus","key_press","agent","image"
"311987.98","{""Experimenter"":[""Confirmed subject's identity (ID card)"",""Confirmed normal or corrected-to-normal vision"",""Obtained consent (signature and date)"",""Checked the test room lighting"",""Checked computer screen lighting"",""Checked distance from screen to chin rest (50cm)"",""Cleaned and adjusted chin rest"",""Counterbalanced the order of the tasks"",""Opened the experiment in Firefox"",""Made the experiment full screen"",""Encouraged subject to silence phone, put away distractors, etc.""]}","[0]","survey-multi-select","0","311996","0.0-0.0","1ng3vcfh","","","","","",""
"41060.505000000005","","","instructions","1","353058","0.0-1.0","1ng3vcfh","[{""page_index"":0,""viewing_time"":41060.35500000004}]","","","","",""
"8724.38500000001","{""Age"":3,""Sex"":0,""Gender"":0}","[0,1,2]","survey-likert","2","361784","0.0-2.0","1ng3vcfh","","","","","",""
"1382.5999999999767","","","instructions","3","363167","0.0-3.0","1ng3vcfh","[{""page_index"":0,""viewing_time"":1382.5}]","","","","",""
"7864.494999999995","","","instructions","4","371033","0.0-4.0","1ng3vcfh","[{""page_index"":0,""viewing_time"":5550.474999999977},{""page_index"":1,""viewing_time"":2313.3699999999953}]","","","","",""
"12478.694999999949","","","instructions","5","383513","0.0-5.0","1ng3vcfh","[{""page_index"":0,""viewing_time"":2031.634999999951},{""page_index"":1,""viewing_time"":5242.950000000012},{""page_index"":2,""viewing_time"":5203.994999999995}]","","","","",""
"3416.2700000000186","","","instructions","6","386929","0.0-6.0","1ng3vcfh","[{""page_index"":0,""viewing_time"":3416.164999999979}]","","","","",""
"","","","call-function","7","386930","0.0-7.0","1ng3vcfh","","","","","",""
"null","","","video-keyboard-response","8","390018","0.0-8.0","1ng3vcfh","","","","null","",""
"","","","call-function","9","390018","0.0-9.0","1ng3vcfh","","","","","",""
"14488.744999999995","","","instructions","10","404507","0.0-10.0","1ng3vcfh","[{""page_index"":0,""viewing_time"":3749.5749999999534},{""page_index"":1,""viewing_time"":2678.990000000049},{""page_index"":2,""viewing_time"":4674.169999999984},{""page_index"":3,""viewing_time"":3385.899999999965}]","","","","",""
"1391.8800000000047","","","instructions","11","405900","0.0-11.0","1ng3vcfh","[{""page_index"":0,""viewing_time"":1391.7550000000047}]","","","","",""
"","","","call-function","12","405900","0.0-12.0","1ng3vcfh","","","","","",""
"null","","","video-keyboard-response","13","408971","0.0-13.0","1ng3vcfh","","","","null","",""
"","","","call-function","14","408971","0.0-14.0","1ng3vcfh","","","","","",""
"30613.38500000001","{""pre-1"":0}","[0]","survey-likert","15","439586","0.0-15.0","1ng3vcfh","","","","","",""
"12127.86499999999","{""pre-2"":1}","[0]","survey-likert","16","451715","0.0-16.0","1ng3vcfh","","","","","",""
"5932.729999999981","{""pre-3"":0}","[0]","survey-likert","17","457649","0.0-17.0","1ng3vcfh","","","","","",""
"5913.114999999991","{""post-5"":3}","[0]","survey-likert","18","463563","0.0-18.0","1ng3vcfh","","","","","",""
"2709.3150000000023","","","instructions","19","466273","0.0-19.0","1ng3vcfh","[{""page_index"":0,""viewing_time"":2709.0900000000256}]","","","","",""
"10617.025000000023","","","instructions","20","476890","0.0-20.0","1ng3vcfh","[{""page_index"":0,""viewing_time"":10616.895000000019}]","","","","",""
"","","","call-function","21","476892","0.0-21.0","1ng3vcfh","","","","","",""
"null","","","video-keyboard-response","22","479974","0.0-22.0","1ng3vcfh","","","","null","Agent A","STIM_SET_1_REAL/713681.bmp_pp86_L2_V1.0_veridical_freeview_isoFalse_fps144.mp4"
"","","","call-function","23","479975","0.0-23.0","1ng3vcfh","","","","","",""
"7004.869999999995","{""pre-1"":1}","[0]","survey-likert","24","486981","0.0-24.0","1ng3vcfh","","","","","",""
"16055.479999999981","{""pre-2"":2}","[0]","survey-likert","25","503037","0.0-25.0","1ng3vcfh","","","","","",""
"6643.265000000014","{""pre-3"":1}","[0]","survey-likert","26","509681","0.0-26.0","1ng3vcfh","","","","","",""
"7391.389999999956","{""post-5"":1}","[0]","survey-likert","27","517074","0.0-27.0","1ng3vcfh","","","","","",""
"","","","call-function","28","517075","0.0-28.0","1ng3vcfh","","","","","",""
"null","","","video-keyboard-response","29","520174","0.0-29.0","1ng3vcfh","","","","null","Agent A","STIM_SET_1_REAL/1592934.bmp_pp63_L1_V1.0_scrambled_freeview_isoFalse_fps144.mp4"
"","","","call-function","30","520174","0.0-30.0","1ng3vcfh","","","","","",""
"4582.774999999965","{""pre-1"":0}","[0]","survey-likert","31","524758","0.0-31.0","1ng3vcfh","","","","","",""
"17798.46000000008","{""pre-2"":2}","[0]","survey-likert","32","542558","0.0-32.0","1ng3vcfh","","","","","",""
"8359.984999999986","{""pre-3"":2}","[0]","survey-likert","33","550919","0.0-33.0","1ng3vcfh","","","","","",""
"3340.3499999999767","{""post-5"":1}","[0]","survey-likert","34","554260","0.0-34.0","1ng3vcfh","","","","","",""
"","","","call-function","35","554262","0.0-35.0","1ng3vcfh","","","","","",""
"null","","","video-keyboard-response","36","557363","0.0-36.0","1ng3vcfh","","","","null","Agent A","STIM_SET_1_REAL/1592133.bmp_pp75_L1_V1.0_veridical_freeview_isoFalse_fps144.mp4"
"","","","call-function","37","557364","0.0-37.0","1ng3vcfh","","","","","",""
"15840.229999999981","{""pre-1"":2}","[0]","survey-likert","38","573205","0.0-38.0","1ng3vcfh","","","","","",""
"15379.604999999981","{""pre-2"":2}","[0]","survey-likert","39","588586","0.0-39.0","1ng3vcfh","","","","","",""
"3561.2600000000093","{""pre-3"":2}","[0]","survey-likert","40","592148","0.0-40.0","1ng3vcfh","","","","","",""
"8959.599999999977","{""post-5"":1}","[0]","survey-likert","41","601109","0.0-41.0","1ng3vcfh","","","","","",""
"","","","call-function","42","601109","0.0-42.0","1ng3vcfh","","","","","",""
"null","","","video-keyboard-response","43","604177","0.0-43.0","1ng3vcfh","","","","null","Agent A","STIM_SET_1_REAL/1592286.bmp_pp52_L1_V1.0_scrambled_freeview_isoFalse_fps144.mp4"
"","","","call-function","44","604177","0.0-44.0","1ng3vcfh","","","","","",""
"17758.040000000037","{""pre-1"":1}","[0]","survey-likert","45","621937","0.0-45.0","1ng3vcfh","","","","","",""
"10299.830000000075","{""pre-2"":0}","[0]","survey-likert","46","632238","0.0-46.0","1ng3vcfh","","","","","",""
"4040.5","{""pre-3"":1}","[0]","survey-likert","47","636280","0.0-47.0","1ng3vcfh","","","","","",""
"7597.670000000042","{""post-5"":3}","[0]","survey-likert","48","643879","0.0-48.0","1ng3vcfh","","","","","",""
"","","","call-function","49","643880","0.0-49.0","1ng3vcfh","","","","","",""
"null","","","video-keyboard-response","50","646960","0.0-50.0","1ng3vcfh","","","","null","Agent A","STIM_SET_1_REAL/1592890.bmp_pp82_L2_V1.0_veridical_freeview_isoFalse_fps144.mp4"
"","","","call-function","51","646960","0.0-51.0","1ng3vcfh","","","","","",""
"10125.165000000037","{""pre-1"":1}","[0]","survey-likert","52","657087","0.0-52.0","1ng3vcfh","","","","","",""
"13362.035000000033","{""pre-2"":2}","[0]","survey-likert","53","670450","0.0-53.0","1ng3vcfh","","","","","",""
"5107.795000000042","{""pre-3"":1}","[0]","survey-likert","54","675559","0.0-54.0","1ng3vcfh","","","","","",""
"9420.089999999967","{""post-5"":1}","[0]","survey-likert","55","684980","0.0-55.0","1ng3vcfh","","","","","",""
"","","","call-function","56","684981","0.0-56.0","1ng3vcfh","","","","","",""
"null","","","video-keyboard-response","57","688072","0.0-57.0","1ng3vcfh","","","","null","Agent A","STIM_SET_1_REAL/713211.bmp_pp100_L3_V1.0_scrambled_freeview_isoFalse_fps144.mp4"
"","","","call-function","58","688072","0.0-58.0","1ng3vcfh","","","","","",""
"6914.334999999963","{""pre-1"":2}","[0]","survey-likert","59","694987","0.0-59.0","1ng3vcfh","","","","","",""
"24750.399999999907","{""pre-2"":2}","[0]","survey-likert","60","719739","0.0-60.0","1ng3vcfh","","","","","",""
"5490.175000000047","{""pre-3"":2}","[0]","survey-likert","61","725231","0.0-61.0","1ng3vcfh","","","","","",""
"2330.5","{""post-5"":1}","[0]","survey-likert","62","727563","0.0-62.0","1ng3vcfh","","","","","",""
"","","","call-function","63","727564","0.0-63.0","1ng3vcfh","","","","","",""
"null","","","video-keyboard-response","64","730659","0.0-64.0","1ng3vcfh","","","","null","Agent A","STIM_SET_1_REAL/712977.bmp_pp51_L1_V1.0_scrambled_freeview_isoFalse_fps144.mp4"
"","","","call-function","65","730659","0.0-65.0","1ng3vcfh","","","","","",""
"14499.015000000014","{""pre-1"":2}","[0]","survey-likert","66","745159","0.0-66.0","1ng3vcfh","","","","","",""
"4393.795000000042","{""pre-2"":2}","[0]","survey-likert","67","749554","0.0-67.0","1ng3vcfh","","","","","",""
"3596.8649999999907","{""pre-3"":1}","[0]","survey-likert","68","753153","0.0-68.0","1ng3vcfh","","","","","",""
"20258.484999999986","{""post-5"":2}","[0]","survey-likert","69","773412","0.0-69.0","1ng3vcfh","","","","","",""
"","","","call-function","70","773413","0.0-70.0","1ng3vcfh","","","","","",""
"null","","","video-keyboard-response","71","776603","0.0-71.0","1ng3vcfh","","","","null","Agent A","STIM_SET_1_REAL/1592890.bmp_pp82_L2_V1.0_scrambled_freeview_isoFalse_fps144.mp4"
"","","","call-function","72","776603","0.0-72.0","1ng3vcfh","","","","","",""
"13035.95000000007","{""pre-1"":2}","[0]","survey-likert","73","789640","0.0-73.0","1ng3vcfh","","","","","",""
"6003.844999999972","{""pre-2"":1}","[0]","survey-likert","74","795645","0.0-74.0","1ng3vcfh","","","","","",""
"18237.43000000005","{""pre-3"":1}","[0]","survey-likert","75","813884","0.0-75.0","1ng3vcfh","","","","","",""
"4622.155000000028","{""post-5"":2}","[0]","survey-likert","76","818508","0.0-76.0","1ng3vcfh","","","","","",""
"","","","call-function","77","818509","0.0-77.0","1ng3vcfh","","","","","",""
"null","","","video-keyboard-response","78","821587","0.0-78.0","1ng3vcfh","","","","null","Agent A","STIM_SET_1_REAL/1592817.bmp_pp55_L3_V1.0_veridical_freeview_isoFalse_fps144.mp4"
"","","","call-function","79","821588","0.0-79.0","1ng3vcfh","","","","","",""
"4299.520000000019","{""pre-1"":2}","[0]","survey-likert","80","825888","0.0-80.0","1ng3vcfh","","","","","",""
"2398.9150000000373","{""pre-2"":2}","[0]","survey-likert","81","828288","0.0-81.0","1ng3vcfh","","","","","",""
"2759.625","{""pre-3"":2}","[0]","survey-likert","82","831049","0.0-82.0","1ng3vcfh","","","","","",""
"2183.1300000000047","{""post-5"":1}","[0]","survey-likert","83","833233","0.0-83.0","1ng3vcfh","","","","","",""
"","","","call-function","84","833234","0.0-84.0","1ng3vcfh","","","","","",""
"null","","","video-keyboard-response","85","836322","0.0-85.0","1ng3vcfh","","","","null","Agent A","STIM_SET_1_REAL/61537.bmp_pp73_L3_V1.0_veridical_freeview_isoFalse_fps144.mp4"
"","","","call-function","86","836323","0.0-86.0","1ng3vcfh","","","","","",""
"7424.104999999981","{""pre-1"":2}","[0]","survey-likert","87","843748","0.0-87.0","1ng3vcfh","","","","","",""
"4791.1549999999115","{""pre-2"":2}","[0]","survey-likert","88","848540","0.0-88.0","1ng3vcfh","","","","","",""
"2024.25","{""pre-3"":2}","[0]","survey-likert","89","850565","0.0-89.0","1ng3vcfh","","","","","",""
"7713.695000000065","{""post-5"":1}","[0]","survey-likert","90","858280","0.0-90.0","1ng3vcfh","","","","","",""
"","","","call-function","91","858280","0.0-91.0","1ng3vcfh","","","","","",""
"null","","","video-keyboard-response","92","861356","0.0-92.0","1ng3vcfh","","","","null","Agent A","STIM_SET_1_REAL/1591961.bmp_pp67_L2_V1.0_scrambled_freeview_isoFalse_fps144.mp4"
"","","","call-function","93","861356","0.0-93.0","1ng3vcfh","","","","","",""
"12722.18499999994","{""pre-1"":2}","[0]","survey-likert","94","874079","0.0-94.0","1ng3vcfh","","","","","",""
"2160.359999999986","{""pre-2"":2}","[0]","survey-likert","95","876242","0.0-95.0","1ng3vcfh","","","","","",""
"1410","{""pre-3"":1}","[0]","survey-likert","96","877652","0.0-96.0","1ng3vcfh","","","","","",""
"2559.4499999999534","{""post-5"":1}","[0]","survey-likert","97","880213","0.0-97.0","1ng3vcfh","","","","","",""
"","","","call-function","98","880213","0.0-98.0","1ng3vcfh","","","","","",""
"null","","","video-keyboard-response","99","883287","0.0-99.0","1ng3vcfh","","","","null","Agent A","STIM_SET_1_REAL/1159446.bmp_pp60_L3_V1.0_scrambled_freeview_isoFalse_fps144.mp4"
"","","","call-function","100","883288","0.0-100.0","1ng3vcfh","","","","","",""
"28532.140000000014","{""pre-1"":2}","[0]","survey-likert","101","911822","0.0-101.0","1ng3vcfh","","","","","",""
"1852.9949999999953","{""pre-2"":2}","[0]","survey-likert","102","913676","0.0-102.0","1ng3vcfh","","","","","",""
"1375.9950000001118","{""pre-3"":2}","[0]","survey-likert","103","915054","0.0-103.0","1ng3vcfh","","","","","",""
"6808.210000000079","{""post-5"":1}","[0]","survey-likert","104","921863","0.0-104.0","1ng3vcfh","","","","","",""
"","","","call-function","105","921863","0.0-105.0","1ng3vcfh","","","","","",""
"null","","","video-keyboard-response","106","924955","0.0-106.0","1ng3vcfh","","","","null","Agent A","STIM_SET_1_REAL/1159882.bmp_pp61_L2_V1.0_veridical_freeview_isoFalse_fps144.mp4"
"","","","call-function","107","924956","0.0-107.0","1ng3vcfh","","","","","",""
"5954.889999999898","{""pre-1"":2}","[0]","survey-likert","108","930912","0.0-108.0","1ng3vcfh","","","","","",""
"2838.814999999944","{""pre-2"":2}","[0]","survey-likert","109","933752","0.0-109.0","1ng3vcfh","","","","","",""
"1577.5200000000186","{""pre-3"":1}","[0]","survey-likert","110","935330","0.0-110.0","1ng3vcfh","","","","","",""
"4613.119999999995","{""post-5"":1}","[0]","survey-likert","111","939944","0.0-111.0","1ng3vcfh","","","","","",""
"","","","call-function","112","939945","0.0-112.0","1ng3vcfh","","","","","",""
"null","","","video-keyboard-response","113","943049","0.0-113.0","1ng3vcfh","","","","null","Agent A","STIM_SET_1_REAL/1159440.bmp_pp98_L1_V1.0_scrambled_freeview_isoFalse_fps144.mp4"
"","","","call-function","114","943049","0.0-114.0","1ng3vcfh","","","","","",""
"3711.7399999999907","{""pre-1"":2}","[0]","survey-likert","115","946762","0.0-115.0","1ng3vcfh","","","","","",""
"2413.944999999949","{""pre-2"":2}","[0]","survey-likert","116","949177","0.0-116.0","1ng3vcfh","","","","","",""
"1050.6300000000047","{""pre-3"":2}","[0]","survey-likert","117","950229","0.0-117.0","1ng3vcfh","","","","","",""
"2011.2449999999953","{""post-5"":1}","[0]","survey-likert","118","952243","0.0-118.0","1ng3vcfh","","","","","",""
"","","","call-function","119","952243","0.0-119.0","1ng3vcfh","","","","","",""
"null","","","video-keyboard-response","120","955349","0.0-120.0","1ng3vcfh","","","","null","Agent A","STIM_SET_1_REAL/713760.bmp_pp81_L1_V1.0_scrambled_freeview_isoFalse_fps144.mp4"
"","","","call-function","121","955349","0.0-121.0","1ng3vcfh","","","","","",""
"3602.2200000000885","{""pre-1"":1}","[0]","survey-likert","122","958953","0.0-122.0","1ng3vcfh","","","","","",""
"1436.530000000028","{""pre-2"":1}","[0]","survey-likert","123","960390","0.0-123.0","1ng3vcfh","","","","","",""
"2335.0050000000047","{""pre-3"":1}","[0]","survey-likert","124","962726","0.0-124.0","1ng3vcfh","","","","","",""
"3659.8649999999907","{""post-5"":3}","[0]","survey-likert","125","966388","0.0-125.0","1ng3vcfh","","","","","",""
"","","","call-function","126","966389","0.0-126.0","1ng3vcfh","","","","","",""
"null","","","video-keyboard-response","127","969479","0.0-127.0","1ng3vcfh","","","","null","Agent A","STIM_SET_1_REAL/713135.bmp_pp54_L2_V1.0_veridical_freeview_isoFalse_fps144.mp4"
"","","","call-function","128","969480","0.0-128.0","1ng3vcfh","","","","","",""
"3877","{""pre-1"":1}","[0]","survey-likert","129","973358","0.0-129.0","1ng3vcfh","","","","","",""
"17230.564999999944","{""pre-2"":2}","[0]","survey-likert","130","990590","0.0-130.0","1ng3vcfh","","","","","",""
"5991.564999999944","{""pre-3"":1}","[0]","survey-likert","131","996583","0.0-131.0","1ng3vcfh","","","","","",""
"6310.714999999967","{""post-5"":1}","[0]","survey-likert","132","1002894","0.0-132.0","1ng3vcfh","","","","","",""
"","","","call-function","133","1002895","0.0-133.0","1ng3vcfh","","","","","",""
"null","","","video-keyboard-response","134","1005980","0.0-134.0","1ng3vcfh","","","","null","Agent A","STIM_SET_1_REAL/285933.bmp_pp81_L1_V1.0_veridical_freeview_isoFalse_fps144.mp4"
"","","","call-function","135","1005981","0.0-135.0","1ng3vcfh","","","","","",""
"3608.17499999993","{""pre-1"":2}","[0]","survey-likert","136","1009591","0.0-136.0","1ng3vcfh","","","","","",""
"20567.96000000008","{""pre-2"":2}","[0]","survey-likert","137","1030160","0.0-137.0","1ng3vcfh","","","","","",""
"2736.965000000084","{""pre-3"":2}","[0]","survey-likert","138","1032898","0.0-138.0","1ng3vcfh","","","","","",""
"2190.5250000000233","{""post-5"":1}","[0]","survey-likert","139","1035089","0.0-139.0","1ng3vcfh","","","","","",""
"","","","call-function","140","1035090","0.0-140.0","1ng3vcfh","","","","","",""
"null","","","video-keyboard-response","141","1038208","0.0-141.0","1ng3vcfh","","","","null","Agent A","STIM_SET_1_REAL/1591876.bmp_pp63_L1_V1.0_veridical_freeview_isoFalse_fps144.mp4"
"","","","call-function","142","1038208","0.0-142.0","1ng3vcfh","","","","","",""
"5689.854999999981","{""pre-1"":3}","[0]","survey-likert","143","1043899","0.0-143.0","1ng3vcfh","","","","","",""
"32610.589999999967","{""pre-2"":2}","[0]","survey-likert","144","1076510","0.0-144.0","1ng3vcfh","","","","","",""
"1427.8000000000466","{""pre-3"":2}","[0]","survey-likert","145","1077941","0.0-145.0","1ng3vcfh","","","","","",""
"6298.425000000047","{""post-5"":0}","[0]","survey-likert","146","1084240","0.0-146.0","1ng3vcfh","","","","","",""
"","","","call-function","147","1084241","0.0-147.0","1ng3vcfh","","","","","",""
"null","","","video-keyboard-response","148","1087313","0.0-148.0","1ng3vcfh","","","","null","Agent A","STIM_SET_1_REAL/498170.bmp_pp153_L3_V1.0_veridical_freeview_isoFalse_fps144.mp4"
"","","","call-function","149","1087314","0.0-149.0","1ng3vcfh","","","","","",""
"7272.280000000028","{""pre-1"":2}","[0]","survey-likert","150","1094588","0.0-150.0","1ng3vcfh","","","","","",""
"6519.379999999888","{""pre-2"":2}","[0]","survey-likert","151","1101109","0.0-151.0","1ng3vcfh","","","","","",""
"1439.1149999999907","{""pre-3"":1}","[0]","survey-likert","152","1102549","0.0-152.0","1ng3vcfh","","","","","",""
"3696.6800000001676","{""post-5"":1}","[0]","survey-likert","153","1106247","0.0-153.0","1ng3vcfh","","","","","",""
"","","","call-function","154","1106247","0.0-154.0","1ng3vcfh","","","","","",""
"null","","","video-keyboard-response","155","1110708","0.0-155.0","1ng3vcfh","","","","null","Agent A","STIM_SET_1_REAL/1592397.bmp_pp85_L3_V1.0_scrambled_freeview_isoFalse_fps144.mp4"
"","","","call-function","156","1110709","0.0-156.0","1ng3vcfh","","","","","",""
"20437.459999999963","{""pre-1"":1}","[0]","survey-likert","157","1131147","0.0-157.0","1ng3vcfh","","","","","",""
"6558.659999999916","{""pre-2"":2}","[0]","survey-likert","158","1137707","0.0-158.0","1ng3vcfh","","","","","",""
"6134.889999999898","{""pre-3"":1}","[0]","survey-likert","159","1143843","0.0-159.0","1ng3vcfh","","","","","",""
"2648.9550000000745","{""post-5"":1}","[0]","survey-likert","160","1146493","0.0-160.0","1ng3vcfh","","","","","",""
"48905.590000000084","","","instructions","161","1195400","0.0-161.0","1ng3vcfh","[{""page_index"":0,""viewing_time"":2471.405000000028},{""page_index"":1,""viewing_time"":44384.159999999916},{""page_index"":2,""viewing_time"":2049.8000000000466}]","","","","",""
"6110.614999999991","","","instructions","162","1201511","0.0-162.0","1ng3vcfh","[{""page_index"":0,""viewing_time"":1018.4699999999721},{""page_index"":1,""viewing_time"":4336.034999999916},{""page_index"":2,""viewing_time"":756.0050000001211}]","","","","",""
"","","","call-function","163","1201511","0.0-163.0","1ng3vcfh","","","","","",""
"null","","","video-keyboard-response","164","1204598","0.0-164.0","1ng3vcfh","","","","null","Agent A","STIM_SET_1_REAL/713371.bmp_pp68_L1_V1.0_scrambled_freeview_isoFalse_fps144.mp4"
"","","","call-function","165","1204598","0.0-165.0","1ng3vcfh","","","","","",""
"10624.394999999786","{""pre-1"":2}","[0]","survey-likert","166","1215224","0.0-166.0","1ng3vcfh","","","","","",""
"5678.940000000177","{""pre-2"":1}","[0]","survey-likert","167","1220904","0.0-167.0","1ng3vcfh","","","","","",""
"3530.6400000001304","{""pre-3"":1}","[0]","survey-likert","168","1224435","0.0-168.0","1ng3vcfh","","","","","",""
"4298.39000000013","{""post-5"":1}","[0]","survey-likert","169","1228735","0.0-169.0","1ng3vcfh","","","","","",""
"","","","call-function","170","1228735","0.0-170.0","1ng3vcfh","","","","","",""
"null","","","video-keyboard-response","171","1231823","0.0-171.0","1ng3vcfh","","","","null","Agent A","STIM_SET_1_REAL/1591961.bmp_pp67_L2_V1.0_veridical_freeview_isoFalse_fps144.mp4"
"","","","call-function","172","1231823","0.0-172.0","1ng3vcfh","","","","","",""
"5562.5","{""pre-1"":2}","[0]","survey-likert","173","1237389","0.0-173.0","1ng3vcfh","","","","","",""
"19853.47999999998","{""pre-2"":2}","[0]","survey-likert","174","1257244","0.0-174.0","1ng3vcfh","","","","","",""
"2147.100000000093","{""pre-3"":2}","[0]","survey-likert","175","1259393","0.0-175.0","1ng3vcfh","","","","","",""
"2867.7050000000745","{""post-5"":1}","[0]","survey-likert","176","1262262","0.0-176.0","1ng3vcfh","","","","","",""
"","","","call-function","177","1262263","0.0-177.0","1ng3vcfh","","","","","",""
"null","","","video-keyboard-response","178","1265338","0.0-178.0","1ng3vcfh","","","","null","Agent A","STIM_SET_1_REAL/1159572.bmp_pp71_L1_V1.0_scrambled_freeview_isoFalse_fps144.mp4"
"","","","call-function","179","1265339","0.0-179.0","1ng3vcfh","","","","","",""
"5863.495000000112","{""pre-1"":1}","[0]","survey-likert","180","1271204","0.0-180.0","1ng3vcfh","","","","","",""
"3987.5749999999534","{""pre-2"":1}","[0]","survey-likert","181","1275192","0.0-181.0","1ng3vcfh","","","","","",""
"1480.7450000001118","{""pre-3"":1}","[0]","survey-likert","182","1276674","0.0-182.0","1ng3vcfh","","","","","",""
"3044.5149999998976","{""post-5"":2}","[0]","survey-likert","183","1279720","0.0-183.0","1ng3vcfh","","","","","",""
"","","","call-function","184","1279720","0.0-184.0","1ng3vcfh","","","","","",""
"null","","","video-keyboard-response","185","1282809","0.0-185.0","1ng3vcfh","","","","null","Agent A","STIM_SET_1_REAL/1592133.bmp_pp75_L1_V1.0_scrambled_freeview_isoFalse_fps144.mp4"
"","","","call-function","186","1282810","0.0-186.0","1ng3vcfh","","","","","",""
"3640.905000000028","{""pre-1"":2}","[0]","survey-likert","187","1286452","0.0-187.0","1ng3vcfh","","","","","",""
"5720.26500000013","{""pre-2"":2}","[0]","survey-likert","188","1292173","0.0-188.0","1ng3vcfh","","","","","",""
"2053.7050000000745","{""pre-3"":1}","[0]","survey-likert","189","1294228","0.0-189.0","1ng3vcfh","","","","","",""
"3913.0400000000373","{""post-5"":1}","[0]","survey-likert","190","1298142","0.0-190.0","1ng3vcfh","","","","","",""
"","","","call-function","191","1298142","0.0-191.0","1ng3vcfh","","","","","",""
"null","","","video-keyboard-response","192","1301234","0.0-192.0","1ng3vcfh","","","","null","Agent A","STIM_SET_1_REAL/713796.bmp_pp84_L3_V1.0_veridical_freeview_isoFalse_fps144.mp4"
"","","","call-function","193","1301234","0.0-193.0","1ng3vcfh","","","","","",""
"5565.610000000102","{""pre-1"":2}","[0]","survey-likert","194","1306801","0.0-194.0","1ng3vcfh","","","","","",""
"2007.1099999998696","{""pre-2"":2}","[0]","survey-likert","195","1308809","0.0-195.0","1ng3vcfh","","","","","",""
"1812.5849999999627","{""pre-3"":2}","[0]","survey-likert","196","1310623","0.0-196.0","1ng3vcfh","","","","","",""
"2748.1699999999255","{""post-5"":1}","[0]","survey-likert","197","1313373","0.0-197.0","1ng3vcfh","","","","","",""
"","","","call-function","198","1313374","0.0-198.0","1ng3vcfh","","","","","",""
"null","","","video-keyboard-response","199","1316473","0.0-199.0","1ng3vcfh","","","","null","Agent A","STIM_SET_1_REAL/1593041.bmp_pp58_L1_V1.0_veridical_freeview_isoFalse_fps144.mp4"
"","","","call-function","200","1316474","0.0-200.0","1ng3vcfh","","","","","",""
"14113.980000000214","{""pre-1"":2}","[0]","survey-likert","201","1330589","0.0-201.0","1ng3vcfh","","","","","",""
"12546.160000000149","{""pre-2"":2}","[0]","survey-likert","202","1343136","0.0-202.0","1ng3vcfh","","","","","",""
"1571.3249999999534","{""pre-3"":2}","[0]","survey-likert","203","1344710","0.0-203.0","1ng3vcfh","","","","","",""
"2390.054999999935","{""post-5"":1}","[0]","survey-likert","204","1347101","0.0-204.0","1ng3vcfh","","","","","",""
"","","","call-function","205","1347101","0.0-205.0","1ng3vcfh","","","","","",""
"null","","","video-keyboard-response","206","1350164","0.0-206.0","1ng3vcfh","","","","null","Agent A","STIM_SET_1_REAL/286001.bmp_pp54_L2_V1.0_scrambled_freeview_isoFalse_fps144.mp4"
"","","","call-function","207","1350165","0.0-207.0","1ng3vcfh","","","","","",""
"4005.6099999998696","{""pre-1"":1}","[0]","survey-likert","208","1354171","0.0-208.0","1ng3vcfh","","","","","",""
"1960.405000000028","{""pre-2"":1}","[0]","survey-likert","209","1356133","0.0-209.0","1ng3vcfh","","","","","",""
"1143.3500000000931","{""pre-3"":1}","[0]","survey-likert","210","1357277","0.0-210.0","1ng3vcfh","","","","","",""
"2269.619999999879","{""post-5"":2}","[0]","survey-likert","211","1359548","0.0-211.0","1ng3vcfh","","","","","",""
"","","","call-function","212","1359548","0.0-212.0","1ng3vcfh","","","","","",""
"null","","","video-keyboard-response","213","1362630","0.0-213.0","1ng3vcfh","","","","null","Agent A","STIM_SET_1_REAL/1159768.bmp_pp89_L1_V1.0_veridical_freeview_isoFalse_fps144.mp4"
"","","","call-function","214","1362631","0.0-214.0","1ng3vcfh","","","","","",""
"5673.22499999986","{""pre-1"":2}","[0]","survey-likert","215","1368305","0.0-215.0","1ng3vcfh","","","","","",""
"10582.39000000013","{""pre-2"":2}","[0]","survey-likert","216","1378888","0.0-216.0","1ng3vcfh","","","","","",""
"1355.3649999999907","{""pre-3"":2}","[0]","survey-likert","217","1380246","0.0-217.0","1ng3vcfh","","","","","",""
"1970.8049999999348","{""post-5"":1}","[0]","survey-likert","218","1382218","0.0-218.0","1ng3vcfh","","","","","",""
"","","","call-function","219","1382218","0.0-219.0","1ng3vcfh","","","","","",""
"null","","","video-keyboard-response","220","1385306","0.0-220.0","1ng3vcfh","","","","null","Agent A","STIM_SET_1_REAL/713620.bmp_pp65_L3_V1.0_scrambled_freeview_isoFalse_fps144.mp4"
"","","","call-function","221","1385306","0.0-221.0","1ng3vcfh","","","","","",""
"3690.0500000000466","{""pre-1"":1}","[0]","survey-likert","222","1388997","0.0-222.0","1ng3vcfh","","","","","",""
"7323.51500000013","{""pre-2"":2}","[0]","survey-likert","223","1396322","0.0-223.0","1ng3vcfh","","","","","",""
"2841.4250000000466","{""pre-3"":1}","[0]","survey-likert","224","1399166","0.0-224.0","1ng3vcfh","","","","","",""
"2080.4899999999907","{""post-5"":2}","[0]","survey-likert","225","1401248","0.0-225.0","1ng3vcfh","","","","","",""
"","","","call-function","226","1401249","0.0-226.0","1ng3vcfh","","","","","",""
"null","","","video-keyboard-response","227","1404425","0.0-227.0","1ng3vcfh","","","","null","Agent A","STIM_SET_1_REAL/498155.bmp_pp61_L2_V1.0_veridical_freeview_isoFalse_fps144.mp4"
"","","","call-function","228","1404426","0.0-228.0","1ng3vcfh","","","","","",""
"9721.620000000112","{""pre-1"":3}","[0]","survey-likert","229","1414148","0.0-229.0","1ng3vcfh","","","","","",""
"4691.5","{""pre-2"":2}","[0]","survey-likert","230","1418842","0.0-230.0","1ng3vcfh","","","","","",""
"3608.8300000000745","{""pre-3"":3}","[0]","survey-likert","231","1422452","0.0-231.0","1ng3vcfh","","","","","",""
"4378.389999999898","{""post-5"":0}","[0]","survey-likert","232","1426831","0.0-232.0","1ng3vcfh","","","","","",""
"","","","call-function","233","1426832","0.0-233.0","1ng3vcfh","","","","","",""
"null","","","video-keyboard-response","234","1429928","0.0-234.0","1ng3vcfh","","","","null","Agent A","STIM_SET_1_REAL/1591994.bmp_pp69_L3_V1.0_scrambled_freeview_isoFalse_fps144.mp4"
"","","","call-function","235","1429929","0.0-235.0","1ng3vcfh","","","","","",""
"19309.094999999972","{""pre-1"":2}","[0]","survey-likert","236","1449239","0.0-236.0","1ng3vcfh","","","","","",""
"1657.8600000001024","{""pre-2"":2}","[0]","survey-likert","237","1450898","0.0-237.0","1ng3vcfh","","","","","",""
"950.3549999999814","{""pre-3"":2}","[0]","survey-likert","238","1451849","0.0-238.0","1ng3vcfh","","","","","",""
"1562.660000000149","{""post-5"":1}","[0]","survey-likert","239","1453413","0.0-239.0","1ng3vcfh","","","","","",""
"","","","call-function","240","1453413","0.0-240.0","1ng3vcfh","","","","","",""
"null","","","video-keyboard-response","241","1456502","0.0-241.0","1ng3vcfh","","","","null","Agent A","STIM_SET_1_REAL/713211.bmp_pp100_L3_V1.0_veridical_freeview_isoFalse_fps144.mp4"
"","","","call-function","242","1456502","0.0-242.0","1ng3vcfh","","","","","",""
"3664.9250000000466","{""pre-1"":3}","[0]","survey-likert","243","1460168","0.0-243.0","1ng3vcfh","","","","","",""
"2461.5100000000093","{""pre-2"":2}","[0]","survey-likert","244","1462631","0.0-244.0","1ng3vcfh","","","","","",""
"1960.3850000000093","{""pre-3"":3}","[0]","survey-likert","245","1464592","0.0-245.0","1ng3vcfh","","","","","",""
"10573.164999999804","{""post-5"":1}","[0]","survey-likert","246","1475167","0.0-246.0","1ng3vcfh","","","","","",""
"","","","call-function","247","1475168","0.0-247.0","1ng3vcfh","","","","","",""
"null","","","video-keyboard-response","248","1478248","0.0-248.0","1ng3vcfh","","","","null","Agent A","STIM_SET_1_REAL/1592817.bmp_pp55_L3_V1.0_scrambled_freeview_isoFalse_fps144.mp4"
"","","","call-function","249","1478248","0.0-249.0","1ng3vcfh","","","","","",""
"5103.4550000000745","{""pre-1"":2}","[0]","survey-likert","250","1483353","0.0-250.0","1ng3vcfh","","","","","",""
"3986.600000000093","{""pre-2"":1}","[0]","survey-likert","251","1487340","0.0-251.0","1ng3vcfh","","","","","",""
"1469.6350000000093","{""pre-3"":1}","[0]","survey-likert","252","1488811","0.0-252.0","1ng3vcfh","","","","","",""
"2043.6099999998696","{""post-5"":1}","[0]","survey-likert","253","1490856","0.0-253.0","1ng3vcfh","","","","","",""
"","","","call-function","254","1490856","0.0-254.0","1ng3vcfh","","","","","",""
"null","","","video-keyboard-response","255","1493949","0.0-255.0","1ng3vcfh","","","","null","Agent A","STIM_SET_1_REAL/1160127.bmp_pp90_L2_V1.0_scrambled_freeview_isoFalse_fps144.mp4"
"","","","call-function","256","1493950","0.0-256.0","1ng3vcfh","","","","","",""
"2101.530000000028","{""pre-1"":2}","[0]","survey-likert","257","1496053","0.0-257.0","1ng3vcfh","","","","","",""
"24319.14000000013","{""pre-2"":2}","[0]","survey-likert","258","1520373","0.0-258.0","1ng3vcfh","","","","","",""
"2257.1750000000466","{""pre-3"":2}","[0]","survey-likert","259","1522631","0.0-259.0","1ng3vcfh","","","","","",""
"2606.909999999916","{""post-5"":0}","[0]","survey-likert","260","1525239","0.0-260.0","1ng3vcfh","","","","","",""
"","","","call-function","261","1525240","0.0-261.0","1ng3vcfh","","","","","",""
"null","","","video-keyboard-response","262","1528333","0.0-262.0","1ng3vcfh","","","","null","Agent A","STIM_SET_1_REAL/1159784.bmp_pp73_L3_V1.0_scrambled_freeview_isoFalse_fps144.mp4"
"","","","call-function","263","1528333","0.0-263.0","1ng3vcfh","","","","","",""
"5106.75","{""pre-1"":2}","[0]","survey-likert","264","1533441","0.0-264.0","1ng3vcfh","","","","","",""
"2141.6650000000373","{""pre-2"":1}","[0]","survey-likert","265","1535584","0.0-265.0","1ng3vcfh","","","","","",""
"2349.6750000000466","{""pre-3"":1}","[0]","survey-likert","266","1537934","0.0-266.0","1ng3vcfh","","","","","",""
"5807.554999999935","{""post-5"":1}","[0]","survey-likert","267","1543743","0.0-267.0","1ng3vcfh","","","","","",""
"","","","call-function","268","1543743","0.0-268.0","1ng3vcfh","","","","","",""
"null","","","video-keyboard-response","269","1546858","0.0-269.0","1ng3vcfh","","","","null","Agent A","STIM_SET_1_REAL/285751.bmp_pp55_L3_V1.0_scrambled_freeview_isoFalse_fps144.mp4"
"","","","call-function","270","1546859","0.0-270.0","1ng3vcfh","","","","","",""
"5044.914999999804","{""pre-1"":2}","[0]","survey-likert","271","1551905","0.0-271.0","1ng3vcfh","","","","","",""
"1175.3049999999348","{""pre-2"":2}","[0]","survey-likert","272","1553081","0.0-272.0","1ng3vcfh","","","","","",""
"913.1000000000931","{""pre-3"":2}","[0]","survey-likert","273","1553995","0.0-273.0","1ng3vcfh","","","","","",""
"8955.824999999953","{""post-5"":1}","[0]","survey-likert","274","1562953","0.0-274.0","1ng3vcfh","","","","","",""
"","","","call-function","275","1562954","0.0-275.0","1ng3vcfh","","","","","",""
"null","","","video-keyboard-response","276","1566026","0.0-276.0","1ng3vcfh","","","","null","Agent A","STIM_SET_1_REAL/1159829.bmp_pp91_L3_V1.0_scrambled_freeview_isoFalse_fps144.mp4"
"","","","call-function","277","1566027","0.0-277.0","1ng3vcfh","","","","","",""
"4191.909999999916","{""pre-1"":1}","[0]","survey-likert","278","1570220","0.0-278.0","1ng3vcfh","","","","","",""
"1219.2650000001304","{""pre-2"":1}","[0]","survey-likert","279","1571440","0.0-279.0","1ng3vcfh","","","","","",""
"2494.159999999916","{""pre-3"":0}","[0]","survey-likert","280","1573936","0.0-280.0","1ng3vcfh","","","","","",""
"2973.3950000000186","{""post-5"":2}","[0]","survey-likert","281","1576910","0.0-281.0","1ng3vcfh","","","","","",""
"","","","call-function","282","1576911","0.0-282.0","1ng3vcfh","","","","","",""
"null","","","video-keyboard-response","283","1580013","0.0-283.0","1ng3vcfh","","","","null","Agent A","STIM_SET_1_REAL/1592362.bmp_pp95_L2_V1.0_veridical_freeview_isoFalse_fps144.mp4"
"","","","call-function","284","1580014","0.0-284.0","1ng3vcfh","","","","","",""
"2239.350000000093","{""pre-1"":2}","[0]","survey-likert","285","1582255","0.0-285.0","1ng3vcfh","","","","","",""
"1819.6450000000186","{""pre-2"":2}","[0]","survey-likert","286","1584075","0.0-286.0","1ng3vcfh","","","","","",""
"1326.9149999998044","{""pre-3"":2}","[0]","survey-likert","287","1585403","0.0-287.0","1ng3vcfh","","","","","",""
"19079.700000000186","{""post-5"":0}","[0]","survey-likert","288","1604484","0.0-288.0","1ng3vcfh","","","","","",""
"","","","call-function","289","1604484","0.0-289.0","1ng3vcfh","","","","","",""
"null","","","video-keyboard-response","290","1607580","0.0-290.0","1ng3vcfh","","","","null","Agent A","STIM_SET_1_REAL/1592807.bmp_pp68_L1_V1.0_scrambled_freeview_isoFalse_fps144.mp4"
"","","","call-function","291","1607580","0.0-291.0","1ng3vcfh","","","","","",""
"6268.594999999972","{""pre-1"":2}","[0]","survey-likert","292","1613849","0.0-292.0","1ng3vcfh","","","","","",""
"1251.4450000000652","{""pre-2"":2}","[0]","survey-likert","293","1615102","0.0-293.0","1ng3vcfh","","","","","",""
"1431.2350000001024","{""pre-3"":2}","[0]","survey-likert","294","1616534","0.0-294.0","1ng3vcfh","","","","","",""
"1739.1100000001024","{""post-5"":1}","[0]","survey-likert","295","1618274","0.0-295.0","1ng3vcfh","","","","","",""
"","","","call-function","296","1618275","0.0-296.0","1ng3vcfh","","","","","",""
"null","","","video-keyboard-response","297","1621365","0.0-297.0","1ng3vcfh","","","","null","Agent A","STIM_SET_1_REAL/1159813.bmp_pp79_L2_V1.0_veridical_freeview_isoFalse_fps144.mp4"
"","","","call-function","298","1621366","0.0-298.0","1ng3vcfh","","","","","",""
"3377.4599999999627","{""pre-1"":2}","[0]","survey-likert","299","1624744","0.0-299.0","1ng3vcfh","","","","","",""
"3001.094999999972","{""pre-2"":2}","[0]","survey-likert","300","1627746","0.0-300.0","1ng3vcfh","","","","","",""
"3948.810000000056","{""pre-3"":1}","[0]","survey-likert","301","1631697","0.0-301.0","1ng3vcfh","","","","","",""
"2323.649999999907","{""post-5"":1}","[0]","survey-likert","302","1634022","0.0-302.0","1ng3vcfh","","","","","",""
"14972.715000000084","","","instructions","303","1648996","0.0-303.0","1ng3vcfh","[{""page_index"":0,""viewing_time"":10990.840000000084},{""page_index"":1,""viewing_time"":2335.9499999999534},{""page_index"":2,""viewing_time"":1645.0249999999069}]","","","","",""
"12833.494999999879","","","instructions","304","1661830","0.0-304.0","1ng3vcfh","[{""page_index"":0,""viewing_time"":3239.4249999998137},{""page_index"":1,""viewing_time"":8621.065000000177},{""page_index"":2,""viewing_time"":972.8999999999069}]","","","","",""
"","","","call-function","305","1661831","0.0-305.0","1ng3vcfh","","","","","",""
"null","","","video-keyboard-response","306","1664907","0.0-306.0","1ng3vcfh","","","","null","Agent A","STIM_SET_1_REAL/1159446.bmp_pp60_L3_V1.0_veridical_freeview_isoFalse_fps144.mp4"
"","","","call-function","307","1664907","0.0-307.0","1ng3vcfh","","","","","",""
"4581.074999999953","{""pre-1"":3}","[0]","survey-likert","308","1669490","0.0-308.0","1ng3vcfh","","","","","",""
"3053.6350000000093","{""pre-2"":2}","[0]","survey-likert","309","1672544","0.0-309.0","1ng3vcfh","","","","","",""
"1558.0549999999348","{""pre-3"":2}","[0]","survey-likert","310","1674104","0.0-310.0","1ng3vcfh","","","","","",""
"1803.1000000000931","{""post-5"":0}","[0]","survey-likert","311","1675908","0.0-311.0","1ng3vcfh","","","","","",""
"","","","call-function","312","1675909","0.0-312.0","1ng3vcfh","","","","","",""
"null","","","video-keyboard-response","313","1678991","0.0-313.0","1ng3vcfh","","","","null","Agent A","STIM_SET_1_REAL/713513.bmp_pp62_L2_V1.0_veridical_freeview_isoFalse_fps144.mp4"
"","","","call-function","314","1678991","0.0-314.0","1ng3vcfh","","","","","",""
"4729.040000000037","{""pre-1"":2}","[0]","survey-likert","315","1683721","0.0-315.0","1ng3vcfh","","","","","",""
"4855.324999999953","{""pre-2"":2}","[0]","survey-likert","316","1688578","0.0-316.0","1ng3vcfh","","","","","",""
"1774.9550000000745","{""pre-3"":1}","[0]","survey-likert","317","1690354","0.0-317.0","1ng3vcfh","","","","","",""
"2657.4899999999907","{""post-5"":1}","[0]","survey-likert","318","1693012","0.0-318.0","1ng3vcfh","","","","","",""
"","","","call-function","319","1693013","0.0-319.0","1ng3vcfh","","","","","",""
"null","","","video-keyboard-response","320","1697485","0.0-320.0","1ng3vcfh","","","","null","Agent A","STIM_SET_1_REAL/1592727.bmp_pp59_L3_V1.0_veridical_freeview_isoFalse_fps144.mp4"
"","","","call-function","321","1697485","0.0-321.0","1ng3vcfh","","","","","",""
"14583.719999999972","{""pre-1"":3}","[0]","survey-likert","322","1712070","0.0-322.0","1ng3vcfh","","","","","",""
"2836.2399999999907","{""pre-2"":2}","[0]","survey-likert","323","1714908","0.0-323.0","1ng3vcfh","","","","","",""
"1297.0200000000186","{""pre-3"":2}","[0]","survey-likert","324","1716206","0.0-324.0","1ng3vcfh","","","","","",""
"8510.25","{""post-5"":0}","[0]","survey-likert","325","1724718","0.0-325.0","1ng3vcfh","","","","","",""
"","","","call-function","326","1724719","0.0-326.0","1ng3vcfh","","","","","",""
"null","","","video-keyboard-response","327","1727809","0.0-327.0","1ng3vcfh","","","","null","Agent A","STIM_SET_1_REAL/713684.bmp_pp85_L3_V1.0_veridical_freeview_isoFalse_fps144.mp4"
"","","","call-function","328","1727809","0.0-328.0","1ng3vcfh","","","","","",""
"6318.435000000056","{""pre-1"":1}","[0]","survey-likert","329","1734129","0.0-329.0","1ng3vcfh","","","","","",""
"4335.685000000056","{""pre-2"":1}","[0]","survey-likert","330","1738466","0.0-330.0","1ng3vcfh","","","","","",""
"1127.0450000001583","{""pre-3"":1}","[0]","survey-likert","331","1739594","0.0-331.0","1ng3vcfh","","","","","",""
"4544.755000000121","{""post-5"":2}","[0]","survey-likert","332","1744140","0.0-332.0","1ng3vcfh","","","","","",""
"","","","call-function","333","1744141","0.0-333.0","1ng3vcfh","","","","","",""
"null","","","video-keyboard-response","334","1747214","0.0-334.0","1ng3vcfh","","","","null","Agent A","STIM_SET_1_REAL/285751.bmp_pp55_L3_V1.0_veridical_freeview_isoFalse_fps144.mp4"
"","","","call-function","335","1747215","0.0-335.0","1ng3vcfh","","","","","",""
"2526.6450000000186","{""pre-1"":2}","[0]","survey-likert","336","1749743","0.0-336.0","1ng3vcfh","","","","","",""
"24497.290000000037","{""pre-2"":2}","[0]","survey-likert","337","1774241","0.0-337.0","1ng3vcfh","","","","","",""
"2712.215000000084","{""pre-3"":2}","[0]","survey-likert","338","1776955","0.0-338.0","1ng3vcfh","","","","","",""
"5827.625","{""post-5"":0}","[0]","survey-likert","339","1782784","0.0-339.0","1ng3vcfh","","","","","",""
"","","","call-function","340","1782784","0.0-340.0","1ng3vcfh","","","","","",""
"null","","","video-keyboard-response","341","1785869","0.0-341.0","1ng3vcfh","","","","null","Agent A","STIM_SET_1_REAL/713017.bmp_pp152_L2_V1.0_scrambled_freeview_isoFalse_fps144.mp4"
"","","","call-function","342","1785869","0.0-342.0","1ng3vcfh","","","","","",""
"2334.4250000000466","{""pre-1"":2}","[0]","survey-likert","343","1788204","0.0-343.0","1ng3vcfh","","","","","",""
"4983.550000000047","{""pre-2"":2}","[0]","survey-likert","344","1793189","0.0-344.0","1ng3vcfh","","","","","",""
"1952.6650000000373","{""pre-3"":2}","[0]","survey-likert","345","1795143","0.0-345.0","1ng3vcfh","","","","","",""
"5023.350000000093","{""post-5"":1}","[0]","survey-likert","346","1800168","0.0-346.0","1ng3vcfh","","","","","",""
"","","","call-function","347","1800169","0.0-347.0","1ng3vcfh","","","","","",""
"null","","","video-keyboard-response","348","1803259","0.0-348.0","1ng3vcfh","","","","null","Agent A","STIM_SET_1_REAL/498175.bmp_pp154_L1_V1.0_veridical_freeview_isoFalse_fps144.mp4"
"","","","call-function","349","1803260","0.0-349.0","1ng3vcfh","","","","","",""
"3120.1650000000373","{""pre-1"":2}","[0]","survey-likert","350","1806381","0.0-350.0","1ng3vcfh","","","","","",""
"1077.7399999999907","{""pre-2"":2}","[0]","survey-likert","351","1807460","0.0-351.0","1ng3vcfh","","","","","",""
"1168.655000000028","{""pre-3"":2}","[0]","survey-likert","352","1808630","0.0-352.0","1ng3vcfh","","","","","",""
"1723.3049999999348","{""post-5"":1}","[0]","survey-likert","353","1810354","0.0-353.0","1ng3vcfh","","","","","",""
"","","","call-function","354","1810355","0.0-354.0","1ng3vcfh","","","","","",""
"null","","","video-keyboard-response","355","1813437","0.0-355.0","1ng3vcfh","","","","null","Agent A","STIM_SET_1_REAL/286001.bmp_pp54_L2_V1.0_veridical_freeview_isoFalse_fps144.mp4"
"","","","call-function","356","1813438","0.0-356.0","1ng3vcfh","","","","","",""
"3152.5799999998417","{""pre-1"":2}","[0]","survey-likert","357","1816592","0.0-357.0","1ng3vcfh","","","","","",""
"2428.780000000028","{""pre-2"":2}","[0]","survey-likert","358","1819022","0.0-358.0","1ng3vcfh","","","","","",""
"1205.8349999999627","{""pre-3"":1}","[0]","survey-likert","359","1820229","0.0-359.0","1ng3vcfh","","","","","",""
"1616.6299999998882","{""post-5"":1}","[0]","survey-likert","360","1821846","0.0-360.0","1ng3vcfh","","","","","",""
"","","","call-function","361","1821847","0.0-361.0","1ng3vcfh","","","","","",""
"null","","","video-keyboard-response","362","1824917","0.0-362.0","1ng3vcfh","","","","null","Agent A","STIM_SET_1_REAL/1592619.bmp_pp56_L3_V1.0_veridical_freeview_isoFalse_fps144.mp4"
"","","","call-function","363","1824917","0.0-363.0","1ng3vcfh","","","","","",""
"2275.4899999999907","{""pre-1"":2}","[0]","survey-likert","364","1827194","0.0-364.0","1ng3vcfh","","","","","",""
"2971.5100000000093","{""pre-2"":2}","[0]","survey-likert","365","1830166","0.0-365.0","1ng3vcfh","","","","","",""
"1042.6299999998882","{""pre-3"":1}","[0]","survey-likert","366","1831210","0.0-366.0","1ng3vcfh","","","","","",""
"2960.2650000001304","{""post-5"":1}","[0]","survey-likert","367","1834171","0.0-367.0","1ng3vcfh","","","","","",""
"","","","call-function","368","1834172","0.0-368.0","1ng3vcfh","","","","","",""
"null","","","video-keyboard-response","369","1837269","0.0-369.0","1ng3vcfh","","","","null","Agent A","STIM_SET_1_REAL/1593035.bmp_pp94_L2_V1.0_veridical_freeview_isoFalse_fps144.mp4"
"","","","call-function","370","1837269","0.0-370.0","1ng3vcfh","","","","","",""
"2638.340000000084","{""pre-1"":2}","[0]","survey-likert","371","1839909","0.0-371.0","1ng3vcfh","","","","","",""
"1023.9099999999162","{""pre-2"":2}","[0]","survey-likert","372","1840934","0.0-372.0","1ng3vcfh","","","","","",""
"1029.0999999998603","{""pre-3"":2}","[0]","survey-likert","373","1841964","0.0-373.0","1ng3vcfh","","","","","",""
"2378.5500000000466","{""post-5"":1}","[0]","survey-likert","374","1844343","0.0-374.0","1ng3vcfh","","","","","",""
"","","","call-function","375","1844344","0.0-375.0","1ng3vcfh","","","","","",""
"null","","","video-keyboard-response","376","1847438","0.0-376.0","1ng3vcfh","","","","null","Agent A","STIM_SET_1_REAL/497950.bmp_pp151_L1_V1.0_scrambled_freeview_isoFalse_fps144.mp4"
"","","","call-function","377","1847439","0.0-377.0","1ng3vcfh","","","","","",""
"2156.2349999998696","{""pre-1"":2}","[0]","survey-likert","378","1849596","0.0-378.0","1ng3vcfh","","","","","",""
"1414.375","{""pre-2"":2}","[0]","survey-likert","379","1851011","0.0-379.0","1ng3vcfh","","","","","",""
"1753.839999999851","{""pre-3"":2}","[0]","survey-likert","380","1852766","0.0-380.0","1ng3vcfh","","","","","",""
"1982.3899999998976","{""post-5"":1}","[0]","survey-likert","381","1854750","0.0-381.0","1ng3vcfh","","","","","",""
"","","","call-function","382","1854750","0.0-382.0","1ng3vcfh","","","","","",""
"null","","","video-keyboard-response","383","1857870","0.0-383.0","1ng3vcfh","","","","null","Agent A","STIM_SET_1_REAL/1593035.bmp_pp94_L2_V1.0_scrambled_freeview_isoFalse_fps144.mp4"
"","","","call-function","384","1857871","0.0-384.0","1ng3vcfh","","","","","",""
"4037.654999999795","{""pre-1"":1}","[0]","survey-likert","385","1861910","0.0-385.0","1ng3vcfh","","","","","",""
"1722.4450000000652","{""pre-2"":1}","[0]","survey-likert","386","1863634","0.0-386.0","1ng3vcfh","","","","","",""
"978.0549999999348","{""pre-3"":1}","[0]","survey-likert","387","1864613","0.0-387.0","1ng3vcfh","","","","","",""
"1778.0649999999441","{""post-5"":2}","[0]","survey-likert","388","1866392","0.0-388.0","1ng3vcfh","","","","","",""
"","","","call-function","389","1866393","0.0-389.0","1ng3vcfh","","","","","",""
"null","","","video-keyboard-response","390","1869483","0.0-390.0","1ng3vcfh","","","","null","Agent A","STIM_SET_1_REAL/1159440.bmp_pp98_L1_V1.0_veridical_freeview_isoFalse_fps144.mp4"
"","","","call-function","391","1869483","0.0-391.0","1ng3vcfh","","","","","",""
"25969.01000000001","{""pre-1"":2}","[0]","survey-likert","392","1895453","0.0-392.0","1ng3vcfh","","","","","",""
"990.8449999999721","{""pre-2"":2}","[0]","survey-likert","393","1896445","0.0-393.0","1ng3vcfh","","","","","",""
"1389.3349999999627","{""pre-3"":2}","[0]","survey-likert","394","1897836","0.0-394.0","1ng3vcfh","","","","","",""
"1516.0249999999069","{""post-5"":1}","[0]","survey-likert","395","1899353","0.0-395.0","1ng3vcfh","","","","","",""
"","","","call-function","396","1899353","0.0-396.0","1ng3vcfh","","","","","",""
"null","","","video-keyboard-response","397","1902452","0.0-397.0","1ng3vcfh","","","","null","Agent A","STIM_SET_1_REAL/498149.bmp_pp99_L2_V1.0_scrambled_freeview_isoFalse_fps144.mp4"
"","","","call-function","398","1902452","0.0-398.0","1ng3vcfh","","","","","",""
"2782.594999999972","{""pre-1"":2}","[0]","survey-likert","399","1905236","0.0-399.0","1ng3vcfh","","","","","",""
"1257.625","{""pre-2"":2}","[0]","survey-likert","400","1906494","0.0-400.0","1ng3vcfh","","","","","",""
"857.9899999999907","{""pre-3"":2}","[0]","survey-likert","401","1907353","0.0-401.0","1ng3vcfh","","","","","",""
"7148.010000000009","{""post-5"":1}","[0]","survey-likert","402","1914502","0.0-402.0","1ng3vcfh","","","","","",""
"","","","call-function","403","1914503","0.0-403.0","1ng3vcfh","","","","","",""
"null","","","video-keyboard-response","404","1917579","0.0-404.0","1ng3vcfh","","","","null","Agent A","STIM_SET_1_REAL/1159882.bmp_pp61_L2_V1.0_scrambled_freeview_isoFalse_fps144.mp4"
"","","","call-function","405","1917579","0.0-405.0","1ng3vcfh","","","","","",""
"2588.9550000000745","{""pre-1"":1}","[0]","survey-likert","406","1920169","0.0-406.0","1ng3vcfh","","","","","",""
"984.0800000000745","{""pre-2"":1}","[0]","survey-likert","407","1921154","0.0-407.0","1ng3vcfh","","","","","",""
"1003.2650000001304","{""pre-3"":1}","[0]","survey-likert","408","1922159","0.0-408.0","1ng3vcfh","","","","","",""
"1484.9249999998137","{""post-5"":2}","[0]","survey-likert","409","1923645","0.0-409.0","1ng3vcfh","","","","","",""
"","","","call-function","410","1923645","0.0-410.0","1ng3vcfh","","","","","",""
"null","","","video-keyboard-response","411","1926733","0.0-411.0","1ng3vcfh","","","","null","Agent A","STIM_SET_1_REAL/498253.bmp_pp67_L2_V1.0_scrambled_freeview_isoFalse_fps144.mp4"
"","","","call-function","412","1926734","0.0-412.0","1ng3vcfh","","","","","",""
"2095.0500000000466","{""pre-1"":2}","[0]","survey-likert","413","1928830","0.0-413.0","1ng3vcfh","","","","","",""
"1308.905000000028","{""pre-2"":2}","[0]","survey-likert","414","1930140","0.0-414.0","1ng3vcfh","","","","","",""
"1263.9350000000559","{""pre-3"":2}","[0]","survey-likert","415","1931405","0.0-415.0","1ng3vcfh","","","","","",""
"1400.9650000000838","{""post-5"":1}","[0]","survey-likert","416","1932807","0.0-416.0","1ng3vcfh","","","","","",""
"","","","call-function","417","1932807","0.0-417.0","1ng3vcfh","","","","","",""
"null","","","video-keyboard-response","418","1935887","0.0-418.0","1ng3vcfh","","","","null","Agent A","STIM_SET_1_REAL/1159621.bmp_pp92_L3_V1.0_scrambled_freeview_isoFalse_fps144.mp4"
"","","","call-function","419","1935887","0.0-419.0","1ng3vcfh","","","","","",""
"2445.659999999916","{""pre-1"":1}","[0]","survey-likert","420","1938334","0.0-420.0","1ng3vcfh","","","","","",""
"1225.8299999998417","{""pre-2"":1}","[0]","survey-likert","421","1939561","0.0-421.0","1ng3vcfh","","","","","",""
"1481.2250000000931","{""pre-3"":1}","[0]","survey-likert","422","1941044","0.0-422.0","1ng3vcfh","","","","","",""
"2317.780000000028","{""post-5"":2}","[0]","survey-likert","423","1943363","0.0-423.0","1ng3vcfh","","","","","",""
"","","","call-function","424","1943364","0.0-424.0","1ng3vcfh","","","","","",""
"null","","","video-keyboard-response","425","1946455","0.0-425.0","1ng3vcfh","","","","null","Agent A","STIM_SET_1_REAL/713017.bmp_pp152_L2_V1.0_veridical_freeview_isoFalse_fps144.mp4"
"","","","call-function","426","1946455","0.0-426.0","1ng3vcfh","","","","","",""
"3825.439999999944","{""pre-1"":2}","[0]","survey-likert","427","1950282","0.0-427.0","1ng3vcfh","","","","","",""
"889.2299999999814","{""pre-2"":2}","[0]","survey-likert","428","1951172","0.0-428.0","1ng3vcfh","","","","","",""
"2386.804999999935","{""pre-3"":2}","[0]","survey-likert","429","1953560","0.0-429.0","1ng3vcfh","","","","","",""
"1766.2150000000838","{""post-5"":1}","[0]","survey-likert","430","1955328","0.0-430.0","1ng3vcfh","","","","","",""
"","","","call-function","431","1955328","0.0-431.0","1ng3vcfh","","","","","",""
"null","","","video-keyboard-response","432","1958440","0.0-432.0","1ng3vcfh","","","","null","Agent A","STIM_SET_1_REAL/1591994.bmp_pp69_L3_V1.0_veridical_freeview_isoFalse_fps144.mp4"
"","","","call-function","433","1958441","0.0-433.0","1ng3vcfh","","","","","",""
"22949.055000000168","{""pre-1"":2}","[0]","survey-likert","434","1981391","0.0-434.0","1ng3vcfh","","","","","",""
"3844.159999999916","{""pre-2"":1}","[0]","survey-likert","435","1985236","0.0-435.0","1ng3vcfh","","","","","",""
"2017","{""pre-3"":2}","[0]","survey-likert","436","1987254","0.0-436.0","1ng3vcfh","","","","","",""
"4015.9799999999814","{""post-5"":1}","[0]","survey-likert","437","1991271","0.0-437.0","1ng3vcfh","","","","","",""
"","","","call-function","438","1991271","0.0-438.0","1ng3vcfh","","","","","",""
"null","","","video-keyboard-response","439","1994346","0.0-439.0","1ng3vcfh","","","","null","Agent A","STIM_SET_1_REAL/1592619.bmp_pp56_L3_V1.0_scrambled_freeview_isoFalse_fps144.mp4"
"","","","call-function","440","1994347","0.0-440.0","1ng3vcfh","","","","","",""
"1574.8649999999907","{""pre-1"":1}","[0]","survey-likert","441","1995923","0.0-441.0","1ng3vcfh","","","","","",""
"1761.2900000000373","{""pre-2"":1}","[0]","survey-likert","442","1997685","0.0-442.0","1ng3vcfh","","","","","",""
"1886.8649999999907","{""pre-3"":1}","[0]","survey-likert","443","1999573","0.0-443.0","1ng3vcfh","","","","","",""
"3937.9200000001583","{""post-5"":1}","[0]","survey-likert","444","2003512","0.0-444.0","1ng3vcfh","","","","","",""
"58630.460000000196","","","instructions","445","2062143","0.0-445.0","1ng3vcfh","[{""page_index"":0,""viewing_time"":56633.13500000001},{""page_index"":1,""viewing_time"":1154.0200000000186},{""page_index"":2,""viewing_time"":843.1350000000093}]","","","","",""
"2397.350000000093","","","instructions","446","2064541","0.0-446.0","1ng3vcfh","[{""page_index"":0,""viewing_time"":649.1650000000373},{""page_index"":1,""viewing_time"":761.9849999998696},{""page_index"":2,""viewing_time"":986.0600000000559}]","","","","",""
"","","","call-function","447","2064541","0.0-447.0","1ng3vcfh","","","","","",""
"null","","","video-keyboard-response","448","2067620","0.0-448.0","1ng3vcfh","","","","null","Agent A","STIM_SET_1_REAL/713403.bmp_pp80_L3_V1.0_veridical_freeview_isoFalse_fps144.mp4"
"","","","call-function","449","2067621","0.0-449.0","1ng3vcfh","","","","","",""
"1948.6049999999814","{""pre-1"":2}","[0]","survey-likert","450","2069570","0.0-450.0","1ng3vcfh","","","","","",""
"1067.8999999999069","{""pre-2"":2}","[0]","survey-likert","451","2070639","0.0-451.0","1ng3vcfh","","","","","",""
"5914.399999999907","{""pre-3"":2}","[0]","survey-likert","452","2076555","0.0-452.0","1ng3vcfh","","","","","",""
"1434.375","{""post-5"":1}","[0]","survey-likert","453","2077991","0.0-453.0","1ng3vcfh","","","","","",""
"","","","call-function","454","2077992","0.0-454.0","1ng3vcfh","","","","","",""
"null","","","video-keyboard-response","455","2081077","0.0-455.0","1ng3vcfh","","","","null","Agent A","STIM_SET_1_REAL/1592581.bmp_pp100_L3_V1.0_veridical_freeview_isoFalse_fps144.mp4"
"","","","call-function","456","2081077","0.0-456.0","1ng3vcfh","","","","","",""
"2979.8349999999627","{""pre-1"":1}","[0]","survey-likert","457","2084059","0.0-457.0","1ng3vcfh","","","","","",""
"2074.6399999998976","{""pre-2"":1}","[0]","survey-likert","458","2086136","0.0-458.0","1ng3vcfh","","","","","",""
"1115.035000000149","{""pre-3"":1}","[0]","survey-likert","459","2087252","0.0-459.0","1ng3vcfh","","","","","",""
"5329.324999999953","{""post-5"":2}","[0]","survey-likert","460","2092583","0.0-460.0","1ng3vcfh","","","","","",""
"","","","call-function","461","2092583","0.0-461.0","1ng3vcfh","","","","","",""
"null","","","video-keyboard-response","462","2095666","0.0-462.0","1ng3vcfh","","","","null","Agent A","STIM_SET_1_REAL/1592362.bmp_pp95_L2_V1.0_scrambled_freeview_isoFalse_fps144.mp4"
"","","","call-function","463","2095666","0.0-463.0","1ng3vcfh","","","","","",""
"4139.950000000186","{""pre-1"":2}","[0]","survey-likert","464","2099807","0.0-464.0","1ng3vcfh","","","","","",""
"1149.2399999997579","{""pre-2"":2}","[0]","survey-likert","465","2100957","0.0-465.0","1ng3vcfh","","","","","",""
"849.5","{""pre-3"":2}","[0]","survey-likert","466","2101808","0.0-466.0","1ng3vcfh","","","","","",""
"6557.429999999702","{""post-5"":1}","[0]","survey-likert","467","2108367","0.0-467.0","1ng3vcfh","","","","","",""
"","","","call-function","468","2108368","0.0-468.0","1ng3vcfh","","","","","",""
"null","","","video-keyboard-response","469","2111451","0.0-469.0","1ng3vcfh","","","","null","Agent A","STIM_SET_1_REAL/713760.bmp_pp81_L1_V1.0_veridical_freeview_isoFalse_fps144.mp4"
"","","","call-function","470","2111452","0.0-470.0","1ng3vcfh","","","","","",""
"5825.475000000093","{""pre-1"":2}","[0]","survey-likert","471","2117278","0.0-471.0","1ng3vcfh","","","","","",""
"6618.135000000242","{""pre-2"":2}","[0]","survey-likert","472","2123897","0.0-472.0","1ng3vcfh","","","","","",""
"1528.095000000205","{""pre-3"":1}","[0]","survey-likert","473","2125426","0.0-473.0","1ng3vcfh","","","","","",""
"2131.2299999999814","{""post-5"":1}","[0]","survey-likert","474","2127559","0.0-474.0","1ng3vcfh","","","","","",""
"","","","call-function","475","2127560","0.0-475.0","1ng3vcfh","","","","","",""
"null","","","video-keyboard-response","476","2130652","0.0-476.0","1ng3vcfh","","","","null","Agent A","STIM_SET_1_REAL/1159777.bmp_pp77_L3_V1.0_veridical_freeview_isoFalse_fps144.mp4"
"","","","call-function","477","2130653","0.0-477.0","1ng3vcfh","","","","","",""
"1793.0849999999627","{""pre-1"":2}","[0]","survey-likert","478","2132447","0.0-478.0","1ng3vcfh","","","","","",""
"1167.654999999795","{""pre-2"":2}","[0]","survey-likert","479","2133616","0.0-479.0","1ng3vcfh","","","","","",""
"929.0849999999627","{""pre-3"":2}","[0]","survey-likert","480","2134546","0.0-480.0","1ng3vcfh","","","","","",""
"1319.8799999998882","{""post-5"":1}","[0]","survey-likert","481","2135867","0.0-481.0","1ng3vcfh","","","","","",""
"","","","call-function","482","2135868","0.0-482.0","1ng3vcfh","","","","","",""
"null","","","video-keyboard-response","483","2138956","0.0-483.0","1ng3vcfh","","","","null","Agent A","STIM_SET_1_REAL/1592286.bmp_pp52_L1_V1.0_veridical_freeview_isoFalse_fps144.mp4"
"","","","call-function","484","2138956","0.0-484.0","1ng3vcfh","","","","","",""
"2221.274999999907","{""pre-1"":1}","[0]","survey-likert","485","2141179","0.0-485.0","1ng3vcfh","","","","","",""
"3034.274999999907","{""pre-2"":2}","[0]","survey-likert","486","2144215","0.0-486.0","1ng3vcfh","","","","","",""
"1517.9300000001676","{""pre-3"":1}","[0]","survey-likert","487","2145735","0.0-487.0","1ng3vcfh","","","","","",""
"2706.935000000056","{""post-5"":2}","[0]","survey-likert","488","2148443","0.0-488.0","1ng3vcfh","","","","","",""
"","","","call-function","489","2148444","0.0-489.0","1ng3vcfh","","","","","",""
"null","","","video-keyboard-response","490","2151555","0.0-490.0","1ng3vcfh","","","","null","Agent A","STIM_SET_1_REAL/1592804.bmp_pp91_L3_V1.0_scrambled_freeview_isoFalse_fps144.mp4"
"","","","call-function","491","2151556","0.0-491.0","1ng3vcfh","","","","","",""
"3305.689999999944","{""pre-1"":0}","[0]","survey-likert","492","2154863","0.0-492.0","1ng3vcfh","","","","","",""
"22551.524999999907","{""pre-2"":0}","[0]","survey-likert","493","2177415","0.0-493.0","1ng3vcfh","","","","","",""
"1143.0400000000373","{""pre-3"":0}","[0]","survey-likert","494","2178559","0.0-494.0","1ng3vcfh","","","","","",""
"2059.404999999795","{""post-5"":3}","[0]","survey-likert","495","2180620","0.0-495.0","1ng3vcfh","","","","","",""
"","","","call-function","496","2180621","0.0-496.0","1ng3vcfh","","","","","",""
"null","","","video-keyboard-response","497","2183697","0.0-497.0","1ng3vcfh","","","","null","Agent A","STIM_SET_1_REAL/713089.bmp_pp60_L3_V1.0_veridical_freeview_isoFalse_fps144.mp4"
"","","","call-function","498","2183698","0.0-498.0","1ng3vcfh","","","","","",""
"3696.6049999999814","{""pre-1"":2}","[0]","survey-likert","499","2187396","0.0-499.0","1ng3vcfh","","","","","",""
"2161.5849999999627","{""pre-2"":2}","[0]","survey-likert","500","2189558","0.0-500.0","1ng3vcfh","","","","","",""
"810.0149999996647","{""pre-3"":1}","[0]","survey-likert","501","2190369","0.0-501.0","1ng3vcfh","","","","","",""
"2299.8300000000745","{""post-5"":1}","[0]","survey-likert","502","2192670","0.0-502.0","1ng3vcfh","","","","","",""
"","","","call-function","503","2192671","0.0-503.0","1ng3vcfh","","","","","",""
"null","","","video-keyboard-response","504","2195765","0.0-504.0","1ng3vcfh","","","","null","Agent A","STIM_SET_1_REAL/713593.bmp_pp64_L1_V1.0_scrambled_freeview_isoFalse_fps144.mp4"
"","","","call-function","505","2195766","0.0-505.0","1ng3vcfh","","","","","",""
"3873.9950000001118","{""pre-1"":2}","[0]","survey-likert","506","2199641","0.0-506.0","1ng3vcfh","","","","","",""
"2219.660000000149","{""pre-2"":2}","[0]","survey-likert","507","2201861","0.0-507.0","1ng3vcfh","","","","","",""
"1031.8549999999814","{""pre-3"":1}","[0]","survey-likert","508","2202894","0.0-508.0","1ng3vcfh","","","","","",""
"1553.9549999996088","{""post-5"":1}","[0]","survey-likert","509","2204449","0.0-509.0","1ng3vcfh","","","","","",""
"","","","call-function","510","2204450","0.0-510.0","1ng3vcfh","","","","","",""
"null","","","video-keyboard-response","511","2207530","0.0-511.0","1ng3vcfh","","","","null","Agent A","STIM_SET_1_REAL/1159447.bmp_pp70_L2_V1.0_veridical_freeview_isoFalse_fps144.mp4"
"","","","call-function","512","2207530","0.0-512.0","1ng3vcfh","","","","","",""
"2769.1800000001676","{""pre-1"":2}","[0]","survey-likert","513","2210300","0.0-513.0","1ng3vcfh","","","","","",""
"42536.35000000009","{""pre-2"":2}","[0]","survey-likert","514","2252838","0.0-514.0","1ng3vcfh","","","","","",""
"5258.0800000000745","{""pre-3"":1}","[0]","survey-likert","515","2258099","0.0-515.0","1ng3vcfh","","","","","",""
"1795.3050000001676","{""post-5"":1}","[0]","survey-likert","516","2259895","0.0-516.0","1ng3vcfh","","","","","",""
"","","","call-function","517","2259896","0.0-517.0","1ng3vcfh","","","","","",""
"null","","","video-keyboard-response","518","2263069","0.0-518.0","1ng3vcfh","","","","null","Agent A","STIM_SET_1_REAL/1592499.bmp_pp96_L2_V1.0_scrambled_freeview_isoFalse_fps144.mp4"
"","","","call-function","519","2263069","0.0-519.0","1ng3vcfh","","","","","",""
"3093.2800000002608","{""pre-1"":2}","[0]","survey-likert","520","2266164","0.0-520.0","1ng3vcfh","","","","","",""
"2765.7900000000373","{""pre-2"":2}","[0]","survey-likert","521","2268931","0.0-521.0","1ng3vcfh","","","","","",""
"1129.3999999999069","{""pre-3"":1}","[0]","survey-likert","522","2270061","0.0-522.0","1ng3vcfh","","","","","",""
"1274.5100000002421","{""post-5"":1}","[0]","survey-likert","523","2271337","0.0-523.0","1ng3vcfh","","","","","",""
"","","","call-function","524","2271338","0.0-524.0","1ng3vcfh","","","","","",""
"null","","","video-keyboard-response","525","2274425","0.0-525.0","1ng3vcfh","","","","null","Agent A","STIM_SET_1_REAL/1160168.bmp_pp53_L2_V1.0_veridical_freeview_isoFalse_fps144.mp4"
"","","","call-function","526","2274426","0.0-526.0","1ng3vcfh","","","","","",""
"4206.699999999721","{""pre-1"":2}","[0]","survey-likert","527","2278633","0.0-527.0","1ng3vcfh","","","","","",""
"1347.875","{""pre-2"":2}","[0]","survey-likert","528","2279982","0.0-528.0","1ng3vcfh","","","","","",""
"1617.8149999999441","{""pre-3"":1}","[0]","survey-likert","529","2281601","0.0-529.0","1ng3vcfh","","","","","",""
"1561.8499999996275","{""post-5"":1}","[0]","survey-likert","530","2283164","0.0-530.0","1ng3vcfh","","","","","",""
"","","","call-function","531","2283165","0.0-531.0","1ng3vcfh","","","","","",""
"null","","","video-keyboard-response","532","2286252","0.0-532.0","1ng3vcfh","","","","null","Agent A","STIM_SET_1_REAL/1592934.bmp_pp63_L1_V1.0_veridical_freeview_isoFalse_fps144.mp4"
"","","","call-function","533","2286253","0.0-533.0","1ng3vcfh","","","","","",""
"18689.02000000002","{""pre-1"":2}","[0]","survey-likert","534","2304943","0.0-534.0","1ng3vcfh","","","","","",""
"1666.904999999795","{""pre-2"":2}","[0]","survey-likert","535","2306611","0.0-535.0","1ng3vcfh","","","","","",""
"1380.0099999997765","{""pre-3"":1}","[0]","survey-likert","536","2307992","0.0-536.0","1ng3vcfh","","","","","",""
"2258.0949999997392","{""post-5"":1}","[0]","survey-likert","537","2310251","0.0-537.0","1ng3vcfh","","","","","",""
"","","","call-function","538","2310252","0.0-538.0","1ng3vcfh","","","","","",""
"null","","","video-keyboard-response","539","2313316","0.0-539.0","1ng3vcfh","","","","null","Agent A","STIM_SET_1_REAL/713089.bmp_pp60_L3_V1.0_scrambled_freeview_isoFalse_fps144.mp4"
"","","","call-function","540","2313317","0.0-540.0","1ng3vcfh","","","","","",""
"5341.385000000242","{""pre-1"":1}","[0]","survey-likert","541","2318659","0.0-541.0","1ng3vcfh","","","","","",""
"14694.435000000056","{""pre-2"":2}","[0]","survey-likert","542","2333355","0.0-542.0","1ng3vcfh","","","","","",""
"1087.730000000447","{""pre-3"":1}","[0]","survey-likert","543","2334446","0.0-543.0","1ng3vcfh","","","","","",""
"1644.3799999998882","{""post-5"":2}","[0]","survey-likert","544","2336092","0.0-544.0","1ng3vcfh","","","","","",""
"","","","call-function","545","2336092","0.0-545.0","1ng3vcfh","","","","","",""
"null","","","video-keyboard-response","546","2339175","0.0-546.0","1ng3vcfh","","","","null","Agent A","STIM_SET_1_REAL/285933.bmp_pp81_L1_V1.0_scrambled_freeview_isoFalse_fps144.mp4"
"","","","call-function","547","2339176","0.0-547.0","1ng3vcfh","","","","","",""
"4719.164999999572","{""pre-1"":2}","[0]","survey-likert","548","2343896","0.0-548.0","1ng3vcfh","","","","","",""
"5628.375","{""pre-2"":2}","[0]","survey-likert","549","2349525","0.0-549.0","1ng3vcfh","","","","","",""
"1130.179999999702","{""pre-3"":1}","[0]","survey-likert","550","2350657","0.0-550.0","1ng3vcfh","","","","","",""
"4831.3300000000745","{""post-5"":1}","[0]","survey-likert","551","2355489","0.0-551.0","1ng3vcfh","","","","","",""
"","","","call-function","552","2355490","0.0-552.0","1ng3vcfh","","","","","",""
"null","","","video-keyboard-response","553","2358561","0.0-553.0","1ng3vcfh","","","","null","Agent A","STIM_SET_1_REAL/1159515.bmp_pp84_L3_V1.0_scrambled_freeview_isoFalse_fps144.mp4"
"","","","call-function","554","2358562","0.0-554.0","1ng3vcfh","","","","","",""
"3905.9050000002608","{""pre-1"":2}","[0]","survey-likert","555","2362468","0.0-555.0","1ng3vcfh","","","","","",""
"2296.05999999959","{""pre-2"":2}","[0]","survey-likert","556","2364766","0.0-556.0","1ng3vcfh","","","","","",""
"1450.804999999702","{""pre-3"":1}","[0]","survey-likert","557","2366217","0.0-557.0","1ng3vcfh","","","","","",""
"2312.2549999998882","{""post-5"":1}","[0]","survey-likert","558","2368531","0.0-558.0","1ng3vcfh","","","","","",""
"","","","call-function","559","2368531","0.0-559.0","1ng3vcfh","","","","","",""
"null","","","video-keyboard-response","560","2371616","0.0-560.0","1ng3vcfh","","","","null","Agent A","STIM_SET_1_REAL/1592657.bmp_pp98_L1_V1.0_veridical_freeview_isoFalse_fps144.mp4"
"","","","call-function","561","2371616","0.0-561.0","1ng3vcfh","","","","","",""
"4931.674999999814","{""pre-1"":2}","[0]","survey-likert","562","2376549","0.0-562.0","1ng3vcfh","","","","","",""
"4671.225000000093","{""pre-2"":2}","[0]","survey-likert","563","2381221","0.0-563.0","1ng3vcfh","","","","","",""
"2634.435000000056","{""pre-3"":1}","[0]","survey-likert","564","2383858","0.0-564.0","1ng3vcfh","","","","","",""
"3370.225000000093","{""post-5"":1}","[0]","survey-likert","565","2387230","0.0-565.0","1ng3vcfh","","","","","",""
"","","","call-function","566","2387231","0.0-566.0","1ng3vcfh","","","","","",""
"null","","","video-keyboard-response","567","2390310","0.0-567.0","1ng3vcfh","","","","null","Agent A","STIM_SET_1_REAL/713796.bmp_pp84_L3_V1.0_scrambled_freeview_isoFalse_fps144.mp4"
"","","","call-function","568","2390311","0.0-568.0","1ng3vcfh","","","","","",""
"3013.024999999907","{""pre-1"":2}","[0]","survey-likert","569","2393325","0.0-569.0","1ng3vcfh","","","","","",""
"1817.6200000001118","{""pre-2"":2}","[0]","survey-likert","570","2395144","0.0-570.0","1ng3vcfh","","","","","",""
"1360.4900000002235","{""pre-3"":2}","[0]","survey-likert","571","2396506","0.0-571.0","1ng3vcfh","","","","","",""
"7833.079999999609","{""post-5"":1}","[0]","survey-likert","572","2404340","0.0-572.0","1ng3vcfh","","","","","",""
"","","","call-function","573","2404340","0.0-573.0","1ng3vcfh","","","","","",""
"null","","","video-keyboard-response","574","2407475","0.0-574.0","1ng3vcfh","","","","null","Agent A","STIM_SET_1_REAL/712977.bmp_pp51_L1_V1.0_veridical_freeview_isoFalse_fps144.mp4"
"","","","call-function","575","2407476","0.0-575.0","1ng3vcfh","","","","","",""
"5159.264999999665","{""pre-1"":2}","[0]","survey-likert","576","2412636","0.0-576.0","1ng3vcfh","","","","","",""
"1264.4550000000745","{""pre-2"":2}","[0]","survey-likert","577","2413902","0.0-577.0","1ng3vcfh","","","","","",""
"1223.7549999998882","{""pre-3"":2}","[0]","survey-likert","578","2415126","0.0-578.0","1ng3vcfh","","","","","",""
"2306.695000000298","{""post-5"":1}","[0]","survey-likert","579","2417434","0.0-579.0","1ng3vcfh","","","","","",""
"","","","call-function","580","2417435","0.0-580.0","1ng3vcfh","","","","","",""
"null","","","video-keyboard-response","581","2420505","0.0-581.0","1ng3vcfh","","","","null","Agent A","STIM_SET_1_REAL/1592727.bmp_pp59_L3_V1.0_scrambled_freeview_isoFalse_fps144.mp4"
"","","","call-function","582","2420505","0.0-582.0","1ng3vcfh","","","","","",""
"12249.540000000037","{""pre-1"":1}","[0]","survey-likert","583","2432756","0.0-583.0","1ng3vcfh","","","","","",""
"2731.6150000002235","{""pre-2"":2}","[0]","survey-likert","584","2435489","0.0-584.0","1ng3vcfh","","","","","",""
"1237.6949999998324","{""pre-3"":1}","[0]","survey-likert","585","2436727","0.0-585.0","1ng3vcfh","","","","","",""
"1795.1000000000931","{""post-5"":2}","[0]","survey-likert","586","2438523","0.0-586.0","1ng3vcfh","","","","","",""
"61933.63500000024","","","instructions","587","2500458","0.0-587.0","1ng3vcfh","[{""page_index"":0,""viewing_time"":59489.15500000026},{""page_index"":1,""viewing_time"":1478.0849999999627},{""page_index"":2,""viewing_time"":966.1549999997951}]","","","","",""
"2790","","","instructions","588","2503248","0.0-588.0","1ng3vcfh","[{""page_index"":0,""viewing_time"":1208.9550000000745},{""page_index"":1,""viewing_time"":939.9849999998696},{""page_index"":2,""viewing_time"":640.9599999999627}]","","","","",""
"","","","call-function","589","2503249","0.0-589.0","1ng3vcfh","","","","","",""
"null","","","video-keyboard-response","590","2506354","0.0-590.0","1ng3vcfh","","","","null","Agent A","STIM_SET_1_REAL/1593041.bmp_pp58_L1_V1.0_scrambled_freeview_isoFalse_fps144.mp4"
"","","","call-function","591","2506355","0.0-591.0","1ng3vcfh","","","","","",""
"1799.8400000003166","{""pre-1"":1}","[0]","survey-likert","592","2508156","0.0-592.0","1ng3vcfh","","","","","",""
"1663.9599999999627","{""pre-2"":1}","[0]","survey-likert","593","2509821","0.0-593.0","1ng3vcfh","","","","","",""
"2338.1450000000186","{""pre-3"":1}","[0]","survey-likert","594","2512160","0.0-594.0","1ng3vcfh","","","","","",""
"2851.9699999997392","{""post-5"":2}","[0]","survey-likert","595","2515014","0.0-595.0","1ng3vcfh","","","","","",""
"","","","call-function","596","2515015","0.0-596.0","1ng3vcfh","","","","","",""
"null","","","video-keyboard-response","597","2518089","0.0-597.0","1ng3vcfh","","","","null","Agent A","STIM_SET_1_REAL/713593.bmp_pp64_L1_V1.0_veridical_freeview_isoFalse_fps144.mp4"
"","","","call-function","598","2518090","0.0-598.0","1ng3vcfh","","","","","",""
"2936.4050000002608","{""pre-1"":2}","[0]","survey-likert","599","2521027","0.0-599.0","1ng3vcfh","","","","","",""
"850.3649999997579","{""pre-2"":2}","[0]","survey-likert","600","2521879","0.0-600.0","1ng3vcfh","","","","","",""
"1178.6900000004098","{""pre-3"":2}","[0]","survey-likert","601","2523059","0.0-601.0","1ng3vcfh","","","","","",""
"1235.8850000002421","{""post-5"":1}","[0]","survey-likert","602","2524296","0.0-602.0","1ng3vcfh","","","","","",""
"","","","call-function","603","2524296","0.0-603.0","1ng3vcfh","","","","","",""
"null","","","video-keyboard-response","604","2527390","0.0-604.0","1ng3vcfh","","","","null","Agent A","STIM_SET_1_REAL/1160127.bmp_pp90_L2_V1.0_veridical_freeview_isoFalse_fps144.mp4"
"","","","call-function","605","2527391","0.0-605.0","1ng3vcfh","","","","","",""
"2297.0800000000745","{""pre-1"":2}","[0]","survey-likert","606","2529690","0.0-606.0","1ng3vcfh","","","","","",""
"971.0449999999255","{""pre-2"":2}","[0]","survey-likert","607","2530662","0.0-607.0","1ng3vcfh","","","","","",""
"1645.7900000000373","{""pre-3"":2}","[0]","survey-likert","608","2532308","0.0-608.0","1ng3vcfh","","","","","",""
"1136.089999999851","{""post-5"":1}","[0]","survey-likert","609","2533446","0.0-609.0","1ng3vcfh","","","","","",""
"","","","call-function","610","2533446","0.0-610.0","1ng3vcfh","","","","","",""
"null","","","video-keyboard-response","611","2536539","0.0-611.0","1ng3vcfh","","","","null","Agent A","STIM_SET_1_REAL/1592807.bmp_pp68_L1_V1.0_veridical_freeview_isoFalse_fps144.mp4"
"","","","call-function","612","2536539","0.0-612.0","1ng3vcfh","","","","","",""
"1863.7150000003166","{""pre-1"":2}","[0]","survey-likert","613","2538405","0.0-613.0","1ng3vcfh","","","","","",""
"1714.4500000001863","{""pre-2"":2}","[0]","survey-likert","614","2540120","0.0-614.0","1ng3vcfh","","","","","",""
"1198.5400000000373","{""pre-3"":2}","[0]","survey-likert","615","2541320","0.0-615.0","1ng3vcfh","","","","","",""
"1917.7549999998882","{""post-5"":1}","[0]","survey-likert","616","2543239","0.0-616.0","1ng3vcfh","","","","","",""
"","","","call-function","617","2543239","0.0-617.0","1ng3vcfh","","","","","",""
"null","","","video-keyboard-response","618","2546311","0.0-618.0","1ng3vcfh","","","","null","Agent A","STIM_SET_1_REAL/1159572.bmp_pp71_L1_V1.0_veridical_freeview_isoFalse_fps144.mp4"
"","","","call-function","619","2546312","0.0-619.0","1ng3vcfh","","","","","",""
"3261.135000000242","{""pre-1"":2}","[0]","survey-likert","620","2549574","0.0-620.0","1ng3vcfh","","","","","",""
"1775.8549999999814","{""pre-2"":2}","[0]","survey-likert","621","2551351","0.0-621.0","1ng3vcfh","","","","","",""
"832.9300000001676","{""pre-3"":2}","[0]","survey-likert","622","2552185","0.0-622.0","1ng3vcfh","","","","","",""
"4171.345000000205","{""post-5"":1}","[0]","survey-likert","623","2556357","0.0-623.0","1ng3vcfh","","","","","",""
"","","","call-function","624","2556358","0.0-624.0","1ng3vcfh","","","","","",""
"null","","","video-keyboard-response","625","2559477","0.0-625.0","1ng3vcfh","","","","null","Agent A","STIM_SET_1_REAL/713513.bmp_pp62_L2_V1.0_scrambled_freeview_isoFalse_fps144.mp4"
"","","","call-function","626","2559477","0.0-626.0","1ng3vcfh","","","","","",""
"31907.96499999985","{""pre-1"":2}","[0]","survey-likert","627","2591386","0.0-627.0","1ng3vcfh","","","","","",""
"1711.320000000298","{""pre-2"":2}","[0]","survey-likert","628","2593099","0.0-628.0","1ng3vcfh","","","","","",""
"1619.679999999702","{""pre-3"":2}","[0]","survey-likert","629","2594720","0.0-629.0","1ng3vcfh","","","","","",""
"2195.774999999907","{""post-5"":1}","[0]","survey-likert","630","2596917","0.0-630.0","1ng3vcfh","","","","","",""
"","","","call-function","631","2596917","0.0-631.0","1ng3vcfh","","","","","",""
"null","","","video-keyboard-response","632","2600022","0.0-632.0","1ng3vcfh","","","","null","Agent A","STIM_SET_1_REAL/1159777.bmp_pp77_L3_V1.0_scrambled_freeview_isoFalse_fps144.mp4"
"","","","call-function","633","2600022","0.0-633.0","1ng3vcfh","","","","","",""
"3236.7999999998137","{""pre-1"":1}","[0]","survey-likert","634","2603261","0.0-634.0","1ng3vcfh","","","","","",""
"2289.475000000093","{""pre-2"":2}","[0]","survey-likert","635","2605552","0.0-635.0","1ng3vcfh","","","","","",""
"3490.0750000001863","{""pre-3"":1}","[0]","survey-likert","636","2609044","0.0-636.0","1ng3vcfh","","","","","",""
"2875.5849999999627","{""post-5"":2}","[0]","survey-likert","637","2611921","0.0-637.0","1ng3vcfh","","","","","",""
"","","","call-function","638","2611922","0.0-638.0","1ng3vcfh","","","","","",""
"null","","","video-keyboard-response","639","2614994","0.0-639.0","1ng3vcfh","","","","null","Agent A","STIM_SET_1_REAL/498149.bmp_pp99_L2_V1.0_veridical_freeview_isoFalse_fps144.mp4"
"","","","call-function","640","2614995","0.0-640.0","1ng3vcfh","","","","","",""
"5836.055000000168","{""pre-1"":2}","[0]","survey-likert","641","2620832","0.0-641.0","1ng3vcfh","","","","","",""
"1584.970000000205","{""pre-2"":2}","[0]","survey-likert","642","2622418","0.0-642.0","1ng3vcfh","","","","","",""
"2763.6650000000373","{""pre-3"":2}","[0]","survey-likert","643","2625183","0.0-643.0","1ng3vcfh","","","","","",""
"2666.885000000242","{""post-5"":1}","[0]","survey-likert","644","2627851","0.0-644.0","1ng3vcfh","","","","","",""
"","","","call-function","645","2627852","0.0-645.0","1ng3vcfh","","","","","",""
"null","","","video-keyboard-response","646","2630922","0.0-646.0","1ng3vcfh","","","","null","Agent A","STIM_SET_1_REAL/713681.bmp_pp86_L2_V1.0_scrambled_freeview_isoFalse_fps144.mp4"
"","","","call-function","647","2630922","0.0-647.0","1ng3vcfh","","","","","",""
"2313.875","{""pre-1"":1}","[0]","survey-likert","648","2633237","0.0-648.0","1ng3vcfh","","","","","",""
"1231.9550000000745","{""pre-2"":1}","[0]","survey-likert","649","2634470","0.0-649.0","1ng3vcfh","","","","","",""
"2197.0749999997206","{""pre-3"":1}","[0]","survey-likert","650","2636668","0.0-650.0","1ng3vcfh","","","","","",""
"1788.7549999998882","{""post-5"":2}","[0]","survey-likert","651","2638458","0.0-651.0","1ng3vcfh","","","","","",""
"","","","call-function","652","2638458","0.0-652.0","1ng3vcfh","","","","","",""
"null","","","video-keyboard-response","653","2641550","0.0-653.0","1ng3vcfh","","","","null","Agent A","STIM_SET_1_REAL/713666.bmp_pp97_L3_V1.0_veridical_freeview_isoFalse_fps144.mp4"
"","","","call-function","654","2641551","0.0-654.0","1ng3vcfh","","","","","",""
"74107.16500000004","{""pre-1"":2}","[0]","survey-likert","655","2715659","0.0-655.0","1ng3vcfh","","","","","",""
"1922.9399999999441","{""pre-2"":2}","[0]","survey-likert","656","2717583","0.0-656.0","1ng3vcfh","","","","","",""
"924.8899999996647","{""pre-3"":2}","[0]","survey-likert","657","2718509","0.0-657.0","1ng3vcfh","","","","","",""
"1257.8549999999814","{""post-5"":1}","[0]","survey-likert","658","2719768","0.0-658.0","1ng3vcfh","","","","","",""
"","","","call-function","659","2719768","0.0-659.0","1ng3vcfh","","","","","",""
"null","","","video-keyboard-response","660","2722854","0.0-660.0","1ng3vcfh","","","","null","Agent A","STIM_SET_1_REAL/1159515.bmp_pp84_L3_V1.0_veridical_freeview_isoFalse_fps144.mp4"
"","","","call-function","661","2722854","0.0-661.0","1ng3vcfh","","","","","",""
"2010.4499999997206","{""pre-1"":2}","[0]","survey-likert","662","2724866","0.0-662.0","1ng3vcfh","","","","","",""
"1872.154999999795","{""pre-2"":2}","[0]","survey-likert","663","2726739","0.0-663.0","1ng3vcfh","","","","","",""
"1297.9549999996088","{""pre-3"":2}","[0]","survey-likert","664","2728038","0.0-664.0","1ng3vcfh","","","","","",""
"3144.9950000001118","{""post-5"":0}","[0]","survey-likert","665","2731184","0.0-665.0","1ng3vcfh","","","","","",""
"","","","call-function","666","2731184","0.0-666.0","1ng3vcfh","","","","","",""
"null","","","video-keyboard-response","667","2734280","0.0-667.0","1ng3vcfh","","","","null","Agent A","STIM_SET_1_REAL/1159768.bmp_pp89_L1_V1.0_scrambled_freeview_isoFalse_fps144.mp4"
"","","","call-function","668","2734282","0.0-668.0","1ng3vcfh","","","","","",""
"7568.354999999981","{""pre-1"":1}","[0]","survey-likert","669","2741852","0.0-669.0","1ng3vcfh","","","","","",""
"17948.924999999814","{""pre-2"":1}","[0]","survey-likert","670","2759802","0.0-670.0","1ng3vcfh","","","","","",""
"3301.6450000000186","{""pre-3"":1}","[0]","survey-likert","671","2763105","0.0-671.0","1ng3vcfh","","","","","",""
"4960.520000000019","{""post-5"":1}","[0]","survey-likert","672","2768067","0.0-672.0","1ng3vcfh","","","","","",""
"","","","call-function","673","2768067","0.0-673.0","1ng3vcfh","","","","","",""
"null","","","video-keyboard-response","674","2771181","0.0-674.0","1ng3vcfh","","","","null","Agent A","STIM_SET_1_REAL/1591954.bmp_pp62_L2_V1.0_veridical_freeview_isoFalse_fps144.mp4"
"","","","call-function","675","2771182","0.0-675.0","1ng3vcfh","","","","","",""
"10905.520000000019","{""pre-1"":2}","[0]","survey-likert","676","2782088","0.0-676.0","1ng3vcfh","","","","","",""
"758.9700000002049","{""pre-2"":2}","[0]","survey-likert","677","2782849","0.0-677.0","1ng3vcfh","","","","","",""
"1312.7900000000373","{""pre-3"":2}","[0]","survey-likert","678","2784164","0.0-678.0","1ng3vcfh","","","","","",""
"1395.2400000002235","{""post-5"":1}","[0]","survey-likert","679","2785560","0.0-679.0","1ng3vcfh","","","","","",""
"","","","call-function","680","2785560","0.0-680.0","1ng3vcfh","","","","","",""
"null","","","video-keyboard-response","681","2788637","0.0-681.0","1ng3vcfh","","","","null","Agent A","STIM_SET_1_REAL/713684.bmp_pp85_L3_V1.0_scrambled_freeview_isoFalse_fps144.mp4"
"","","","call-function","682","2788637","0.0-682.0","1ng3vcfh","","","","","",""
"1699.6699999999255","{""pre-1"":1}","[0]","survey-likert","683","2790338","0.0-683.0","1ng3vcfh","","","","","",""
"1811.880000000354","{""pre-2"":1}","[0]","survey-likert","684","2792151","0.0-684.0","1ng3vcfh","","","","","",""
"1170.654999999795","{""pre-3"":1}","[0]","survey-likert","685","2793323","0.0-685.0","1ng3vcfh","","","","","",""
"3312.25","{""post-5"":2}","[0]","survey-likert","686","2796636","0.0-686.0","1ng3vcfh","","","","","",""
"","","","call-function","687","2796637","0.0-687.0","1ng3vcfh","","","","","",""
"null","","","video-keyboard-response","688","2799728","0.0-688.0","1ng3vcfh","","","","null","Agent A","STIM_SET_1_REAL/1593146.bmp_pp93_L1_V1.0_scrambled_freeview_isoFalse_fps144.mp4"
"","","","call-function","689","2799729","0.0-689.0","1ng3vcfh","","","","","",""
"13476.939999999944","{""pre-1"":1}","[0]","survey-likert","690","2813207","0.0-690.0","1ng3vcfh","","","","","",""
"2916.1450000000186","{""pre-2"":1}","[0]","survey-likert","691","2816126","0.0-691.0","1ng3vcfh","","","","","",""
"2607.904999999795","{""pre-3"":1}","[0]","survey-likert","692","2818736","0.0-692.0","1ng3vcfh","","","","","",""
"2748.6749999998137","{""post-5"":1}","[0]","survey-likert","693","2821486","0.0-693.0","1ng3vcfh","","","","","",""
"","","","call-function","694","2821487","0.0-694.0","1ng3vcfh","","","","","",""
"null","","","video-keyboard-response","695","2824567","0.0-695.0","1ng3vcfh","","","","null","Agent A","STIM_SET_1_REAL/1592351.bmp_pp51_L1_V1.0_scrambled_freeview_isoFalse_fps144.mp4"
"","","","call-function","696","2824567","0.0-696.0","1ng3vcfh","","","","","",""
"3108.820000000298","{""pre-1"":2}","[0]","survey-likert","697","2827677","0.0-697.0","1ng3vcfh","","","","","",""
"1996.7900000000373","{""pre-2"":2}","[0]","survey-likert","698","2829675","0.0-698.0","1ng3vcfh","","","","","",""
"2017.7299999999814","{""pre-3"":2}","[0]","survey-likert","699","2831694","0.0-699.0","1ng3vcfh","","","","","",""
"4496.625","{""post-5"":1}","[0]","survey-likert","700","2836192","0.0-700.0","1ng3vcfh","","","","","",""
"","","","call-function","701","2836193","0.0-701.0","1ng3vcfh","","","","","",""
"null","","","video-keyboard-response","702","2839301","0.0-702.0","1ng3vcfh","","","","null","Agent A","STIM_SET_1_REAL/1159855.bmp_pp99_L2_V1.0_veridical_freeview_isoFalse_fps144.mp4"
"","","","call-function","703","2839302","0.0-703.0","1ng3vcfh","","","","","",""
"4614.5099999997765","{""pre-1"":2}","[0]","survey-likert","704","2843917","0.0-704.0","1ng3vcfh","","","","","",""
"1610.9850000003353","{""pre-2"":2}","[0]","survey-likert","705","2845529","0.0-705.0","1ng3vcfh","","","","","",""
"2047.7099999999627","{""pre-3"":2}","[0]","survey-likert","706","2847578","0.0-706.0","1ng3vcfh","","","","","",""
"2617.214999999851","{""post-5"":1}","[0]","survey-likert","707","2850196","0.0-707.0","1ng3vcfh","","","","","",""
"","","","call-function","708","2850197","0.0-708.0","1ng3vcfh","","","","","",""
"null","","","video-keyboard-response","709","2853288","0.0-709.0","1ng3vcfh","","","","null","Agent A","STIM_SET_1_REAL/713620.bmp_pp65_L3_V1.0_veridical_freeview_isoFalse_fps144.mp4"
"","","","call-function","710","2853289","0.0-710.0","1ng3vcfh","","","","","",""
"2131.345000000205","{""pre-1"":2}","[0]","survey-likert","711","2855421","0.0-711.0","1ng3vcfh","","","","","",""
"1096.8700000001118","{""pre-2"":2}","[0]","survey-likert","712","2856519","0.0-712.0","1ng3vcfh","","","","","",""
"1368.070000000298","{""pre-3"":2}","[0]","survey-likert","713","2857888","0.0-713.0","1ng3vcfh","","","","","",""
"2832.869999999646","{""post-5"":1}","[0]","survey-likert","714","2860722","0.0-714.0","1ng3vcfh","","","","","",""
"","","","call-function","715","2860723","0.0-715.0","1ng3vcfh","","","","","",""
"null","","","video-keyboard-response","716","2863813","0.0-716.0","1ng3vcfh","","","","null","Agent A","STIM_SET_1_REAL/713749.bmp_pp88_L2_V1.0_veridical_freeview_isoFalse_fps144.mp4"
"","","","call-function","717","2863815","0.0-717.0","1ng3vcfh","","","","","",""
"1571.5800000000745","{""pre-1"":2}","[0]","survey-likert","718","2865388","0.0-718.0","1ng3vcfh","","","","","",""
"2293.4950000001118","{""pre-2"":2}","[0]","survey-likert","719","2867683","0.0-719.0","1ng3vcfh","","","","","",""
"1437.535000000149","{""pre-3"":2}","[0]","survey-likert","720","2869121","0.0-720.0","1ng3vcfh","","","","","",""
"1229.9599999999627","{""post-5"":1}","[0]","survey-likert","721","2870352","0.0-721.0","1ng3vcfh","","","","","",""
"","","","call-function","722","2870353","0.0-722.0","1ng3vcfh","","","","","",""
"null","","","video-keyboard-response","723","2873445","0.0-723.0","1ng3vcfh","","","","null","Agent A","STIM_SET_1_REAL/1159675.bmp_pp77_L3_V1.0_veridical_freeview_isoFalse_fps144.mp4"
"","","","call-function","724","2873446","0.0-724.0","1ng3vcfh","","","","","",""
"7849.89000000013","{""pre-1"":2}","[0]","survey-likert","725","2881297","0.0-725.0","1ng3vcfh","","","","","",""
"4959.460000000428","{""pre-2"":2}","[0]","survey-likert","726","2886258","0.0-726.0","1ng3vcfh","","","","","",""
"8973.115000000224","{""pre-3"":2}","[0]","survey-likert","727","2895232","0.0-727.0","1ng3vcfh","","","","","",""
"3375.875","{""post-5"":1}","[0]","survey-likert","728","2898609","0.0-728.0","1ng3vcfh","","","","","",""
"13004.160000000149","","","instructions","729","2911614","0.0-729.0","1ng3vcfh","[{""page_index"":0,""viewing_time"":11169.095000000205},{""page_index"":1,""viewing_time"":1124.8549999999814},{""page_index"":2,""viewing_time"":709.9849999998696}]","","","","",""
"2436.3950000000186","","","instructions","730","2914051","0.0-730.0","1ng3vcfh","[{""page_index"":0,""viewing_time"":729.285000000149},{""page_index"":1,""viewing_time"":1083.0600000000559},{""page_index"":2,""viewing_time"":623.9449999998324}]","","","","",""
"","","","call-function","731","2914051","0.0-731.0","1ng3vcfh","","","","","",""
"null","","","video-keyboard-response","732","2917156","0.0-732.0","1ng3vcfh","","","","null","Agent A","STIM_SET_1_REAL/61537.bmp_pp73_L3_V1.0_scrambled_freeview_isoFalse_fps144.mp4"
"","","","call-function","733","2917156","0.0-733.0","1ng3vcfh","","","","","",""
"1151.7700000000186","{""pre-1"":2}","[0]","survey-likert","734","2918309","0.0-734.0","1ng3vcfh","","","","","",""
"1309.0650000004098","{""pre-2"":2}","[0]","survey-likert","735","2919619","0.0-735.0","1ng3vcfh","","","","","",""
"880.3650000002235","{""pre-3"":2}","[0]","survey-likert","736","2920501","0.0-736.0","1ng3vcfh","","","","","",""
"866.5999999996275","{""post-5"":1}","[0]","survey-likert","737","2921369","0.0-737.0","1ng3vcfh","","","","","",""
"","","","call-function","738","2921369","0.0-738.0","1ng3vcfh","","","","","",""
"null","","","video-keyboard-response","739","2924458","0.0-739.0","1ng3vcfh","","","","null","Agent A","STIM_SET_1_REAL/1592657.bmp_pp98_L1_V1.0_scrambled_freeview_isoFalse_fps144.mp4"
"","","","call-function","740","2924459","0.0-740.0","1ng3vcfh","","","","","",""
"2260.3599999998696","{""pre-1"":2}","[0]","survey-likert","741","2926720","0.0-741.0","1ng3vcfh","","","","","",""
"1373.679999999702","{""pre-2"":2}","[0]","survey-likert","742","2928095","0.0-742.0","1ng3vcfh","","","","","",""
"1655.0550000001676","{""pre-3"":2}","[0]","survey-likert","743","2929751","0.0-743.0","1ng3vcfh","","","","","",""
"2026.0250000003725","{""post-5"":1}","[0]","survey-likert","744","2931779","0.0-744.0","1ng3vcfh","","","","","",""
"","","","call-function","745","2931779","0.0-745.0","1ng3vcfh","","","","","",""
"null","","","video-keyboard-response","746","2934868","0.0-746.0","1ng3vcfh","","","","null","Agent A","STIM_SET_1_REAL/498175.bmp_pp154_L1_V1.0_scrambled_freeview_isoFalse_fps144.mp4"
"","","","call-function","747","2934868","0.0-747.0","1ng3vcfh","","","","","",""
"1668.1499999999069","{""pre-1"":2}","[0]","survey-likert","748","2936538","0.0-748.0","1ng3vcfh","","","","","",""
"938.2749999999069","{""pre-2"":2}","[0]","survey-likert","749","2937477","0.0-749.0","1ng3vcfh","","","","","",""
"2558.8700000001118","{""pre-3"":2}","[0]","survey-likert","750","2940037","0.0-750.0","1ng3vcfh","","","","","",""
"1026.839999999851","{""post-5"":1}","[0]","survey-likert","751","2941065","0.0-751.0","1ng3vcfh","","","","","",""
"","","","call-function","752","2941066","0.0-752.0","1ng3vcfh","","","","","",""
"null","","","video-keyboard-response","753","2944151","0.0-753.0","1ng3vcfh","","","","null","Agent A","STIM_SET_1_REAL/1592397.bmp_pp85_L3_V1.0_veridical_freeview_isoFalse_fps144.mp4"
"","","","call-function","754","2944152","0.0-754.0","1ng3vcfh","","","","","",""
"2580.5400000000373","{""pre-1"":2}","[0]","survey-likert","755","2946734","0.0-755.0","1ng3vcfh","","","","","",""
"1104.8149999999441","{""pre-2"":2}","[0]","survey-likert","756","2947841","0.0-756.0","1ng3vcfh","","","","","",""
"1892.6150000002235","{""pre-3"":2}","[0]","survey-likert","757","2949734","0.0-757.0","1ng3vcfh","","","","","",""
"2528.9799999999814","{""post-5"":1}","[0]","survey-likert","758","2952265","0.0-758.0","1ng3vcfh","","","","","",""
"","","","call-function","759","2952266","0.0-759.0","1ng3vcfh","","","","","",""
"null","","","video-keyboard-response","760","2955353","0.0-760.0","1ng3vcfh","","","","null","Agent A","STIM_SET_1_REAL/713707.bmp_pp154_L1_V1.0_scrambled_freeview_isoFalse_fps144.mp4"
"","","","call-function","761","2955353","0.0-761.0","1ng3vcfh","","","","","",""
"5036.179999999702","{""pre-1"":2}","[0]","survey-likert","762","2960390","0.0-762.0","1ng3vcfh","","","","","",""
"6609.814999999944","{""pre-2"":2}","[0]","survey-likert","763","2967001","0.0-763.0","1ng3vcfh","","","","","",""
"984.4350000000559","{""pre-3"":2}","[0]","survey-likert","764","2967987","0.0-764.0","1ng3vcfh","","","","","",""
"1918.8900000001304","{""post-5"":1}","[0]","survey-likert","765","2969907","0.0-765.0","1ng3vcfh","","","","","",""
"","","","call-function","766","2969908","0.0-766.0","1ng3vcfh","","","","","",""
"null","","","video-keyboard-response","767","2972987","0.0-767.0","1ng3vcfh","","","","null","Agent A","STIM_SET_1_REAL/1593146.bmp_pp93_L1_V1.0_veridical_freeview_isoFalse_fps144.mp4"
"","","","call-function","768","2972987","0.0-768.0","1ng3vcfh","","","","","",""
"2007.1299999998882","{""pre-1"":2}","[0]","survey-likert","769","2974995","0.0-769.0","1ng3vcfh","","","","","",""
"1785.8499999996275","{""pre-2"":2}","[0]","survey-likert","770","2976782","0.0-770.0","1ng3vcfh","","","","","",""
"1375.4750000000931","{""pre-3"":2}","[0]","survey-likert","771","2978159","0.0-771.0","1ng3vcfh","","","","","",""
"2420.2249999996275","{""post-5"":1}","[0]","survey-likert","772","2980580","0.0-772.0","1ng3vcfh","","","","","",""
"","","","call-function","773","2980581","0.0-773.0","1ng3vcfh","","","","","",""
"null","","","video-keyboard-response","774","2983666","0.0-774.0","1ng3vcfh","","","","null","Agent A","STIM_SET_1_REAL/1160168.bmp_pp53_L2_V1.0_scrambled_freeview_isoFalse_fps144.mp4"
"","","","call-function","775","2983666","0.0-775.0","1ng3vcfh","","","","","",""
"1736.1699999999255","{""pre-1"":2}","[0]","survey-likert","776","2985403","0.0-776.0","1ng3vcfh","","","","","",""
"1902.9399999999441","{""pre-2"":2}","[0]","survey-likert","777","2987307","0.0-777.0","1ng3vcfh","","","","","",""
"2219.5","{""pre-3"":2}","[0]","survey-likert","778","2989528","0.0-778.0","1ng3vcfh","","","","","",""
"17420.990000000224","{""post-5"":1}","[0]","survey-likert","779","3006950","0.0-779.0","1ng3vcfh","","","","","",""
"","","","call-function","780","3006951","0.0-780.0","1ng3vcfh","","","","","",""
"null","","","video-keyboard-response","781","3010058","0.0-781.0","1ng3vcfh","","","","null","Agent A","STIM_SET_1_REAL/1159675.bmp_pp77_L3_V1.0_scrambled_freeview_isoFalse_fps144.mp4"
"","","","call-function","782","3010059","0.0-782.0","1ng3vcfh","","","","","",""
"1618.4550000000745","{""pre-1"":2}","[0]","survey-likert","783","3011678","0.0-783.0","1ng3vcfh","","","","","",""
"2101.3950000000186","{""pre-2"":2}","[0]","survey-likert","784","3013781","0.0-784.0","1ng3vcfh","","","","","",""
"1472.6450000000186","{""pre-3"":2}","[0]","survey-likert","785","3015254","0.0-785.0","1ng3vcfh","","","","","",""
"1149.9599999999627","{""post-5"":1}","[0]","survey-likert","786","3016405","0.0-786.0","1ng3vcfh","","","","","",""
"","","","call-function","787","3016406","0.0-787.0","1ng3vcfh","","","","","",""
"null","","","video-keyboard-response","788","3019484","0.0-788.0","1ng3vcfh","","","","null","Agent A","STIM_SET_1_REAL/713666.bmp_pp97_L3_V1.0_scrambled_freeview_isoFalse_fps144.mp4"
"","","","call-function","789","3019486","0.0-789.0","1ng3vcfh","","","","","",""
"1975.5849999999627","{""pre-1"":2}","[0]","survey-likert","790","3021463","0.0-790.0","1ng3vcfh","","","","","",""
"1642.6049999999814","{""pre-2"":2}","[0]","survey-likert","791","3023107","0.0-791.0","1ng3vcfh","","","","","",""
"1208.8349999999627","{""pre-3"":2}","[0]","survey-likert","792","3024318","0.0-792.0","1ng3vcfh","","","","","",""
"1352.464999999851","{""post-5"":1}","[0]","survey-likert","793","3025673","0.0-793.0","1ng3vcfh","","","","","",""
"","","","call-function","794","3025674","0.0-794.0","1ng3vcfh","","","","","",""
"null","","","video-keyboard-response","795","3028762","0.0-795.0","1ng3vcfh","","","","null","Agent A","STIM_SET_1_REAL/285905.bmp_pp57_L1_V1.0_veridical_freeview_isoFalse_fps144.mp4"
"","","","call-function","796","3028763","0.0-796.0","1ng3vcfh","","","","","",""
"2250.989999999758","{""pre-1"":1}","[0]","survey-likert","797","3031015","0.0-797.0","1ng3vcfh","","","","","",""
"1566.5750000001863","{""pre-2"":2}","[0]","survey-likert","798","3032583","0.0-798.0","1ng3vcfh","","","","","",""
"2124.339999999851","{""pre-3"":1}","[0]","survey-likert","799","3034708","0.0-799.0","1ng3vcfh","","","","","",""
"4387.979999999981","{""post-5"":1}","[0]","survey-likert","800","3039098","0.0-800.0","1ng3vcfh","","","","","",""
"","","","call-function","801","3039098","0.0-801.0","1ng3vcfh","","","","","",""
"null","","","video-keyboard-response","802","3042174","0.0-802.0","1ng3vcfh","","","","null","Agent A","STIM_SET_1_REAL/1591876.bmp_pp63_L1_V1.0_scrambled_freeview_isoFalse_fps144.mp4"
"","","","call-function","803","3042175","0.0-803.0","1ng3vcfh","","","","","",""
"1665.3250000001863","{""pre-1"":2}","[0]","survey-likert","804","3043841","0.0-804.0","1ng3vcfh","","","","","",""
"903.7350000003353","{""pre-2"":2}","[0]","survey-likert","805","3044746","0.0-805.0","1ng3vcfh","","","","","",""
"1606.035000000149","{""pre-3"":2}","[0]","survey-likert","806","3046353","0.0-806.0","1ng3vcfh","","","","","",""
"1033.7800000002608","{""post-5"":1}","[0]","survey-likert","807","3047388","0.0-807.0","1ng3vcfh","","","","","",""
"","","","call-function","808","3047389","0.0-808.0","1ng3vcfh","","","","","",""
"null","","","video-keyboard-response","809","3050452","0.0-809.0","1ng3vcfh","","","","null","Agent A","STIM_SET_1_REAL/285994.bmp_pp92_L3_V1.0_scrambled_freeview_isoFalse_fps144.mp4"
"","","","call-function","810","3050452","0.0-810.0","1ng3vcfh","","","","","",""
"27972.255000000354","{""pre-1"":2}","[0]","survey-likert","811","3078426","0.0-811.0","1ng3vcfh","","","","","",""
"1488.7549999998882","{""pre-2"":2}","[0]","survey-likert","812","3079916","0.0-812.0","1ng3vcfh","","","","","",""
"1014.6749999998137","{""pre-3"":2}","[0]","survey-likert","813","3080932","0.0-813.0","1ng3vcfh","","","","","",""
"1343.7999999998137","{""post-5"":1}","[0]","survey-likert","814","3082277","0.0-814.0","1ng3vcfh","","","","","",""
"","","","call-function","815","3082278","0.0-815.0","1ng3vcfh","","","","","",""
"null","","","video-keyboard-response","816","3085357","0.0-816.0","1ng3vcfh","","","","null","Agent A","STIM_SET_1_REAL/498253.bmp_pp67_L2_V1.0_veridical_freeview_isoFalse_fps144.mp4"
"","","","call-function","817","3085357","0.0-817.0","1ng3vcfh","","","","","",""
"2901.1099999998696","{""pre-1"":2}","[0]","survey-likert","818","3088259","0.0-818.0","1ng3vcfh","","","","","",""
"961.0049999998882","{""pre-2"":2}","[0]","survey-likert","819","3089221","0.0-819.0","1ng3vcfh","","","","","",""
"1404.0099999997765","{""pre-3"":2}","[0]","survey-likert","820","3090627","0.0-820.0","1ng3vcfh","","","","","",""
"1262.2700000000186","{""post-5"":1}","[0]","survey-likert","821","3091890","0.0-821.0","1ng3vcfh","","","","","",""
"","","","call-function","822","3091890","0.0-822.0","1ng3vcfh","","","","","",""
"null","","","video-keyboard-response","823","3094977","0.0-823.0","1ng3vcfh","","","","null","Agent A","STIM_SET_1_REAL/498155.bmp_pp61_L2_V1.0_scrambled_freeview_isoFalse_fps144.mp4"
"","","","call-function","824","3094978","0.0-824.0","1ng3vcfh","","","","","",""
"1861.1299999998882","{""pre-1"":2}","[0]","survey-likert","825","3096840","0.0-825.0","1ng3vcfh","","","","","",""
"4980.910000000149","{""pre-2"":2}","[0]","survey-likert","826","3101822","0.0-826.0","1ng3vcfh","","","","","",""
"2448.6699999999255","{""pre-3"":2}","[0]","survey-likert","827","3104272","0.0-827.0","1ng3vcfh","","","","","",""
"2355.489999999758","{""post-5"":0}","[0]","survey-likert","828","3106630","0.0-828.0","1ng3vcfh","","","","","",""
"","","","call-function","829","3106631","0.0-829.0","1ng3vcfh","","","","","",""
"null","","","video-keyboard-response","830","3109718","0.0-830.0","1ng3vcfh","","","","null","Agent A","STIM_SET_1_REAL/498111.bmp_pp88_L2_V1.0_veridical_freeview_isoFalse_fps144.mp4"
"","","","call-function","831","3109718","0.0-831.0","1ng3vcfh","","","","","",""
"9443.620000000112","{""pre-1"":2}","[0]","survey-likert","832","3119163","0.0-832.0","1ng3vcfh","","","","","",""
"1114.2450000001118","{""pre-2"":2}","[0]","survey-likert","833","3120279","0.0-833.0","1ng3vcfh","","","","","",""
"981.3149999999441","{""pre-3"":2}","[0]","survey-likert","834","3121262","0.0-834.0","1ng3vcfh","","","","","",""
"1279.154999999795","{""post-5"":1}","[0]","survey-likert","835","3122542","0.0-835.0","1ng3vcfh","","","","","",""
