"rt","responses","question_order","trial_type","trial_index","time_elapsed","internal_node_id","ID","view_history","value","stimulus","key_press","agent","image"
"19558.16","{""Experimenter"":[""Confirmed subject's identity (ID card)"",""Confirmed normal or corrected-to-normal vision"",""Obtained consent (signature and date)"",""Checked the test room lighting"",""Checked computer screen lighting"",""Checked distance from screen to chin rest (50cm)"",""Cleaned and adjusted chin rest"",""Counterbalanced the order of the tasks"",""Opened the experiment in Firefox"",""Made the experiment full screen"",""Encouraged subject to silence phone, put away distractors, etc.""]}","[0]","survey-multi-select","0","19566","0.0-0.0","41n0m09v","","","","","",""
"64844.284999999996","","","instructions","1","84412","0.0-1.0","41n0m09v","[{""page_index"":0,""viewing_time"":64843.745}]","","","","",""
"15073.625","{""Age"":0,""Sex"":1,""Gender"":1}","[0,1,2]","survey-likert","2","99489","0.0-2.0","41n0m09v","","","","","",""
"1208.7400000000052","","","instructions","3","100698","0.0-3.0","41n0m09v","[{""page_index"":0,""viewing_time"":1208.6399999999994}]","","","","",""
"5418.220000000001","","","instructions","4","106117","0.0-4.0","41n0m09v","[{""page_index"":0,""viewing_time"":3909.6350000000093},{""page_index"":1,""viewing_time"":1508.020000000004}]","","","","",""
"8049.830000000002","","","instructions","5","114168","0.0-5.0","41n0m09v","[{""page_index"":0,""viewing_time"":1721.9850000000006},{""page_index"":1,""viewing_time"":2698.824999999997},{""page_index"":2,""viewing_time"":3628.9050000000134}]","","","","",""
"2635.170000000013","","","instructions","6","116804","0.0-6.0","41n0m09v","[{""page_index"":0,""viewing_time"":2635.070000000007}]","","","","",""
"","","","call-function","7","116805","0.0-7.0","41n0m09v","","","","","",""
"null","","","video-keyboard-response","8","119956","0.0-8.0","41n0m09v","","","","null","",""
"","","","call-function","9","119956","0.0-9.0","41n0m09v","","","","","",""
"7287.530000000013","","","instructions","10","127244","0.0-10.0","41n0m09v","[{""page_index"":0,""viewing_time"":2301},{""page_index"":1,""viewing_time"":1554.0550000000076},{""page_index"":2,""viewing_time"":964.9649999999965},{""page_index"":3,""viewing_time"":2467.4000000000087}]","","","","",""
"712.4400000000023","","","instructions","11","127957","0.0-11.0","41n0m09v","[{""page_index"":0,""viewing_time"":712.3250000000116}]","","","","",""
"","","","call-function","12","127958","0.0-12.0","41n0m09v","","","","","",""
"null","","","video-keyboard-response","13","131031","0.0-13.0","41n0m09v","","","","null","",""
"","","","call-function","14","131032","0.0-14.0","41n0m09v","","","","","",""
"11355.459999999992","{""pre-1"":0}","[0]","survey-likert","15","142389","0.0-15.0","41n0m09v","","","","","",""
"4581.764999999985","{""pre-2"":1}","[0]","survey-likert","16","146971","0.0-16.0","41n0m09v","","","","","",""
"6507.7699999999895","{""pre-3"":1}","[0]","survey-likert","17","153480","0.0-17.0","41n0m09v","","","","","",""
"2379.100000000006","{""post-5"":2}","[0]","survey-likert","18","155860","0.0-18.0","41n0m09v","","","","","",""
"847.4900000000198","","","instructions","19","156708","0.0-19.0","41n0m09v","[{""page_index"":0,""viewing_time"":847.2800000000279}]","","","","",""
"3769.4949999999953","","","instructions","20","160478","0.0-20.0","41n0m09v","[{""page_index"":0,""viewing_time"":3769.3549999999814}]","","","","",""
"","","","call-function","21","160480","0.0-21.0","41n0m09v","","","","","",""
"null","","","video-keyboard-response","22","163577","0.0-22.0","41n0m09v","","","","null","Agent A","STIM_SET_1_REAL/285751.bmp_pp55_L3_V1.0_veridical_freeview_isoFalse_fps144.mp4"
"","","","call-function","23","163577","0.0-23.0","41n0m09v","","","","","",""
"6121.565000000002","{""pre-1"":0}","[0]","survey-likert","24","169700","0.0-24.0","41n0m09v","","","","","",""
"4387.609999999986","{""pre-2"":2}","[0]","survey-likert","25","174089","0.0-25.0","41n0m09v","","","","","",""
"3411.475000000006","{""pre-3"":1}","[0]","survey-likert","26","177501","0.0-26.0","41n0m09v","","","","","",""
"5265.3550000000105","{""post-5"":2}","[0]","survey-likert","27","182768","0.0-27.0","41n0m09v","","","","","",""
"","","","call-function","28","182768","0.0-28.0","41n0m09v","","","","","",""
"null","","","video-keyboard-response","29","187199","0.0-29.0","41n0m09v","","","","null","Agent A","STIM_SET_1_REAL/1159440.bmp_pp98_L1_V1.0_scrambled_freeview_isoFalse_fps144.mp4"
"","","","call-function","30","187199","0.0-30.0","41n0m09v","","","","","",""
"3607.4499999999825","{""pre-1"":1}","[0]","survey-likert","31","190808","0.0-31.0","41n0m09v","","","","","",""
"4932.790000000008","{""pre-2"":1}","[0]","survey-likert","32","195742","0.0-32.0","41n0m09v","","","","","",""
"5573.804999999993","{""pre-3"":1}","[0]","survey-likert","33","201318","0.0-33.0","41n0m09v","","","","","",""
"4674.960000000021","{""post-5"":1}","[0]","survey-likert","34","205995","0.0-34.0","41n0m09v","","","","","",""
"","","","call-function","35","205996","0.0-35.0","41n0m09v","","","","","",""
"null","","","video-keyboard-response","36","209077","0.0-36.0","41n0m09v","","","","null","Agent A","STIM_SET_1_REAL/497950.bmp_pp151_L1_V1.0_veridical_freeview_isoFalse_fps144.mp4"
"","","","call-function","37","209078","0.0-37.0","41n0m09v","","","","","",""
"24094.380000000005","{""pre-1"":2}","[0]","survey-likert","38","233173","0.0-38.0","41n0m09v","","","","","",""
"3576.2449999999953","{""pre-2"":1}","[0]","survey-likert","39","236751","0.0-39.0","41n0m09v","","","","","",""
"4109.869999999995","{""pre-3"":1}","[0]","survey-likert","40","240863","0.0-40.0","41n0m09v","","","","","",""
"3582.225000000006","{""post-5"":1}","[0]","survey-likert","41","244447","0.0-41.0","41n0m09v","","","","","",""
"","","","call-function","42","244447","0.0-42.0","41n0m09v","","","","","",""
"null","","","video-keyboard-response","43","247535","0.0-43.0","41n0m09v","","","","null","Agent A","STIM_SET_1_REAL/713684.bmp_pp85_L3_V1.0_veridical_freeview_isoFalse_fps144.mp4"
"","","","call-function","44","247536","0.0-44.0","41n0m09v","","","","","",""
"4499.560000000027","{""pre-1"":1}","[0]","survey-likert","45","252036","0.0-45.0","41n0m09v","","","","","",""
"2880.975000000006","{""pre-2"":1}","[0]","survey-likert","46","254918","0.0-46.0","41n0m09v","","","","","",""
"5248.059999999998","{""pre-3"":1}","[0]","survey-likert","47","260167","0.0-47.0","41n0m09v","","","","","",""
"4973.150000000023","{""post-5"":2}","[0]","survey-likert","48","265141","0.0-48.0","41n0m09v","","","","","",""
"","","","call-function","49","265142","0.0-49.0","41n0m09v","","","","","",""
"null","","","video-keyboard-response","50","268227","0.0-50.0","41n0m09v","","","","null","Agent A","STIM_SET_1_REAL/1159515.bmp_pp84_L3_V1.0_veridical_freeview_isoFalse_fps144.mp4"
"","","","call-function","51","268227","0.0-51.0","41n0m09v","","","","","",""
"3279.0800000000163","{""pre-1"":2}","[0]","survey-likert","52","271507","0.0-52.0","41n0m09v","","","","","",""
"3131.8950000000186","{""pre-2"":1}","[0]","survey-likert","53","274640","0.0-53.0","41n0m09v","","","","","",""
"6042.304999999993","{""pre-3"":1}","[0]","survey-likert","54","280684","0.0-54.0","41n0m09v","","","","","",""
"2761.4150000000373","{""post-5"":1}","[0]","survey-likert","55","283447","0.0-55.0","41n0m09v","","","","","",""
"","","","call-function","56","283448","0.0-56.0","41n0m09v","","","","","",""
"null","","","video-keyboard-response","57","286547","0.0-57.0","41n0m09v","","","","null","Agent A","STIM_SET_1_REAL/1592657.bmp_pp98_L1_V1.0_scrambled_freeview_isoFalse_fps144.mp4"
"","","","call-function","58","286548","0.0-58.0","41n0m09v","","","","","",""
"11470.195000000007","{""pre-1"":1}","[0]","survey-likert","59","298019","0.0-59.0","41n0m09v","","","","","",""
"5188.524999999965","{""pre-2"":1}","[0]","survey-likert","60","303209","0.0-60.0","41n0m09v","","","","","",""
"7405.539999999979","{""pre-3"":2}","[0]","survey-likert","61","310615","0.0-61.0","41n0m09v","","","","","",""
"3589.445000000007","{""post-5"":0}","[0]","survey-likert","62","314206","0.0-62.0","41n0m09v","","","","","",""
"","","","call-function","63","314207","0.0-63.0","41n0m09v","","","","","",""
"null","","","video-keyboard-response","64","317300","0.0-64.0","41n0m09v","","","","null","Agent A","STIM_SET_1_REAL/1592499.bmp_pp96_L2_V1.0_veridical_freeview_isoFalse_fps144.mp4"
"","","","call-function","65","317300","0.0-65.0","41n0m09v","","","","","",""
"4319.399999999965","{""pre-1"":1}","[0]","survey-likert","66","321621","0.0-66.0","41n0m09v","","","","","",""
"3698.5250000000233","{""pre-2"":0}","[0]","survey-likert","67","325321","0.0-67.0","41n0m09v","","","","","",""
"3487.0100000000093","{""pre-3"":1}","[0]","survey-likert","68","328809","0.0-68.0","41n0m09v","","","","","",""
"5061.714999999967","{""post-5"":1}","[0]","survey-likert","69","333872","0.0-69.0","41n0m09v","","","","","",""
"","","","call-function","70","333872","0.0-70.0","41n0m09v","","","","","",""
"null","","","video-keyboard-response","71","336969","0.0-71.0","41n0m09v","","","","null","Agent A","STIM_SET_1_REAL/498155.bmp_pp61_L2_V1.0_scrambled_freeview_isoFalse_fps144.mp4"
"","","","call-function","72","336970","0.0-72.0","41n0m09v","","","","","",""
"2389.4249999999884","{""pre-1"":1}","[0]","survey-likert","73","339360","0.0-73.0","41n0m09v","","","","","",""
"2025.710000000021","{""pre-2"":2}","[0]","survey-likert","74","341387","0.0-74.0","41n0m09v","","","","","",""
"3819.5650000000023","{""pre-3"":2}","[0]","survey-likert","75","345208","0.0-75.0","41n0m09v","","","","","",""
"5641.920000000042","{""post-5"":0}","[0]","survey-likert","76","350850","0.0-76.0","41n0m09v","","","","","",""
"","","","call-function","77","350851","0.0-77.0","41n0m09v","","","","","",""
"null","","","video-keyboard-response","78","353991","0.0-78.0","41n0m09v","","","","null","Agent A","STIM_SET_1_REAL/713371.bmp_pp68_L1_V1.0_veridical_freeview_isoFalse_fps144.mp4"
"","","","call-function","79","353991","0.0-79.0","41n0m09v","","","","","",""
"9543.775000000023","{""pre-1"":1}","[0]","survey-likert","80","363536","0.0-80.0","41n0m09v","","","","","",""
"4557.625","{""pre-2"":3}","[0]","survey-likert","81","368094","0.0-81.0","41n0m09v","","","","","",""
"2202.335000000021","{""pre-3"":2}","[0]","survey-likert","82","370298","0.0-82.0","41n0m09v","","","","","",""
"6285.104999999981","{""post-5"":0}","[0]","survey-likert","83","376585","0.0-83.0","41n0m09v","","","","","",""
"","","","call-function","84","376585","0.0-84.0","41n0m09v","","","","","",""
"null","","","video-keyboard-response","85","379705","0.0-85.0","41n0m09v","","","","null","Agent A","STIM_SET_1_REAL/1159777.bmp_pp77_L3_V1.0_veridical_freeview_isoFalse_fps144.mp4"
"","","","call-function","86","379706","0.0-86.0","41n0m09v","","","","","",""
"6007.465000000026","{""pre-1"":2}","[0]","survey-likert","87","385715","0.0-87.0","41n0m09v","","","","","",""
"2292.170000000042","{""pre-2"":2}","[0]","survey-likert","88","388009","0.0-88.0","41n0m09v","","","","","",""
"3387.664999999979","{""pre-3"":2}","[0]","survey-likert","89","391398","0.0-89.0","41n0m09v","","","","","",""
"2295.570000000007","{""post-5"":0}","[0]","survey-likert","90","393695","0.0-90.0","41n0m09v","","","","","",""
"","","","call-function","91","393695","0.0-91.0","41n0m09v","","","","","",""
"null","","","video-keyboard-response","92","396774","0.0-92.0","41n0m09v","","","","null","Agent A","STIM_SET_1_REAL/1592133.bmp_pp75_L1_V1.0_veridical_freeview_isoFalse_fps144.mp4"
"","","","call-function","93","396775","0.0-93.0","41n0m09v","","","","","",""
"3382.414999999979","{""pre-1"":2}","[0]","survey-likert","94","400158","0.0-94.0","41n0m09v","","","","","",""
"2918.585000000021","{""pre-2"":2}","[0]","survey-likert","95","403078","0.0-95.0","41n0m09v","","","","","",""
"3262.859999999986","{""pre-3"":2}","[0]","survey-likert","96","406342","0.0-96.0","41n0m09v","","","","","",""
"2559.8649999999907","{""post-5"":1}","[0]","survey-likert","97","408903","0.0-97.0","41n0m09v","","","","","",""
"","","","call-function","98","408903","0.0-98.0","41n0m09v","","","","","",""
"null","","","video-keyboard-response","99","412015","0.0-99.0","41n0m09v","","","","null","Agent A","STIM_SET_1_REAL/713211.bmp_pp100_L3_V1.0_scrambled_freeview_isoFalse_fps144.mp4"
"","","","call-function","100","412015","0.0-100.0","41n0m09v","","","","","",""
"8344.440000000002","{""pre-1"":3}","[0]","survey-likert","101","420361","0.0-101.0","41n0m09v","","","","","",""
"3466.0100000000093","{""pre-2"":2}","[0]","survey-likert","102","423828","0.0-102.0","41n0m09v","","","","","",""
"7770.075000000012","{""pre-3"":1}","[0]","survey-likert","103","431599","0.0-103.0","41n0m09v","","","","","",""
"2251.9799999999814","{""post-5"":0}","[0]","survey-likert","104","433852","0.0-104.0","41n0m09v","","","","","",""
"","","","call-function","105","433852","0.0-105.0","41n0m09v","","","","","",""
"null","","","video-keyboard-response","106","436965","0.0-106.0","41n0m09v","","","","null","Agent A","STIM_SET_1_REAL/1592499.bmp_pp96_L2_V1.0_scrambled_freeview_isoFalse_fps144.mp4"
"","","","call-function","107","436965","0.0-107.0","41n0m09v","","","","","",""
"4287.635000000009","{""pre-1"":2}","[0]","survey-likert","108","441254","0.0-108.0","41n0m09v","","","","","",""
"5227.150000000023","{""pre-2"":2}","[0]","survey-likert","109","446482","0.0-109.0","41n0m09v","","","","","",""
"2284.4099999999744","{""pre-3"":1}","[0]","survey-likert","110","448768","0.0-110.0","41n0m09v","","","","","",""
"3454.820000000007","{""post-5"":0}","[0]","survey-likert","111","452224","0.0-111.0","41n0m09v","","","","","",""
"","","","call-function","112","452225","0.0-112.0","41n0m09v","","","","","",""
"null","","","video-keyboard-response","113","455349","0.0-113.0","41n0m09v","","","","null","Agent A","STIM_SET_1_REAL/1159621.bmp_pp92_L3_V1.0_scrambled_freeview_isoFalse_fps144.mp4"
"","","","call-function","114","455349","0.0-114.0","41n0m09v","","","","","",""
"2608.4700000000303","{""pre-1"":2}","[0]","survey-likert","115","457960","0.0-115.0","41n0m09v","","","","","",""
"2609.25","{""pre-2"":2}","[0]","survey-likert","116","460570","0.0-116.0","41n0m09v","","","","","",""
"3256.5100000000093","{""pre-3"":3}","[0]","survey-likert","117","463828","0.0-117.0","41n0m09v","","","","","",""
"1873.6500000000233","{""post-5"":1}","[0]","survey-likert","118","465703","0.0-118.0","41n0m09v","","","","","",""
"","","","call-function","119","465704","0.0-119.0","41n0m09v","","","","","",""
"null","","","video-keyboard-response","120","468775","0.0-120.0","41n0m09v","","","","null","Agent A","STIM_SET_1_REAL/498170.bmp_pp153_L3_V1.0_scrambled_freeview_isoFalse_fps144.mp4"
"","","","call-function","121","468776","0.0-121.0","41n0m09v","","","","","",""
"3939.4000000000233","{""pre-1"":2}","[0]","survey-likert","122","472717","0.0-122.0","41n0m09v","","","","","",""
"3598.5100000000093","{""pre-2"":2}","[0]","survey-likert","123","476317","0.0-123.0","41n0m09v","","","","","",""
"6110.924999999988","{""pre-3"":1}","[0]","survey-likert","124","482430","0.0-124.0","41n0m09v","","","","","",""
"2469.8800000000047","{""post-5"":0}","[0]","survey-likert","125","484901","0.0-125.0","41n0m09v","","","","","",""
"","","","call-function","126","484902","0.0-126.0","41n0m09v","","","","","",""
"null","","","video-keyboard-response","127","487981","0.0-127.0","41n0m09v","","","","null","Agent A","STIM_SET_1_REAL/1159784.bmp_pp73_L3_V1.0_veridical_freeview_isoFalse_fps144.mp4"
"","","","call-function","128","487981","0.0-128.0","41n0m09v","","","","","",""
"3329.7399999999907","{""pre-1"":3}","[0]","survey-likert","129","491312","0.0-129.0","41n0m09v","","","","","",""
"1416.3249999999534","{""pre-2"":2}","[0]","survey-likert","130","492729","0.0-130.0","41n0m09v","","","","","",""
"3341.2299999999814","{""pre-3"":1}","[0]","survey-likert","131","496072","0.0-131.0","41n0m09v","","","","","",""
"3633.905000000028","{""post-5"":0}","[0]","survey-likert","132","499707","0.0-132.0","41n0m09v","","","","","",""
"","","","call-function","133","499707","0.0-133.0","41n0m09v","","","","","",""
"null","","","video-keyboard-response","134","502802","0.0-134.0","41n0m09v","","","","null","Agent A","STIM_SET_1_REAL/712977.bmp_pp51_L1_V1.0_veridical_freeview_isoFalse_fps144.mp4"
"","","","call-function","135","502802","0.0-135.0","41n0m09v","","","","","",""
"4473.619999999995","{""pre-1"":3}","[0]","survey-likert","136","507277","0.0-136.0","41n0m09v","","","","","",""
"2116.8899999999558","{""pre-2"":1}","[0]","survey-likert","137","509396","0.0-137.0","41n0m09v","","","","","",""
"5112.469999999972","{""pre-3"":2}","[0]","survey-likert","138","514510","0.0-138.0","41n0m09v","","","","","",""
"4754.049999999988","{""post-5"":0}","[0]","survey-likert","139","519265","0.0-139.0","41n0m09v","","","","","",""
"","","","call-function","140","519265","0.0-140.0","41n0m09v","","","","","",""
"null","","","video-keyboard-response","141","522360","0.0-141.0","41n0m09v","","","","null","Agent A","STIM_SET_1_REAL/713620.bmp_pp65_L3_V1.0_scrambled_freeview_isoFalse_fps144.mp4"
"","","","call-function","142","522360","0.0-142.0","41n0m09v","","","","","",""
"8447.774999999965","{""pre-1"":1}","[0]","survey-likert","143","530809","0.0-143.0","41n0m09v","","","","","",""
"3563.95000000007","{""pre-2"":3}","[0]","survey-likert","144","534374","0.0-144.0","41n0m09v","","","","","",""
"1321.8100000000559","{""pre-3"":2}","[0]","survey-likert","145","535697","0.0-145.0","41n0m09v","","","","","",""
"5298.090000000084","{""post-5"":1}","[0]","survey-likert","146","540999","0.0-146.0","41n0m09v","","","","","",""
"","","","call-function","147","541000","0.0-147.0","41n0m09v","","","","","",""
"null","","","video-keyboard-response","148","544087","0.0-148.0","41n0m09v","","","","null","Agent A","STIM_SET_1_REAL/1593035.bmp_pp94_L2_V1.0_veridical_freeview_isoFalse_fps144.mp4"
"","","","call-function","149","544087","0.0-149.0","41n0m09v","","","","","",""
"5136.135000000009","{""pre-1"":0}","[0]","survey-likert","150","549225","0.0-150.0","41n0m09v","","","","","",""
"4921.4400000000605","{""pre-2"":1}","[0]","survey-likert","151","554148","0.0-151.0","41n0m09v","","","","","",""
"2759.4550000000745","{""pre-3"":1}","[0]","survey-likert","152","556909","0.0-152.0","41n0m09v","","","","","",""
"2893.9949999999953","{""post-5"":1}","[0]","survey-likert","153","559804","0.0-153.0","41n0m09v","","","","","",""
"","","","call-function","154","559805","0.0-154.0","41n0m09v","","","","","",""
"null","","","video-keyboard-response","155","562913","0.0-155.0","41n0m09v","","","","null","Agent A","STIM_SET_1_REAL/1159882.bmp_pp61_L2_V1.0_veridical_freeview_isoFalse_fps144.mp4"
"","","","call-function","156","562914","0.0-156.0","41n0m09v","","","","","",""
"4013.7249999999767","{""pre-1"":3}","[0]","survey-likert","157","566929","0.0-157.0","41n0m09v","","","","","",""
"1733.765000000014","{""pre-2"":2}","[0]","survey-likert","158","568664","0.0-158.0","41n0m09v","","","","","",""
"1923.4899999999907","{""pre-3"":2}","[0]","survey-likert","159","570589","0.0-159.0","41n0m09v","","","","","",""
"3489.814999999944","{""post-5"":0}","[0]","survey-likert","160","574080","0.0-160.0","41n0m09v","","","","","",""
"52498.255000000005","","","instructions","161","626579","0.0-161.0","41n0m09v","[{""page_index"":0,""viewing_time"":1559.1300000000047},{""page_index"":1,""viewing_time"":50120.994999999995},{""page_index"":2,""viewing_time"":817.875}]","","","","",""
"7865.084999999963","","","instructions","162","634445","0.0-162.0","41n0m09v","[{""page_index"":0,""viewing_time"":1647.2449999999953},{""page_index"":1,""viewing_time"":5515.04999999993},{""page_index"":2,""viewing_time"":702.6700000000419}]","","","","",""
"","","","call-function","163","634445","0.0-163.0","41n0m09v","","","","","",""
"null","","","video-keyboard-response","164","637584","0.0-164.0","41n0m09v","","","","null","Agent A","STIM_SET_1_REAL/1160168.bmp_pp53_L2_V1.0_scrambled_freeview_isoFalse_fps144.mp4"
"","","","call-function","165","637585","0.0-165.0","41n0m09v","","","","","",""
"6566.505000000005","{""pre-1"":2}","[0]","survey-likert","166","644152","0.0-166.0","41n0m09v","","","","","",""
"6111.604999999981","{""pre-2"":2}","[0]","survey-likert","167","650266","0.0-167.0","41n0m09v","","","","","",""
"2940","{""pre-3"":2}","[0]","survey-likert","168","653207","0.0-168.0","41n0m09v","","","","","",""
"2780.2299999999814","{""post-5"":1}","[0]","survey-likert","169","655988","0.0-169.0","41n0m09v","","","","","",""
"","","","call-function","170","655989","0.0-170.0","41n0m09v","","","","","",""
"null","","","video-keyboard-response","171","659077","0.0-171.0","41n0m09v","","","","null","Agent A","STIM_SET_1_REAL/713513.bmp_pp62_L2_V1.0_scrambled_freeview_isoFalse_fps144.mp4"
"","","","call-function","172","659077","0.0-172.0","41n0m09v","","","","","",""
"2930.6450000000186","{""pre-1"":2}","[0]","survey-likert","173","662009","0.0-173.0","41n0m09v","","","","","",""
"3543.9000000000233","{""pre-2"":2}","[0]","survey-likert","174","665554","0.0-174.0","41n0m09v","","","","","",""
"2962.4649999999674","{""pre-3"":2}","[0]","survey-likert","175","668518","0.0-175.0","41n0m09v","","","","","",""
"3678.609999999986","{""post-5"":1}","[0]","survey-likert","176","672198","0.0-176.0","41n0m09v","","","","","",""
"","","","call-function","177","672199","0.0-177.0","41n0m09v","","","","","",""
"null","","","video-keyboard-response","178","675283","0.0-178.0","41n0m09v","","","","null","Agent A","STIM_SET_1_REAL/713089.bmp_pp60_L3_V1.0_scrambled_freeview_isoFalse_fps144.mp4"
"","","","call-function","179","675284","0.0-179.0","41n0m09v","","","","","",""
"2721.399999999907","{""pre-1"":1}","[0]","survey-likert","180","678007","0.0-180.0","41n0m09v","","","","","",""
"2423.4150000000373","{""pre-2"":1}","[0]","survey-likert","181","680432","0.0-181.0","41n0m09v","","","","","",""
"4294.560000000056","{""pre-3"":0}","[0]","survey-likert","182","684729","0.0-182.0","41n0m09v","","","","","",""
"7521.964999999967","{""post-5"":1}","[0]","survey-likert","183","692252","0.0-183.0","41n0m09v","","","","","",""
"","","","call-function","184","692253","0.0-184.0","41n0m09v","","","","","",""
"null","","","video-keyboard-response","185","695346","0.0-185.0","41n0m09v","","","","null","Agent A","STIM_SET_1_REAL/713796.bmp_pp84_L3_V1.0_veridical_freeview_isoFalse_fps144.mp4"
"","","","call-function","186","695347","0.0-186.0","41n0m09v","","","","","",""
"2566.194999999949","{""pre-1"":2}","[0]","survey-likert","187","697915","0.0-187.0","41n0m09v","","","","","",""
"1244.3649999999907","{""pre-2"":2}","[0]","survey-likert","188","699161","0.0-188.0","41n0m09v","","","","","",""
"1778.9400000000605","{""pre-3"":2}","[0]","survey-likert","189","700941","0.0-189.0","41n0m09v","","","","","",""
"2186.2900000000373","{""post-5"":0}","[0]","survey-likert","190","703128","0.0-190.0","41n0m09v","","","","","",""
"","","","call-function","191","703129","0.0-191.0","41n0m09v","","","","","",""
"null","","","video-keyboard-response","192","706225","0.0-192.0","41n0m09v","","","","null","Agent A","STIM_SET_1_REAL/61537.bmp_pp73_L3_V1.0_scrambled_freeview_isoFalse_fps144.mp4"
"","","","call-function","193","706226","0.0-193.0","41n0m09v","","","","","",""
"1632.6049999999814","{""pre-1"":2}","[0]","survey-likert","194","707860","0.0-194.0","41n0m09v","","","","","",""
"1804.6300000000047","{""pre-2"":2}","[0]","survey-likert","195","709665","0.0-195.0","41n0m09v","","","","","",""
"1440.5","{""pre-3"":2}","[0]","survey-likert","196","711107","0.0-196.0","41n0m09v","","","","","",""
"3116.79999999993","{""post-5"":0}","[0]","survey-likert","197","714225","0.0-197.0","41n0m09v","","","","","",""
"","","","call-function","198","714226","0.0-198.0","41n0m09v","","","","","",""
"null","","","video-keyboard-response","199","717455","0.0-199.0","41n0m09v","","","","null","Agent A","STIM_SET_1_REAL/1592727.bmp_pp59_L3_V1.0_veridical_freeview_isoFalse_fps144.mp4"
"","","","call-function","200","717456","0.0-200.0","41n0m09v","","","","","",""
"1983.3150000000605","{""pre-1"":1}","[0]","survey-likert","201","719440","0.0-201.0","41n0m09v","","","","","",""
"3843.015000000014","{""pre-2"":0}","[0]","survey-likert","202","723284","0.0-202.0","41n0m09v","","","","","",""
"3686.180000000051","{""pre-3"":0}","[0]","survey-likert","203","726971","0.0-203.0","41n0m09v","","","","","",""
"2707.7900000000373","{""post-5"":2}","[0]","survey-likert","204","729681","0.0-204.0","41n0m09v","","","","","",""
"","","","call-function","205","729681","0.0-205.0","41n0m09v","","","","","",""
"null","","","video-keyboard-response","206","732885","0.0-206.0","41n0m09v","","","","null","Agent A","STIM_SET_1_REAL/713620.bmp_pp65_L3_V1.0_veridical_freeview_isoFalse_fps144.mp4"
"","","","call-function","207","732886","0.0-207.0","41n0m09v","","","","","",""
"3809.259999999893","{""pre-1"":2}","[0]","survey-likert","208","736698","0.0-208.0","41n0m09v","","","","","",""
"2011.0599999999395","{""pre-2"":2}","[0]","survey-likert","209","738711","0.0-209.0","41n0m09v","","","","","",""
"1784.2150000000838","{""pre-3"":2}","[0]","survey-likert","210","740497","0.0-210.0","41n0m09v","","","","","",""
"2511.9799999999814","{""post-5"":0}","[0]","survey-likert","211","743010","0.0-211.0","41n0m09v","","","","","",""
"","","","call-function","212","743010","0.0-212.0","41n0m09v","","","","","",""
"null","","","video-keyboard-response","213","747678","0.0-213.0","41n0m09v","","","","null","Agent A","STIM_SET_1_REAL/1591954.bmp_pp62_L2_V1.0_scrambled_freeview_isoFalse_fps144.mp4"
"","","","call-function","214","747679","0.0-214.0","41n0m09v","","","","","",""
"2411.064999999944","{""pre-1"":1}","[0]","survey-likert","215","750091","0.0-215.0","41n0m09v","","","","","",""
"2642.420000000042","{""pre-2"":1}","[0]","survey-likert","216","752735","0.0-216.0","41n0m09v","","","","","",""
"4842.974999999977","{""pre-3"":1}","[0]","survey-likert","217","757580","0.0-217.0","41n0m09v","","","","","",""
"4680.6549999999115","{""post-5"":2}","[0]","survey-likert","218","762262","0.0-218.0","41n0m09v","","","","","",""
"","","","call-function","219","762262","0.0-219.0","41n0m09v","","","","","",""
"null","","","video-keyboard-response","220","765352","0.0-220.0","41n0m09v","","","","null","Agent A","STIM_SET_1_REAL/1159440.bmp_pp98_L1_V1.0_veridical_freeview_isoFalse_fps144.mp4"
"","","","call-function","221","765352","0.0-221.0","41n0m09v","","","","","",""
"5623.415000000037","{""pre-1"":2}","[0]","survey-likert","222","770977","0.0-222.0","41n0m09v","","","","","",""
"4641.8099999999395","{""pre-2"":2}","[0]","survey-likert","223","775620","0.0-223.0","41n0m09v","","","","","",""
"3779.1300000000047","{""pre-3"":2}","[0]","survey-likert","224","779401","0.0-224.0","41n0m09v","","","","","",""
"2381.32500000007","{""post-5"":1}","[0]","survey-likert","225","781783","0.0-225.0","41n0m09v","","","","","",""
"","","","call-function","226","781784","0.0-226.0","41n0m09v","","","","","",""
"null","","","video-keyboard-response","227","784885","0.0-227.0","41n0m09v","","","","null","Agent A","STIM_SET_1_REAL/713749.bmp_pp88_L2_V1.0_scrambled_freeview_isoFalse_fps144.mp4"
"","","","call-function","228","784885","0.0-228.0","41n0m09v","","","","","",""
"2719.9349999999395","{""pre-1"":3}","[0]","survey-likert","229","787606","0.0-229.0","41n0m09v","","","","","",""
"1969.719999999972","{""pre-2"":2}","[0]","survey-likert","230","789577","0.0-230.0","41n0m09v","","","","","",""
"1649.6199999999953","{""pre-3"":2}","[0]","survey-likert","231","791228","0.0-231.0","41n0m09v","","","","","",""
"6127.739999999991","{""post-5"":0}","[0]","survey-likert","232","797357","0.0-232.0","41n0m09v","","","","","",""
"","","","call-function","233","797358","0.0-233.0","41n0m09v","","","","","",""
"null","","","video-keyboard-response","234","800440","0.0-234.0","41n0m09v","","","","null","Agent A","STIM_SET_1_REAL/285994.bmp_pp92_L3_V1.0_veridical_freeview_isoFalse_fps144.mp4"
"","","","call-function","235","800441","0.0-235.0","41n0m09v","","","","","",""
"4508.180000000051","{""pre-1"":3}","[0]","survey-likert","236","804951","0.0-236.0","41n0m09v","","","","","",""
"2288.2249999999767","{""pre-2"":3}","[0]","survey-likert","237","807241","0.0-237.0","41n0m09v","","","","","",""
"2222.409999999916","{""pre-3"":2}","[0]","survey-likert","238","809465","0.0-238.0","41n0m09v","","","","","",""
"4285.465000000084","{""post-5"":0}","[0]","survey-likert","239","813752","0.0-239.0","41n0m09v","","","","","",""
"","","","call-function","240","813752","0.0-240.0","41n0m09v","","","","","",""
"null","","","video-keyboard-response","241","816834","0.0-241.0","41n0m09v","","","","null","Agent A","STIM_SET_1_REAL/1592619.bmp_pp56_L3_V1.0_veridical_freeview_isoFalse_fps144.mp4"
"","","","call-function","242","816834","0.0-242.0","41n0m09v","","","","","",""
"4847.035000000033","{""pre-1"":0}","[0]","survey-likert","243","821683","0.0-243.0","41n0m09v","","","","","",""
"2592.640000000014","{""pre-2"":1}","[0]","survey-likert","244","824277","0.0-244.0","41n0m09v","","","","","",""
"3971.9199999999255","{""pre-3"":0}","[0]","survey-likert","245","828250","0.0-245.0","41n0m09v","","","","","",""
"7941.054999999935","{""post-5"":1}","[0]","survey-likert","246","836193","0.0-246.0","41n0m09v","","","","","",""
"","","","call-function","247","836193","0.0-247.0","41n0m09v","","","","","",""
"null","","","video-keyboard-response","248","839274","0.0-248.0","41n0m09v","","","","null","Agent A","STIM_SET_1_REAL/1592133.bmp_pp75_L1_V1.0_scrambled_freeview_isoFalse_fps144.mp4"
"","","","call-function","249","839275","0.0-249.0","41n0m09v","","","","","",""
"2426.664999999921","{""pre-1"":2}","[0]","survey-likert","250","841702","0.0-250.0","41n0m09v","","","","","",""
"2579.82500000007","{""pre-2"":2}","[0]","survey-likert","251","844283","0.0-251.0","41n0m09v","","","","","",""
"2855.8249999999534","{""pre-3"":2}","[0]","survey-likert","252","847140","0.0-252.0","41n0m09v","","","","","",""
"5868.935000000056","{""post-5"":0}","[0]","survey-likert","253","853011","0.0-253.0","41n0m09v","","","","","",""
"","","","call-function","254","853011","0.0-254.0","41n0m09v","","","","","",""
"null","","","video-keyboard-response","255","856107","0.0-255.0","41n0m09v","","","","null","Agent A","STIM_SET_1_REAL/1159777.bmp_pp77_L3_V1.0_scrambled_freeview_isoFalse_fps144.mp4"
"","","","call-function","256","856107","0.0-256.0","41n0m09v","","","","","",""
"3225.115000000107","{""pre-1"":2}","[0]","survey-likert","257","859333","0.0-257.0","41n0m09v","","","","","",""
"1163.0100000000093","{""pre-2"":2}","[0]","survey-likert","258","860498","0.0-258.0","41n0m09v","","","","","",""
"1529.4399999999441","{""pre-3"":2}","[0]","survey-likert","259","862028","0.0-259.0","41n0m09v","","","","","",""
"3380.8950000000186","{""post-5"":0}","[0]","survey-likert","260","865410","0.0-260.0","41n0m09v","","","","","",""
"","","","call-function","261","865411","0.0-261.0","41n0m09v","","","","","",""
"null","","","video-keyboard-response","262","868502","0.0-262.0","41n0m09v","","","","null","Agent A","STIM_SET_1_REAL/1159829.bmp_pp91_L3_V1.0_veridical_freeview_isoFalse_fps144.mp4"
"","","","call-function","263","868503","0.0-263.0","41n0m09v","","","","","",""
"2867.7600000000093","{""pre-1"":2}","[0]","survey-likert","264","871372","0.0-264.0","41n0m09v","","","","","",""
"2894.17499999993","{""pre-2"":2}","[0]","survey-likert","265","874269","0.0-265.0","41n0m09v","","","","","",""
"4116.660000000033","{""pre-3"":1}","[0]","survey-likert","266","878388","0.0-266.0","41n0m09v","","","","","",""
"4063.3950000000186","{""post-5"":1}","[0]","survey-likert","267","882454","0.0-267.0","41n0m09v","","","","","",""
"","","","call-function","268","882455","0.0-268.0","41n0m09v","","","","","",""
"null","","","video-keyboard-response","269","885563","0.0-269.0","41n0m09v","","","","null","Agent A","STIM_SET_1_REAL/285905.bmp_pp57_L1_V1.0_scrambled_freeview_isoFalse_fps144.mp4"
"","","","call-function","270","885564","0.0-270.0","41n0m09v","","","","","",""
"6217.474999999977","{""pre-1"":2}","[0]","survey-likert","271","891783","0.0-271.0","41n0m09v","","","","","",""
"3838.9599999999627","{""pre-2"":2}","[0]","survey-likert","272","895624","0.0-272.0","41n0m09v","","","","","",""
"2449.2350000001024","{""pre-3"":1}","[0]","survey-likert","273","898075","0.0-273.0","41n0m09v","","","","","",""
"2309.390000000014","{""post-5"":1}","[0]","survey-likert","274","900386","0.0-274.0","41n0m09v","","","","","",""
"","","","call-function","275","900387","0.0-275.0","41n0m09v","","","","","",""
"null","","","video-keyboard-response","276","903473","0.0-276.0","41n0m09v","","","","null","Agent A","STIM_SET_1_REAL/713403.bmp_pp80_L3_V1.0_veridical_freeview_isoFalse_fps144.mp4"
"","","","call-function","277","903474","0.0-277.0","41n0m09v","","","","","",""
"5909.969999999972","{""pre-1"":3}","[0]","survey-likert","278","909385","0.0-278.0","41n0m09v","","","","","",""
"2343.439999999944","{""pre-2"":2}","[0]","survey-likert","279","911730","0.0-279.0","41n0m09v","","","","","",""
"4229.4400000000605","{""pre-3"":2}","[0]","survey-likert","280","915961","0.0-280.0","41n0m09v","","","","","",""
"3296.5650000000605","{""post-5"":1}","[0]","survey-likert","281","919259","0.0-281.0","41n0m09v","","","","","",""
"","","","call-function","282","919259","0.0-282.0","41n0m09v","","","","","",""
"null","","","video-keyboard-response","283","922351","0.0-283.0","41n0m09v","","","","null","Agent A","STIM_SET_1_REAL/713135.bmp_pp54_L2_V1.0_scrambled_freeview_isoFalse_fps144.mp4"
"","","","call-function","284","922352","0.0-284.0","41n0m09v","","","","","",""
"1982.9649999999674","{""pre-1"":2}","[0]","survey-likert","285","924336","0.0-285.0","41n0m09v","","","","","",""
"1354.6350000000093","{""pre-2"":2}","[0]","survey-likert","286","925693","0.0-286.0","41n0m09v","","","","","",""
"5158.480000000098","{""pre-3"":1}","[0]","survey-likert","287","930853","0.0-287.0","41n0m09v","","","","","",""
"3582.480000000098","{""post-5"":0}","[0]","survey-likert","288","934436","0.0-288.0","41n0m09v","","","","","",""
"","","","call-function","289","934437","0.0-289.0","41n0m09v","","","","","",""
"null","","","video-keyboard-response","290","937533","0.0-290.0","41n0m09v","","","","null","Agent A","STIM_SET_1_REAL/1159572.bmp_pp71_L1_V1.0_scrambled_freeview_isoFalse_fps144.mp4"
"","","","call-function","291","937534","0.0-291.0","41n0m09v","","","","","",""
"2087.015000000014","{""pre-1"":2}","[0]","survey-likert","292","939623","0.0-292.0","41n0m09v","","","","","",""
"1430.280000000028","{""pre-2"":2}","[0]","survey-likert","293","941054","0.0-293.0","41n0m09v","","","","","",""
"1410.3450000000885","{""pre-3"":2}","[0]","survey-likert","294","942466","0.0-294.0","41n0m09v","","","","","",""
"2253.1450000000186","{""post-5"":2}","[0]","survey-likert","295","944720","0.0-295.0","41n0m09v","","","","","",""
"","","","call-function","296","944721","0.0-296.0","41n0m09v","","","","","",""
"null","","","video-keyboard-response","297","947915","0.0-297.0","41n0m09v","","","","null","Agent A","STIM_SET_1_REAL/1592581.bmp_pp100_L3_V1.0_veridical_freeview_isoFalse_fps144.mp4"
"","","","call-function","298","947915","0.0-298.0","41n0m09v","","","","","",""
"9627.285000000033","{""pre-1"":2}","[0]","survey-likert","299","957544","0.0-299.0","41n0m09v","","","","","",""
"2051.060000000056","{""pre-2"":2}","[0]","survey-likert","300","959596","0.0-300.0","41n0m09v","","","","","",""
"2153.909999999916","{""pre-3"":2}","[0]","survey-likert","301","961751","0.0-301.0","41n0m09v","","","","","",""
"5782.895000000019","{""post-5"":0}","[0]","survey-likert","302","967536","0.0-302.0","41n0m09v","","","","","",""
"107098.46499999985","","","instructions","303","1074635","0.0-303.0","41n0m09v","[{""page_index"":0,""viewing_time"":2291.4899999999907},{""page_index"":1,""viewing_time"":103160.68999999994},{""page_index"":2,""viewing_time"":1646.0200000000186}]","","","","",""
"4386.864999999991","","","instructions","304","1079023","0.0-304.0","41n0m09v","[{""page_index"":0,""viewing_time"":1515.8649999999907},{""page_index"":1,""viewing_time"":2324.179999999935},{""page_index"":2,""viewing_time"":546.7150000000838}]","","","","",""
"","","","call-function","305","1079024","0.0-305.0","41n0m09v","","","","","",""
"null","","","video-keyboard-response","306","1082099","0.0-306.0","41n0m09v","","","","null","Agent A","STIM_SET_1_REAL/1593035.bmp_pp94_L2_V1.0_scrambled_freeview_isoFalse_fps144.mp4"
"","","","call-function","307","1082099","0.0-307.0","41n0m09v","","","","","",""
"2110.0699999998324","{""pre-1"":2}","[0]","survey-likert","308","1084211","0.0-308.0","41n0m09v","","","","","",""
"1171.75","{""pre-2"":2}","[0]","survey-likert","309","1085384","0.0-309.0","41n0m09v","","","","","",""
"1618.8649999999907","{""pre-3"":2}","[0]","survey-likert","310","1087004","0.0-310.0","41n0m09v","","","","","",""
"1476.494999999879","{""post-5"":1}","[0]","survey-likert","311","1088482","0.0-311.0","41n0m09v","","","","","",""
"","","","call-function","312","1088482","0.0-312.0","41n0m09v","","","","","",""
"null","","","video-keyboard-response","313","1091577","0.0-313.0","41n0m09v","","","","null","Agent A","STIM_SET_1_REAL/1159675.bmp_pp77_L3_V1.0_scrambled_freeview_isoFalse_fps144.mp4"
"","","","call-function","314","1091578","0.0-314.0","41n0m09v","","","","","",""
"1968.9149999998044","{""pre-1"":2}","[0]","survey-likert","315","1093548","0.0-315.0","41n0m09v","","","","","",""
"1338.2650000001304","{""pre-2"":2}","[0]","survey-likert","316","1094887","0.0-316.0","41n0m09v","","","","","",""
"2331.869999999879","{""pre-3"":1}","[0]","survey-likert","317","1097220","0.0-317.0","41n0m09v","","","","","",""
"1803.9399999999441","{""post-5"":1}","[0]","survey-likert","318","1099026","0.0-318.0","41n0m09v","","","","","",""
"","","","call-function","319","1099026","0.0-319.0","41n0m09v","","","","","",""
"null","","","video-keyboard-response","320","1102111","0.0-320.0","41n0m09v","","","","null","Agent A","STIM_SET_1_REAL/285905.bmp_pp57_L1_V1.0_veridical_freeview_isoFalse_fps144.mp4"
"","","","call-function","321","1102112","0.0-321.0","41n0m09v","","","","","",""
"3311.005000000121","{""pre-1"":3}","[0]","survey-likert","322","1105424","0.0-322.0","41n0m09v","","","","","",""
"1743.0800000000745","{""pre-2"":2}","[0]","survey-likert","323","1107168","0.0-323.0","41n0m09v","","","","","",""
"2198.9849999998696","{""pre-3"":2}","[0]","survey-likert","324","1109368","0.0-324.0","41n0m09v","","","","","",""
"9569.909999999916","{""post-5"":1}","[0]","survey-likert","325","1118939","0.0-325.0","41n0m09v","","","","","",""
"","","","call-function","326","1118939","0.0-326.0","41n0m09v","","","","","",""
"null","","","video-keyboard-response","327","1122068","0.0-327.0","41n0m09v","","","","null","Agent A","STIM_SET_1_REAL/1159813.bmp_pp79_L2_V1.0_scrambled_freeview_isoFalse_fps144.mp4"
"","","","call-function","328","1122068","0.0-328.0","41n0m09v","","","","","",""
"3032.880000000121","{""pre-1"":2}","[0]","survey-likert","329","1125102","0.0-329.0","41n0m09v","","","","","",""
"3993.4849999998696","{""pre-2"":1}","[0]","survey-likert","330","1129096","0.0-330.0","41n0m09v","","","","","",""
"2555.5400000000373","{""pre-3"":2}","[0]","survey-likert","331","1131653","0.0-331.0","41n0m09v","","","","","",""
"8418.73999999999","{""post-5"":1}","[0]","survey-likert","332","1140073","0.0-332.0","41n0m09v","","","","","",""
"","","","call-function","333","1140073","0.0-333.0","41n0m09v","","","","","",""
"null","","","video-keyboard-response","334","1143241","0.0-334.0","41n0m09v","","","","null","Agent A","STIM_SET_1_REAL/1592397.bmp_pp85_L3_V1.0_veridical_freeview_isoFalse_fps144.mp4"
"","","","call-function","335","1143242","0.0-335.0","41n0m09v","","","","","",""
"11384.294999999925","{""pre-1"":2}","[0]","survey-likert","336","1154628","0.0-336.0","41n0m09v","","","","","",""
"2651.350000000093","{""pre-2"":1}","[0]","survey-likert","337","1157280","0.0-337.0","41n0m09v","","","","","",""
"2822.969999999972","{""pre-3"":1}","[0]","survey-likert","338","1160104","0.0-338.0","41n0m09v","","","","","",""
"2351.9850000001024","{""post-5"":1}","[0]","survey-likert","339","1162457","0.0-339.0","41n0m09v","","","","","",""
"","","","call-function","340","1162458","0.0-340.0","41n0m09v","","","","","",""
"null","","","video-keyboard-response","341","1165538","0.0-341.0","41n0m09v","","","","null","Agent A","STIM_SET_1_REAL/1592817.bmp_pp55_L3_V1.0_scrambled_freeview_isoFalse_fps144.mp4"
"","","","call-function","342","1165538","0.0-342.0","41n0m09v","","","","","",""
"6103.26500000013","{""pre-1"":2}","[0]","survey-likert","343","1171643","0.0-343.0","41n0m09v","","","","","",""
"1726.214999999851","{""pre-2"":2}","[0]","survey-likert","344","1173371","0.0-344.0","41n0m09v","","","","","",""
"1380.8899999998976","{""pre-3"":2}","[0]","survey-likert","345","1174753","0.0-345.0","41n0m09v","","","","","",""
"1892.035000000149","{""post-5"":1}","[0]","survey-likert","346","1176646","0.0-346.0","41n0m09v","","","","","",""
"","","","call-function","347","1176646","0.0-347.0","41n0m09v","","","","","",""
"null","","","video-keyboard-response","348","1179723","0.0-348.0","41n0m09v","","","","null","Agent A","STIM_SET_1_REAL/285933.bmp_pp81_L1_V1.0_veridical_freeview_isoFalse_fps144.mp4"
"","","","call-function","349","1179723","0.0-349.0","41n0m09v","","","","","",""
"9028.780000000028","{""pre-1"":2}","[0]","survey-likert","350","1188753","0.0-350.0","41n0m09v","","","","","",""
"1321.2700000000186","{""pre-2"":2}","[0]","survey-likert","351","1190075","0.0-351.0","41n0m09v","","","","","",""
"2714.185000000056","{""pre-3"":2}","[0]","survey-likert","352","1192791","0.0-352.0","41n0m09v","","","","","",""
"2574.2600000000093","{""post-5"":0}","[0]","survey-likert","353","1195367","0.0-353.0","41n0m09v","","","","","",""
"","","","call-function","354","1195367","0.0-354.0","41n0m09v","","","","","",""
"null","","","video-keyboard-response","355","1198464","0.0-355.0","41n0m09v","","","","null","Agent A","STIM_SET_1_REAL/713513.bmp_pp62_L2_V1.0_veridical_freeview_isoFalse_fps144.mp4"
"","","","call-function","356","1198464","0.0-356.0","41n0m09v","","","","","",""
"3016.445000000065","{""pre-1"":2}","[0]","survey-likert","357","1201481","0.0-357.0","41n0m09v","","","","","",""
"1115.4550000000745","{""pre-2"":2}","[0]","survey-likert","358","1202598","0.0-358.0","41n0m09v","","","","","",""
"1384.9099999999162","{""pre-3"":2}","[0]","survey-likert","359","1203984","0.0-359.0","41n0m09v","","","","","",""
"1924.9799999999814","{""post-5"":0}","[0]","survey-likert","360","1205910","0.0-360.0","41n0m09v","","","","","",""
"","","","call-function","361","1205910","0.0-361.0","41n0m09v","","","","","",""
"null","","","video-keyboard-response","362","1209005","0.0-362.0","41n0m09v","","","","null","Agent A","STIM_SET_1_REAL/713760.bmp_pp81_L1_V1.0_scrambled_freeview_isoFalse_fps144.mp4"
"","","","call-function","363","1209006","0.0-363.0","41n0m09v","","","","","",""
"5100.630000000121","{""pre-1"":2}","[0]","survey-likert","364","1214108","0.0-364.0","41n0m09v","","","","","",""
"3701.6049999999814","{""pre-2"":2}","[0]","survey-likert","365","1217812","0.0-365.0","41n0m09v","","","","","",""
"6024.159999999916","{""pre-3"":1}","[0]","survey-likert","366","1223838","0.0-366.0","41n0m09v","","","","","",""
"13132.189999999944","{""post-5"":1}","[0]","survey-likert","367","1236972","0.0-367.0","41n0m09v","","","","","",""
"","","","call-function","368","1236973","0.0-368.0","41n0m09v","","","","","",""
"null","","","video-keyboard-response","369","1240069","0.0-369.0","41n0m09v","","","","null","Agent A","STIM_SET_1_REAL/713593.bmp_pp64_L1_V1.0_scrambled_freeview_isoFalse_fps144.mp4"
"","","","call-function","370","1240069","0.0-370.0","41n0m09v","","","","","",""
"2430.9599999999627","{""pre-1"":3}","[0]","survey-likert","371","1242502","0.0-371.0","41n0m09v","","","","","",""
"1856.8199999998324","{""pre-2"":3}","[0]","survey-likert","372","1244360","0.0-372.0","41n0m09v","","","","","",""
"2310.0999999998603","{""pre-3"":2}","[0]","survey-likert","373","1246671","0.0-373.0","41n0m09v","","","","","",""
"8622.629999999888","{""post-5"":1}","[0]","survey-likert","374","1255295","0.0-374.0","41n0m09v","","","","","",""
"","","","call-function","375","1255296","0.0-375.0","41n0m09v","","","","","",""
"null","","","video-keyboard-response","376","1258388","0.0-376.0","41n0m09v","","","","null","Agent A","STIM_SET_1_REAL/1592657.bmp_pp98_L1_V1.0_veridical_freeview_isoFalse_fps144.mp4"
"","","","call-function","377","1258389","0.0-377.0","41n0m09v","","","","","",""
"9226.840000000084","{""pre-1"":2}","[0]","survey-likert","378","1267617","0.0-378.0","41n0m09v","","","","","",""
"2035.2399999999907","{""pre-2"":2}","[0]","survey-likert","379","1269653","0.0-379.0","41n0m09v","","","","","",""
"3791.785000000149","{""pre-3"":2}","[0]","survey-likert","380","1273446","0.0-380.0","41n0m09v","","","","","",""
"2743.7099999999627","{""post-5"":0}","[0]","survey-likert","381","1276191","0.0-381.0","41n0m09v","","","","","",""
"","","","call-function","382","1276193","0.0-382.0","41n0m09v","","","","","",""
"null","","","video-keyboard-response","383","1279278","0.0-383.0","41n0m09v","","","","null","Agent A","STIM_SET_1_REAL/1592362.bmp_pp95_L2_V1.0_scrambled_freeview_isoFalse_fps144.mp4"
"","","","call-function","384","1279279","0.0-384.0","41n0m09v","","","","","",""
"3390.475000000093","{""pre-1"":3}","[0]","survey-likert","385","1282671","0.0-385.0","41n0m09v","","","","","",""
"6053.145000000019","{""pre-2"":2}","[0]","survey-likert","386","1288725","0.0-386.0","41n0m09v","","","","","",""
"7544.104999999981","{""pre-3"":1}","[0]","survey-likert","387","1296271","0.0-387.0","41n0m09v","","","","","",""
"5615.5","{""post-5"":0}","[0]","survey-likert","388","1301887","0.0-388.0","41n0m09v","","","","","",""
"","","","call-function","389","1301888","0.0-389.0","41n0m09v","","","","","",""
"null","","","video-keyboard-response","390","1304986","0.0-390.0","41n0m09v","","","","null","Agent A","STIM_SET_1_REAL/1159855.bmp_pp99_L2_V1.0_scrambled_freeview_isoFalse_fps144.mp4"
"","","","call-function","391","1304986","0.0-391.0","41n0m09v","","","","","",""
"6728.985000000102","{""pre-1"":2}","[0]","survey-likert","392","1311717","0.0-392.0","41n0m09v","","","","","",""
"2846.590000000084","{""pre-2"":2}","[0]","survey-likert","393","1314565","0.0-393.0","41n0m09v","","","","","",""
"2036.8899999998976","{""pre-3"":2}","[0]","survey-likert","394","1316602","0.0-394.0","41n0m09v","","","","","",""
"1571.780000000028","{""post-5"":0}","[0]","survey-likert","395","1318175","0.0-395.0","41n0m09v","","","","","",""
"","","","call-function","396","1318176","0.0-396.0","41n0m09v","","","","","",""
"null","","","video-keyboard-response","397","1321255","0.0-397.0","41n0m09v","","","","null","Agent A","STIM_SET_1_REAL/286001.bmp_pp54_L2_V1.0_scrambled_freeview_isoFalse_fps144.mp4"
"","","","call-function","398","1321255","0.0-398.0","41n0m09v","","","","","",""
"4034.1450000000186","{""pre-1"":1}","[0]","survey-likert","399","1325291","0.0-399.0","41n0m09v","","","","","",""
"4759.745000000112","{""pre-2"":0}","[0]","survey-likert","400","1330052","0.0-400.0","41n0m09v","","","","","",""
"4891.534999999916","{""pre-3"":0}","[0]","survey-likert","401","1334945","0.0-401.0","41n0m09v","","","","","",""
"6430.620000000112","{""post-5"":2}","[0]","survey-likert","402","1341378","0.0-402.0","41n0m09v","","","","","",""
"","","","call-function","403","1341379","0.0-403.0","41n0m09v","","","","","",""
"null","","","video-keyboard-response","404","1344475","0.0-404.0","41n0m09v","","","","null","Agent A","STIM_SET_1_REAL/713017.bmp_pp152_L2_V1.0_scrambled_freeview_isoFalse_fps144.mp4"
"","","","call-function","405","1344475","0.0-405.0","41n0m09v","","","","","",""
"3724.2949999999255","{""pre-1"":1}","[0]","survey-likert","406","1348201","0.0-406.0","41n0m09v","","","","","",""
"5575.280000000028","{""pre-2"":2}","[0]","survey-likert","407","1353777","0.0-407.0","41n0m09v","","","","","",""
"1006.089999999851","{""pre-3"":2}","[0]","survey-likert","408","1354786","0.0-408.0","41n0m09v","","","","","",""
"2154.6700000001583","{""post-5"":0}","[0]","survey-likert","409","1356942","0.0-409.0","41n0m09v","","","","","",""
"","","","call-function","410","1356943","0.0-410.0","41n0m09v","","","","","",""
"null","","","video-keyboard-response","411","1360038","0.0-411.0","41n0m09v","","","","null","Agent A","STIM_SET_1_REAL/61537.bmp_pp73_L3_V1.0_veridical_freeview_isoFalse_fps144.mp4"
"","","","call-function","412","1360039","0.0-412.0","41n0m09v","","","","","",""
"3658.9199999999255","{""pre-1"":2}","[0]","survey-likert","413","1363699","0.0-413.0","41n0m09v","","","","","",""
"1122.4150000000373","{""pre-2"":2}","[0]","survey-likert","414","1364822","0.0-414.0","41n0m09v","","","","","",""
"3804.285000000149","{""pre-3"":2}","[0]","survey-likert","415","1368628","0.0-415.0","41n0m09v","","","","","",""
"9863.969999999972","{""post-5"":0}","[0]","survey-likert","416","1378493","0.0-416.0","41n0m09v","","","","","",""
"","","","call-function","417","1378494","0.0-417.0","41n0m09v","","","","","",""
"null","","","video-keyboard-response","418","1381581","0.0-418.0","41n0m09v","","","","null","Agent A","STIM_SET_1_REAL/1592397.bmp_pp85_L3_V1.0_scrambled_freeview_isoFalse_fps144.mp4"
"","","","call-function","419","1381581","0.0-419.0","41n0m09v","","","","","",""
"7945.97499999986","{""pre-1"":2}","[0]","survey-likert","420","1389528","0.0-420.0","41n0m09v","","","","","",""
"1100.969999999972","{""pre-2"":2}","[0]","survey-likert","421","1390631","0.0-421.0","41n0m09v","","","","","",""
"2936.5250000001397","{""pre-3"":2}","[0]","survey-likert","422","1393568","0.0-422.0","41n0m09v","","","","","",""
"3155.9550000000745","{""post-5"":0}","[0]","survey-likert","423","1396725","0.0-423.0","41n0m09v","","","","","",""
"","","","call-function","424","1396726","0.0-424.0","41n0m09v","","","","","",""
"null","","","video-keyboard-response","425","1399824","0.0-425.0","41n0m09v","","","","null","Agent A","STIM_SET_1_REAL/1591994.bmp_pp69_L3_V1.0_veridical_freeview_isoFalse_fps144.mp4"
"","","","call-function","426","1399826","0.0-426.0","41n0m09v","","","","","",""
"3003.594999999972","{""pre-1"":3}","[0]","survey-likert","427","1402831","0.0-427.0","41n0m09v","","","","","",""
"11317.495000000112","{""pre-2"":1}","[0]","survey-likert","428","1414151","0.0-428.0","41n0m09v","","","","","",""
"5681.280000000028","{""pre-3"":1}","[0]","survey-likert","429","1419833","0.0-429.0","41n0m09v","","","","","",""
"3044.564999999944","{""post-5"":0}","[0]","survey-likert","430","1422879","0.0-430.0","41n0m09v","","","","","",""
"","","","call-function","431","1422880","0.0-431.0","41n0m09v","","","","","",""
"null","","","video-keyboard-response","432","1425967","0.0-432.0","41n0m09v","","","","null","Agent A","STIM_SET_1_REAL/1592581.bmp_pp100_L3_V1.0_scrambled_freeview_isoFalse_fps144.mp4"
"","","","call-function","433","1425967","0.0-433.0","41n0m09v","","","","","",""
"12186.814999999944","{""pre-1"":1}","[0]","survey-likert","434","1438155","0.0-434.0","41n0m09v","","","","","",""
"2061.090000000084","{""pre-2"":2}","[0]","survey-likert","435","1440218","0.0-435.0","41n0m09v","","","","","",""
"2566.435000000056","{""pre-3"":2}","[0]","survey-likert","436","1442785","0.0-436.0","41n0m09v","","","","","",""
"4668.514999999898","{""post-5"":0}","[0]","survey-likert","437","1447455","0.0-437.0","41n0m09v","","","","","",""
"","","","call-function","438","1447455","0.0-438.0","41n0m09v","","","","","",""
"null","","","video-keyboard-response","439","1450569","0.0-439.0","41n0m09v","","","","null","Agent A","STIM_SET_1_REAL/1592807.bmp_pp68_L1_V1.0_scrambled_freeview_isoFalse_fps144.mp4"
"","","","call-function","440","1450569","0.0-440.0","41n0m09v","","","","","",""
"2034.1000000000931","{""pre-1"":2}","[0]","survey-likert","441","1452604","0.0-441.0","41n0m09v","","","","","",""
"2424.1299999998882","{""pre-2"":1}","[0]","survey-likert","442","1455030","0.0-442.0","41n0m09v","","","","","",""
"4715.810000000056","{""pre-3"":1}","[0]","survey-likert","443","1459746","0.0-443.0","41n0m09v","","","","","",""
"6432.244999999879","{""post-5"":0}","[0]","survey-likert","444","1466180","0.0-444.0","41n0m09v","","","","","",""
"44126.554999999935","","","instructions","445","1510308","0.0-445.0","41n0m09v","[{""page_index"":0,""viewing_time"":1155.5549999999348},{""page_index"":1,""viewing_time"":41309.054999999935},{""page_index"":2,""viewing_time"":1661.2750000001397}]","","","","",""
"1644.7150000000838","","","instructions","446","1511954","0.0-446.0","41n0m09v","[{""page_index"":0,""viewing_time"":61.389999999897555},{""page_index"":1,""viewing_time"":1093.7700000000186},{""page_index"":2,""viewing_time"":489.3649999999907}]","","","","",""
"","","","call-function","447","1511955","0.0-447.0","41n0m09v","","","","","",""
"null","","","video-keyboard-response","448","1515072","0.0-448.0","41n0m09v","","","","null","Agent A","STIM_SET_1_REAL/1593146.bmp_pp93_L1_V1.0_veridical_freeview_isoFalse_fps144.mp4"
"","","","call-function","449","1515072","0.0-449.0","41n0m09v","","","","","",""
"1559.9799999999814","{""pre-1"":2}","[0]","survey-likert","450","1516633","0.0-450.0","41n0m09v","","","","","",""
"2823.980000000214","{""pre-2"":2}","[0]","survey-likert","451","1519458","0.0-451.0","41n0m09v","","","","","",""
"2010.3549999999814","{""pre-3"":1}","[0]","survey-likert","452","1521470","0.0-452.0","41n0m09v","","","","","",""
"1973.405000000028","{""post-5"":1}","[0]","survey-likert","453","1523445","0.0-453.0","41n0m09v","","","","","",""
"","","","call-function","454","1523445","0.0-454.0","41n0m09v","","","","","",""
"null","","","video-keyboard-response","455","1526541","0.0-455.0","41n0m09v","","","","null","Agent A","STIM_SET_1_REAL/1159447.bmp_pp70_L2_V1.0_scrambled_freeview_isoFalse_fps144.mp4"
"","","","call-function","456","1526541","0.0-456.0","41n0m09v","","","","","",""
"3578.5200000000186","{""pre-1"":1}","[0]","survey-likert","457","1530121","0.0-457.0","41n0m09v","","","","","",""
"3804.804999999935","{""pre-2"":1}","[0]","survey-likert","458","1533927","0.0-458.0","41n0m09v","","","","","",""
"2705.570000000065","{""pre-3"":1}","[0]","survey-likert","459","1536633","0.0-459.0","41n0m09v","","","","","",""
"2207.0150000001304","{""post-5"":1}","[0]","survey-likert","460","1538841","0.0-460.0","41n0m09v","","","","","",""
"","","","call-function","461","1538842","0.0-461.0","41n0m09v","","","","","",""
"null","","","video-keyboard-response","462","1541921","0.0-462.0","41n0m09v","","","","null","Agent A","STIM_SET_1_REAL/285751.bmp_pp55_L3_V1.0_scrambled_freeview_isoFalse_fps144.mp4"
"","","","call-function","463","1541922","0.0-463.0","41n0m09v","","","","","",""
"1679.7549999998882","{""pre-1"":2}","[0]","survey-likert","464","1543602","0.0-464.0","41n0m09v","","","","","",""
"2432.435000000056","{""pre-2"":1}","[0]","survey-likert","465","1546036","0.0-465.0","41n0m09v","","","","","",""
"907.6899999999441","{""pre-3"":2}","[0]","survey-likert","466","1546945","0.0-466.0","41n0m09v","","","","","",""
"2936.755000000121","{""post-5"":0}","[0]","survey-likert","467","1549883","0.0-467.0","41n0m09v","","","","","",""
"","","","call-function","468","1549884","0.0-468.0","41n0m09v","","","","","",""
"null","","","video-keyboard-response","469","1552981","0.0-469.0","41n0m09v","","","","null","Agent A","STIM_SET_1_REAL/1159446.bmp_pp60_L3_V1.0_veridical_freeview_isoFalse_fps144.mp4"
"","","","call-function","470","1552981","0.0-470.0","41n0m09v","","","","","",""
"2985.9799999999814","{""pre-1"":3}","[0]","survey-likert","471","1555968","0.0-471.0","41n0m09v","","","","","",""
"2185.350000000093","{""pre-2"":2}","[0]","survey-likert","472","1558155","0.0-472.0","41n0m09v","","","","","",""
"4704.7949999999255","{""pre-3"":2}","[0]","survey-likert","473","1562860","0.0-473.0","41n0m09v","","","","","",""
"1769.8900000001304","{""post-5"":1}","[0]","survey-likert","474","1564631","0.0-474.0","41n0m09v","","","","","",""
"","","","call-function","475","1564632","0.0-475.0","41n0m09v","","","","","",""
"null","","","video-keyboard-response","476","1567751","0.0-476.0","41n0m09v","","","","null","Agent A","STIM_SET_1_REAL/1592934.bmp_pp63_L1_V1.0_veridical_freeview_isoFalse_fps144.mp4"
"","","","call-function","477","1567752","0.0-477.0","41n0m09v","","","","","",""
"6556.854999999981","{""pre-1"":1}","[0]","survey-likert","478","1574312","0.0-478.0","41n0m09v","","","","","",""
"2730.2900000000373","{""pre-2"":2}","[0]","survey-likert","479","1577045","0.0-479.0","41n0m09v","","","","","",""
"1557.4599999999627","{""pre-3"":1}","[0]","survey-likert","480","1578604","0.0-480.0","41n0m09v","","","","","",""
"1853.9150000000373","{""post-5"":1}","[0]","survey-likert","481","1580459","0.0-481.0","41n0m09v","","","","","",""
"","","","call-function","482","1580460","0.0-482.0","41n0m09v","","","","","",""
"null","","","video-keyboard-response","483","1583538","0.0-483.0","41n0m09v","","","","null","Agent A","STIM_SET_1_REAL/1592351.bmp_pp51_L1_V1.0_scrambled_freeview_isoFalse_fps144.mp4"
"","","","call-function","484","1583539","0.0-484.0","41n0m09v","","","","","",""
"3249.8000000000466","{""pre-1"":2}","[0]","survey-likert","485","1586790","0.0-485.0","41n0m09v","","","","","",""
"1398.344999999972","{""pre-2"":2}","[0]","survey-likert","486","1588189","0.0-486.0","41n0m09v","","","","","",""
"1366.8100000000559","{""pre-3"":1}","[0]","survey-likert","487","1589557","0.0-487.0","41n0m09v","","","","","",""
"1911.7600000000093","{""post-5"":0}","[0]","survey-likert","488","1591470","0.0-488.0","41n0m09v","","","","","",""
"","","","call-function","489","1591471","0.0-489.0","41n0m09v","","","","","",""
"null","","","video-keyboard-response","490","1594563","0.0-490.0","41n0m09v","","","","null","Agent A","STIM_SET_1_REAL/713666.bmp_pp97_L3_V1.0_veridical_freeview_isoFalse_fps144.mp4"
"","","","call-function","491","1594563","0.0-491.0","41n0m09v","","","","","",""
"1627.8599999998696","{""pre-1"":2}","[0]","survey-likert","492","1596192","0.0-492.0","41n0m09v","","","","","",""
"1149.155000000028","{""pre-2"":2}","[0]","survey-likert","493","1597342","0.0-493.0","41n0m09v","","","","","",""
"1838.7549999998882","{""pre-3"":1}","[0]","survey-likert","494","1599182","0.0-494.0","41n0m09v","","","","","",""
"2621.5449999999255","{""post-5"":0}","[0]","survey-likert","495","1601805","0.0-495.0","41n0m09v","","","","","",""
"","","","call-function","496","1601806","0.0-496.0","41n0m09v","","","","","",""
"null","","","video-keyboard-response","497","1604888","0.0-497.0","41n0m09v","","","","null","Agent A","STIM_SET_1_REAL/1159882.bmp_pp61_L2_V1.0_scrambled_freeview_isoFalse_fps144.mp4"
"","","","call-function","498","1604888","0.0-498.0","41n0m09v","","","","","",""
"5482.15000000014","{""pre-1"":1}","[0]","survey-likert","499","1610371","0.0-499.0","41n0m09v","","","","","",""
"6955.119999999879","{""pre-2"":1}","[0]","survey-likert","500","1617328","0.0-500.0","41n0m09v","","","","","",""
"8115.079999999842","{""pre-3"":1}","[0]","survey-likert","501","1625445","0.0-501.0","41n0m09v","","","","","",""
"6036.364999999991","{""post-5"":0}","[0]","survey-likert","502","1631483","0.0-502.0","41n0m09v","","","","","",""
"","","","call-function","503","1631484","0.0-503.0","41n0m09v","","","","","",""
"null","","","video-keyboard-response","504","1634570","0.0-504.0","41n0m09v","","","","null","Agent A","STIM_SET_1_REAL/1160127.bmp_pp90_L2_V1.0_scrambled_freeview_isoFalse_fps144.mp4"
"","","","call-function","505","1634571","0.0-505.0","41n0m09v","","","","","",""
"1876.4799999999814","{""pre-1"":2}","[0]","survey-likert","506","1636448","0.0-506.0","41n0m09v","","","","","",""
"1479.1350000000093","{""pre-2"":1}","[0]","survey-likert","507","1637929","0.0-507.0","41n0m09v","","","","","",""
"1309.1049999999814","{""pre-3"":1}","[0]","survey-likert","508","1639239","0.0-508.0","41n0m09v","","","","","",""
"1430.7049999998417","{""post-5"":0}","[0]","survey-likert","509","1640671","0.0-509.0","41n0m09v","","","","","",""
"","","","call-function","510","1640671","0.0-510.0","41n0m09v","","","","","",""
"null","","","video-keyboard-response","511","1643767","0.0-511.0","41n0m09v","","","","null","Agent A","STIM_SET_1_REAL/713707.bmp_pp154_L1_V1.0_veridical_freeview_isoFalse_fps144.mp4"
"","","","call-function","512","1643767","0.0-512.0","41n0m09v","","","","","",""
"2557.410000000149","{""pre-1"":1}","[0]","survey-likert","513","1646326","0.0-513.0","41n0m09v","","","","","",""
"2192.8850000000093","{""pre-2"":1}","[0]","survey-likert","514","1648520","0.0-514.0","41n0m09v","","","","","",""
"1244.030000000028","{""pre-3"":1}","[0]","survey-likert","515","1649765","0.0-515.0","41n0m09v","","","","","",""
"3829.695000000065","{""post-5"":0}","[0]","survey-likert","516","1653596","0.0-516.0","41n0m09v","","","","","",""
"","","","call-function","517","1653596","0.0-517.0","41n0m09v","","","","","",""
"null","","","video-keyboard-response","518","1656686","0.0-518.0","41n0m09v","","","","null","Agent A","STIM_SET_1_REAL/713796.bmp_pp84_L3_V1.0_scrambled_freeview_isoFalse_fps144.mp4"
"","","","call-function","519","1656686","0.0-519.0","41n0m09v","","","","","",""
"2369.340000000084","{""pre-1"":1}","[0]","survey-likert","520","1659056","0.0-520.0","41n0m09v","","","","","",""
"2535.1149999999907","{""pre-2"":1}","[0]","survey-likert","521","1661593","0.0-521.0","41n0m09v","","","","","",""
"5911.594999999972","{""pre-3"":0}","[0]","survey-likert","522","1667505","0.0-522.0","41n0m09v","","","","","",""
"1880.3249999999534","{""post-5"":0}","[0]","survey-likert","523","1669387","0.0-523.0","41n0m09v","","","","","",""
"","","","call-function","524","1669387","0.0-524.0","41n0m09v","","","","","",""
"null","","","video-keyboard-response","525","1672487","0.0-525.0","41n0m09v","","","","null","Agent A","STIM_SET_1_REAL/498155.bmp_pp61_L2_V1.0_veridical_freeview_isoFalse_fps144.mp4"
"","","","call-function","526","1672488","0.0-526.0","41n0m09v","","","","","",""
"12088.11499999999","{""pre-1"":1}","[0]","survey-likert","527","1684577","0.0-527.0","41n0m09v","","","","","",""
"1993.0750000001863","{""pre-2"":1}","[0]","survey-likert","528","1686571","0.0-528.0","41n0m09v","","","","","",""
"1701.5200000000186","{""pre-3"":1}","[0]","survey-likert","529","1688273","0.0-529.0","41n0m09v","","","","","",""
"2676.4950000001118","{""post-5"":0}","[0]","survey-likert","530","1690951","0.0-530.0","41n0m09v","","","","","",""
"","","","call-function","531","1690951","0.0-531.0","41n0m09v","","","","","",""
"null","","","video-keyboard-response","532","1694070","0.0-532.0","41n0m09v","","","","null","Agent A","STIM_SET_1_REAL/1591961.bmp_pp67_L2_V1.0_veridical_freeview_isoFalse_fps144.mp4"
"","","","call-function","533","1694071","0.0-533.0","41n0m09v","","","","","",""
"2430.2700000000186","{""pre-1"":1}","[0]","survey-likert","534","1696503","0.0-534.0","41n0m09v","","","","","",""
"3668.7050000000745","{""pre-2"":1}","[0]","survey-likert","535","1700173","0.0-535.0","41n0m09v","","","","","",""
"5680.195000000065","{""pre-3"":2}","[0]","survey-likert","536","1705855","0.0-536.0","41n0m09v","","","","","",""
"3338.435000000056","{""post-5"":1}","[0]","survey-likert","537","1709194","0.0-537.0","41n0m09v","","","","","",""
"","","","call-function","538","1709195","0.0-538.0","41n0m09v","","","","","",""
"null","","","video-keyboard-response","539","1712276","0.0-539.0","41n0m09v","","","","null","Agent A","STIM_SET_1_REAL/1159621.bmp_pp92_L3_V1.0_veridical_freeview_isoFalse_fps144.mp4"
"","","","call-function","540","1712276","0.0-540.0","41n0m09v","","","","","",""
"3314.6749999998137","{""pre-1"":1}","[0]","survey-likert","541","1715592","0.0-541.0","41n0m09v","","","","","",""
"5682.844999999972","{""pre-2"":1}","[0]","survey-likert","542","1721276","0.0-542.0","41n0m09v","","","","","",""
"3528.3549999999814","{""pre-3"":2}","[0]","survey-likert","543","1724806","0.0-543.0","41n0m09v","","","","","",""
"1502.7249999998603","{""post-5"":0}","[0]","survey-likert","544","1726311","0.0-544.0","41n0m09v","","","","","",""
"","","","call-function","545","1726311","0.0-545.0","41n0m09v","","","","","",""
"null","","","video-keyboard-response","546","1729408","0.0-546.0","41n0m09v","","","","null","Agent A","STIM_SET_1_REAL/1160127.bmp_pp90_L2_V1.0_veridical_freeview_isoFalse_fps144.mp4"
"","","","call-function","547","1729408","0.0-547.0","41n0m09v","","","","","",""
"4427.814999999944","{""pre-1"":2}","[0]","survey-likert","548","1733837","0.0-548.0","41n0m09v","","","","","",""
"1667.4250000000466","{""pre-2"":0}","[0]","survey-likert","549","1735506","0.0-549.0","41n0m09v","","","","","",""
"6983.040000000037","{""pre-3"":1}","[0]","survey-likert","550","1742490","0.0-550.0","41n0m09v","","","","","",""
"4843.320000000065","{""post-5"":0}","[0]","survey-likert","551","1747335","0.0-551.0","41n0m09v","","","","","",""
"","","","call-function","552","1747336","0.0-552.0","41n0m09v","","","","","",""
"null","","","video-keyboard-response","553","1750428","0.0-553.0","41n0m09v","","","","null","Agent A","STIM_SET_1_REAL/1159855.bmp_pp99_L2_V1.0_veridical_freeview_isoFalse_fps144.mp4"
"","","","call-function","554","1750429","0.0-554.0","41n0m09v","","","","","",""
"4070.505000000121","{""pre-1"":2}","[0]","survey-likert","555","1754500","0.0-555.0","41n0m09v","","","","","",""
"1245.8950000000186","{""pre-2"":2}","[0]","survey-likert","556","1755748","0.0-556.0","41n0m09v","","","","","",""
"1710.9650000000838","{""pre-3"":2}","[0]","survey-likert","557","1757460","0.0-557.0","41n0m09v","","","","","",""
"1782.1949999998324","{""post-5"":0}","[0]","survey-likert","558","1759243","0.0-558.0","41n0m09v","","","","","",""
"","","","call-function","559","1759244","0.0-559.0","41n0m09v","","","","","",""
"null","","","video-keyboard-response","560","1762357","0.0-560.0","41n0m09v","","","","null","Agent A","STIM_SET_1_REAL/1159813.bmp_pp79_L2_V1.0_veridical_freeview_isoFalse_fps144.mp4"
"","","","call-function","561","1762358","0.0-561.0","41n0m09v","","","","","",""
"1788.6049999999814","{""pre-1"":1}","[0]","survey-likert","562","1764148","0.0-562.0","41n0m09v","","","","","",""
"1121.5700000000652","{""pre-2"":2}","[0]","survey-likert","563","1765271","0.0-563.0","41n0m09v","","","","","",""
"1566.1799999999348","{""pre-3"":1}","[0]","survey-likert","564","1766838","0.0-564.0","41n0m09v","","","","","",""
"1729.469999999972","{""post-5"":1}","[0]","survey-likert","565","1768569","0.0-565.0","41n0m09v","","","","","",""
"","","","call-function","566","1768569","0.0-566.0","41n0m09v","","","","","",""
"null","","","video-keyboard-response","567","1771646","0.0-567.0","41n0m09v","","","","null","Agent A","STIM_SET_1_REAL/713681.bmp_pp86_L2_V1.0_veridical_freeview_isoFalse_fps144.mp4"
"","","","call-function","568","1771646","0.0-568.0","41n0m09v","","","","","",""
"5826.770000000019","{""pre-1"":2}","[0]","survey-likert","569","1777474","0.0-569.0","41n0m09v","","","","","",""
"1144.4799999999814","{""pre-2"":1}","[0]","survey-likert","570","1778620","0.0-570.0","41n0m09v","","","","","",""
"1706.3950000000186","{""pre-3"":2}","[0]","survey-likert","571","1780327","0.0-571.0","41n0m09v","","","","","",""
"1431.2900000000373","{""post-5"":0}","[0]","survey-likert","572","1781760","0.0-572.0","41n0m09v","","","","","",""
"","","","call-function","573","1781760","0.0-573.0","41n0m09v","","","","","",""
"null","","","video-keyboard-response","574","1784853","0.0-574.0","41n0m09v","","","","null","Agent A","STIM_SET_1_REAL/712977.bmp_pp51_L1_V1.0_scrambled_freeview_isoFalse_fps144.mp4"
"","","","call-function","575","1784853","0.0-575.0","41n0m09v","","","","","",""
"2717.8899999998976","{""pre-1"":3}","[0]","survey-likert","576","1787572","0.0-576.0","41n0m09v","","","","","",""
"1485.5049999998882","{""pre-2"":2}","[0]","survey-likert","577","1789059","0.0-577.0","41n0m09v","","","","","",""
"1785.0600000000559","{""pre-3"":2}","[0]","survey-likert","578","1790845","0.0-578.0","41n0m09v","","","","","",""
"5190.524999999907","{""post-5"":0}","[0]","survey-likert","579","1796037","0.0-579.0","41n0m09v","","","","","",""
"","","","call-function","580","1796038","0.0-580.0","41n0m09v","","","","","",""
"null","","","video-keyboard-response","581","1799162","0.0-581.0","41n0m09v","","","","null","Agent A","STIM_SET_1_REAL/1593041.bmp_pp58_L1_V1.0_scrambled_freeview_isoFalse_fps144.mp4"
"","","","call-function","582","1799162","0.0-582.0","41n0m09v","","","","","",""
"3995.9549999998417","{""pre-1"":1}","[0]","survey-likert","583","1803159","0.0-583.0","41n0m09v","","","","","",""
"1598.0049999998882","{""pre-2"":1}","[0]","survey-likert","584","1804758","0.0-584.0","41n0m09v","","","","","",""
"1149.8199999998324","{""pre-3"":1}","[0]","survey-likert","585","1805910","0.0-585.0","41n0m09v","","","","","",""
"2760.125","{""post-5"":1}","[0]","survey-likert","586","1808671","0.0-586.0","41n0m09v","","","","","",""
"36472.13500000001","","","instructions","587","1845144","0.0-587.0","41n0m09v","[{""page_index"":0,""viewing_time"":35168.44999999995},{""page_index"":1,""viewing_time"":576.410000000149},{""page_index"":2,""viewing_time"":727.1099999998696}]","","","","",""
"2122.564999999944","","","instructions","588","1847267","0.0-588.0","41n0m09v","[{""page_index"":0,""viewing_time"":627.5200000000186},{""page_index"":1,""viewing_time"":993.1049999999814},{""page_index"":2,""viewing_time"":501.8400000000838}]","","","","",""
"","","","call-function","589","1847267","0.0-589.0","41n0m09v","","","","","",""
"null","","","video-keyboard-response","590","1850346","0.0-590.0","41n0m09v","","","","null","Agent A","STIM_SET_1_REAL/497950.bmp_pp151_L1_V1.0_scrambled_freeview_isoFalse_fps144.mp4"
"","","","call-function","591","1850346","0.0-591.0","41n0m09v","","","","","",""
"2103.4149999998044","{""pre-1"":2}","[0]","survey-likert","592","1852451","0.0-592.0","41n0m09v","","","","","",""
"1165.375","{""pre-2"":2}","[0]","survey-likert","593","1853617","0.0-593.0","41n0m09v","","","","","",""
"2877.8850000000093","{""pre-3"":1}","[0]","survey-likert","594","1856496","0.0-594.0","41n0m09v","","","","","",""
"1660.6999999999534","{""post-5"":1}","[0]","survey-likert","595","1858158","0.0-595.0","41n0m09v","","","","","",""
"","","","call-function","596","1858158","0.0-596.0","41n0m09v","","","","","",""
"null","","","video-keyboard-response","597","1861240","0.0-597.0","41n0m09v","","","","null","Agent A","STIM_SET_1_REAL/1159446.bmp_pp60_L3_V1.0_scrambled_freeview_isoFalse_fps144.mp4"
"","","","call-function","598","1861240","0.0-598.0","41n0m09v","","","","","",""
"2047.9499999999534","{""pre-1"":2}","[0]","survey-likert","599","1863289","0.0-599.0","41n0m09v","","","","","",""
"2995.840000000084","{""pre-2"":1}","[0]","survey-likert","600","1866286","0.0-600.0","41n0m09v","","","","","",""
"3102.505000000121","{""pre-3"":0}","[0]","survey-likert","601","1869390","0.0-601.0","41n0m09v","","","","","",""
"3732.0849999999627","{""post-5"":1}","[0]","survey-likert","602","1873123","0.0-602.0","41n0m09v","","","","","",""
"","","","call-function","603","1873124","0.0-603.0","41n0m09v","","","","","",""
"null","","","video-keyboard-response","604","1876217","0.0-604.0","41n0m09v","","","","null","Agent A","STIM_SET_1_REAL/1160168.bmp_pp53_L2_V1.0_veridical_freeview_isoFalse_fps144.mp4"
"","","","call-function","605","1876218","0.0-605.0","41n0m09v","","","","","",""
"4696.280000000028","{""pre-1"":2}","[0]","survey-likert","606","1880915","0.0-606.0","41n0m09v","","","","","",""
"1183.1100000001024","{""pre-2"":2}","[0]","survey-likert","607","1882099","0.0-607.0","41n0m09v","","","","","",""
"1527.1899999999441","{""pre-3"":2}","[0]","survey-likert","608","1883627","0.0-608.0","41n0m09v","","","","","",""
"2665.439999999944","{""post-5"":0}","[0]","survey-likert","609","1886295","0.0-609.0","41n0m09v","","","","","",""
"","","","call-function","610","1886295","0.0-610.0","41n0m09v","","","","","",""
"null","","","video-keyboard-response","611","1889373","0.0-611.0","41n0m09v","","","","null","Agent A","STIM_SET_1_REAL/1591876.bmp_pp63_L1_V1.0_veridical_freeview_isoFalse_fps144.mp4"
"","","","call-function","612","1889374","0.0-612.0","41n0m09v","","","","","",""
"7096.299999999814","{""pre-1"":1}","[0]","survey-likert","613","1896471","0.0-613.0","41n0m09v","","","","","",""
"2461.435000000056","{""pre-2"":1}","[0]","survey-likert","614","1898936","0.0-614.0","41n0m09v","","","","","",""
"1188.6699999999255","{""pre-3"":1}","[0]","survey-likert","615","1900127","0.0-615.0","41n0m09v","","","","","",""
"1640.8950000000186","{""post-5"":0}","[0]","survey-likert","616","1901769","0.0-616.0","41n0m09v","","","","","",""
"","","","call-function","617","1901770","0.0-617.0","41n0m09v","","","","","",""
"null","","","video-keyboard-response","618","1904859","0.0-618.0","41n0m09v","","","","null","Agent A","STIM_SET_1_REAL/1592727.bmp_pp59_L3_V1.0_scrambled_freeview_isoFalse_fps144.mp4"
"","","","call-function","619","1904860","0.0-619.0","41n0m09v","","","","","",""
"2787.345000000205","{""pre-1"":0}","[0]","survey-likert","620","1907649","0.0-620.0","41n0m09v","","","","","",""
"6152.935000000056","{""pre-2"":1}","[0]","survey-likert","621","1913803","0.0-621.0","41n0m09v","","","","","",""
"2688.375","{""pre-3"":1}","[0]","survey-likert","622","1916493","0.0-622.0","41n0m09v","","","","","",""
"2171.214999999851","{""post-5"":0}","[0]","survey-likert","623","1918665","0.0-623.0","41n0m09v","","","","","",""
"","","","call-function","624","1918666","0.0-624.0","41n0m09v","","","","","",""
"null","","","video-keyboard-response","625","1921745","0.0-625.0","41n0m09v","","","","null","Agent A","STIM_SET_1_REAL/1592890.bmp_pp82_L2_V1.0_veridical_freeview_isoFalse_fps144.mp4"
"","","","call-function","626","1921746","0.0-626.0","41n0m09v","","","","","",""
"1480.9350000000559","{""pre-1"":1}","[0]","survey-likert","627","1923228","0.0-627.0","41n0m09v","","","","","",""
"1709.2600000000093","{""pre-2"":1}","[0]","survey-likert","628","1924939","0.0-628.0","41n0m09v","","","","","",""
"4323.804999999935","{""pre-3"":1}","[0]","survey-likert","629","1929264","0.0-629.0","41n0m09v","","","","","",""
"2310.475000000093","{""post-5"":0}","[0]","survey-likert","630","1931575","0.0-630.0","41n0m09v","","","","","",""
"","","","call-function","631","1931575","0.0-631.0","41n0m09v","","","","","",""
"null","","","video-keyboard-response","632","1934667","0.0-632.0","41n0m09v","","","","null","Agent A","STIM_SET_1_REAL/1159829.bmp_pp91_L3_V1.0_scrambled_freeview_isoFalse_fps144.mp4"
"","","","call-function","633","1934668","0.0-633.0","41n0m09v","","","","","",""
"4487.97499999986","{""pre-1"":0}","[0]","survey-likert","634","1939157","0.0-634.0","41n0m09v","","","","","",""
"10847.02500000014","{""pre-2"":1}","[0]","survey-likert","635","1950005","0.0-635.0","41n0m09v","","","","","",""
"1976.880000000121","{""pre-3"":1}","[0]","survey-likert","636","1951983","0.0-636.0","41n0m09v","","","","","",""
"1325.5249999999069","{""post-5"":0}","[0]","survey-likert","637","1953310","0.0-637.0","41n0m09v","","","","","",""
"","","","call-function","638","1953310","0.0-638.0","41n0m09v","","","","","",""
"null","","","video-keyboard-response","639","1956401","0.0-639.0","41n0m09v","","","","null","Agent A","STIM_SET_1_REAL/498111.bmp_pp88_L2_V1.0_veridical_freeview_isoFalse_fps144.mp4"
"","","","call-function","640","1956402","0.0-640.0","41n0m09v","","","","","",""
"2467.2099999999627","{""pre-1"":2}","[0]","survey-likert","641","1958870","0.0-641.0","41n0m09v","","","","","",""
"1426.059999999823","{""pre-2"":2}","[0]","survey-likert","642","1960299","0.0-642.0","41n0m09v","","","","","",""
"1204.1450000000186","{""pre-3"":2}","[0]","survey-likert","643","1961504","0.0-643.0","41n0m09v","","","","","",""
"4153.459999999963","{""post-5"":0}","[0]","survey-likert","644","1965659","0.0-644.0","41n0m09v","","","","","",""
"","","","call-function","645","1965660","0.0-645.0","41n0m09v","","","","","",""
"null","","","video-keyboard-response","646","1968757","0.0-646.0","41n0m09v","","","","null","Agent A","STIM_SET_1_REAL/1591994.bmp_pp69_L3_V1.0_scrambled_freeview_isoFalse_fps144.mp4"
"","","","call-function","647","1968758","0.0-647.0","41n0m09v","","","","","",""
"7466.1699999999255","{""pre-1"":1}","[0]","survey-likert","648","1976225","0.0-648.0","41n0m09v","","","","","",""
"2974.310000000056","{""pre-2"":1}","[0]","survey-likert","649","1979200","0.0-649.0","41n0m09v","","","","","",""
"1227.7100000001956","{""pre-3"":1}","[0]","survey-likert","650","1980429","0.0-650.0","41n0m09v","","","","","",""
"3927.8349999999627","{""post-5"":1}","[0]","survey-likert","651","1984358","0.0-651.0","41n0m09v","","","","","",""
"","","","call-function","652","1984359","0.0-652.0","41n0m09v","","","","","",""
"null","","","video-keyboard-response","653","1987438","0.0-653.0","41n0m09v","","","","null","Agent A","STIM_SET_1_REAL/285994.bmp_pp92_L3_V1.0_scrambled_freeview_isoFalse_fps144.mp4"
"","","","call-function","654","1987438","0.0-654.0","41n0m09v","","","","","",""
"2104.9449999998324","{""pre-1"":2}","[0]","survey-likert","655","1989544","0.0-655.0","41n0m09v","","","","","",""
"1329.3600000001024","{""pre-2"":2}","[0]","survey-likert","656","1990875","0.0-656.0","41n0m09v","","","","","",""
"1160.9150000000373","{""pre-3"":1}","[0]","survey-likert","657","1992037","0.0-657.0","41n0m09v","","","","","",""
"4231.030000000028","{""post-5"":1}","[0]","survey-likert","658","1996269","0.0-658.0","41n0m09v","","","","","",""
"","","","call-function","659","1996270","0.0-659.0","41n0m09v","","","","","",""
"null","","","video-keyboard-response","660","1999349","0.0-660.0","41n0m09v","","","","null","Agent A","STIM_SET_1_REAL/1592619.bmp_pp56_L3_V1.0_scrambled_freeview_isoFalse_fps144.mp4"
"","","","call-function","661","1999350","0.0-661.0","41n0m09v","","","","","",""
"3170.9749999998603","{""pre-1"":2}","[0]","survey-likert","662","2002522","0.0-662.0","41n0m09v","","","","","",""
"13475","{""pre-2"":1}","[0]","survey-likert","663","2015998","0.0-663.0","41n0m09v","","","","","",""
"3364.405000000028","{""pre-3"":1}","[0]","survey-likert","664","2019363","0.0-664.0","41n0m09v","","","","","",""
"1620.0150000001304","{""post-5"":1}","[0]","survey-likert","665","2020984","0.0-665.0","41n0m09v","","","","","",""
"","","","call-function","666","2020985","0.0-666.0","41n0m09v","","","","","",""
"null","","","video-keyboard-response","667","2024077","0.0-667.0","41n0m09v","","","","null","Agent A","STIM_SET_1_REAL/713135.bmp_pp54_L2_V1.0_veridical_freeview_isoFalse_fps144.mp4"
"","","","call-function","668","2024078","0.0-668.0","41n0m09v","","","","","",""
"6750.4550000000745","{""pre-1"":2}","[0]","survey-likert","669","2030829","0.0-669.0","41n0m09v","","","","","",""
"3500.8299999998417","{""pre-2"":1}","[0]","survey-likert","670","2034332","0.0-670.0","41n0m09v","","","","","",""
"1468.7949999999255","{""pre-3"":1}","[0]","survey-likert","671","2035803","0.0-671.0","41n0m09v","","","","","",""
"1695.1999999999534","{""post-5"":0}","[0]","survey-likert","672","2037500","0.0-672.0","41n0m09v","","","","","",""
"","","","call-function","673","2037500","0.0-673.0","41n0m09v","","","","","",""
"null","","","video-keyboard-response","674","2040583","0.0-674.0","41n0m09v","","","","null","Agent A","STIM_SET_1_REAL/1592351.bmp_pp51_L1_V1.0_veridical_freeview_isoFalse_fps144.mp4"
"","","","call-function","675","2040584","0.0-675.0","41n0m09v","","","","","",""
"7251.449999999953","{""pre-1"":2}","[0]","survey-likert","676","2047836","0.0-676.0","41n0m09v","","","","","",""
"2801.375","{""pre-2"":1}","[0]","survey-likert","677","2050639","0.0-677.0","41n0m09v","","","","","",""
"5390.380000000121","{""pre-3"":0}","[0]","survey-likert","678","2056030","0.0-678.0","41n0m09v","","","","","",""
"2550.75","{""post-5"":0}","[0]","survey-likert","679","2058583","0.0-679.0","41n0m09v","","","","","",""
"","","","call-function","680","2058584","0.0-680.0","41n0m09v","","","","","",""
"null","","","video-keyboard-response","681","2061691","0.0-681.0","41n0m09v","","","","null","Agent A","STIM_SET_1_REAL/1159768.bmp_pp89_L1_V1.0_veridical_freeview_isoFalse_fps144.mp4"
"","","","call-function","682","2061691","0.0-682.0","41n0m09v","","","","","",""
"7018.75","{""pre-1"":2}","[0]","survey-likert","683","2068712","0.0-683.0","41n0m09v","","","","","",""
"2183.0500000000466","{""pre-2"":1}","[0]","survey-likert","684","2070896","0.0-684.0","41n0m09v","","","","","",""
"1361.9450000000652","{""pre-3"":1}","[0]","survey-likert","685","2072259","0.0-685.0","41n0m09v","","","","","",""
"1196.244999999879","{""post-5"":1}","[0]","survey-likert","686","2073456","0.0-686.0","41n0m09v","","","","","",""
"","","","call-function","687","2073457","0.0-687.0","41n0m09v","","","","","",""
"null","","","video-keyboard-response","688","2076539","0.0-688.0","41n0m09v","","","","null","Agent A","STIM_SET_1_REAL/713211.bmp_pp100_L3_V1.0_veridical_freeview_isoFalse_fps144.mp4"
"","","","call-function","689","2076540","0.0-689.0","41n0m09v","","","","","",""
"2941.4300000001676","{""pre-1"":1}","[0]","survey-likert","690","2079482","0.0-690.0","41n0m09v","","","","","",""
"951.0600000000559","{""pre-2"":1}","[0]","survey-likert","691","2080434","0.0-691.0","41n0m09v","","","","","",""
"7260.25","{""pre-3"":1}","[0]","survey-likert","692","2087696","0.0-692.0","41n0m09v","","","","","",""
"9566.70999999973","{""post-5"":2}","[0]","survey-likert","693","2097265","0.0-693.0","41n0m09v","","","","","",""
"","","","call-function","694","2097266","0.0-694.0","41n0m09v","","","","","",""
"null","","","video-keyboard-response","695","2100347","0.0-695.0","41n0m09v","","","","null","Agent A","STIM_SET_1_REAL/713089.bmp_pp60_L3_V1.0_veridical_freeview_isoFalse_fps144.mp4"
"","","","call-function","696","2100348","0.0-696.0","41n0m09v","","","","","",""
"1304.8899999996647","{""pre-1"":2}","[0]","survey-likert","697","2101654","0.0-697.0","41n0m09v","","","","","",""
"2369.8000000002794","{""pre-2"":1}","[0]","survey-likert","698","2104025","0.0-698.0","41n0m09v","","","","","",""
"3135.899999999907","{""pre-3"":2}","[0]","survey-likert","699","2107162","0.0-699.0","41n0m09v","","","","","",""
"1333.154999999795","{""post-5"":0}","[0]","survey-likert","700","2108496","0.0-700.0","41n0m09v","","","","","",""
"","","","call-function","701","2108497","0.0-701.0","41n0m09v","","","","","",""
"null","","","video-keyboard-response","702","2111567","0.0-702.0","41n0m09v","","","","null","Agent A","STIM_SET_1_REAL/1592362.bmp_pp95_L2_V1.0_veridical_freeview_isoFalse_fps144.mp4"
"","","","call-function","703","2111568","0.0-703.0","41n0m09v","","","","","",""
"3966.5849999999627","{""pre-1"":2}","[0]","survey-likert","704","2115536","0.0-704.0","41n0m09v","","","","","",""
"3084.7599999997765","{""pre-2"":1}","[0]","survey-likert","705","2118622","0.0-705.0","41n0m09v","","","","","",""
"1420.7999999998137","{""pre-3"":1}","[0]","survey-likert","706","2120043","0.0-706.0","41n0m09v","","","","","",""
"2939.3950000000186","{""post-5"":0}","[0]","survey-likert","707","2122984","0.0-707.0","41n0m09v","","","","","",""
"","","","call-function","708","2122985","0.0-708.0","41n0m09v","","","","","",""
"null","","","video-keyboard-response","709","2126087","0.0-709.0","41n0m09v","","","","null","Agent A","STIM_SET_1_REAL/713017.bmp_pp152_L2_V1.0_veridical_freeview_isoFalse_fps144.mp4"
"","","","call-function","710","2126088","0.0-710.0","41n0m09v","","","","","",""
"5002.839999999851","{""pre-1"":3}","[0]","survey-likert","711","2131092","0.0-711.0","41n0m09v","","","","","",""
"2459.160000000149","{""pre-2"":3}","[0]","survey-likert","712","2133552","0.0-712.0","41n0m09v","","","","","",""
"2193.0949999997392","{""pre-3"":2}","[0]","survey-likert","713","2135746","0.0-713.0","41n0m09v","","","","","",""
"5054.925000000279","{""post-5"":1}","[0]","survey-likert","714","2140802","0.0-714.0","41n0m09v","","","","","",""
"","","","call-function","715","2140803","0.0-715.0","41n0m09v","","","","","",""
"null","","","video-keyboard-response","716","2143870","0.0-716.0","41n0m09v","","","","null","Agent A","STIM_SET_1_REAL/286001.bmp_pp54_L2_V1.0_veridical_freeview_isoFalse_fps144.mp4"
"","","","call-function","717","2143871","0.0-717.0","41n0m09v","","","","","",""
"2494.595000000205","{""pre-1"":3}","[0]","survey-likert","718","2146367","0.0-718.0","41n0m09v","","","","","",""
"9134.060000000056","{""pre-2"":2}","[0]","survey-likert","719","2155502","0.0-719.0","41n0m09v","","","","","",""
"1741.1299999998882","{""pre-3"":2}","[0]","survey-likert","720","2157245","0.0-720.0","41n0m09v","","","","","",""
"1935.2600000002421","{""post-5"":1}","[0]","survey-likert","721","2159181","0.0-721.0","41n0m09v","","","","","",""
"","","","call-function","722","2159182","0.0-722.0","41n0m09v","","","","","",""
"null","","","video-keyboard-response","723","2162254","0.0-723.0","41n0m09v","","","","null","Agent A","STIM_SET_1_REAL/713779.bmp_pp152_L2_V1.0_scrambled_freeview_isoFalse_fps144.mp4"
"","","","call-function","724","2162254","0.0-724.0","41n0m09v","","","","","",""
"5188.395000000019","{""pre-1"":0}","[0]","survey-likert","725","2167444","0.0-725.0","41n0m09v","","","","","",""
"9677.620000000112","{""pre-2"":2}","[0]","survey-likert","726","2177123","0.0-726.0","41n0m09v","","","","","",""
"3300.7150000003166","{""pre-3"":1}","[0]","survey-likert","727","2180425","0.0-727.0","41n0m09v","","","","","",""
"1385.5250000003725","{""post-5"":1}","[0]","survey-likert","728","2181811","0.0-728.0","41n0m09v","","","","","",""
"39489.330000000075","","","instructions","729","2221301","0.0-729.0","41n0m09v","[{""page_index"":0,""viewing_time"":3024.3050000001676},{""page_index"":1,""viewing_time"":35972.79000000004},{""page_index"":2,""viewing_time"":492.0099999997765}]","","","","",""
"1776.4550000000745","","","instructions","730","2223078","0.0-730.0","41n0m09v","[{""page_index"":0,""viewing_time"":422.29000000003725},{""page_index"":1,""viewing_time"":451.15500000026077},{""page_index"":2,""viewing_time"":902.9049999997951}]","","","","",""
"","","","call-function","731","2223079","0.0-731.0","41n0m09v","","","","","",""
"null","","","video-keyboard-response","732","2226167","0.0-732.0","41n0m09v","","","","null","Agent A","STIM_SET_1_REAL/713684.bmp_pp85_L3_V1.0_scrambled_freeview_isoFalse_fps144.mp4"
"","","","call-function","733","2226168","0.0-733.0","41n0m09v","","","","","",""
"2382.149999999907","{""pre-1"":1}","[0]","survey-likert","734","2228551","0.0-734.0","41n0m09v","","","","","",""
"1701.6899999999441","{""pre-2"":1}","[0]","survey-likert","735","2230254","0.0-735.0","41n0m09v","","","","","",""
"1213.1399999996647","{""pre-3"":1}","[0]","survey-likert","736","2231468","0.0-736.0","41n0m09v","","","","","",""
"1923.154999999795","{""post-5"":1}","[0]","survey-likert","737","2233393","0.0-737.0","41n0m09v","","","","","",""
"","","","call-function","738","2233394","0.0-738.0","41n0m09v","","","","","",""
"null","","","video-keyboard-response","739","2236504","0.0-739.0","41n0m09v","","","","null","Agent A","STIM_SET_1_REAL/713593.bmp_pp64_L1_V1.0_veridical_freeview_isoFalse_fps144.mp4"
"","","","call-function","740","2236505","0.0-740.0","41n0m09v","","","","","",""
"2164.9249999998137","{""pre-1"":3}","[0]","survey-likert","741","2238671","0.0-741.0","41n0m09v","","","","","",""
"1269.7050000000745","{""pre-2"":2}","[0]","survey-likert","742","2239943","0.0-742.0","41n0m09v","","","","","",""
"2221.845000000205","{""pre-3"":2}","[0]","survey-likert","743","2242167","0.0-743.0","41n0m09v","","","","","",""
"2779.100000000093","{""post-5"":0}","[0]","survey-likert","744","2244948","0.0-744.0","41n0m09v","","","","","",""
"","","","call-function","745","2244949","0.0-745.0","41n0m09v","","","","","",""
"null","","","video-keyboard-response","746","2248038","0.0-746.0","41n0m09v","","","","null","Agent A","STIM_SET_1_REAL/285933.bmp_pp81_L1_V1.0_scrambled_freeview_isoFalse_fps144.mp4"
"","","","call-function","747","2248038","0.0-747.0","41n0m09v","","","","","",""
"2294.535000000149","{""pre-1"":2}","[0]","survey-likert","748","2250334","0.0-748.0","41n0m09v","","","","","",""
"1597.8349999999627","{""pre-2"":1}","[0]","survey-likert","749","2251934","0.0-749.0","41n0m09v","","","","","",""
"1405.4699999997392","{""pre-3"":1}","[0]","survey-likert","750","2253340","0.0-750.0","41n0m09v","","","","","",""
"2072.2050000000745","{""post-5"":1}","[0]","survey-likert","751","2255414","0.0-751.0","41n0m09v","","","","","",""
"","","","call-function","752","2255415","0.0-752.0","41n0m09v","","","","","",""
"null","","","video-keyboard-response","753","2258500","0.0-753.0","41n0m09v","","","","null","Agent A","STIM_SET_1_REAL/713666.bmp_pp97_L3_V1.0_scrambled_freeview_isoFalse_fps144.mp4"
"","","","call-function","754","2258501","0.0-754.0","41n0m09v","","","","","",""
"11350.845000000205","{""pre-1"":1}","[0]","survey-likert","755","2269853","0.0-755.0","41n0m09v","","","","","",""
"977.769999999553","{""pre-2"":1}","[0]","survey-likert","756","2270832","0.0-756.0","41n0m09v","","","","","",""
"2855.4749999996275","{""pre-3"":1}","[0]","survey-likert","757","2273689","0.0-757.0","41n0m09v","","","","","",""
"2100.5949999997392","{""post-5"":1}","[0]","survey-likert","758","2275791","0.0-758.0","41n0m09v","","","","","",""
"","","","call-function","759","2275791","0.0-759.0","41n0m09v","","","","","",""
"null","","","video-keyboard-response","760","2278876","0.0-760.0","41n0m09v","","","","null","Agent A","STIM_SET_1_REAL/1592372.bmp_pp76_L1_V1.0_scrambled_freeview_isoFalse_fps144.mp4"
"","","","call-function","761","2278876","0.0-761.0","41n0m09v","","","","","",""
"3963.2150000003166","{""pre-1"":3}","[0]","survey-likert","762","2282841","0.0-762.0","41n0m09v","","","","","",""
"4432.345000000205","{""pre-2"":1}","[0]","survey-likert","763","2287274","0.0-763.0","41n0m09v","","","","","",""
"1643.630000000354","{""pre-3"":2}","[0]","survey-likert","764","2288919","0.0-764.0","41n0m09v","","","","","",""
"1503.3900000001304","{""post-5"":0}","[0]","survey-likert","765","2290424","0.0-765.0","41n0m09v","","","","","",""
"","","","call-function","766","2290424","0.0-766.0","41n0m09v","","","","","",""
"null","","","video-keyboard-response","767","2293538","0.0-767.0","41n0m09v","","","","null","Agent A","STIM_SET_1_REAL/713371.bmp_pp68_L1_V1.0_scrambled_freeview_isoFalse_fps144.mp4"
"","","","call-function","768","2293538","0.0-768.0","41n0m09v","","","","","",""
"1991.1149999997579","{""pre-1"":1}","[0]","survey-likert","769","2295531","0.0-769.0","41n0m09v","","","","","",""
"2034.0849999999627","{""pre-2"":1}","[0]","survey-likert","770","2297567","0.0-770.0","41n0m09v","","","","","",""
"1387.1099999998696","{""pre-3"":0}","[0]","survey-likert","771","2298956","0.0-771.0","41n0m09v","","","","","",""
"2197.3799999998882","{""post-5"":1}","[0]","survey-likert","772","2301155","0.0-772.0","41n0m09v","","","","","",""
"","","","call-function","773","2301156","0.0-773.0","41n0m09v","","","","","",""
"null","","","video-keyboard-response","774","2304273","0.0-774.0","41n0m09v","","","","null","Agent A","STIM_SET_1_REAL/498111.bmp_pp88_L2_V1.0_scrambled_freeview_isoFalse_fps144.mp4"
"","","","call-function","775","2304274","0.0-775.0","41n0m09v","","","","","",""
"6182.174999999814","{""pre-1"":1}","[0]","survey-likert","776","2310457","0.0-776.0","41n0m09v","","","","","",""
"2333.695000000298","{""pre-2"":1}","[0]","survey-likert","777","2312792","0.0-777.0","41n0m09v","","","","","",""
"2989.9550000000745","{""pre-3"":1}","[0]","survey-likert","778","2315784","0.0-778.0","41n0m09v","","","","","",""
"2825.964999999851","{""post-5"":0}","[0]","survey-likert","779","2318612","0.0-779.0","41n0m09v","","","","","",""
"","","","call-function","780","2318612","0.0-780.0","41n0m09v","","","","","",""
"null","","","video-keyboard-response","781","2321787","0.0-781.0","41n0m09v","","","","null","Agent A","STIM_SET_1_REAL/1593041.bmp_pp58_L1_V1.0_veridical_freeview_isoFalse_fps144.mp4"
"","","","call-function","782","2321787","0.0-782.0","41n0m09v","","","","","",""
"5505.604999999981","{""pre-1"":2}","[0]","survey-likert","783","2327294","0.0-783.0","41n0m09v","","","","","",""
"2201.7999999998137","{""pre-2"":2}","[0]","survey-likert","784","2329497","0.0-784.0","41n0m09v","","","","","",""
"1228.9799999999814","{""pre-3"":2}","[0]","survey-likert","785","2330727","0.0-785.0","41n0m09v","","","","","",""
"1584.7650000001304","{""post-5"":0}","[0]","survey-likert","786","2332313","0.0-786.0","41n0m09v","","","","","",""
"","","","call-function","787","2332313","0.0-787.0","41n0m09v","","","","","",""
"null","","","video-keyboard-response","788","2335469","0.0-788.0","41n0m09v","","","","null","Agent A","STIM_SET_1_REAL/713749.bmp_pp88_L2_V1.0_veridical_freeview_isoFalse_fps144.mp4"
"","","","call-function","789","2335469","0.0-789.0","41n0m09v","","","","","",""
"2054.9500000001863","{""pre-1"":3}","[0]","survey-likert","790","2337525","0.0-790.0","41n0m09v","","","","","",""
"1293.7299999999814","{""pre-2"":2}","[0]","survey-likert","791","2338820","0.0-791.0","41n0m09v","","","","","",""
"1955.470000000205","{""pre-3"":1}","[0]","survey-likert","792","2340777","0.0-792.0","41n0m09v","","","","","",""
"1217.7949999999255","{""post-5"":0}","[0]","survey-likert","793","2341996","0.0-793.0","41n0m09v","","","","","",""
"","","","call-function","794","2341996","0.0-794.0","41n0m09v","","","","","",""
"null","","","video-keyboard-response","795","2345086","0.0-795.0","41n0m09v","","","","null","Agent A","STIM_SET_1_REAL/1591876.bmp_pp63_L1_V1.0_scrambled_freeview_isoFalse_fps144.mp4"
"","","","call-function","796","2345087","0.0-796.0","41n0m09v","","","","","",""
"3789.119999999646","{""pre-1"":3}","[0]","survey-likert","797","2348877","0.0-797.0","41n0m09v","","","","","",""
"1855.8950000000186","{""pre-2"":2}","[0]","survey-likert","798","2350734","0.0-798.0","41n0m09v","","","","","",""
"1280.7299999999814","{""pre-3"":1}","[0]","survey-likert","799","2352016","0.0-799.0","41n0m09v","","","","","",""
"1539.4250000002794","{""post-5"":1}","[0]","survey-likert","800","2353557","0.0-800.0","41n0m09v","","","","","",""
"","","","call-function","801","2353558","0.0-801.0","41n0m09v","","","","","",""
"null","","","video-keyboard-response","802","2356680","0.0-802.0","41n0m09v","","","","null","Agent A","STIM_SET_1_REAL/1591961.bmp_pp67_L2_V1.0_scrambled_freeview_isoFalse_fps144.mp4"
"","","","call-function","803","2356680","0.0-803.0","41n0m09v","","","","","",""
"1521.5300000002608","{""pre-1"":2}","[0]","survey-likert","804","2358203","0.0-804.0","41n0m09v","","","","","",""
"1568.5150000001304","{""pre-2"":1}","[0]","survey-likert","805","2359772","0.0-805.0","41n0m09v","","","","","",""
"972.0850000004284","{""pre-3"":1}","[0]","survey-likert","806","2360746","0.0-806.0","41n0m09v","","","","","",""
"1468.6099999998696","{""post-5"":1}","[0]","survey-likert","807","2362216","0.0-807.0","41n0m09v","","","","","",""
"","","","call-function","808","2362216","0.0-808.0","41n0m09v","","","","","",""
"null","","","video-keyboard-response","809","2365312","0.0-809.0","41n0m09v","","","","null","Agent A","STIM_SET_1_REAL/1592804.bmp_pp91_L3_V1.0_veridical_freeview_isoFalse_fps144.mp4"
"","","","call-function","810","2365313","0.0-810.0","41n0m09v","","","","","",""
"8186.470000000205","{""pre-1"":1}","[0]","survey-likert","811","2373501","0.0-811.0","41n0m09v","","","","","",""
"4653.354999999981","{""pre-2"":1}","[0]","survey-likert","812","2378155","0.0-812.0","41n0m09v","","","","","",""
"2422.7700000000186","{""pre-3"":1}","[0]","survey-likert","813","2380579","0.0-813.0","41n0m09v","","","","","",""
"3026.3599999998696","{""post-5"":0}","[0]","survey-likert","814","2383607","0.0-814.0","41n0m09v","","","","","",""
"","","","call-function","815","2383608","0.0-815.0","41n0m09v","","","","","",""
"null","","","video-keyboard-response","816","2386692","0.0-816.0","41n0m09v","","","","null","Agent A","STIM_SET_1_REAL/1592890.bmp_pp82_L2_V1.0_scrambled_freeview_isoFalse_fps144.mp4"
"","","","call-function","817","2386692","0.0-817.0","41n0m09v","","","","","",""
"4789.655000000261","{""pre-1"":2}","[0]","survey-likert","818","2391483","0.0-818.0","41n0m09v","","","","","",""
"2832.2450000001118","{""pre-2"":1}","[0]","survey-likert","819","2394316","0.0-819.0","41n0m09v","","","","","",""
"1414.3849999997765","{""pre-3"":1}","[0]","survey-likert","820","2395732","0.0-820.0","41n0m09v","","","","","",""
"3719.9449999998324","{""post-5"":1}","[0]","survey-likert","821","2399453","0.0-821.0","41n0m09v","","","","","",""
"","","","call-function","822","2399453","0.0-822.0","41n0m09v","","","","","",""
"null","","","video-keyboard-response","823","2402538","0.0-823.0","41n0m09v","","","","null","Agent A","STIM_SET_1_REAL/498170.bmp_pp153_L3_V1.0_veridical_freeview_isoFalse_fps144.mp4"
"","","","call-function","824","2402539","0.0-824.0","41n0m09v","","","","","",""
"3840.089999999851","{""pre-1"":2}","[0]","survey-likert","825","2406380","0.0-825.0","41n0m09v","","","","","",""
"913.4449999998324","{""pre-2"":2}","[0]","survey-likert","826","2407294","0.0-826.0","41n0m09v","","","","","",""
"1430.720000000205","{""pre-3"":2}","[0]","survey-likert","827","2408727","0.0-827.0","41n0m09v","","","","","",""
"2223.6400000001304","{""post-5"":0}","[0]","survey-likert","828","2410952","0.0-828.0","41n0m09v","","","","","",""
"","","","call-function","829","2410952","0.0-829.0","41n0m09v","","","","","",""
"null","","","video-keyboard-response","830","2414054","0.0-830.0","41n0m09v","","","","null","Agent A","STIM_SET_1_REAL/713681.bmp_pp86_L2_V1.0_scrambled_freeview_isoFalse_fps144.mp4"
"","","","call-function","831","2414054","0.0-831.0","41n0m09v","","","","","",""
"1959.7600000002421","{""pre-1"":2}","[0]","survey-likert","832","2416015","0.0-832.0","41n0m09v","","","","","",""
"2802.4250000002794","{""pre-2"":1}","[0]","survey-likert","833","2418819","0.0-833.0","41n0m09v","","","","","",""
"1483","{""pre-3"":1}","[0]","survey-likert","834","2420304","0.0-834.0","41n0m09v","","","","","",""
"1434.589999999851","{""post-5"":1}","[0]","survey-likert","835","2421741","0.0-835.0","41n0m09v","","","","","",""
"","","","call-function","836","2421742","0.0-836.0","41n0m09v","","","","","",""
