"rt","responses","question_order","trial_type","trial_index","time_elapsed","internal_node_id","ID","view_history","value","stimulus","key_press","agent","image"
"68603.28","{""Experimenter"":[""Confirmed subject's identity (ID card)"",""Confirmed normal or corrected-to-normal vision"",""Obtained consent (signature and date)"",""Checked the test room lighting"",""Checked computer screen lighting"",""Checked distance from screen to chin rest (50cm)"",""Cleaned and adjusted chin rest"",""Counterbalanced the order of the tasks"",""Opened the experiment in Firefox"",""Made the experiment full screen"",""Encouraged subject to silence phone, put away distractors, etc.""]}","[0]","survey-multi-select","0","68612","0.0-0.0","4e7vau8x","","","","","",""
"35127.18999999999","","","instructions","1","103740","0.0-1.0","4e7vau8x","[{""page_index"":0,""viewing_time"":35127.03999999999}]","","","","",""
"8016.315000000002","{""Age"":0,""Sex"":1,""Gender"":2}","[0,1,2]","survey-likert","2","111759","0.0-2.0","4e7vau8x","","","","","",""
"1341.1549999999988","","","instructions","3","113101","0.0-3.0","4e7vau8x","[{""page_index"":0,""viewing_time"":1341.0400000000081}]","","","","",""
"4935.070000000007","","","instructions","4","118036","0.0-4.0","4e7vau8x","[{""page_index"":0,""viewing_time"":3508.050000000003},{""page_index"":1,""viewing_time"":1426.9149999999936}]","","","","",""
"6863.9649999999965","","","instructions","5","124901","0.0-5.0","4e7vau8x","[{""page_index"":0,""viewing_time"":1257.5},{""page_index"":1,""viewing_time"":1986.449999999997},{""page_index"":2,""viewing_time"":3619.8899999999994}]","","","","",""
"3314.9649999999965","","","instructions","6","128216","0.0-6.0","4e7vau8x","[{""page_index"":0,""viewing_time"":3314.8650000000052}]","","","","",""
"","","","call-function","7","128217","0.0-7.0","4e7vau8x","","","","","",""
"null","","","video-keyboard-response","8","131289","0.0-8.0","4e7vau8x","","","","null","",""
"","","","call-function","9","131290","0.0-9.0","4e7vau8x","","","","","",""
"8610.495000000024","","","instructions","10","139900","0.0-10.0","4e7vau8x","[{""page_index"":0,""viewing_time"":2240.3800000000047},{""page_index"":1,""viewing_time"":2746.9400000000023},{""page_index"":2,""viewing_time"":864.0800000000163},{""page_index"":3,""viewing_time"":2758.875}]","","","","",""
"982.2700000000186","","","instructions","11","140883","0.0-11.0","4e7vau8x","[{""page_index"":0,""viewing_time"":982.1600000000035}]","","","","",""
"","","","call-function","12","140884","0.0-12.0","4e7vau8x","","","","","",""
"null","","","video-keyboard-response","13","143958","0.0-13.0","4e7vau8x","","","","null","",""
"","","","call-function","14","143958","0.0-14.0","4e7vau8x","","","","","",""
"9903.089999999997","{""pre-1"":2}","[0]","survey-likert","15","153863","0.0-15.0","4e7vau8x","","","","","",""
"5454.635000000009","{""pre-2"":2}","[0]","survey-likert","16","159318","0.0-16.0","4e7vau8x","","","","","",""
"13431.120000000024","{""pre-3"":1}","[0]","survey-likert","17","172751","0.0-17.0","4e7vau8x","","","","","",""
"7396.005000000005","{""post-5"":1}","[0]","survey-likert","18","180149","0.0-18.0","4e7vau8x","","","","","",""
"975.1900000000023","","","instructions","19","181125","0.0-19.0","4e7vau8x","[{""page_index"":0,""viewing_time"":974.3699999999953}]","","","","",""
"4446.224999999977","","","instructions","20","185573","0.0-20.0","4e7vau8x","[{""page_index"":0,""viewing_time"":4446.114999999991}]","","","","",""
"","","","call-function","21","185573","0.0-21.0","4e7vau8x","","","","","",""
"null","","","video-keyboard-response","22","188641","0.0-22.0","4e7vau8x","","","","null","Agent A","STIM_SET_1_REAL/498149.bmp_pp99_L2_V1.0_veridical_freeview_isoFalse_fps144.mp4"
"","","","call-function","23","188641","0.0-23.0","4e7vau8x","","","","","",""
"2455.524999999994","{""pre-1"":1}","[0]","survey-likert","24","191098","0.0-24.0","4e7vau8x","","","","","",""
"5076.774999999994","{""pre-2"":1}","[0]","survey-likert","25","196176","0.0-25.0","4e7vau8x","","","","","",""
"5284.794999999984","{""pre-3"":1}","[0]","survey-likert","26","201462","0.0-26.0","4e7vau8x","","","","","",""
"5149.684999999998","{""post-5"":2}","[0]","survey-likert","27","206612","0.0-27.0","4e7vau8x","","","","","",""
"","","","call-function","28","206614","0.0-28.0","4e7vau8x","","","","","",""
"null","","","video-keyboard-response","29","209684","0.0-29.0","4e7vau8x","","","","null","Agent A","STIM_SET_1_REAL/1160168.bmp_pp53_L2_V1.0_veridical_freeview_isoFalse_fps144.mp4"
"","","","call-function","30","209685","0.0-30.0","4e7vau8x","","","","","",""
"3812.9249999999884","{""pre-1"":2}","[0]","survey-likert","31","213499","0.0-31.0","4e7vau8x","","","","","",""
"1914.054999999993","{""pre-2"":2}","[0]","survey-likert","32","215414","0.0-32.0","4e7vau8x","","","","","",""
"1705.5650000000023","{""pre-3"":2}","[0]","survey-likert","33","217120","0.0-33.0","4e7vau8x","","","","","",""
"5168.4649999999965","{""post-5"":0}","[0]","survey-likert","34","222290","0.0-34.0","4e7vau8x","","","","","",""
"","","","call-function","35","222290","0.0-35.0","4e7vau8x","","","","","",""
"null","","","video-keyboard-response","36","225367","0.0-36.0","4e7vau8x","","","","null","Agent A","STIM_SET_1_REAL/713593.bmp_pp64_L1_V1.0_veridical_freeview_isoFalse_fps144.mp4"
"","","","call-function","37","225368","0.0-37.0","4e7vau8x","","","","","",""
"3418.454999999987","{""pre-1"":2}","[0]","survey-likert","38","228788","0.0-38.0","4e7vau8x","","","","","",""
"3951.329999999987","{""pre-2"":2}","[0]","survey-likert","39","232741","0.0-39.0","4e7vau8x","","","","","",""
"3479.100000000006","{""pre-3"":2}","[0]","survey-likert","40","236222","0.0-40.0","4e7vau8x","","","","","",""
"4334.919999999984","{""post-5"":0}","[0]","survey-likert","41","240558","0.0-41.0","4e7vau8x","","","","","",""
"","","","call-function","42","240558","0.0-42.0","4e7vau8x","","","","","",""
"null","","","video-keyboard-response","43","243634","0.0-43.0","4e7vau8x","","","","null","Agent A","STIM_SET_1_REAL/1159777.bmp_pp77_L3_V1.0_scrambled_freeview_isoFalse_fps144.mp4"
"","","","call-function","44","243635","0.0-44.0","4e7vau8x","","","","","",""
"10765.85500000001","{""pre-1"":1}","[0]","survey-likert","45","254402","0.0-45.0","4e7vau8x","","","","","",""
"3640.915000000008","{""pre-2"":1}","[0]","survey-likert","46","258044","0.0-46.0","4e7vau8x","","","","","",""
"6966.6449999999895","{""pre-3"":2}","[0]","survey-likert","47","265012","0.0-47.0","4e7vau8x","","","","","",""
"3699.039999999979","{""post-5"":2}","[0]","survey-likert","48","268712","0.0-48.0","4e7vau8x","","","","","",""
"","","","call-function","49","268713","0.0-49.0","4e7vau8x","","","","","",""
"null","","","video-keyboard-response","50","271789","0.0-50.0","4e7vau8x","","","","null","Agent A","STIM_SET_1_REAL/713666.bmp_pp97_L3_V1.0_veridical_freeview_isoFalse_fps144.mp4"
"","","","call-function","51","271790","0.0-51.0","4e7vau8x","","","","","",""
"5353.73000000004","{""pre-1"":2}","[0]","survey-likert","52","277146","0.0-52.0","4e7vau8x","","","","","",""
"3765.8800000000047","{""pre-2"":1}","[0]","survey-likert","53","280914","0.0-53.0","4e7vau8x","","","","","",""
"4447.044999999984","{""pre-3"":2}","[0]","survey-likert","54","285363","0.0-54.0","4e7vau8x","","","","","",""
"2291.3800000000047","{""post-5"":2}","[0]","survey-likert","55","287655","0.0-55.0","4e7vau8x","","","","","",""
"","","","call-function","56","287656","0.0-56.0","4e7vau8x","","","","","",""
"null","","","video-keyboard-response","57","290718","0.0-57.0","4e7vau8x","","","","null","Agent A","STIM_SET_1_REAL/286001.bmp_pp54_L2_V1.0_scrambled_freeview_isoFalse_fps144.mp4"
"","","","call-function","58","290719","0.0-58.0","4e7vau8x","","","","","",""
"9270.76000000001","{""pre-1"":1}","[0]","survey-likert","59","299991","0.0-59.0","4e7vau8x","","","","","",""
"4783.275000000023","{""pre-2"":1}","[0]","survey-likert","60","304775","0.0-60.0","4e7vau8x","","","","","",""
"4630.949999999953","{""pre-3"":0}","[0]","survey-likert","61","309407","0.0-61.0","4e7vau8x","","","","","",""
"5775.440000000002","{""post-5"":2}","[0]","survey-likert","62","315184","0.0-62.0","4e7vau8x","","","","","",""
"","","","call-function","63","315184","0.0-63.0","4e7vau8x","","","","","",""
"null","","","video-keyboard-response","64","318260","0.0-64.0","4e7vau8x","","","","null","Agent A","STIM_SET_1_REAL/713749.bmp_pp88_L2_V1.0_scrambled_freeview_isoFalse_fps144.mp4"
"","","","call-function","65","318260","0.0-65.0","4e7vau8x","","","","","",""
"4233.239999999991","{""pre-1"":3}","[0]","survey-likert","66","322495","0.0-66.0","4e7vau8x","","","","","",""
"2720.8649999999907","{""pre-2"":3}","[0]","survey-likert","67","325217","0.0-67.0","4e7vau8x","","","","","",""
"2680.164999999979","{""pre-3"":3}","[0]","survey-likert","68","327899","0.0-68.0","4e7vau8x","","","","","",""
"1979.015000000014","{""post-5"":0}","[0]","survey-likert","69","329880","0.0-69.0","4e7vau8x","","","","","",""
"","","","call-function","70","329880","0.0-70.0","4e7vau8x","","","","","",""
"null","","","video-keyboard-response","71","332943","0.0-71.0","4e7vau8x","","","","null","Agent A","STIM_SET_1_REAL/285994.bmp_pp92_L3_V1.0_veridical_freeview_isoFalse_fps144.mp4"
"","","","call-function","72","332944","0.0-72.0","4e7vau8x","","","","","",""
"3172.945000000007","{""pre-1"":2}","[0]","survey-likert","73","336118","0.0-73.0","4e7vau8x","","","","","",""
"3077.219999999972","{""pre-2"":2}","[0]","survey-likert","74","339196","0.0-74.0","4e7vau8x","","","","","",""
"5241.954999999958","{""pre-3"":1}","[0]","survey-likert","75","344439","0.0-75.0","4e7vau8x","","","","","",""
"3754.740000000049","{""post-5"":2}","[0]","survey-likert","76","348195","0.0-76.0","4e7vau8x","","","","","",""
"","","","call-function","77","348196","0.0-77.0","4e7vau8x","","","","","",""
"null","","","video-keyboard-response","78","351273","0.0-78.0","4e7vau8x","","","","null","Agent A","STIM_SET_1_REAL/1159777.bmp_pp77_L3_V1.0_veridical_freeview_isoFalse_fps144.mp4"
"","","","call-function","79","351273","0.0-79.0","4e7vau8x","","","","","",""
"5925.700000000012","{""pre-1"":2}","[0]","survey-likert","80","357200","0.0-80.0","4e7vau8x","","","","","",""
"2143.875","{""pre-2"":2}","[0]","survey-likert","81","359345","0.0-81.0","4e7vau8x","","","","","",""
"2346.7449999999953","{""pre-3"":2}","[0]","survey-likert","82","361692","0.0-82.0","4e7vau8x","","","","","",""
"3082.4700000000303","{""post-5"":0}","[0]","survey-likert","83","364776","0.0-83.0","4e7vau8x","","","","","",""
"","","","call-function","84","364776","0.0-84.0","4e7vau8x","","","","","",""
"null","","","video-keyboard-response","85","367846","0.0-85.0","4e7vau8x","","","","null","Agent A","STIM_SET_1_REAL/1592727.bmp_pp59_L3_V1.0_veridical_freeview_isoFalse_fps144.mp4"
"","","","call-function","86","367846","0.0-86.0","4e7vau8x","","","","","",""
"4213.804999999993","{""pre-1"":2}","[0]","survey-likert","87","372062","0.0-87.0","4e7vau8x","","","","","",""
"2690.5349999999744","{""pre-2"":1}","[0]","survey-likert","88","374754","0.0-88.0","4e7vau8x","","","","","",""
"3922.1599999999744","{""pre-3"":2}","[0]","survey-likert","89","378678","0.0-89.0","4e7vau8x","","","","","",""
"2663.2600000000093","{""post-5"":0}","[0]","survey-likert","90","381343","0.0-90.0","4e7vau8x","","","","","",""
"","","","call-function","91","381344","0.0-91.0","4e7vau8x","","","","","",""
"null","","","video-keyboard-response","92","384407","0.0-92.0","4e7vau8x","","","","null","Agent A","STIM_SET_1_REAL/1159621.bmp_pp92_L3_V1.0_veridical_freeview_isoFalse_fps144.mp4"
"","","","call-function","93","384408","0.0-93.0","4e7vau8x","","","","","",""
"3499.9099999999744","{""pre-1"":2}","[0]","survey-likert","94","387909","0.0-94.0","4e7vau8x","","","","","",""
"2360.4400000000023","{""pre-2"":2}","[0]","survey-likert","95","390270","0.0-95.0","4e7vau8x","","","","","",""
"1854.7099999999627","{""pre-3"":2}","[0]","survey-likert","96","392126","0.0-96.0","4e7vau8x","","","","","",""
"2490.7649999999558","{""post-5"":1}","[0]","survey-likert","97","394618","0.0-97.0","4e7vau8x","","","","","",""
"","","","call-function","98","394618","0.0-98.0","4e7vau8x","","","","","",""
"null","","","video-keyboard-response","99","397694","0.0-99.0","4e7vau8x","","","","null","Agent A","STIM_SET_1_REAL/1160127.bmp_pp90_L2_V1.0_veridical_freeview_isoFalse_fps144.mp4"
"","","","call-function","100","397695","0.0-100.0","4e7vau8x","","","","","",""
"7775.459999999963","{""pre-1"":2}","[0]","survey-likert","101","405471","0.0-101.0","4e7vau8x","","","","","",""
"5825.540000000037","{""pre-2"":1}","[0]","survey-likert","102","411298","0.0-102.0","4e7vau8x","","","","","",""
"3627.5200000000186","{""pre-3"":2}","[0]","survey-likert","103","414926","0.0-103.0","4e7vau8x","","","","","",""
"2694.530000000028","{""post-5"":1}","[0]","survey-likert","104","417622","0.0-104.0","4e7vau8x","","","","","",""
"","","","call-function","105","417622","0.0-105.0","4e7vau8x","","","","","",""
"null","","","video-keyboard-response","106","420684","0.0-106.0","4e7vau8x","","","","null","Agent A","STIM_SET_1_REAL/1592619.bmp_pp56_L3_V1.0_veridical_freeview_isoFalse_fps144.mp4"
"","","","call-function","107","420685","0.0-107.0","4e7vau8x","","","","","",""
"5654.979999999981","{""pre-1"":2}","[0]","survey-likert","108","426342","0.0-108.0","4e7vau8x","","","","","",""
"2845.6149999999907","{""pre-2"":2}","[0]","survey-likert","109","429189","0.0-109.0","4e7vau8x","","","","","",""
"3052.8700000000536","{""pre-3"":2}","[0]","survey-likert","110","432243","0.0-110.0","4e7vau8x","","","","","",""
"2531.420000000042","{""post-5"":0}","[0]","survey-likert","111","434775","0.0-111.0","4e7vau8x","","","","","",""
"","","","call-function","112","434776","0.0-112.0","4e7vau8x","","","","","",""
"null","","","video-keyboard-response","113","437838","0.0-113.0","4e7vau8x","","","","null","Agent A","STIM_SET_1_REAL/498170.bmp_pp153_L3_V1.0_veridical_freeview_isoFalse_fps144.mp4"
"","","","call-function","114","437838","0.0-114.0","4e7vau8x","","","","","",""
"4861.780000000028","{""pre-1"":2}","[0]","survey-likert","115","442701","0.0-115.0","4e7vau8x","","","","","",""
"2871.594999999972","{""pre-2"":2}","[0]","survey-likert","116","445574","0.0-116.0","4e7vau8x","","","","","",""
"5002.485000000044","{""pre-3"":3}","[0]","survey-likert","117","450577","0.0-117.0","4e7vau8x","","","","","",""
"2505.6849999999977","{""post-5"":2}","[0]","survey-likert","118","453084","0.0-118.0","4e7vau8x","","","","","",""
"","","","call-function","119","453085","0.0-119.0","4e7vau8x","","","","","",""
"null","","","video-keyboard-response","120","456159","0.0-120.0","4e7vau8x","","","","null","Agent A","STIM_SET_1_REAL/713760.bmp_pp81_L1_V1.0_scrambled_freeview_isoFalse_fps144.mp4"
"","","","call-function","121","456159","0.0-121.0","4e7vau8x","","","","","",""
"4205.399999999965","{""pre-1"":1}","[0]","survey-likert","122","460366","0.0-122.0","4e7vau8x","","","","","",""
"1550.399999999965","{""pre-2"":1}","[0]","survey-likert","123","461917","0.0-123.0","4e7vau8x","","","","","",""
"3613.7249999999767","{""pre-3"":1}","[0]","survey-likert","124","465532","0.0-124.0","4e7vau8x","","","","","",""
"3268.2600000000093","{""post-5"":2}","[0]","survey-likert","125","468803","0.0-125.0","4e7vau8x","","","","","",""
"","","","call-function","126","468804","0.0-126.0","4e7vau8x","","","","","",""
"null","","","video-keyboard-response","127","471878","0.0-127.0","4e7vau8x","","","","null","Agent A","STIM_SET_1_REAL/285933.bmp_pp81_L1_V1.0_scrambled_freeview_isoFalse_fps144.mp4"
"","","","call-function","128","471879","0.0-128.0","4e7vau8x","","","","","",""
"2860.600000000035","{""pre-1"":1}","[0]","survey-likert","129","474740","0.0-129.0","4e7vau8x","","","","","",""
"2220.795000000042","{""pre-2"":1}","[0]","survey-likert","130","476962","0.0-130.0","4e7vau8x","","","","","",""
"2103.0050000000047","{""pre-3"":1}","[0]","survey-likert","131","479067","0.0-131.0","4e7vau8x","","","","","",""
"4104.030000000028","{""post-5"":3}","[0]","survey-likert","132","483172","0.0-132.0","4e7vau8x","","","","","",""
"","","","call-function","133","483172","0.0-133.0","4e7vau8x","","","","","",""
"null","","","video-keyboard-response","134","486237","0.0-134.0","4e7vau8x","","","","null","Agent A","STIM_SET_1_REAL/1592890.bmp_pp82_L2_V1.0_scrambled_freeview_isoFalse_fps144.mp4"
"","","","call-function","135","486238","0.0-135.0","4e7vau8x","","","","","",""
"2217.4249999999884","{""pre-1"":2}","[0]","survey-likert","136","488456","0.0-136.0","4e7vau8x","","","","","",""
"1368.8349999999627","{""pre-2"":2}","[0]","survey-likert","137","489827","0.0-137.0","4e7vau8x","","","","","",""
"1520.0100000000093","{""pre-3"":2}","[0]","survey-likert","138","491348","0.0-138.0","4e7vau8x","","","","","",""
"1779.4899999999907","{""post-5"":1}","[0]","survey-likert","139","493128","0.0-139.0","4e7vau8x","","","","","",""
"","","","call-function","140","493129","0.0-140.0","4e7vau8x","","","","","",""
"null","","","video-keyboard-response","141","496190","0.0-141.0","4e7vau8x","","","","null","Agent A","STIM_SET_1_REAL/713089.bmp_pp60_L3_V1.0_scrambled_freeview_isoFalse_fps144.mp4"
"","","","call-function","142","496190","0.0-142.0","4e7vau8x","","","","","",""
"6221.830000000016","{""pre-1"":2}","[0]","survey-likert","143","502413","0.0-143.0","4e7vau8x","","","","","",""
"4228.770000000019","{""pre-2"":1}","[0]","survey-likert","144","506643","0.0-144.0","4e7vau8x","","","","","",""
"2762.3800000000047","{""pre-3"":1}","[0]","survey-likert","145","509409","0.0-145.0","4e7vau8x","","","","","",""
"2617.4599999999627","{""post-5"":1}","[0]","survey-likert","146","512027","0.0-146.0","4e7vau8x","","","","","",""
"","","","call-function","147","512028","0.0-147.0","4e7vau8x","","","","","",""
"null","","","video-keyboard-response","148","515105","0.0-148.0","4e7vau8x","","","","null","Agent A","STIM_SET_1_REAL/498111.bmp_pp88_L2_V1.0_veridical_freeview_isoFalse_fps144.mp4"
"","","","call-function","149","515105","0.0-149.0","4e7vau8x","","","","","",""
"4166.930000000051","{""pre-1"":2}","[0]","survey-likert","150","519274","0.0-150.0","4e7vau8x","","","","","",""
"2007.280000000028","{""pre-2"":2}","[0]","survey-likert","151","521283","0.0-151.0","4e7vau8x","","","","","",""
"1835.9599999999627","{""pre-3"":2}","[0]","survey-likert","152","523120","0.0-152.0","4e7vau8x","","","","","",""
"3021.0350000000326","{""post-5"":0}","[0]","survey-likert","153","526143","0.0-153.0","4e7vau8x","","","","","",""
"","","","call-function","154","526143","0.0-154.0","4e7vau8x","","","","","",""
"null","","","video-keyboard-response","155","529220","0.0-155.0","4e7vau8x","","","","null","Agent A","STIM_SET_1_REAL/713593.bmp_pp64_L1_V1.0_scrambled_freeview_isoFalse_fps144.mp4"
"","","","call-function","156","529221","0.0-156.0","4e7vau8x","","","","","",""
"4607.219999999972","{""pre-1"":2}","[0]","survey-likert","157","533829","0.0-157.0","4e7vau8x","","","","","",""
"2652.865000000107","{""pre-2"":2}","[0]","survey-likert","158","536483","0.0-158.0","4e7vau8x","","","","","",""
"3073.6149999999907","{""pre-3"":2}","[0]","survey-likert","159","539558","0.0-159.0","4e7vau8x","","","","","",""
"2060.4550000000745","{""post-5"":2}","[0]","survey-likert","160","541620","0.0-160.0","4e7vau8x","","","","","",""
"5138.070000000065","","","instructions","161","546759","0.0-161.0","4e7vau8x","[{""page_index"":0,""viewing_time"":1175.6999999999534},{""page_index"":1,""viewing_time"":766.9350000000559},{""page_index"":2,""viewing_time"":3195.204999999958}]","","","","",""
"5222.17499999993","","","instructions","162","551982","0.0-162.0","4e7vau8x","[{""page_index"":0,""viewing_time"":903.9649999999674},{""page_index"":1,""viewing_time"":3499.079999999958},{""page_index"":2,""viewing_time"":819.0250000000233}]","","","","",""
"","","","call-function","163","551982","0.0-163.0","4e7vau8x","","","","","",""
"null","","","video-keyboard-response","164","555058","0.0-164.0","4e7vau8x","","","","null","Agent A","STIM_SET_1_REAL/498253.bmp_pp67_L2_V1.0_veridical_freeview_isoFalse_fps144.mp4"
"","","","call-function","165","555059","0.0-165.0","4e7vau8x","","","","","",""
"3747.570000000065","{""pre-1"":2}","[0]","survey-likert","166","558807","0.0-166.0","4e7vau8x","","","","","",""
"4879.885000000009","{""pre-2"":2}","[0]","survey-likert","167","563688","0.0-167.0","4e7vau8x","","","","","",""
"4462.7949999999255","{""pre-3"":1}","[0]","survey-likert","168","568152","0.0-168.0","4e7vau8x","","","","","",""
"2734.064999999944","{""post-5"":2}","[0]","survey-likert","169","570887","0.0-169.0","4e7vau8x","","","","","",""
"","","","call-function","170","570887","0.0-170.0","4e7vau8x","","","","","",""
"null","","","video-keyboard-response","171","573964","0.0-171.0","4e7vau8x","","","","null","Agent A","STIM_SET_1_REAL/1159784.bmp_pp73_L3_V1.0_veridical_freeview_isoFalse_fps144.mp4"
"","","","call-function","172","573964","0.0-172.0","4e7vau8x","","","","","",""
"4847.890000000014","{""pre-1"":1}","[0]","survey-likert","173","578813","0.0-173.0","4e7vau8x","","","","","",""
"2951.4749999999767","{""pre-2"":1}","[0]","survey-likert","174","581765","0.0-174.0","4e7vau8x","","","","","",""
"1900.609999999986","{""pre-3"":1}","[0]","survey-likert","175","583667","0.0-175.0","4e7vau8x","","","","","",""
"2207.670000000042","{""post-5"":2}","[0]","survey-likert","176","585876","0.0-176.0","4e7vau8x","","","","","",""
"","","","call-function","177","585877","0.0-177.0","4e7vau8x","","","","","",""
"null","","","video-keyboard-response","178","588941","0.0-178.0","4e7vau8x","","","","null","Agent A","STIM_SET_1_REAL/1593035.bmp_pp94_L2_V1.0_veridical_freeview_isoFalse_fps144.mp4"
"","","","call-function","179","588942","0.0-179.0","4e7vau8x","","","","","",""
"6198.944999999949","{""pre-1"":2}","[0]","survey-likert","180","595143","0.0-180.0","4e7vau8x","","","","","",""
"3404.125","{""pre-2"":3}","[0]","survey-likert","181","598548","0.0-181.0","4e7vau8x","","","","","",""
"3034.4250000000466","{""pre-3"":2}","[0]","survey-likert","182","601585","0.0-182.0","4e7vau8x","","","","","",""
"2049.155000000028","{""post-5"":0}","[0]","survey-likert","183","603635","0.0-183.0","4e7vau8x","","","","","",""
"","","","call-function","184","603636","0.0-184.0","4e7vau8x","","","","","",""
"null","","","video-keyboard-response","185","606708","0.0-185.0","4e7vau8x","","","","null","Agent A","STIM_SET_1_REAL/713135.bmp_pp54_L2_V1.0_veridical_freeview_isoFalse_fps144.mp4"
"","","","call-function","186","606709","0.0-186.0","4e7vau8x","","","","","",""
"3349.5749999999534","{""pre-1"":1}","[0]","survey-likert","187","610059","0.0-187.0","4e7vau8x","","","","","",""
"1902.2750000000233","{""pre-2"":1}","[0]","survey-likert","188","611963","0.0-188.0","4e7vau8x","","","","","",""
"1645.375","{""pre-3"":1}","[0]","survey-likert","189","613609","0.0-189.0","4e7vau8x","","","","","",""
"2395.5599999999395","{""post-5"":1}","[0]","survey-likert","190","616006","0.0-190.0","4e7vau8x","","","","","",""
"","","","call-function","191","616007","0.0-191.0","4e7vau8x","","","","","",""
"null","","","video-keyboard-response","192","619077","0.0-192.0","4e7vau8x","","","","null","Agent A","STIM_SET_1_REAL/1159440.bmp_pp98_L1_V1.0_veridical_freeview_isoFalse_fps144.mp4"
"","","","call-function","193","619077","0.0-193.0","4e7vau8x","","","","","",""
"4298.170000000042","{""pre-1"":2}","[0]","survey-likert","194","623376","0.0-194.0","4e7vau8x","","","","","",""
"2134.819999999949","{""pre-2"":2}","[0]","survey-likert","195","625512","0.0-195.0","4e7vau8x","","","","","",""
"2837.7700000000186","{""pre-3"":2}","[0]","survey-likert","196","628351","0.0-196.0","4e7vau8x","","","","","",""
"4297.430000000051","{""post-5"":0}","[0]","survey-likert","197","632649","0.0-197.0","4e7vau8x","","","","","",""
"","","","call-function","198","632650","0.0-198.0","4e7vau8x","","","","","",""
"null","","","video-keyboard-response","199","635713","0.0-199.0","4e7vau8x","","","","null","Agent A","STIM_SET_1_REAL/285994.bmp_pp92_L3_V1.0_scrambled_freeview_isoFalse_fps144.mp4"
"","","","call-function","200","635714","0.0-200.0","4e7vau8x","","","","","",""
"5802.744999999995","{""pre-1"":2}","[0]","survey-likert","201","641517","0.0-201.0","4e7vau8x","","","","","",""
"2818.8800000000047","{""pre-2"":2}","[0]","survey-likert","202","644337","0.0-202.0","4e7vau8x","","","","","",""
"2818.2249999999767","{""pre-3"":2}","[0]","survey-likert","203","647156","0.0-203.0","4e7vau8x","","","","","",""
"1701.9100000000326","{""post-5"":0}","[0]","survey-likert","204","648860","0.0-204.0","4e7vau8x","","","","","",""
"","","","call-function","205","648860","0.0-205.0","4e7vau8x","","","","","",""
"null","","","video-keyboard-response","206","651947","0.0-206.0","4e7vau8x","","","","null","Agent A","STIM_SET_1_REAL/1593041.bmp_pp58_L1_V1.0_veridical_freeview_isoFalse_fps144.mp4"
"","","","call-function","207","651948","0.0-207.0","4e7vau8x","","","","","",""
"4939.1849999999395","{""pre-1"":2}","[0]","survey-likert","208","656889","0.0-208.0","4e7vau8x","","","","","",""
"1245.3249999999534","{""pre-2"":2}","[0]","survey-likert","209","658136","0.0-209.0","4e7vau8x","","","","","",""
"1227.9000000000233","{""pre-3"":2}","[0]","survey-likert","210","659365","0.0-210.0","4e7vau8x","","","","","",""
"1474.8550000000978","{""post-5"":2}","[0]","survey-likert","211","660841","0.0-211.0","4e7vau8x","","","","","",""
"","","","call-function","212","660841","0.0-212.0","4e7vau8x","","","","","",""
"null","","","video-keyboard-response","213","663905","0.0-213.0","4e7vau8x","","","","null","Agent A","STIM_SET_1_REAL/1159882.bmp_pp61_L2_V1.0_veridical_freeview_isoFalse_fps144.mp4"
"","","","call-function","214","663905","0.0-214.0","4e7vau8x","","","","","",""
"5178.415000000037","{""pre-1"":2}","[0]","survey-likert","215","669085","0.0-215.0","4e7vau8x","","","","","",""
"2459.3349999999627","{""pre-2"":2}","[0]","survey-likert","216","671545","0.0-216.0","4e7vau8x","","","","","",""
"3519.484999999986","{""pre-3"":2}","[0]","survey-likert","217","675066","0.0-217.0","4e7vau8x","","","","","",""
"3392.9150000000373","{""post-5"":0}","[0]","survey-likert","218","678460","0.0-218.0","4e7vau8x","","","","","",""
"","","","call-function","219","678460","0.0-219.0","4e7vau8x","","","","","",""
"null","","","video-keyboard-response","220","681528","0.0-220.0","4e7vau8x","","","","null","Agent A","STIM_SET_1_REAL/1592362.bmp_pp95_L2_V1.0_scrambled_freeview_isoFalse_fps144.mp4"
"","","","call-function","221","681528","0.0-221.0","4e7vau8x","","","","","",""
"3055.024999999907","{""pre-1"":1}","[0]","survey-likert","222","684584","0.0-222.0","4e7vau8x","","","","","",""
"1701.265000000014","{""pre-2"":1}","[0]","survey-likert","223","686287","0.0-223.0","4e7vau8x","","","","","",""
"3077.259999999893","{""pre-3"":1}","[0]","survey-likert","224","689365","0.0-224.0","4e7vau8x","","","","","",""
"2846.930000000051","{""post-5"":1}","[0]","survey-likert","225","692213","0.0-225.0","4e7vau8x","","","","","",""
"","","","call-function","226","692214","0.0-226.0","4e7vau8x","","","","","",""
"null","","","video-keyboard-response","227","695290","0.0-227.0","4e7vau8x","","","","null","Agent A","STIM_SET_1_REAL/285751.bmp_pp55_L3_V1.0_scrambled_freeview_isoFalse_fps144.mp4"
"","","","call-function","228","695291","0.0-228.0","4e7vau8x","","","","","",""
"5436.469999999972","{""pre-1"":1}","[0]","survey-likert","229","700728","0.0-229.0","4e7vau8x","","","","","",""
"3660.2249999999767","{""pre-2"":1}","[0]","survey-likert","230","704389","0.0-230.0","4e7vau8x","","","","","",""
"2481.125","{""pre-3"":0}","[0]","survey-likert","231","706871","0.0-231.0","4e7vau8x","","","","","",""
"4335.160000000033","{""post-5"":1}","[0]","survey-likert","232","711208","0.0-232.0","4e7vau8x","","","","","",""
"","","","call-function","233","711208","0.0-233.0","4e7vau8x","","","","","",""
"null","","","video-keyboard-response","234","714312","0.0-234.0","4e7vau8x","","","","null","Agent A","STIM_SET_1_REAL/1592934.bmp_pp63_L1_V1.0_veridical_freeview_isoFalse_fps144.mp4"
"","","","call-function","235","714314","0.0-235.0","4e7vau8x","","","","","",""
"4361.084999999963","{""pre-1"":1}","[0]","survey-likert","236","718676","0.0-236.0","4e7vau8x","","","","","",""
"1499.1300000000047","{""pre-2"":1}","[0]","survey-likert","237","720177","0.0-237.0","4e7vau8x","","","","","",""
"2886.0500000000466","{""pre-3"":1}","[0]","survey-likert","238","723064","0.0-238.0","4e7vau8x","","","","","",""
"2958.8699999999953","{""post-5"":2}","[0]","survey-likert","239","726024","0.0-239.0","4e7vau8x","","","","","",""
"","","","call-function","240","726025","0.0-240.0","4e7vau8x","","","","","",""
"null","","","video-keyboard-response","241","729102","0.0-241.0","4e7vau8x","","","","null","Agent A","STIM_SET_1_REAL/1591876.bmp_pp63_L1_V1.0_veridical_freeview_isoFalse_fps144.mp4"
"","","","call-function","242","729102","0.0-242.0","4e7vau8x","","","","","",""
"3285.070000000065","{""pre-1"":3}","[0]","survey-likert","243","732388","0.0-243.0","4e7vau8x","","","","","",""
"1834.7299999999814","{""pre-2"":2}","[0]","survey-likert","244","734224","0.0-244.0","4e7vau8x","","","","","",""
"2680.6149999999907","{""pre-3"":2}","[0]","survey-likert","245","736906","0.0-245.0","4e7vau8x","","","","","",""
"2333.109999999986","{""post-5"":0}","[0]","survey-likert","246","739241","0.0-246.0","4e7vau8x","","","","","",""
"","","","call-function","247","739241","0.0-247.0","4e7vau8x","","","","","",""
"null","","","video-keyboard-response","248","742331","0.0-248.0","4e7vau8x","","","","null","Agent A","STIM_SET_1_REAL/1159813.bmp_pp79_L2_V1.0_veridical_freeview_isoFalse_fps144.mp4"
"","","","call-function","249","742331","0.0-249.0","4e7vau8x","","","","","",""
"7848.505000000005","{""pre-1"":1}","[0]","survey-likert","250","750180","0.0-250.0","4e7vau8x","","","","","",""
"6843.659999999916","{""pre-2"":1}","[0]","survey-likert","251","757025","0.0-251.0","4e7vau8x","","","","","",""
"4720.619999999995","{""pre-3"":0}","[0]","survey-likert","252","761747","0.0-252.0","4e7vau8x","","","","","",""
"2827.6750000000466","{""post-5"":2}","[0]","survey-likert","253","764576","0.0-253.0","4e7vau8x","","","","","",""
"","","","call-function","254","764576","0.0-254.0","4e7vau8x","","","","","",""
"null","","","video-keyboard-response","255","767641","0.0-255.0","4e7vau8x","","","","null","Agent A","STIM_SET_1_REAL/1593035.bmp_pp94_L2_V1.0_scrambled_freeview_isoFalse_fps144.mp4"
"","","","call-function","256","767642","0.0-256.0","4e7vau8x","","","","","",""
"2187.7750000000233","{""pre-1"":1}","[0]","survey-likert","257","769831","0.0-257.0","4e7vau8x","","","","","",""
"1840.2250000000931","{""pre-2"":1}","[0]","survey-likert","258","771672","0.0-258.0","4e7vau8x","","","","","",""
"2283.5449999999255","{""pre-3"":1}","[0]","survey-likert","259","773958","0.0-259.0","4e7vau8x","","","","","",""
"1567","{""post-5"":2}","[0]","survey-likert","260","775527","0.0-260.0","4e7vau8x","","","","","",""
"","","","call-function","261","775528","0.0-261.0","4e7vau8x","","","","","",""
"null","","","video-keyboard-response","262","778596","0.0-262.0","4e7vau8x","","","","null","Agent A","STIM_SET_1_REAL/1159829.bmp_pp91_L3_V1.0_veridical_freeview_isoFalse_fps144.mp4"
"","","","call-function","263","778597","0.0-263.0","4e7vau8x","","","","","",""
"2388.6500000000233","{""pre-1"":2}","[0]","survey-likert","264","780987","0.0-264.0","4e7vau8x","","","","","",""
"3392.835000000079","{""pre-2"":1}","[0]","survey-likert","265","784381","0.0-265.0","4e7vau8x","","","","","",""
"3014.7050000000745","{""pre-3"":1}","[0]","survey-likert","266","787397","0.0-266.0","4e7vau8x","","","","","",""
"5824.945000000065","{""post-5"":1}","[0]","survey-likert","267","793223","0.0-267.0","4e7vau8x","","","","","",""
"","","","call-function","268","793223","0.0-268.0","4e7vau8x","","","","","",""
"null","","","video-keyboard-response","269","796292","0.0-269.0","4e7vau8x","","","","null","Agent A","STIM_SET_1_REAL/1159768.bmp_pp89_L1_V1.0_veridical_freeview_isoFalse_fps144.mp4"
"","","","call-function","270","796293","0.0-270.0","4e7vau8x","","","","","",""
"3400.8499999999767","{""pre-1"":3}","[0]","survey-likert","271","799694","0.0-271.0","4e7vau8x","","","","","",""
"2697.7850000000326","{""pre-2"":2}","[0]","survey-likert","272","802393","0.0-272.0","4e7vau8x","","","","","",""
"1738.009999999893","{""pre-3"":1}","[0]","survey-likert","273","804133","0.0-273.0","4e7vau8x","","","","","",""
"2406.7850000000326","{""post-5"":0}","[0]","survey-likert","274","806541","0.0-274.0","4e7vau8x","","","","","",""
"","","","call-function","275","806541","0.0-275.0","4e7vau8x","","","","","",""
"null","","","video-keyboard-response","276","809612","0.0-276.0","4e7vau8x","","","","null","Agent A","STIM_SET_1_REAL/285905.bmp_pp57_L1_V1.0_veridical_freeview_isoFalse_fps144.mp4"
"","","","call-function","277","809612","0.0-277.0","4e7vau8x","","","","","",""
"3244.125","{""pre-1"":2}","[0]","survey-likert","278","812857","0.0-278.0","4e7vau8x","","","","","",""
"2493.1350000000093","{""pre-2"":2}","[0]","survey-likert","279","815352","0.0-279.0","4e7vau8x","","","","","",""
"2557.969999999972","{""pre-3"":2}","[0]","survey-likert","280","817911","0.0-280.0","4e7vau8x","","","","","",""
"2003.0100000000093","{""post-5"":0}","[0]","survey-likert","281","819915","0.0-281.0","4e7vau8x","","","","","",""
"","","","call-function","282","819916","0.0-282.0","4e7vau8x","","","","","",""
"null","","","video-keyboard-response","283","822992","0.0-283.0","4e7vau8x","","","","null","Agent A","STIM_SET_1_REAL/1159855.bmp_pp99_L2_V1.0_scrambled_freeview_isoFalse_fps144.mp4"
"","","","call-function","284","822993","0.0-284.0","4e7vau8x","","","","","",""
"2099.234999999986","{""pre-1"":2}","[0]","survey-likert","285","825094","0.0-285.0","4e7vau8x","","","","","",""
"1556.515000000014","{""pre-2"":2}","[0]","survey-likert","286","826651","0.0-286.0","4e7vau8x","","","","","",""
"1280.1300000000047","{""pre-3"":1}","[0]","survey-likert","287","827933","0.0-287.0","4e7vau8x","","","","","",""
"1947.1849999999395","{""post-5"":1}","[0]","survey-likert","288","829881","0.0-288.0","4e7vau8x","","","","","",""
"","","","call-function","289","829882","0.0-289.0","4e7vau8x","","","","","",""
"null","","","video-keyboard-response","290","832955","0.0-290.0","4e7vau8x","","","","null","Agent A","STIM_SET_1_REAL/713620.bmp_pp65_L3_V1.0_veridical_freeview_isoFalse_fps144.mp4"
"","","","call-function","291","832955","0.0-291.0","4e7vau8x","","","","","",""
"3914.890000000014","{""pre-1"":2}","[0]","survey-likert","292","836871","0.0-292.0","4e7vau8x","","","","","",""
"1109.1699999999255","{""pre-2"":2}","[0]","survey-likert","293","837982","0.0-293.0","4e7vau8x","","","","","",""
"2008.1450000000186","{""pre-3"":3}","[0]","survey-likert","294","839991","0.0-294.0","4e7vau8x","","","","","",""
"2513.064999999944","{""post-5"":0}","[0]","survey-likert","295","842505","0.0-295.0","4e7vau8x","","","","","",""
"","","","call-function","296","842506","0.0-296.0","4e7vau8x","","","","","",""
"null","","","video-keyboard-response","297","845574","0.0-297.0","4e7vau8x","","","","null","Agent A","STIM_SET_1_REAL/713513.bmp_pp62_L2_V1.0_veridical_freeview_isoFalse_fps144.mp4"
"","","","call-function","298","845574","0.0-298.0","4e7vau8x","","","","","",""
"1773.6650000000373","{""pre-1"":2}","[0]","survey-likert","299","847349","0.0-299.0","4e7vau8x","","","","","",""
"1785.1450000000186","{""pre-2"":2}","[0]","survey-likert","300","849135","0.0-300.0","4e7vau8x","","","","","",""
"2423.2850000000326","{""pre-3"":2}","[0]","survey-likert","301","851559","0.0-301.0","4e7vau8x","","","","","",""
"3483.204999999958","{""post-5"":0}","[0]","survey-likert","302","855043","0.0-302.0","4e7vau8x","","","","","",""
"13324.974999999977","","","instructions","303","868369","0.0-303.0","4e7vau8x","[{""page_index"":0,""viewing_time"":1618.3200000000652},{""page_index"":1,""viewing_time"":1883.0899999999674},{""page_index"":2,""viewing_time"":9823.380000000005}]","","","","",""
"2109.0050000000047","","","instructions","304","870478","0.0-304.0","4e7vau8x","[{""page_index"":0,""viewing_time"":691.9200000000419},{""page_index"":1,""viewing_time"":802.8950000000186},{""page_index"":2,""viewing_time"":614.0899999999674}]","","","","",""
"","","","call-function","305","870479","0.0-305.0","4e7vau8x","","","","","",""
"null","","","video-keyboard-response","306","873553","0.0-306.0","4e7vau8x","","","","null","Agent A","STIM_SET_1_REAL/1159855.bmp_pp99_L2_V1.0_veridical_freeview_isoFalse_fps144.mp4"
"","","","call-function","307","873553","0.0-307.0","4e7vau8x","","","","","",""
"2753.554999999935","{""pre-1"":3}","[0]","survey-likert","308","876308","0.0-308.0","4e7vau8x","","","","","",""
"2814.20000000007","{""pre-2"":3}","[0]","survey-likert","309","879123","0.0-309.0","4e7vau8x","","","","","",""
"2847.064999999944","{""pre-3"":2}","[0]","survey-likert","310","881971","0.0-310.0","4e7vau8x","","","","","",""
"3155.274999999907","{""post-5"":0}","[0]","survey-likert","311","885128","0.0-311.0","4e7vau8x","","","","","",""
"","","","call-function","312","885129","0.0-312.0","4e7vau8x","","","","","",""
"null","","","video-keyboard-response","313","888198","0.0-313.0","4e7vau8x","","","","null","Agent A","STIM_SET_1_REAL/1159768.bmp_pp89_L1_V1.0_scrambled_freeview_isoFalse_fps144.mp4"
"","","","call-function","314","888198","0.0-314.0","4e7vau8x","","","","","",""
"4985.3099999999395","{""pre-1"":2}","[0]","survey-likert","315","893185","0.0-315.0","4e7vau8x","","","","","",""
"2758.015000000014","{""pre-2"":2}","[0]","survey-likert","316","895945","0.0-316.0","4e7vau8x","","","","","",""
"2712.219999999972","{""pre-3"":1}","[0]","survey-likert","317","898659","0.0-317.0","4e7vau8x","","","","","",""
"2085.784999999916","{""post-5"":2}","[0]","survey-likert","318","900746","0.0-318.0","4e7vau8x","","","","","",""
"","","","call-function","319","900747","0.0-319.0","4e7vau8x","","","","","",""
"null","","","video-keyboard-response","320","903810","0.0-320.0","4e7vau8x","","","","null","Agent A","STIM_SET_1_REAL/1159572.bmp_pp71_L1_V1.0_veridical_freeview_isoFalse_fps144.mp4"
"","","","call-function","321","903811","0.0-321.0","4e7vau8x","","","","","",""
"4895.715000000084","{""pre-1"":2}","[0]","survey-likert","322","908708","0.0-322.0","4e7vau8x","","","","","",""
"3310.8249999999534","{""pre-2"":2}","[0]","survey-likert","323","912020","0.0-323.0","4e7vau8x","","","","","",""
"1821.7750000000233","{""pre-3"":3}","[0]","survey-likert","324","913842","0.0-324.0","4e7vau8x","","","","","",""
"4729.304999999935","{""post-5"":0}","[0]","survey-likert","325","918573","0.0-325.0","4e7vau8x","","","","","",""
"","","","call-function","326","918574","0.0-326.0","4e7vau8x","","","","","",""
"null","","","video-keyboard-response","327","921639","0.0-327.0","4e7vau8x","","","","null","Agent A","STIM_SET_1_REAL/1592499.bmp_pp96_L2_V1.0_veridical_freeview_isoFalse_fps144.mp4"
"","","","call-function","328","921640","0.0-328.0","4e7vau8x","","","","","",""
"2891.844999999972","{""pre-1"":1}","[0]","survey-likert","329","924532","0.0-329.0","4e7vau8x","","","","","",""
"1490.1750000000466","{""pre-2"":1}","[0]","survey-likert","330","926024","0.0-330.0","4e7vau8x","","","","","",""
"2230.539999999921","{""pre-3"":1}","[0]","survey-likert","331","928255","0.0-331.0","4e7vau8x","","","","","",""
"1337.859999999986","{""post-5"":2}","[0]","survey-likert","332","929594","0.0-332.0","4e7vau8x","","","","","",""
"","","","call-function","333","929594","0.0-333.0","4e7vau8x","","","","","",""
"null","","","video-keyboard-response","334","932674","0.0-334.0","4e7vau8x","","","","null","Agent A","STIM_SET_1_REAL/1591954.bmp_pp62_L2_V1.0_scrambled_freeview_isoFalse_fps144.mp4"
"","","","call-function","335","932675","0.0-335.0","4e7vau8x","","","","","",""
"3674.9400000000605","{""pre-1"":1}","[0]","survey-likert","336","936351","0.0-336.0","4e7vau8x","","","","","",""
"1020.4399999999441","{""pre-2"":1}","[0]","survey-likert","337","937372","0.0-337.0","4e7vau8x","","","","","",""
"4099.195000000065","{""pre-3"":0}","[0]","survey-likert","338","941473","0.0-338.0","4e7vau8x","","","","","",""
"2442.4250000000466","{""post-5"":2}","[0]","survey-likert","339","943917","0.0-339.0","4e7vau8x","","","","","",""
"","","","call-function","340","943918","0.0-340.0","4e7vau8x","","","","","",""
"null","","","video-keyboard-response","341","946991","0.0-341.0","4e7vau8x","","","","null","Agent A","STIM_SET_1_REAL/1592286.bmp_pp52_L1_V1.0_veridical_freeview_isoFalse_fps144.mp4"
"","","","call-function","342","946992","0.0-342.0","4e7vau8x","","","","","",""
"4134.464999999967","{""pre-1"":2}","[0]","survey-likert","343","951127","0.0-343.0","4e7vau8x","","","","","",""
"2113.890000000014","{""pre-2"":1}","[0]","survey-likert","344","953242","0.0-344.0","4e7vau8x","","","","","",""
"1864.6699999999255","{""pre-3"":1}","[0]","survey-likert","345","955108","0.0-345.0","4e7vau8x","","","","","",""
"1242.4799999999814","{""post-5"":1}","[0]","survey-likert","346","956352","0.0-346.0","4e7vau8x","","","","","",""
"","","","call-function","347","956352","0.0-347.0","4e7vau8x","","","","","",""
"null","","","video-keyboard-response","348","959428","0.0-348.0","4e7vau8x","","","","null","Agent A","STIM_SET_1_REAL/713707.bmp_pp154_L1_V1.0_scrambled_freeview_isoFalse_fps144.mp4"
"","","","call-function","349","959428","0.0-349.0","4e7vau8x","","","","","",""
"3231.5449999999255","{""pre-1"":1}","[0]","survey-likert","350","962661","0.0-350.0","4e7vau8x","","","","","",""
"1727.8850000000093","{""pre-2"":1}","[0]","survey-likert","351","964390","0.0-351.0","4e7vau8x","","","","","",""
"1338.6649999999208","{""pre-3"":1}","[0]","survey-likert","352","965730","0.0-352.0","4e7vau8x","","","","","",""
"2103.7900000000373","{""post-5"":1}","[0]","survey-likert","353","967835","0.0-353.0","4e7vau8x","","","","","",""
"","","","call-function","354","967835","0.0-354.0","4e7vau8x","","","","","",""
"null","","","video-keyboard-response","355","970909","0.0-355.0","4e7vau8x","","","","null","Agent A","STIM_SET_1_REAL/713760.bmp_pp81_L1_V1.0_veridical_freeview_isoFalse_fps144.mp4"
"","","","call-function","356","970910","0.0-356.0","4e7vau8x","","","","","",""
"3996.9799999999814","{""pre-1"":2}","[0]","survey-likert","357","974907","0.0-357.0","4e7vau8x","","","","","",""
"3002.9749999999767","{""pre-2"":1}","[0]","survey-likert","358","977911","0.0-358.0","4e7vau8x","","","","","",""
"1444.4300000000512","{""pre-3"":1}","[0]","survey-likert","359","979357","0.0-359.0","4e7vau8x","","","","","",""
"3797.6199999999953","{""post-5"":1}","[0]","survey-likert","360","983156","0.0-360.0","4e7vau8x","","","","","",""
"","","","call-function","361","983157","0.0-361.0","4e7vau8x","","","","","",""
"null","","","video-keyboard-response","362","986227","0.0-362.0","4e7vau8x","","","","null","Agent A","STIM_SET_1_REAL/713796.bmp_pp84_L3_V1.0_scrambled_freeview_isoFalse_fps144.mp4"
"","","","call-function","363","986228","0.0-363.0","4e7vau8x","","","","","",""
"3760.9949999999953","{""pre-1"":2}","[0]","survey-likert","364","989990","0.0-364.0","4e7vau8x","","","","","",""
"3177.2399999999907","{""pre-2"":2}","[0]","survey-likert","365","993168","0.0-365.0","4e7vau8x","","","","","",""
"1777.9650000000838","{""pre-3"":2}","[0]","survey-likert","366","994947","0.0-366.0","4e7vau8x","","","","","",""
"2038.4299999999348","{""post-5"":0}","[0]","survey-likert","367","996987","0.0-367.0","4e7vau8x","","","","","",""
"","","","call-function","368","996989","0.0-368.0","4e7vau8x","","","","","",""
"null","","","video-keyboard-response","369","1000093","0.0-369.0","4e7vau8x","","","","null","Agent A","STIM_SET_1_REAL/1592804.bmp_pp91_L3_V1.0_scrambled_freeview_isoFalse_fps144.mp4"
"","","","call-function","370","1000094","0.0-370.0","4e7vau8x","","","","","",""
"2742.54999999993","{""pre-1"":2}","[0]","survey-likert","371","1002837","0.0-371.0","4e7vau8x","","","","","",""
"1678.719999999972","{""pre-2"":2}","[0]","survey-likert","372","1004517","0.0-372.0","4e7vau8x","","","","","",""
"1556.740000000107","{""pre-3"":2}","[0]","survey-likert","373","1006075","0.0-373.0","4e7vau8x","","","","","",""
"3000.484999999986","{""post-5"":1}","[0]","survey-likert","374","1009077","0.0-374.0","4e7vau8x","","","","","",""
"","","","call-function","375","1009078","0.0-375.0","4e7vau8x","","","","","",""
"null","","","video-keyboard-response","376","1012147","0.0-376.0","4e7vau8x","","","","null","Agent A","STIM_SET_1_REAL/1159515.bmp_pp84_L3_V1.0_veridical_freeview_isoFalse_fps144.mp4"
"","","","call-function","377","1012148","0.0-377.0","4e7vau8x","","","","","",""
"4847.170000000042","{""pre-1"":1}","[0]","survey-likert","378","1016996","0.0-378.0","4e7vau8x","","","","","",""
"3322.7900000000373","{""pre-2"":1}","[0]","survey-likert","379","1020320","0.0-379.0","4e7vau8x","","","","","",""
"2003.609999999986","{""pre-3"":1}","[0]","survey-likert","380","1022325","0.0-380.0","4e7vau8x","","","","","",""
"2323.109999999986","{""post-5"":2}","[0]","survey-likert","381","1024649","0.0-381.0","4e7vau8x","","","","","",""
"","","","call-function","382","1024649","0.0-382.0","4e7vau8x","","","","","",""
"null","","","video-keyboard-response","383","1027711","0.0-383.0","4e7vau8x","","","","null","Agent A","STIM_SET_1_REAL/713779.bmp_pp152_L2_V1.0_scrambled_freeview_isoFalse_fps144.mp4"
"","","","call-function","384","1027711","0.0-384.0","4e7vau8x","","","","","",""
"3928.0999999999767","{""pre-1"":3}","[0]","survey-likert","385","1031640","0.0-385.0","4e7vau8x","","","","","",""
"1712.4899999999907","{""pre-2"":2}","[0]","survey-likert","386","1033354","0.0-386.0","4e7vau8x","","","","","",""
"1463.7100000000792","{""pre-3"":2}","[0]","survey-likert","387","1034819","0.0-387.0","4e7vau8x","","","","","",""
"1990.2399999999907","{""post-5"":0}","[0]","survey-likert","388","1036810","0.0-388.0","4e7vau8x","","","","","",""
"","","","call-function","389","1036810","0.0-389.0","4e7vau8x","","","","","",""
"null","","","video-keyboard-response","390","1039885","0.0-390.0","4e7vau8x","","","","null","Agent A","STIM_SET_1_REAL/713666.bmp_pp97_L3_V1.0_scrambled_freeview_isoFalse_fps144.mp4"
"","","","call-function","391","1039885","0.0-391.0","4e7vau8x","","","","","",""
"2704.8399999999674","{""pre-1"":2}","[0]","survey-likert","392","1042591","0.0-392.0","4e7vau8x","","","","","",""
"1292.8199999999488","{""pre-2"":2}","[0]","survey-likert","393","1043885","0.0-393.0","4e7vau8x","","","","","",""
"1243.8699999999953","{""pre-3"":1}","[0]","survey-likert","394","1045130","0.0-394.0","4e7vau8x","","","","","",""
"3281.7099999999627","{""post-5"":0}","[0]","survey-likert","395","1048413","0.0-395.0","4e7vau8x","","","","","",""
"","","","call-function","396","1048413","0.0-396.0","4e7vau8x","","","","","",""
"null","","","video-keyboard-response","397","1051489","0.0-397.0","4e7vau8x","","","","null","Agent A","STIM_SET_1_REAL/1591994.bmp_pp69_L3_V1.0_scrambled_freeview_isoFalse_fps144.mp4"
"","","","call-function","398","1051489","0.0-398.0","4e7vau8x","","","","","",""
"2245.7099999999627","{""pre-1"":0}","[0]","survey-likert","399","1053736","0.0-399.0","4e7vau8x","","","","","",""
"2132.9150000000373","{""pre-2"":0}","[0]","survey-likert","400","1055870","0.0-400.0","4e7vau8x","","","","","",""
"2679.679999999935","{""pre-3"":0}","[0]","survey-likert","401","1058551","0.0-401.0","4e7vau8x","","","","","",""
"2360.064999999944","{""post-5"":3}","[0]","survey-likert","402","1060913","0.0-402.0","4e7vau8x","","","","","",""
"","","","call-function","403","1060914","0.0-403.0","4e7vau8x","","","","","",""
"null","","","video-keyboard-response","404","1063979","0.0-404.0","4e7vau8x","","","","null","Agent A","STIM_SET_1_REAL/498170.bmp_pp153_L3_V1.0_scrambled_freeview_isoFalse_fps144.mp4"
"","","","call-function","405","1063980","0.0-405.0","4e7vau8x","","","","","",""
"7573.770000000019","{""pre-1"":1}","[0]","survey-likert","406","1071555","0.0-406.0","4e7vau8x","","","","","",""
"2164.9499999999534","{""pre-2"":1}","[0]","survey-likert","407","1073722","0.0-407.0","4e7vau8x","","","","","",""
"1873.1400000001304","{""pre-3"":1}","[0]","survey-likert","408","1075596","0.0-408.0","4e7vau8x","","","","","",""
"3454.945000000065","{""post-5"":1}","[0]","survey-likert","409","1079052","0.0-409.0","4e7vau8x","","","","","",""
"","","","call-function","410","1079052","0.0-410.0","4e7vau8x","","","","","",""
"null","","","video-keyboard-response","411","1082127","0.0-411.0","4e7vau8x","","","","null","Agent A","STIM_SET_1_REAL/498111.bmp_pp88_L2_V1.0_scrambled_freeview_isoFalse_fps144.mp4"
"","","","call-function","412","1082128","0.0-412.0","4e7vau8x","","","","","",""
"2442.9950000001118","{""pre-1"":2}","[0]","survey-likert","413","1084572","0.0-413.0","4e7vau8x","","","","","",""
"1082.8100000000559","{""pre-2"":2}","[0]","survey-likert","414","1085656","0.0-414.0","4e7vau8x","","","","","",""
"1067.905000000028","{""pre-3"":2}","[0]","survey-likert","415","1086725","0.0-415.0","4e7vau8x","","","","","",""
"1969.2900000000373","{""post-5"":0}","[0]","survey-likert","416","1088695","0.0-416.0","4e7vau8x","","","","","",""
"","","","call-function","417","1088695","0.0-417.0","4e7vau8x","","","","","",""
"null","","","video-keyboard-response","418","1091758","0.0-418.0","4e7vau8x","","","","null","Agent A","STIM_SET_1_REAL/1592351.bmp_pp51_L1_V1.0_scrambled_freeview_isoFalse_fps144.mp4"
"","","","call-function","419","1091758","0.0-419.0","4e7vau8x","","","","","",""
"3292.5","{""pre-1"":2}","[0]","survey-likert","420","1095051","0.0-420.0","4e7vau8x","","","","","",""
"1441.595000000205","{""pre-2"":1}","[0]","survey-likert","421","1096494","0.0-421.0","4e7vau8x","","","","","",""
"2899.565000000177","{""pre-3"":1}","[0]","survey-likert","422","1099395","0.0-422.0","4e7vau8x","","","","","",""
"4226.780000000028","{""post-5"":1}","[0]","survey-likert","423","1103623","0.0-423.0","4e7vau8x","","","","","",""
"","","","call-function","424","1103623","0.0-424.0","4e7vau8x","","","","","",""
"null","","","video-keyboard-response","425","1106684","0.0-425.0","4e7vau8x","","","","null","Agent A","STIM_SET_1_REAL/1592817.bmp_pp55_L3_V1.0_veridical_freeview_isoFalse_fps144.mp4"
"","","","call-function","426","1106685","0.0-426.0","4e7vau8x","","","","","",""
"1833.9899999999907","{""pre-1"":2}","[0]","survey-likert","427","1108520","0.0-427.0","4e7vau8x","","","","","",""
"1174.1949999998324","{""pre-2"":2}","[0]","survey-likert","428","1109697","0.0-428.0","4e7vau8x","","","","","",""
"1020.3250000001863","{""pre-3"":2}","[0]","survey-likert","429","1110719","0.0-429.0","4e7vau8x","","","","","",""
"2018.125","{""post-5"":0}","[0]","survey-likert","430","1112738","0.0-430.0","4e7vau8x","","","","","",""
"","","","call-function","431","1112739","0.0-431.0","4e7vau8x","","","","","",""
"null","","","video-keyboard-response","432","1115806","0.0-432.0","4e7vau8x","","","","null","Agent A","STIM_SET_1_REAL/1592581.bmp_pp100_L3_V1.0_veridical_freeview_isoFalse_fps144.mp4"
"","","","call-function","433","1115806","0.0-433.0","4e7vau8x","","","","","",""
"3326.695000000065","{""pre-1"":2}","[0]","survey-likert","434","1119134","0.0-434.0","4e7vau8x","","","","","",""
"1817.7249999998603","{""pre-2"":2}","[0]","survey-likert","435","1120953","0.0-435.0","4e7vau8x","","","","","",""
"1148.3899999998976","{""pre-3"":2}","[0]","survey-likert","436","1122102","0.0-436.0","4e7vau8x","","","","","",""
"2463.679999999935","{""post-5"":1}","[0]","survey-likert","437","1124567","0.0-437.0","4e7vau8x","","","","","",""
"","","","call-function","438","1124568","0.0-438.0","4e7vau8x","","","","","",""
"null","","","video-keyboard-response","439","1127641","0.0-439.0","4e7vau8x","","","","null","Agent A","STIM_SET_1_REAL/498155.bmp_pp61_L2_V1.0_scrambled_freeview_isoFalse_fps144.mp4"
"","","","call-function","440","1127642","0.0-440.0","4e7vau8x","","","","","",""
"4465.354999999981","{""pre-1"":3}","[0]","survey-likert","441","1132108","0.0-441.0","4e7vau8x","","","","","",""
"2705.7099999999627","{""pre-2"":2}","[0]","survey-likert","442","1134815","0.0-442.0","4e7vau8x","","","","","",""
"2579.3700000001118","{""pre-3"":2}","[0]","survey-likert","443","1137395","0.0-443.0","4e7vau8x","","","","","",""
"2948.534999999916","{""post-5"":0}","[0]","survey-likert","444","1140345","0.0-444.0","4e7vau8x","","","","","",""
"8510.625","","","instructions","445","1148856","0.0-445.0","4e7vau8x","[{""page_index"":0,""viewing_time"":1690.6950000000652},{""page_index"":1,""viewing_time"":4628.6699999999255},{""page_index"":2,""viewing_time"":2191.089999999851}]","","","","",""
"2720.3850000000093","","","instructions","446","1151577","0.0-446.0","4e7vau8x","[{""page_index"":0,""viewing_time"":883.2600000000093},{""page_index"":1,""viewing_time"":1334.9499999999534},{""page_index"":2,""viewing_time"":502.0700000000652}]","","","","",""
"","","","call-function","447","1151577","0.0-447.0","4e7vau8x","","","","","",""
"null","","","video-keyboard-response","448","1154653","0.0-448.0","4e7vau8x","","","","null","Agent A","STIM_SET_1_REAL/1593146.bmp_pp93_L1_V1.0_veridical_freeview_isoFalse_fps144.mp4"
"","","","call-function","449","1154653","0.0-449.0","4e7vau8x","","","","","",""
"3238.8349999999627","{""pre-1"":1}","[0]","survey-likert","450","1157893","0.0-450.0","4e7vau8x","","","","","",""
"1807.434999999823","{""pre-2"":1}","[0]","survey-likert","451","1159702","0.0-451.0","4e7vau8x","","","","","",""
"2369.3899999998976","{""pre-3"":1}","[0]","survey-likert","452","1162072","0.0-452.0","4e7vau8x","","","","","",""
"1794.719999999972","{""post-5"":0}","[0]","survey-likert","453","1163868","0.0-453.0","4e7vau8x","","","","","",""
"","","","call-function","454","1163869","0.0-454.0","4e7vau8x","","","","","",""
"null","","","video-keyboard-response","455","1166929","0.0-455.0","4e7vau8x","","","","null","Agent A","STIM_SET_1_REAL/497950.bmp_pp151_L1_V1.0_scrambled_freeview_isoFalse_fps144.mp4"
"","","","call-function","456","1166930","0.0-456.0","4e7vau8x","","","","","",""
"3321.279999999795","{""pre-1"":3}","[0]","survey-likert","457","1170253","0.0-457.0","4e7vau8x","","","","","",""
"5591.114999999991","{""pre-2"":2}","[0]","survey-likert","458","1175846","0.0-458.0","4e7vau8x","","","","","",""
"4915.574999999953","{""pre-3"":1}","[0]","survey-likert","459","1180763","0.0-459.0","4e7vau8x","","","","","",""
"2825.005000000121","{""post-5"":0}","[0]","survey-likert","460","1183590","0.0-460.0","4e7vau8x","","","","","",""
"","","","call-function","461","1183590","0.0-461.0","4e7vau8x","","","","","",""
"null","","","video-keyboard-response","462","1186669","0.0-462.0","4e7vau8x","","","","null","Agent A","STIM_SET_1_REAL/1160127.bmp_pp90_L2_V1.0_scrambled_freeview_isoFalse_fps144.mp4"
"","","","call-function","463","1186670","0.0-463.0","4e7vau8x","","","","","",""
"2325.630000000121","{""pre-1"":1}","[0]","survey-likert","464","1188996","0.0-464.0","4e7vau8x","","","","","",""
"1321.780000000028","{""pre-2"":1}","[0]","survey-likert","465","1190319","0.0-465.0","4e7vau8x","","","","","",""
"1199.8500000000931","{""pre-3"":1}","[0]","survey-likert","466","1191520","0.0-466.0","4e7vau8x","","","","","",""
"2592.6450000000186","{""post-5"":2}","[0]","survey-likert","467","1194114","0.0-467.0","4e7vau8x","","","","","",""
"","","","call-function","468","1194115","0.0-468.0","4e7vau8x","","","","","",""
"null","","","video-keyboard-response","469","1197183","0.0-469.0","4e7vau8x","","","","null","Agent A","STIM_SET_1_REAL/1592397.bmp_pp85_L3_V1.0_veridical_freeview_isoFalse_fps144.mp4"
"","","","call-function","470","1197184","0.0-470.0","4e7vau8x","","","","","",""
"3636.715000000084","{""pre-1"":3}","[0]","survey-likert","471","1200822","0.0-471.0","4e7vau8x","","","","","",""
"1586.5549999999348","{""pre-2"":3}","[0]","survey-likert","472","1202409","0.0-472.0","4e7vau8x","","","","","",""
"1261.9450000000652","{""pre-3"":3}","[0]","survey-likert","473","1203673","0.0-473.0","4e7vau8x","","","","","",""
"2954.0449999999255","{""post-5"":0}","[0]","survey-likert","474","1206628","0.0-474.0","4e7vau8x","","","","","",""
"","","","call-function","475","1206629","0.0-475.0","4e7vau8x","","","","","",""
"null","","","video-keyboard-response","476","1209708","0.0-476.0","4e7vau8x","","","","null","Agent A","STIM_SET_1_REAL/1591954.bmp_pp62_L2_V1.0_veridical_freeview_isoFalse_fps144.mp4"
"","","","call-function","477","1209708","0.0-477.0","4e7vau8x","","","","","",""
"3493.3899999998976","{""pre-1"":2}","[0]","survey-likert","478","1213202","0.0-478.0","4e7vau8x","","","","","",""
"1509","{""pre-2"":1}","[0]","survey-likert","479","1214712","0.0-479.0","4e7vau8x","","","","","",""
"2696.9000000001397","{""pre-3"":1}","[0]","survey-likert","480","1217410","0.0-480.0","4e7vau8x","","","","","",""
"2546","{""post-5"":0}","[0]","survey-likert","481","1219958","0.0-481.0","4e7vau8x","","","","","",""
"","","","call-function","482","1219959","0.0-482.0","4e7vau8x","","","","","",""
"null","","","video-keyboard-response","483","1223030","0.0-483.0","4e7vau8x","","","","null","Agent A","STIM_SET_1_REAL/285905.bmp_pp57_L1_V1.0_scrambled_freeview_isoFalse_fps144.mp4"
"","","","call-function","484","1223031","0.0-484.0","4e7vau8x","","","","","",""
"2964.2099999999627","{""pre-1"":2}","[0]","survey-likert","485","1225997","0.0-485.0","4e7vau8x","","","","","",""
"2069.2750000001397","{""pre-2"":2}","[0]","survey-likert","486","1228068","0.0-486.0","4e7vau8x","","","","","",""
"3429.0250000001397","{""pre-3"":2}","[0]","survey-likert","487","1231498","0.0-487.0","4e7vau8x","","","","","",""
"1709.9150000000373","{""post-5"":0}","[0]","survey-likert","488","1233209","0.0-488.0","4e7vau8x","","","","","",""
"","","","call-function","489","1233209","0.0-489.0","4e7vau8x","","","","","",""
"null","","","video-keyboard-response","490","1236285","0.0-490.0","4e7vau8x","","","","null","Agent A","STIM_SET_1_REAL/498175.bmp_pp154_L1_V1.0_scrambled_freeview_isoFalse_fps144.mp4"
"","","","call-function","491","1236285","0.0-491.0","4e7vau8x","","","","","",""
"3476.7249999998603","{""pre-1"":1}","[0]","survey-likert","492","1239763","0.0-492.0","4e7vau8x","","","","","",""
"1877.6650000000373","{""pre-2"":1}","[0]","survey-likert","493","1241642","0.0-493.0","4e7vau8x","","","","","",""
"811.0249999999069","{""pre-3"":1}","[0]","survey-likert","494","1242454","0.0-494.0","4e7vau8x","","","","","",""
"2264.7099999999627","{""post-5"":1}","[0]","survey-likert","495","1244720","0.0-495.0","4e7vau8x","","","","","",""
"","","","call-function","496","1244721","0.0-496.0","4e7vau8x","","","","","",""
"null","","","video-keyboard-response","497","1247797","0.0-497.0","4e7vau8x","","","","null","Agent A","STIM_SET_1_REAL/1592657.bmp_pp98_L1_V1.0_scrambled_freeview_isoFalse_fps144.mp4"
"","","","call-function","498","1247798","0.0-498.0","4e7vau8x","","","","","",""
"5965.399999999907","{""pre-1"":1}","[0]","survey-likert","499","1253764","0.0-499.0","4e7vau8x","","","","","",""
"2308.6400000001304","{""pre-2"":1}","[0]","survey-likert","500","1256074","0.0-500.0","4e7vau8x","","","","","",""
"1639.3799999998882","{""pre-3"":1}","[0]","survey-likert","501","1257715","0.0-501.0","4e7vau8x","","","","","",""
"2763.600000000093","{""post-5"":0}","[0]","survey-likert","502","1260480","0.0-502.0","4e7vau8x","","","","","",""
"","","","call-function","503","1260480","0.0-503.0","4e7vau8x","","","","","",""
"null","","","video-keyboard-response","504","1263556","0.0-504.0","4e7vau8x","","","","null","Agent A","STIM_SET_1_REAL/1159784.bmp_pp73_L3_V1.0_scrambled_freeview_isoFalse_fps144.mp4"
"","","","call-function","505","1263556","0.0-505.0","4e7vau8x","","","","","",""
"5341.125","{""pre-1"":1}","[0]","survey-likert","506","1268899","0.0-506.0","4e7vau8x","","","","","",""
"1579.6000000000931","{""pre-2"":1}","[0]","survey-likert","507","1270479","0.0-507.0","4e7vau8x","","","","","",""
"909.6800000001676","{""pre-3"":1}","[0]","survey-likert","508","1271390","0.0-508.0","4e7vau8x","","","","","",""
"2359.715000000084","{""post-5"":2}","[0]","survey-likert","509","1273751","0.0-509.0","4e7vau8x","","","","","",""
"","","","call-function","510","1273752","0.0-510.0","4e7vau8x","","","","","",""
"null","","","video-keyboard-response","511","1276867","0.0-511.0","4e7vau8x","","","","null","Agent A","STIM_SET_1_REAL/1591994.bmp_pp69_L3_V1.0_veridical_freeview_isoFalse_fps144.mp4"
"","","","call-function","512","1276868","0.0-512.0","4e7vau8x","","","","","",""
"2553.7399999999907","{""pre-1"":1}","[0]","survey-likert","513","1279423","0.0-513.0","4e7vau8x","","","","","",""
"3214.780000000028","{""pre-2"":1}","[0]","survey-likert","514","1282640","0.0-514.0","4e7vau8x","","","","","",""
"1565.3249999999534","{""pre-3"":1}","[0]","survey-likert","515","1284206","0.0-515.0","4e7vau8x","","","","","",""
"1489.630000000121","{""post-5"":1}","[0]","survey-likert","516","1285697","0.0-516.0","4e7vau8x","","","","","",""
"","","","call-function","517","1285697","0.0-517.0","4e7vau8x","","","","","",""
"null","","","video-keyboard-response","518","1288775","0.0-518.0","4e7vau8x","","","","null","Agent A","STIM_SET_1_REAL/713371.bmp_pp68_L1_V1.0_scrambled_freeview_isoFalse_fps144.mp4"
"","","","call-function","519","1288775","0.0-519.0","4e7vau8x","","","","","",""
"2756.090000000084","{""pre-1"":1}","[0]","survey-likert","520","1291533","0.0-520.0","4e7vau8x","","","","","",""
"1515.559999999823","{""pre-2"":1}","[0]","survey-likert","521","1293049","0.0-521.0","4e7vau8x","","","","","",""
"928.3100000000559","{""pre-3"":1}","[0]","survey-likert","522","1293979","0.0-522.0","4e7vau8x","","","","","",""
"2009.440000000177","{""post-5"":2}","[0]","survey-likert","523","1295990","0.0-523.0","4e7vau8x","","","","","",""
"","","","call-function","524","1295990","0.0-524.0","4e7vau8x","","","","","",""
"null","","","video-keyboard-response","525","1299057","0.0-525.0","4e7vau8x","","","","null","Agent A","STIM_SET_1_REAL/497950.bmp_pp151_L1_V1.0_veridical_freeview_isoFalse_fps144.mp4"
"","","","call-function","526","1299057","0.0-526.0","4e7vau8x","","","","","",""
"2813.880000000121","{""pre-1"":2}","[0]","survey-likert","527","1301872","0.0-527.0","4e7vau8x","","","","","",""
"2638.7050000000745","{""pre-2"":2}","[0]","survey-likert","528","1304512","0.0-528.0","4e7vau8x","","","","","",""
"1494.4099999999162","{""pre-3"":2}","[0]","survey-likert","529","1306008","0.0-529.0","4e7vau8x","","","","","",""
"1861.2450000001118","{""post-5"":0}","[0]","survey-likert","530","1307870","0.0-530.0","4e7vau8x","","","","","",""
"","","","call-function","531","1307871","0.0-531.0","4e7vau8x","","","","","",""
"null","","","video-keyboard-response","532","1310938","0.0-532.0","4e7vau8x","","","","null","Agent A","STIM_SET_1_REAL/1159829.bmp_pp91_L3_V1.0_scrambled_freeview_isoFalse_fps144.mp4"
"","","","call-function","533","1310939","0.0-533.0","4e7vau8x","","","","","",""
"4997.360000000102","{""pre-1"":2}","[0]","survey-likert","534","1315937","0.0-534.0","4e7vau8x","","","","","",""
"1519.9749999998603","{""pre-2"":1}","[0]","survey-likert","535","1317458","0.0-535.0","4e7vau8x","","","","","",""
"1859.0100000000093","{""pre-3"":1}","[0]","survey-likert","536","1319318","0.0-536.0","4e7vau8x","","","","","",""
"1442.125","{""post-5"":1}","[0]","survey-likert","537","1320761","0.0-537.0","4e7vau8x","","","","","",""
"","","","call-function","538","1320762","0.0-538.0","4e7vau8x","","","","","",""
"null","","","video-keyboard-response","539","1323833","0.0-539.0","4e7vau8x","","","","null","Agent A","STIM_SET_1_REAL/1592397.bmp_pp85_L3_V1.0_scrambled_freeview_isoFalse_fps144.mp4"
"","","","call-function","540","1323834","0.0-540.0","4e7vau8x","","","","","",""
"1968.3200000000652","{""pre-1"":2}","[0]","survey-likert","541","1325803","0.0-541.0","4e7vau8x","","","","","",""
"1679.2649999998976","{""pre-2"":2}","[0]","survey-likert","542","1327483","0.0-542.0","4e7vau8x","","","","","",""
"1221.6699999999255","{""pre-3"":2}","[0]","survey-likert","543","1328707","0.0-543.0","4e7vau8x","","","","","",""
"5169.229999999981","{""post-5"":0}","[0]","survey-likert","544","1333878","0.0-544.0","4e7vau8x","","","","","",""
"","","","call-function","545","1333879","0.0-545.0","4e7vau8x","","","","","",""
"null","","","video-keyboard-response","546","1336946","0.0-546.0","4e7vau8x","","","","null","Agent A","STIM_SET_1_REAL/1159882.bmp_pp61_L2_V1.0_scrambled_freeview_isoFalse_fps144.mp4"
"","","","call-function","547","1336947","0.0-547.0","4e7vau8x","","","","","",""
"2091.340000000084","{""pre-1"":2}","[0]","survey-likert","548","1339039","0.0-548.0","4e7vau8x","","","","","",""
"1400.8349999999627","{""pre-2"":2}","[0]","survey-likert","549","1340441","0.0-549.0","4e7vau8x","","","","","",""
"1656.7900000000373","{""pre-3"":2}","[0]","survey-likert","550","1342099","0.0-550.0","4e7vau8x","","","","","",""
"1434.8649999999907","{""post-5"":0}","[0]","survey-likert","551","1343535","0.0-551.0","4e7vau8x","","","","","",""
"","","","call-function","552","1343536","0.0-552.0","4e7vau8x","","","","","",""
"null","","","video-keyboard-response","553","1346598","0.0-553.0","4e7vau8x","","","","null","Agent A","STIM_SET_1_REAL/1159621.bmp_pp92_L3_V1.0_scrambled_freeview_isoFalse_fps144.mp4"
"","","","call-function","554","1346599","0.0-554.0","4e7vau8x","","","","","",""
"2301.4600000001956","{""pre-1"":2}","[0]","survey-likert","555","1348902","0.0-555.0","4e7vau8x","","","","","",""
"1336.1799999999348","{""pre-2"":2}","[0]","survey-likert","556","1350239","0.0-556.0","4e7vau8x","","","","","",""
"1364.6700000001583","{""pre-3"":2}","[0]","survey-likert","557","1351605","0.0-557.0","4e7vau8x","","","","","",""
"2828.8700000001118","{""post-5"":1}","[0]","survey-likert","558","1354435","0.0-558.0","4e7vau8x","","","","","",""
"","","","call-function","559","1354435","0.0-559.0","4e7vau8x","","","","","",""
"null","","","video-keyboard-response","560","1357512","0.0-560.0","4e7vau8x","","","","null","Agent A","STIM_SET_1_REAL/1592657.bmp_pp98_L1_V1.0_veridical_freeview_isoFalse_fps144.mp4"
"","","","call-function","561","1357512","0.0-561.0","4e7vau8x","","","","","",""
"4641.014999999898","{""pre-1"":2}","[0]","survey-likert","562","1362154","0.0-562.0","4e7vau8x","","","","","",""
"2829.659999999916","{""pre-2"":1}","[0]","survey-likert","563","1364985","0.0-563.0","4e7vau8x","","","","","",""
"1361.75","{""pre-3"":1}","[0]","survey-likert","564","1366348","0.0-564.0","4e7vau8x","","","","","",""
"2201.0049999998882","{""post-5"":1}","[0]","survey-likert","565","1368551","0.0-565.0","4e7vau8x","","","","","",""
"","","","call-function","566","1368551","0.0-566.0","4e7vau8x","","","","","",""
"null","","","video-keyboard-response","567","1371618","0.0-567.0","4e7vau8x","","","","null","Agent A","STIM_SET_1_REAL/713681.bmp_pp86_L2_V1.0_veridical_freeview_isoFalse_fps144.mp4"
"","","","call-function","568","1371618","0.0-568.0","4e7vau8x","","","","","",""
"1804.969999999972","{""pre-1"":1}","[0]","survey-likert","569","1373424","0.0-569.0","4e7vau8x","","","","","",""
"1380.1350000000093","{""pre-2"":1}","[0]","survey-likert","570","1374805","0.0-570.0","4e7vau8x","","","","","",""
"1472.8100000000559","{""pre-3"":1}","[0]","survey-likert","571","1376279","0.0-571.0","4e7vau8x","","","","","",""
"2931.934999999823","{""post-5"":2}","[0]","survey-likert","572","1379212","0.0-572.0","4e7vau8x","","","","","",""
"","","","call-function","573","1379213","0.0-573.0","4e7vau8x","","","","","",""
"null","","","video-keyboard-response","574","1382319","0.0-574.0","4e7vau8x","","","","null","Agent A","STIM_SET_1_REAL/1593146.bmp_pp93_L1_V1.0_scrambled_freeview_isoFalse_fps144.mp4"
"","","","call-function","575","1382319","0.0-575.0","4e7vau8x","","","","","",""
"4245.475000000093","{""pre-1"":0}","[0]","survey-likert","576","1386566","0.0-576.0","4e7vau8x","","","","","",""
"1569.2399999999907","{""pre-2"":1}","[0]","survey-likert","577","1388138","0.0-577.0","4e7vau8x","","","","","",""
"1134.0049999998882","{""pre-3"":1}","[0]","survey-likert","578","1389274","0.0-578.0","4e7vau8x","","","","","",""
"4170.995000000112","{""post-5"":2}","[0]","survey-likert","579","1393446","0.0-579.0","4e7vau8x","","","","","",""
"","","","call-function","580","1393447","0.0-580.0","4e7vau8x","","","","","",""
"null","","","video-keyboard-response","581","1396517","0.0-581.0","4e7vau8x","","","","null","Agent A","STIM_SET_1_REAL/1592499.bmp_pp96_L2_V1.0_scrambled_freeview_isoFalse_fps144.mp4"
"","","","call-function","582","1396518","0.0-582.0","4e7vau8x","","","","","",""
"2556.9199999999255","{""pre-1"":2}","[0]","survey-likert","583","1399076","0.0-583.0","4e7vau8x","","","","","",""
"1193.719999999972","{""pre-2"":2}","[0]","survey-likert","584","1400271","0.0-584.0","4e7vau8x","","","","","",""
"1499.7349999998696","{""pre-3"":2}","[0]","survey-likert","585","1401772","0.0-585.0","4e7vau8x","","","","","",""
"1151.4250000000466","{""post-5"":0}","[0]","survey-likert","586","1402925","0.0-586.0","4e7vau8x","","","","","",""
"86222.66500000004","","","instructions","587","1489148","0.0-587.0","4e7vau8x","[{""page_index"":0,""viewing_time"":2354.445000000065},{""page_index"":1,""viewing_time"":1710.9899999999907},{""page_index"":2,""viewing_time"":82157.06000000006}]","","","","",""
"2777.3199999998324","","","instructions","588","1491926","0.0-588.0","4e7vau8x","[{""page_index"":0,""viewing_time"":905.3149999999441},{""page_index"":1,""viewing_time"":1077.8249999999534},{""page_index"":2,""viewing_time"":794.0800000000745}]","","","","",""
"","","","call-function","589","1491927","0.0-589.0","4e7vau8x","","","","","",""
"null","","","video-keyboard-response","590","1494988","0.0-590.0","4e7vau8x","","","","null","Agent A","STIM_SET_1_REAL/1592890.bmp_pp82_L2_V1.0_veridical_freeview_isoFalse_fps144.mp4"
"","","","call-function","591","1494988","0.0-591.0","4e7vau8x","","","","","",""
"2891.5500000000466","{""pre-1"":2}","[0]","survey-likert","592","1497881","0.0-592.0","4e7vau8x","","","","","",""
"1821.8100000000559","{""pre-2"":2}","[0]","survey-likert","593","1499704","0.0-593.0","4e7vau8x","","","","","",""
"2339.375","{""pre-3"":2}","[0]","survey-likert","594","1502044","0.0-594.0","4e7vau8x","","","","","",""
"1655.2099999999627","{""post-5"":0}","[0]","survey-likert","595","1503702","0.0-595.0","4e7vau8x","","","","","",""
"","","","call-function","596","1503702","0.0-596.0","4e7vau8x","","","","","",""
"null","","","video-keyboard-response","597","1506764","0.0-597.0","4e7vau8x","","","","null","Agent A","STIM_SET_1_REAL/286001.bmp_pp54_L2_V1.0_veridical_freeview_isoFalse_fps144.mp4"
"","","","call-function","598","1506764","0.0-598.0","4e7vau8x","","","","","",""
"4963.195000000065","{""pre-1"":1}","[0]","survey-likert","599","1511728","0.0-599.0","4e7vau8x","","","","","",""
"1680.8700000001118","{""pre-2"":1}","[0]","survey-likert","600","1513410","0.0-600.0","4e7vau8x","","","","","",""
"1258.2450000001118","{""pre-3"":1}","[0]","survey-likert","601","1514670","0.0-601.0","4e7vau8x","","","","","",""
"1208.7049999998417","{""post-5"":2}","[0]","survey-likert","602","1515879","0.0-602.0","4e7vau8x","","","","","",""
"","","","call-function","603","1515880","0.0-603.0","4e7vau8x","","","","","",""
"null","","","video-keyboard-response","604","1518961","0.0-604.0","4e7vau8x","","","","null","Agent A","STIM_SET_1_REAL/713707.bmp_pp154_L1_V1.0_veridical_freeview_isoFalse_fps144.mp4"
"","","","call-function","605","1518963","0.0-605.0","4e7vau8x","","","","","",""
"4321.395000000019","{""pre-1"":2}","[0]","survey-likert","606","1523286","0.0-606.0","4e7vau8x","","","","","",""
"1232","{""pre-2"":2}","[0]","survey-likert","607","1524519","0.0-607.0","4e7vau8x","","","","","",""
"1158.5100000000093","{""pre-3"":2}","[0]","survey-likert","608","1525680","0.0-608.0","4e7vau8x","","","","","",""
"1605.780000000028","{""post-5"":1}","[0]","survey-likert","609","1527288","0.0-609.0","4e7vau8x","","","","","",""
"","","","call-function","610","1527289","0.0-610.0","4e7vau8x","","","","","",""
"null","","","video-keyboard-response","611","1530359","0.0-611.0","4e7vau8x","","","","null","Agent A","STIM_SET_1_REAL/1592934.bmp_pp63_L1_V1.0_scrambled_freeview_isoFalse_fps144.mp4"
"","","","call-function","612","1530360","0.0-612.0","4e7vau8x","","","","","",""
"1768.0550000001676","{""pre-1"":1}","[0]","survey-likert","613","1532129","0.0-613.0","4e7vau8x","","","","","",""
"1820.4300000001676","{""pre-2"":0}","[0]","survey-likert","614","1533951","0.0-614.0","4e7vau8x","","","","","",""
"1338.7349999998696","{""pre-3"":0}","[0]","survey-likert","615","1535291","0.0-615.0","4e7vau8x","","","","","",""
"2717.649999999907","{""post-5"":3}","[0]","survey-likert","616","1538010","0.0-616.0","4e7vau8x","","","","","",""
"","","","call-function","617","1538010","0.0-617.0","4e7vau8x","","","","","",""
"null","","","video-keyboard-response","618","1541072","0.0-618.0","4e7vau8x","","","","null","Agent A","STIM_SET_1_REAL/713403.bmp_pp80_L3_V1.0_veridical_freeview_isoFalse_fps144.mp4"
"","","","call-function","619","1541073","0.0-619.0","4e7vau8x","","","","","",""
"2688.1149999999907","{""pre-1"":3}","[0]","survey-likert","620","1543762","0.0-620.0","4e7vau8x","","","","","",""
"980.6500000001397","{""pre-2"":2}","[0]","survey-likert","621","1544744","0.0-621.0","4e7vau8x","","","","","",""
"1041.6299999998882","{""pre-3"":2}","[0]","survey-likert","622","1545787","0.0-622.0","4e7vau8x","","","","","",""
"2003.4450000000652","{""post-5"":0}","[0]","survey-likert","623","1547791","0.0-623.0","4e7vau8x","","","","","",""
"","","","call-function","624","1547792","0.0-624.0","4e7vau8x","","","","","",""
"null","","","video-keyboard-response","625","1550870","0.0-625.0","4e7vau8x","","","","null","Agent A","STIM_SET_1_REAL/712977.bmp_pp51_L1_V1.0_veridical_freeview_isoFalse_fps144.mp4"
"","","","call-function","626","1550871","0.0-626.0","4e7vau8x","","","","","",""
"3990.744999999879","{""pre-1"":2}","[0]","survey-likert","627","1554862","0.0-627.0","4e7vau8x","","","","","",""
"1494.404999999795","{""pre-2"":1}","[0]","survey-likert","628","1556358","0.0-628.0","4e7vau8x","","","","","",""
"1174.0100000000093","{""pre-3"":1}","[0]","survey-likert","629","1557533","0.0-629.0","4e7vau8x","","","","","",""
"2513.685000000056","{""post-5"":1}","[0]","survey-likert","630","1560048","0.0-630.0","4e7vau8x","","","","","",""
"","","","call-function","631","1560048","0.0-631.0","4e7vau8x","","","","","",""
"null","","","video-keyboard-response","632","1563127","0.0-632.0","4e7vau8x","","","","null","Agent A","STIM_SET_1_REAL/1159675.bmp_pp77_L3_V1.0_scrambled_freeview_isoFalse_fps144.mp4"
"","","","call-function","633","1563127","0.0-633.0","4e7vau8x","","","","","",""
"2076.2700000000186","{""pre-1"":1}","[0]","survey-likert","634","1565205","0.0-634.0","4e7vau8x","","","","","",""
"1791.3000000000466","{""pre-2"":1}","[0]","survey-likert","635","1566997","0.0-635.0","4e7vau8x","","","","","",""
"1747.125","{""pre-3"":0}","[0]","survey-likert","636","1568746","0.0-636.0","4e7vau8x","","","","","",""
"2001.4500000001863","{""post-5"":2}","[0]","survey-likert","637","1570748","0.0-637.0","4e7vau8x","","","","","",""
"","","","call-function","638","1570749","0.0-638.0","4e7vau8x","","","","","",""
"null","","","video-keyboard-response","639","1573842","0.0-639.0","4e7vau8x","","","","null","Agent A","STIM_SET_1_REAL/1592619.bmp_pp56_L3_V1.0_scrambled_freeview_isoFalse_fps144.mp4"
"","","","call-function","640","1573843","0.0-640.0","4e7vau8x","","","","","",""
"1753.2099999999627","{""pre-1"":2}","[0]","survey-likert","641","1575598","0.0-641.0","4e7vau8x","","","","","",""
"1213.9299999999348","{""pre-2"":2}","[0]","survey-likert","642","1576813","0.0-642.0","4e7vau8x","","","","","",""
"1454.9799999999814","{""pre-3"":2}","[0]","survey-likert","643","1578269","0.0-643.0","4e7vau8x","","","","","",""
"1244.4299999999348","{""post-5"":0}","[0]","survey-likert","644","1579515","0.0-644.0","4e7vau8x","","","","","",""
"","","","call-function","645","1579516","0.0-645.0","4e7vau8x","","","","","",""
"null","","","video-keyboard-response","646","1582593","0.0-646.0","4e7vau8x","","","","null","Agent A","STIM_SET_1_REAL/713749.bmp_pp88_L2_V1.0_veridical_freeview_isoFalse_fps144.mp4"
"","","","call-function","647","1582593","0.0-647.0","4e7vau8x","","","","","",""
"1638.7399999999907","{""pre-1"":2}","[0]","survey-likert","648","1584233","0.0-648.0","4e7vau8x","","","","","",""
"1613.6049999999814","{""pre-2"":2}","[0]","survey-likert","649","1585848","0.0-649.0","4e7vau8x","","","","","",""
"1442.0749999999534","{""pre-3"":2}","[0]","survey-likert","650","1587292","0.0-650.0","4e7vau8x","","","","","",""
"1306.9450000000652","{""post-5"":0}","[0]","survey-likert","651","1588600","0.0-651.0","4e7vau8x","","","","","",""
"","","","call-function","652","1588600","0.0-652.0","4e7vau8x","","","","","",""
"null","","","video-keyboard-response","653","1591678","0.0-653.0","4e7vau8x","","","","null","Agent A","STIM_SET_1_REAL/713620.bmp_pp65_L3_V1.0_scrambled_freeview_isoFalse_fps144.mp4"
"","","","call-function","654","1591678","0.0-654.0","4e7vau8x","","","","","",""
"1331.589999999851","{""pre-1"":2}","[0]","survey-likert","655","1593011","0.0-655.0","4e7vau8x","","","","","",""
"1079.1699999999255","{""pre-2"":2}","[0]","survey-likert","656","1594091","0.0-656.0","4e7vau8x","","","","","",""
"2101.1500000001397","{""pre-3"":2}","[0]","survey-likert","657","1596193","0.0-657.0","4e7vau8x","","","","","",""
"1179.2250000000931","{""post-5"":0}","[0]","survey-likert","658","1597374","0.0-658.0","4e7vau8x","","","","","",""
"","","","call-function","659","1597374","0.0-659.0","4e7vau8x","","","","","",""
"null","","","video-keyboard-response","660","1600443","0.0-660.0","4e7vau8x","","","","null","Agent A","STIM_SET_1_REAL/713017.bmp_pp152_L2_V1.0_scrambled_freeview_isoFalse_fps144.mp4"
"","","","call-function","661","1600444","0.0-661.0","4e7vau8x","","","","","",""
"3385.904999999795","{""pre-1"":2}","[0]","survey-likert","662","1603830","0.0-662.0","4e7vau8x","","","","","",""
"1843.2150000000838","{""pre-2"":2}","[0]","survey-likert","663","1605675","0.0-663.0","4e7vau8x","","","","","",""
"1539.9499999999534","{""pre-3"":2}","[0]","survey-likert","664","1607216","0.0-664.0","4e7vau8x","","","","","",""
"1123.7250000000931","{""post-5"":0}","[0]","survey-likert","665","1608341","0.0-665.0","4e7vau8x","","","","","",""
"","","","call-function","666","1608341","0.0-666.0","4e7vau8x","","","","","",""
"null","","","video-keyboard-response","667","1611402","0.0-667.0","4e7vau8x","","","","null","Agent A","STIM_SET_1_REAL/1159447.bmp_pp70_L2_V1.0_veridical_freeview_isoFalse_fps144.mp4"
"","","","call-function","668","1611403","0.0-668.0","4e7vau8x","","","","","",""
"3269.6949999998324","{""pre-1"":3}","[0]","survey-likert","669","1614674","0.0-669.0","4e7vau8x","","","","","",""
"1742.0449999999255","{""pre-2"":3}","[0]","survey-likert","670","1616417","0.0-670.0","4e7vau8x","","","","","",""
"1515.8049999999348","{""pre-3"":3}","[0]","survey-likert","671","1617934","0.0-671.0","4e7vau8x","","","","","",""
"1846.0200000000186","{""post-5"":0}","[0]","survey-likert","672","1619781","0.0-672.0","4e7vau8x","","","","","",""
"","","","call-function","673","1619781","0.0-673.0","4e7vau8x","","","","","",""
"null","","","video-keyboard-response","674","1622869","0.0-674.0","4e7vau8x","","","","null","Agent A","STIM_SET_1_REAL/1592817.bmp_pp55_L3_V1.0_scrambled_freeview_isoFalse_fps144.mp4"
"","","","call-function","675","1622870","0.0-675.0","4e7vau8x","","","","","",""
"1901.1350000000093","{""pre-1"":2}","[0]","survey-likert","676","1624773","0.0-676.0","4e7vau8x","","","","","",""
"1403.6350000000093","{""pre-2"":2}","[0]","survey-likert","677","1626179","0.0-677.0","4e7vau8x","","","","","",""
"1174.880000000121","{""pre-3"":2}","[0]","survey-likert","678","1627355","0.0-678.0","4e7vau8x","","","","","",""
"1523.6200000001118","{""post-5"":0}","[0]","survey-likert","679","1628881","0.0-679.0","4e7vau8x","","","","","",""
"","","","call-function","680","1628881","0.0-680.0","4e7vau8x","","","","","",""
"null","","","video-keyboard-response","681","1631952","0.0-681.0","4e7vau8x","","","","null","Agent A","STIM_SET_1_REAL/1591961.bmp_pp67_L2_V1.0_veridical_freeview_isoFalse_fps144.mp4"
"","","","call-function","682","1631953","0.0-682.0","4e7vau8x","","","","","",""
"2920.100000000093","{""pre-1"":1}","[0]","survey-likert","683","1634874","0.0-683.0","4e7vau8x","","","","","",""
"1011.2450000001118","{""pre-2"":1}","[0]","survey-likert","684","1635886","0.0-684.0","4e7vau8x","","","","","",""
"1798.6999999999534","{""pre-3"":1}","[0]","survey-likert","685","1637686","0.0-685.0","4e7vau8x","","","","","",""
"1712.5249999999069","{""post-5"":2}","[0]","survey-likert","686","1639400","0.0-686.0","4e7vau8x","","","","","",""
"","","","call-function","687","1639400","0.0-687.0","4e7vau8x","","","","","",""
"null","","","video-keyboard-response","688","1642468","0.0-688.0","4e7vau8x","","","","null","Agent A","STIM_SET_1_REAL/1592362.bmp_pp95_L2_V1.0_veridical_freeview_isoFalse_fps144.mp4"
"","","","call-function","689","1642468","0.0-689.0","4e7vau8x","","","","","",""
"2800.1949999998324","{""pre-1"":1}","[0]","survey-likert","690","1645269","0.0-690.0","4e7vau8x","","","","","",""
"1185.3149999999441","{""pre-2"":1}","[0]","survey-likert","691","1646456","0.0-691.0","4e7vau8x","","","","","",""
"964.6100000001024","{""pre-3"":1}","[0]","survey-likert","692","1647422","0.0-692.0","4e7vau8x","","","","","",""
"2851.839999999851","{""post-5"":1}","[0]","survey-likert","693","1650275","0.0-693.0","4e7vau8x","","","","","",""
"","","","call-function","694","1650275","0.0-694.0","4e7vau8x","","","","","",""
"null","","","video-keyboard-response","695","1653352","0.0-695.0","4e7vau8x","","","","null","Agent A","STIM_SET_1_REAL/1591876.bmp_pp63_L1_V1.0_scrambled_freeview_isoFalse_fps144.mp4"
"","","","call-function","696","1653353","0.0-696.0","4e7vau8x","","","","","",""
"2256.149999999907","{""pre-1"":3}","[0]","survey-likert","697","1655610","0.0-697.0","4e7vau8x","","","","","",""
"2137.965000000084","{""pre-2"":2}","[0]","survey-likert","698","1657749","0.0-698.0","4e7vau8x","","","","","",""
"1515.4899999999907","{""pre-3"":2}","[0]","survey-likert","699","1659265","0.0-699.0","4e7vau8x","","","","","",""
"1730.4299999999348","{""post-5"":1}","[0]","survey-likert","700","1660997","0.0-700.0","4e7vau8x","","","","","",""
"","","","call-function","701","1660997","0.0-701.0","4e7vau8x","","","","","",""
"null","","","video-keyboard-response","702","1664061","0.0-702.0","4e7vau8x","","","","null","Agent A","STIM_SET_1_REAL/713779.bmp_pp152_L2_V1.0_veridical_freeview_isoFalse_fps144.mp4"
"","","","call-function","703","1664062","0.0-703.0","4e7vau8x","","","","","",""
"2075.0200000000186","{""pre-1"":2}","[0]","survey-likert","704","1666138","0.0-704.0","4e7vau8x","","","","","",""
"1442.9799999999814","{""pre-2"":2}","[0]","survey-likert","705","1667582","0.0-705.0","4e7vau8x","","","","","",""
"1216.9550000000745","{""pre-3"":2}","[0]","survey-likert","706","1668801","0.0-706.0","4e7vau8x","","","","","",""
"1720.6850000000559","{""post-5"":2}","[0]","survey-likert","707","1670523","0.0-707.0","4e7vau8x","","","","","",""
"","","","call-function","708","1670523","0.0-708.0","4e7vau8x","","","","","",""
"null","","","video-keyboard-response","709","1673632","0.0-709.0","4e7vau8x","","","","null","Agent A","STIM_SET_1_REAL/1159675.bmp_pp77_L3_V1.0_veridical_freeview_isoFalse_fps144.mp4"
"","","","call-function","710","1673632","0.0-710.0","4e7vau8x","","","","","",""
"2077.3649999999907","{""pre-1"":1}","[0]","survey-likert","711","1675710","0.0-711.0","4e7vau8x","","","","","",""
"2135.2299999999814","{""pre-2"":1}","[0]","survey-likert","712","1677848","0.0-712.0","4e7vau8x","","","","","",""
"1799.9599999999627","{""pre-3"":0}","[0]","survey-likert","713","1679650","0.0-713.0","4e7vau8x","","","","","",""
"2430.4799999999814","{""post-5"":2}","[0]","survey-likert","714","1682082","0.0-714.0","4e7vau8x","","","","","",""
"","","","call-function","715","1682083","0.0-715.0","4e7vau8x","","","","","",""
"null","","","video-keyboard-response","716","1685160","0.0-716.0","4e7vau8x","","","","null","Agent A","STIM_SET_1_REAL/1592807.bmp_pp68_L1_V1.0_veridical_freeview_isoFalse_fps144.mp4"
"","","","call-function","717","1685160","0.0-717.0","4e7vau8x","","","","","",""
"2004.5","{""pre-1"":1}","[0]","survey-likert","718","1687166","0.0-718.0","4e7vau8x","","","","","",""
"1466.594999999972","{""pre-2"":1}","[0]","survey-likert","719","1688634","0.0-719.0","4e7vau8x","","","","","",""
"1738.559999999823","{""pre-3"":1}","[0]","survey-likert","720","1690374","0.0-720.0","4e7vau8x","","","","","",""
"1833.3400000000838","{""post-5"":2}","[0]","survey-likert","721","1692208","0.0-721.0","4e7vau8x","","","","","",""
"","","","call-function","722","1692209","0.0-722.0","4e7vau8x","","","","","",""
"null","","","video-keyboard-response","723","1695269","0.0-723.0","4e7vau8x","","","","null","Agent A","STIM_SET_1_REAL/713403.bmp_pp80_L3_V1.0_scrambled_freeview_isoFalse_fps144.mp4"
"","","","call-function","724","1695270","0.0-724.0","4e7vau8x","","","","","",""
"3767.6299999998882","{""pre-1"":2}","[0]","survey-likert","725","1699038","0.0-725.0","4e7vau8x","","","","","",""
"2238.179999999935","{""pre-2"":2}","[0]","survey-likert","726","1701278","0.0-726.0","4e7vau8x","","","","","",""
"1721.2749999999069","{""pre-3"":2}","[0]","survey-likert","727","1703000","0.0-727.0","4e7vau8x","","","","","",""
"2511.6800000001676","{""post-5"":1}","[0]","survey-likert","728","1705513","0.0-728.0","4e7vau8x","","","","","",""
"1902.160000000149","","","instructions","729","1707416","0.0-729.0","4e7vau8x","[{""page_index"":0,""viewing_time"":1033.0100000000093},{""page_index"":1,""viewing_time"":435.11000000010245},{""page_index"":2,""viewing_time"":433.8100000000559}]","","","","",""
"1359.3599999998696","","","instructions","730","1708775","0.0-730.0","4e7vau8x","[{""page_index"":0,""viewing_time"":541.5999999998603},{""page_index"":1,""viewing_time"":382.7300000002142},{""page_index"":2,""viewing_time"":434.9199999999255}]","","","","",""
"","","","call-function","731","1708776","0.0-731.0","4e7vau8x","","","","","",""
"null","","","video-keyboard-response","732","1711843","0.0-732.0","4e7vau8x","","","","null","Agent A","STIM_SET_1_REAL/713796.bmp_pp84_L3_V1.0_veridical_freeview_isoFalse_fps144.mp4"
"","","","call-function","733","1711843","0.0-733.0","4e7vau8x","","","","","",""
"2674.8549999999814","{""pre-1"":1}","[0]","survey-likert","734","1714519","0.0-734.0","4e7vau8x","","","","","",""
"1594.6750000000466","{""pre-2"":1}","[0]","survey-likert","735","1716115","0.0-735.0","4e7vau8x","","","","","",""
"1589.0700000000652","{""pre-3"":1}","[0]","survey-likert","736","1717705","0.0-736.0","4e7vau8x","","","","","",""
"1784.3200000000652","{""post-5"":1}","[0]","survey-likert","737","1719490","0.0-737.0","4e7vau8x","","","","","",""
"","","","call-function","738","1719491","0.0-738.0","4e7vau8x","","","","","",""
"null","","","video-keyboard-response","739","1722558","0.0-739.0","4e7vau8x","","","","null","Agent A","STIM_SET_1_REAL/1592727.bmp_pp59_L3_V1.0_scrambled_freeview_isoFalse_fps144.mp4"
"","","","call-function","740","1722559","0.0-740.0","4e7vau8x","","","","","",""
"5239.215000000084","{""pre-1"":2}","[0]","survey-likert","741","1727799","0.0-741.0","4e7vau8x","","","","","",""
"2563.3649999999907","{""pre-2"":1}","[0]","survey-likert","742","1730364","0.0-742.0","4e7vau8x","","","","","",""
"1562.8649999999907","{""pre-3"":1}","[0]","survey-likert","743","1731928","0.0-743.0","4e7vau8x","","","","","",""
"1403.4299999999348","{""post-5"":2}","[0]","survey-likert","744","1733332","0.0-744.0","4e7vau8x","","","","","",""
"","","","call-function","745","1733332","0.0-745.0","4e7vau8x","","","","","",""
"null","","","video-keyboard-response","746","1736432","0.0-746.0","4e7vau8x","","","","null","Agent A","STIM_SET_1_REAL/1159515.bmp_pp84_L3_V1.0_scrambled_freeview_isoFalse_fps144.mp4"
"","","","call-function","747","1736433","0.0-747.0","4e7vau8x","","","","","",""
"4044.439999999944","{""pre-1"":1}","[0]","survey-likert","748","1740479","0.0-748.0","4e7vau8x","","","","","",""
"3743.630000000121","{""pre-2"":2}","[0]","survey-likert","749","1744225","0.0-749.0","4e7vau8x","","","","","",""
"1756.6850000000559","{""pre-3"":1}","[0]","survey-likert","750","1745983","0.0-750.0","4e7vau8x","","","","","",""
"1697.8000000000466","{""post-5"":1}","[0]","survey-likert","751","1747682","0.0-751.0","4e7vau8x","","","","","",""
"","","","call-function","752","1747683","0.0-752.0","4e7vau8x","","","","","",""
"null","","","video-keyboard-response","753","1750757","0.0-753.0","4e7vau8x","","","","null","Agent A","STIM_SET_1_REAL/713135.bmp_pp54_L2_V1.0_scrambled_freeview_isoFalse_fps144.mp4"
"","","","call-function","754","1750757","0.0-754.0","4e7vau8x","","","","","",""
"2017.7250000000931","{""pre-1"":2}","[0]","survey-likert","755","1752776","0.0-755.0","4e7vau8x","","","","","",""
"1408.4499999999534","{""pre-2"":2}","[0]","survey-likert","756","1754186","0.0-756.0","4e7vau8x","","","","","",""
"2233.6450000000186","{""pre-3"":1}","[0]","survey-likert","757","1756421","0.0-757.0","4e7vau8x","","","","","",""
"1269.9550000000745","{""post-5"":1}","[0]","survey-likert","758","1757692","0.0-758.0","4e7vau8x","","","","","",""
"","","","call-function","759","1757693","0.0-759.0","4e7vau8x","","","","","",""
"null","","","video-keyboard-response","760","1760769","0.0-760.0","4e7vau8x","","","","null","Agent A","STIM_SET_1_REAL/498175.bmp_pp154_L1_V1.0_veridical_freeview_isoFalse_fps144.mp4"
"","","","call-function","761","1760770","0.0-761.0","4e7vau8x","","","","","",""
"2089.060000000056","{""pre-1"":2}","[0]","survey-likert","762","1762860","0.0-762.0","4e7vau8x","","","","","",""
"1658.2100000001956","{""pre-2"":2}","[0]","survey-likert","763","1764519","0.0-763.0","4e7vau8x","","","","","",""
"963.4150000000373","{""pre-3"":2}","[0]","survey-likert","764","1765484","0.0-764.0","4e7vau8x","","","","","",""
"1907.1850000000559","{""post-5"":0}","[0]","survey-likert","765","1767392","0.0-765.0","4e7vau8x","","","","","",""
"","","","call-function","766","1767392","0.0-766.0","4e7vau8x","","","","","",""
"null","","","video-keyboard-response","767","1770469","0.0-767.0","4e7vau8x","","","","null","Agent A","STIM_SET_1_REAL/1592372.bmp_pp76_L1_V1.0_veridical_freeview_isoFalse_fps144.mp4"
"","","","call-function","768","1770470","0.0-768.0","4e7vau8x","","","","","",""
"3685.654999999795","{""pre-1"":2}","[0]","survey-likert","769","1774157","0.0-769.0","4e7vau8x","","","","","",""
"1349.2700000000186","{""pre-2"":2}","[0]","survey-likert","770","1775507","0.0-770.0","4e7vau8x","","","","","",""
"1342.8199999998324","{""pre-3"":2}","[0]","survey-likert","771","1776851","0.0-771.0","4e7vau8x","","","","","",""
"1488.1050000002142","{""post-5"":1}","[0]","survey-likert","772","1778340","0.0-772.0","4e7vau8x","","","","","",""
"","","","call-function","773","1778341","0.0-773.0","4e7vau8x","","","","","",""
"null","","","video-keyboard-response","774","1781403","0.0-774.0","4e7vau8x","","","","null","Agent A","STIM_SET_1_REAL/1159447.bmp_pp70_L2_V1.0_scrambled_freeview_isoFalse_fps144.mp4"
"","","","call-function","775","1781403","0.0-775.0","4e7vau8x","","","","","",""
"1817.1449999997858","{""pre-1"":2}","[0]","survey-likert","776","1783221","0.0-776.0","4e7vau8x","","","","","",""
"1463.1950000000652","{""pre-2"":2}","[0]","survey-likert","777","1784686","0.0-777.0","4e7vau8x","","","","","",""
"1765.5799999998417","{""pre-3"":2}","[0]","survey-likert","778","1786452","0.0-778.0","4e7vau8x","","","","","",""
"1343.5100000000093","{""post-5"":1}","[0]","survey-likert","779","1787797","0.0-779.0","4e7vau8x","","","","","",""
"","","","call-function","780","1787797","0.0-780.0","4e7vau8x","","","","","",""
"null","","","video-keyboard-response","781","1790884","0.0-781.0","4e7vau8x","","","","null","Agent A","STIM_SET_1_REAL/1159446.bmp_pp60_L3_V1.0_scrambled_freeview_isoFalse_fps144.mp4"
"","","","call-function","782","1790885","0.0-782.0","4e7vau8x","","","","","",""
"2210.909999999916","{""pre-1"":1}","[0]","survey-likert","783","1793097","0.0-783.0","4e7vau8x","","","","","",""
"1619.7949999999255","{""pre-2"":1}","[0]","survey-likert","784","1794719","0.0-784.0","4e7vau8x","","","","","",""
"1995.8500000000931","{""pre-3"":0}","[0]","survey-likert","785","1796717","0.0-785.0","4e7vau8x","","","","","",""
"3302.7899999998044","{""post-5"":2}","[0]","survey-likert","786","1800022","0.0-786.0","4e7vau8x","","","","","",""
"","","","call-function","787","1800023","0.0-787.0","4e7vau8x","","","","","",""
"null","","","video-keyboard-response","788","1803088","0.0-788.0","4e7vau8x","","","","null","Agent A","STIM_SET_1_REAL/498149.bmp_pp99_L2_V1.0_scrambled_freeview_isoFalse_fps144.mp4"
"","","","call-function","789","1803088","0.0-789.0","4e7vau8x","","","","","",""
"2149.9449999998324","{""pre-1"":2}","[0]","survey-likert","790","1805239","0.0-790.0","4e7vau8x","","","","","",""
"1174.5649999999441","{""pre-2"":2}","[0]","survey-likert","791","1806415","0.0-791.0","4e7vau8x","","","","","",""
"1164.8549999999814","{""pre-3"":2}","[0]","survey-likert","792","1807581","0.0-792.0","4e7vau8x","","","","","",""
"3318.1450000000186","{""post-5"":1}","[0]","survey-likert","793","1810901","0.0-793.0","4e7vau8x","","","","","",""
"","","","call-function","794","1810901","0.0-794.0","4e7vau8x","","","","","",""
"null","","","video-keyboard-response","795","1813975","0.0-795.0","4e7vau8x","","","","null","Agent A","STIM_SET_1_REAL/712977.bmp_pp51_L1_V1.0_scrambled_freeview_isoFalse_fps144.mp4"
"","","","call-function","796","1813976","0.0-796.0","4e7vau8x","","","","","",""
"3044.0849999999627","{""pre-1"":2}","[0]","survey-likert","797","1817021","0.0-797.0","4e7vau8x","","","","","",""
"1453.6850000000559","{""pre-2"":2}","[0]","survey-likert","798","1818476","0.0-798.0","4e7vau8x","","","","","",""
"3233.845000000205","{""pre-3"":3}","[0]","survey-likert","799","1821711","0.0-799.0","4e7vau8x","","","","","",""
"2148.9850000001024","{""post-5"":0}","[0]","survey-likert","800","1823861","0.0-800.0","4e7vau8x","","","","","",""
"","","","call-function","801","1823862","0.0-801.0","4e7vau8x","","","","","",""
"null","","","video-keyboard-response","802","1826922","0.0-802.0","4e7vau8x","","","","null","Agent A","STIM_SET_1_REAL/1592351.bmp_pp51_L1_V1.0_veridical_freeview_isoFalse_fps144.mp4"
"","","","call-function","803","1826923","0.0-803.0","4e7vau8x","","","","","",""
"2858.5100000000093","{""pre-1"":3}","[0]","survey-likert","804","1829782","0.0-804.0","4e7vau8x","","","","","",""
"1464.2399999999907","{""pre-2"":2}","[0]","survey-likert","805","1831247","0.0-805.0","4e7vau8x","","","","","",""
"1273.6350000000093","{""pre-3"":2}","[0]","survey-likert","806","1832522","0.0-806.0","4e7vau8x","","","","","",""
"2032.4399999999441","{""post-5"":0}","[0]","survey-likert","807","1834556","0.0-807.0","4e7vau8x","","","","","",""
"","","","call-function","808","1834556","0.0-808.0","4e7vau8x","","","","","",""
"null","","","video-keyboard-response","809","1837622","0.0-809.0","4e7vau8x","","","","null","Agent A","STIM_SET_1_REAL/285933.bmp_pp81_L1_V1.0_veridical_freeview_isoFalse_fps144.mp4"
"","","","call-function","810","1837623","0.0-810.0","4e7vau8x","","","","","",""
"2421.1399999998976","{""pre-1"":1}","[0]","survey-likert","811","1840045","0.0-811.0","4e7vau8x","","","","","",""
"2325.1999999999534","{""pre-2"":2}","[0]","survey-likert","812","1842371","0.0-812.0","4e7vau8x","","","","","",""
"889.6949999998324","{""pre-3"":1}","[0]","survey-likert","813","1843262","0.0-813.0","4e7vau8x","","","","","",""
"1553.9399999999441","{""post-5"":1}","[0]","survey-likert","814","1844817","0.0-814.0","4e7vau8x","","","","","",""
"","","","call-function","815","1844818","0.0-815.0","4e7vau8x","","","","","",""
"null","","","video-keyboard-response","816","1847925","0.0-816.0","4e7vau8x","","","","null","Agent A","STIM_SET_1_REAL/713211.bmp_pp100_L3_V1.0_scrambled_freeview_isoFalse_fps144.mp4"
"","","","call-function","817","1847926","0.0-817.0","4e7vau8x","","","","","",""
"2818.469999999972","{""pre-1"":2}","[0]","survey-likert","818","1850746","0.0-818.0","4e7vau8x","","","","","",""
"1312.2150000000838","{""pre-2"":2}","[0]","survey-likert","819","1852060","0.0-819.0","4e7vau8x","","","","","",""
"937.1299999998882","{""pre-3"":2}","[0]","survey-likert","820","1852998","0.0-820.0","4e7vau8x","","","","","",""
"2734.8850000000093","{""post-5"":1}","[0]","survey-likert","821","1855734","0.0-821.0","4e7vau8x","","","","","",""
"","","","call-function","822","1855735","0.0-822.0","4e7vau8x","","","","","",""
"null","","","video-keyboard-response","823","1858807","0.0-823.0","4e7vau8x","","","","null","Agent A","STIM_SET_1_REAL/1160168.bmp_pp53_L2_V1.0_scrambled_freeview_isoFalse_fps144.mp4"
"","","","call-function","824","1858808","0.0-824.0","4e7vau8x","","","","","",""
"2696.3499999998603","{""pre-1"":1}","[0]","survey-likert","825","1861505","0.0-825.0","4e7vau8x","","","","","",""
"1236.2849999999162","{""pre-2"":1}","[0]","survey-likert","826","1862743","0.0-826.0","4e7vau8x","","","","","",""
"3217.314999999944","{""pre-3"":0}","[0]","survey-likert","827","1865961","0.0-827.0","4e7vau8x","","","","","",""
"3329.340000000084","{""post-5"":2}","[0]","survey-likert","828","1869292","0.0-828.0","4e7vau8x","","","","","",""
"","","","call-function","829","1869292","0.0-829.0","4e7vau8x","","","","","",""
"null","","","video-keyboard-response","830","1872354","0.0-830.0","4e7vau8x","","","","null","Agent A","STIM_SET_1_REAL/1159572.bmp_pp71_L1_V1.0_scrambled_freeview_isoFalse_fps144.mp4"
"","","","call-function","831","1872355","0.0-831.0","4e7vau8x","","","","","",""
"3923.1299999998882","{""pre-1"":2}","[0]","survey-likert","832","1876279","0.0-832.0","4e7vau8x","","","","","",""
"2572.4799999999814","{""pre-2"":1}","[0]","survey-likert","833","1878853","0.0-833.0","4e7vau8x","","","","","",""
"992.0749999999534","{""pre-3"":1}","[0]","survey-likert","834","1879846","0.0-834.0","4e7vau8x","","","","","",""
"1357.1049999999814","{""post-5"":1}","[0]","survey-likert","835","1881204","0.0-835.0","4e7vau8x","","","","","",""
"","","","call-function","836","1881205","0.0-836.0","4e7vau8x","","","","","",""
