"rt","responses","question_order","trial_type","trial_index","time_elapsed","internal_node_id","ID","view_history","value","stimulus","key_press","agent","image"
"64167.62","{""Experimenter"":[""Confirmed subject's identity (ID card)"",""Confirmed normal or corrected-to-normal vision"",""Obtained consent (signature and date)"",""Checked the test room lighting"",""Checked computer screen lighting"",""Checked distance from screen to chin rest (50cm)"",""Cleaned and adjusted chin rest"",""Counterbalanced the order of the tasks"",""Opened the experiment in Firefox"",""Made the experiment full screen"",""Encouraged subject to silence phone, put away distractors, etc.""]}","[0]","survey-multi-select","0","64176","0.0-0.0","4k0za41r","","","","","",""
"33403.985","","","instructions","1","97582","0.0-1.0","4k0za41r","[{""page_index"":0,""viewing_time"":33403.83500000001}]","","","","",""
"5199.085000000006","{""Age"":0,""Sex"":1,""Gender"":1}","[0,1,2]","survey-likert","2","102783","0.0-2.0","4k0za41r","","","","","",""
"1102.8849999999948","","","instructions","3","103887","0.0-3.0","4k0za41r","[{""page_index"":0,""viewing_time"":1102.784999999989}]","","","","",""
"2914.5099999999948","","","instructions","4","106801","0.0-4.0","4k0za41r","[{""page_index"":0,""viewing_time"":1515.5950000000012},{""page_index"":1,""viewing_time"":1398.8150000000023}]","","","","",""
"4381.669999999998","","","instructions","5","111183","0.0-5.0","4k0za41r","[{""page_index"":0,""viewing_time"":829.6399999999994},{""page_index"":1,""viewing_time"":1308.945000000007},{""page_index"":2,""viewing_time"":2242.9649999999965}]","","","","",""
"1877.4449999999924","","","instructions","6","113061","0.0-6.0","4k0za41r","[{""page_index"":0,""viewing_time"":1877.3449999999866}]","","","","",""
"","","","call-function","7","113062","0.0-7.0","4k0za41r","","","","","",""
"null","","","video-keyboard-response","8","116137","0.0-8.0","4k0za41r","","","","null","",""
"","","","call-function","9","116137","0.0-9.0","4k0za41r","","","","","",""
"7100.130000000005","","","instructions","10","123238","0.0-10.0","4k0za41r","[{""page_index"":0,""viewing_time"":1752.3899999999994},{""page_index"":1,""viewing_time"":1477.3650000000052},{""page_index"":2,""viewing_time"":943.3349999999919},{""page_index"":3,""viewing_time"":2926.820000000007}]","","","","",""
"926.9499999999971","","","instructions","11","124165","0.0-11.0","4k0za41r","[{""page_index"":0,""viewing_time"":926.8399999999965}]","","","","",""
"","","","call-function","12","124166","0.0-12.0","4k0za41r","","","","","",""
"null","","","video-keyboard-response","13","127238","0.0-13.0","4k0za41r","","","","null","",""
"","","","call-function","14","127239","0.0-14.0","4k0za41r","","","","","",""
"5570.139999999999","{""pre-1"":2}","[0]","survey-likert","15","132810","0.0-15.0","4k0za41r","","","","","",""
"3861.2149999999965","{""pre-2"":1}","[0]","survey-likert","16","136673","0.0-16.0","4k0za41r","","","","","",""
"3768.195000000007","{""pre-3"":0}","[0]","survey-likert","17","140443","0.0-17.0","4k0za41r","","","","","",""
"4561.299999999988","{""post-5"":2}","[0]","survey-likert","18","145006","0.0-18.0","4k0za41r","","","","","",""
"847.6699999999837","","","instructions","19","145854","0.0-19.0","4k0za41r","[{""page_index"":0,""viewing_time"":847.054999999993}]","","","","",""
"2627.7850000000035","","","instructions","20","148483","0.0-20.0","4k0za41r","[{""page_index"":0,""viewing_time"":2627.6699999999837}]","","","","",""
"","","","call-function","21","148483","0.0-21.0","4k0za41r","","","","","",""
"null","","","video-keyboard-response","22","151562","0.0-22.0","4k0za41r","","","","null","Agent A","STIM_SET_1_REAL/713707.bmp_pp154_L1_V1.0_veridical_freeview_isoFalse_fps144.mp4"
"","","","call-function","23","151563","0.0-23.0","4k0za41r","","","","","",""
"3795.3399999999965","{""pre-1"":2}","[0]","survey-likert","24","155359","0.0-24.0","4k0za41r","","","","","",""
"3446.920000000013","{""pre-2"":1}","[0]","survey-likert","25","158807","0.0-25.0","4k0za41r","","","","","",""
"2521.439999999973","{""pre-3"":0}","[0]","survey-likert","26","161330","0.0-26.0","4k0za41r","","","","","",""
"2683.125","{""post-5"":2}","[0]","survey-likert","27","164015","0.0-27.0","4k0za41r","","","","","",""
"","","","call-function","28","164016","0.0-28.0","4k0za41r","","","","","",""
"null","","","video-keyboard-response","29","167078","0.0-29.0","4k0za41r","","","","null","Agent A","STIM_SET_1_REAL/285994.bmp_pp92_L3_V1.0_scrambled_freeview_isoFalse_fps144.mp4"
"","","","call-function","30","167078","0.0-30.0","4k0za41r","","","","","",""
"3271.3550000000105","{""pre-1"":3}","[0]","survey-likert","31","170351","0.0-31.0","4k0za41r","","","","","",""
"2020.9850000000151","{""pre-2"":2}","[0]","survey-likert","32","172373","0.0-32.0","4k0za41r","","","","","",""
"2826.179999999993","{""pre-3"":2}","[0]","survey-likert","33","175200","0.0-33.0","4k0za41r","","","","","",""
"2217.9499999999825","{""post-5"":1}","[0]","survey-likert","34","177419","0.0-34.0","4k0za41r","","","","","",""
"","","","call-function","35","177419","0.0-35.0","4k0za41r","","","","","",""
"null","","","video-keyboard-response","36","180480","0.0-36.0","4k0za41r","","","","null","Agent A","STIM_SET_1_REAL/1159447.bmp_pp70_L2_V1.0_scrambled_freeview_isoFalse_fps144.mp4"
"","","","call-function","37","180481","0.0-37.0","4k0za41r","","","","","",""
"2465.399999999994","{""pre-1"":2}","[0]","survey-likert","38","182947","0.0-38.0","4k0za41r","","","","","",""
"1931.3800000000047","{""pre-2"":1}","[0]","survey-likert","39","184880","0.0-39.0","4k0za41r","","","","","",""
"2815.8950000000186","{""pre-3"":1}","[0]","survey-likert","40","187697","0.0-40.0","4k0za41r","","","","","",""
"3099.8550000000105","{""post-5"":1}","[0]","survey-likert","41","190798","0.0-41.0","4k0za41r","","","","","",""
"","","","call-function","42","190799","0.0-42.0","4k0za41r","","","","","",""
"null","","","video-keyboard-response","43","193907","0.0-43.0","4k0za41r","","","","null","Agent A","STIM_SET_1_REAL/713760.bmp_pp81_L1_V1.0_veridical_freeview_isoFalse_fps144.mp4"
"","","","call-function","44","193907","0.0-44.0","4k0za41r","","","","","",""
"5000.880000000005","{""pre-1"":3}","[0]","survey-likert","45","198909","0.0-45.0","4k0za41r","","","","","",""
"2193.350000000006","{""pre-2"":2}","[0]","survey-likert","46","201104","0.0-46.0","4k0za41r","","","","","",""
"2262.0100000000093","{""pre-3"":2}","[0]","survey-likert","47","203367","0.0-47.0","4k0za41r","","","","","",""
"2568.654999999999","{""post-5"":1}","[0]","survey-likert","48","205937","0.0-48.0","4k0za41r","","","","","",""
"","","","call-function","49","205937","0.0-49.0","4k0za41r","","","","","",""
"null","","","video-keyboard-response","50","209014","0.0-50.0","4k0za41r","","","","null","Agent A","STIM_SET_1_REAL/1591954.bmp_pp62_L2_V1.0_scrambled_freeview_isoFalse_fps144.mp4"
"","","","call-function","51","209014","0.0-51.0","4k0za41r","","","","","",""
"2241.930000000022","{""pre-1"":2}","[0]","survey-likert","52","211257","0.0-52.0","4k0za41r","","","","","",""
"1912.4499999999825","{""pre-2"":1}","[0]","survey-likert","53","213171","0.0-53.0","4k0za41r","","","","","",""
"2118.389999999985","{""pre-3"":1}","[0]","survey-likert","54","215290","0.0-54.0","4k0za41r","","","","","",""
"2225.529999999999","{""post-5"":2}","[0]","survey-likert","55","217517","0.0-55.0","4k0za41r","","","","","",""
"","","","call-function","56","217517","0.0-56.0","4k0za41r","","","","","",""
"null","","","video-keyboard-response","57","220587","0.0-57.0","4k0za41r","","","","null","Agent A","STIM_SET_1_REAL/1160168.bmp_pp53_L2_V1.0_veridical_freeview_isoFalse_fps144.mp4"
"","","","call-function","58","220587","0.0-58.0","4k0za41r","","","","","",""
"2657.8649999999907","{""pre-1"":2}","[0]","survey-likert","59","223246","0.0-59.0","4k0za41r","","","","","",""
"1861.7200000000012","{""pre-2"":2}","[0]","survey-likert","60","225108","0.0-60.0","4k0za41r","","","","","",""
"2112.3099999999977","{""pre-3"":2}","[0]","survey-likert","61","227222","0.0-61.0","4k0za41r","","","","","",""
"2248.045000000013","{""post-5"":0}","[0]","survey-likert","62","229471","0.0-62.0","4k0za41r","","","","","",""
"","","","call-function","63","229471","0.0-63.0","4k0za41r","","","","","",""
"null","","","video-keyboard-response","64","232538","0.0-64.0","4k0za41r","","","","null","Agent A","STIM_SET_1_REAL/713513.bmp_pp62_L2_V1.0_scrambled_freeview_isoFalse_fps144.mp4"
"","","","call-function","65","232539","0.0-65.0","4k0za41r","","","","","",""
"1732.2400000000198","{""pre-1"":2}","[0]","survey-likert","66","234272","0.0-66.0","4k0za41r","","","","","",""
"3493.475000000006","{""pre-2"":1}","[0]","survey-likert","67","237766","0.0-67.0","4k0za41r","","","","","",""
"3682.889999999985","{""pre-3"":1}","[0]","survey-likert","68","241450","0.0-68.0","4k0za41r","","","","","",""
"2758.4100000000035","{""post-5"":1}","[0]","survey-likert","69","244211","0.0-69.0","4k0za41r","","","","","",""
"","","","call-function","70","244212","0.0-70.0","4k0za41r","","","","","",""
"null","","","video-keyboard-response","71","247301","0.0-71.0","4k0za41r","","","","null","Agent A","STIM_SET_1_REAL/1159446.bmp_pp60_L3_V1.0_veridical_freeview_isoFalse_fps144.mp4"
"","","","call-function","72","247302","0.0-72.0","4k0za41r","","","","","",""
"1930.140000000014","{""pre-1"":2}","[0]","survey-likert","73","249233","0.0-73.0","4k0za41r","","","","","",""
"2214.295000000013","{""pre-2"":2}","[0]","survey-likert","74","251449","0.0-74.0","4k0za41r","","","","","",""
"2237.850000000006","{""pre-3"":2}","[0]","survey-likert","75","253688","0.0-75.0","4k0za41r","","","","","",""
"2937.0100000000093","{""post-5"":1}","[0]","survey-likert","76","256626","0.0-76.0","4k0za41r","","","","","",""
"","","","call-function","77","256626","0.0-77.0","4k0za41r","","","","","",""
"null","","","video-keyboard-response","78","259717","0.0-78.0","4k0za41r","","","","null","Agent A","STIM_SET_1_REAL/285751.bmp_pp55_L3_V1.0_veridical_freeview_isoFalse_fps144.mp4"
"","","","call-function","79","259718","0.0-79.0","4k0za41r","","","","","",""
"2306.4349999999977","{""pre-1"":1}","[0]","survey-likert","80","262025","0.0-80.0","4k0za41r","","","","","",""
"2196.875","{""pre-2"":1}","[0]","survey-likert","81","264223","0.0-81.0","4k0za41r","","","","","",""
"2334.4550000000163","{""pre-3"":0}","[0]","survey-likert","82","266559","0.0-82.0","4k0za41r","","","","","",""
"2219.0200000000186","{""post-5"":2}","[0]","survey-likert","83","268779","0.0-83.0","4k0za41r","","","","","",""
"","","","call-function","84","268779","0.0-84.0","4k0za41r","","","","","",""
"null","","","video-keyboard-response","85","271847","0.0-85.0","4k0za41r","","","","null","Agent A","STIM_SET_1_REAL/1592286.bmp_pp52_L1_V1.0_veridical_freeview_isoFalse_fps144.mp4"
"","","","call-function","86","271848","0.0-86.0","4k0za41r","","","","","",""
"1721.4199999999837","{""pre-1"":2}","[0]","survey-likert","87","273570","0.0-87.0","4k0za41r","","","","","",""
"1376.2099999999627","{""pre-2"":1}","[0]","survey-likert","88","274947","0.0-88.0","4k0za41r","","","","","",""
"2241.515000000014","{""pre-3"":0}","[0]","survey-likert","89","277190","0.0-89.0","4k0za41r","","","","","",""
"1868.0750000000116","{""post-5"":1}","[0]","survey-likert","90","279059","0.0-90.0","4k0za41r","","","","","",""
"","","","call-function","91","279059","0.0-91.0","4k0za41r","","","","","",""
"null","","","video-keyboard-response","92","282126","0.0-92.0","4k0za41r","","","","null","Agent A","STIM_SET_1_REAL/1592397.bmp_pp85_L3_V1.0_veridical_freeview_isoFalse_fps144.mp4"
"","","","call-function","93","282126","0.0-93.0","4k0za41r","","","","","",""
"4795.080000000016","{""pre-1"":1}","[0]","survey-likert","94","286922","0.0-94.0","4k0za41r","","","","","",""
"3986.045000000042","{""pre-2"":0}","[0]","survey-likert","95","290909","0.0-95.0","4k0za41r","","","","","",""
"2674.3850000000093","{""pre-3"":1}","[0]","survey-likert","96","293585","0.0-96.0","4k0za41r","","","","","",""
"4572.794999999984","{""post-5"":2}","[0]","survey-likert","97","298159","0.0-97.0","4k0za41r","","","","","",""
"","","","call-function","98","298160","0.0-98.0","4k0za41r","","","","","",""
"null","","","video-keyboard-response","99","301254","0.0-99.0","4k0za41r","","","","null","Agent A","STIM_SET_1_REAL/61537.bmp_pp73_L3_V1.0_scrambled_freeview_isoFalse_fps144.mp4"
"","","","call-function","100","301254","0.0-100.0","4k0za41r","","","","","",""
"2614.7700000000186","{""pre-1"":0}","[0]","survey-likert","101","303870","0.0-101.0","4k0za41r","","","","","",""
"2094.600000000035","{""pre-2"":0}","[0]","survey-likert","102","305966","0.0-102.0","4k0za41r","","","","","",""
"2545.0200000000186","{""pre-3"":0}","[0]","survey-likert","103","308512","0.0-103.0","4k0za41r","","","","","",""
"1853.1599999999744","{""post-5"":3}","[0]","survey-likert","104","310366","0.0-104.0","4k0za41r","","","","","",""
"","","","call-function","105","310367","0.0-105.0","4k0za41r","","","","","",""
"null","","","video-keyboard-response","106","313444","0.0-106.0","4k0za41r","","","","null","Agent A","STIM_SET_1_REAL/713666.bmp_pp97_L3_V1.0_veridical_freeview_isoFalse_fps144.mp4"
"","","","call-function","107","313444","0.0-107.0","4k0za41r","","","","","",""
"2324.2050000000163","{""pre-1"":1}","[0]","survey-likert","108","315770","0.0-108.0","4k0za41r","","","","","",""
"5168.719999999972","{""pre-2"":0}","[0]","survey-likert","109","320939","0.0-109.0","4k0za41r","","","","","",""
"3060.914999999979","{""pre-3"":1}","[0]","survey-likert","110","324001","0.0-110.0","4k0za41r","","","","","",""
"2342.5899999999674","{""post-5"":2}","[0]","survey-likert","111","326345","0.0-111.0","4k0za41r","","","","","",""
"","","","call-function","112","326345","0.0-112.0","4k0za41r","","","","","",""
"null","","","video-keyboard-response","113","329414","0.0-113.0","4k0za41r","","","","null","Agent A","STIM_SET_1_REAL/285905.bmp_pp57_L1_V1.0_veridical_freeview_isoFalse_fps144.mp4"
"","","","call-function","114","329414","0.0-114.0","4k0za41r","","","","","",""
"4859.924999999988","{""pre-1"":2}","[0]","survey-likert","115","334275","0.0-115.0","4k0za41r","","","","","",""
"2357.1599999999744","{""pre-2"":0}","[0]","survey-likert","116","336633","0.0-116.0","4k0za41r","","","","","",""
"3246.469999999972","{""pre-3"":0}","[0]","survey-likert","117","339881","0.0-117.0","4k0za41r","","","","","",""
"1926.484999999986","{""post-5"":2}","[0]","survey-likert","118","341808","0.0-118.0","4k0za41r","","","","","",""
"","","","call-function","119","341809","0.0-119.0","4k0za41r","","","","","",""
"null","","","video-keyboard-response","120","344929","0.0-120.0","4k0za41r","","","","null","Agent A","STIM_SET_1_REAL/713684.bmp_pp85_L3_V1.0_veridical_freeview_isoFalse_fps144.mp4"
"","","","call-function","121","344929","0.0-121.0","4k0za41r","","","","","",""
"2132.884999999951","{""pre-1"":2}","[0]","survey-likert","122","347063","0.0-122.0","4k0za41r","","","","","",""
"1497.8099999999977","{""pre-2"":1}","[0]","survey-likert","123","348563","0.0-123.0","4k0za41r","","","","","",""
"2052.649999999965","{""pre-3"":1}","[0]","survey-likert","124","350618","0.0-124.0","4k0za41r","","","","","",""
"2863.0100000000093","{""post-5"":1}","[0]","survey-likert","125","353482","0.0-125.0","4k0za41r","","","","","",""
"","","","call-function","126","353483","0.0-126.0","4k0za41r","","","","","",""
"null","","","video-keyboard-response","127","356552","0.0-127.0","4k0za41r","","","","null","Agent A","STIM_SET_1_REAL/1159829.bmp_pp91_L3_V1.0_scrambled_freeview_isoFalse_fps144.mp4"
"","","","call-function","128","356552","0.0-128.0","4k0za41r","","","","","",""
"2441.0149999999558","{""pre-1"":2}","[0]","survey-likert","129","358994","0.0-129.0","4k0za41r","","","","","",""
"3921.6900000000023","{""pre-2"":2}","[0]","survey-likert","130","362917","0.0-130.0","4k0za41r","","","","","",""
"2067.7949999999837","{""pre-3"":1}","[0]","survey-likert","131","364986","0.0-131.0","4k0za41r","","","","","",""
"2029.5200000000186","{""post-5"":1}","[0]","survey-likert","132","367016","0.0-132.0","4k0za41r","","","","","",""
"","","","call-function","133","367017","0.0-133.0","4k0za41r","","","","","",""
"null","","","video-keyboard-response","134","370080","0.0-134.0","4k0za41r","","","","null","Agent A","STIM_SET_1_REAL/1592133.bmp_pp75_L1_V1.0_scrambled_freeview_isoFalse_fps144.mp4"
"","","","call-function","135","370080","0.0-135.0","4k0za41r","","","","","",""
"3116.570000000007","{""pre-1"":1}","[0]","survey-likert","136","373197","0.0-136.0","4k0za41r","","","","","",""
"1942.9700000000303","{""pre-2"":1}","[0]","survey-likert","137","375141","0.0-137.0","4k0za41r","","","","","",""
"2099.0999999999767","{""pre-3"":0}","[0]","survey-likert","138","377242","0.0-138.0","4k0za41r","","","","","",""
"2266.2000000000116","{""post-5"":2}","[0]","survey-likert","139","379509","0.0-139.0","4k0za41r","","","","","",""
"","","","call-function","140","379510","0.0-140.0","4k0za41r","","","","","",""
"null","","","video-keyboard-response","141","382586","0.0-141.0","4k0za41r","","","","null","Agent A","STIM_SET_1_REAL/713684.bmp_pp85_L3_V1.0_scrambled_freeview_isoFalse_fps144.mp4"
"","","","call-function","142","382586","0.0-142.0","4k0za41r","","","","","",""
"3274.6299999999464","{""pre-1"":1}","[0]","survey-likert","143","385862","0.0-143.0","4k0za41r","","","","","",""
"6090.510000000009","{""pre-2"":1}","[0]","survey-likert","144","391953","0.0-144.0","4k0za41r","","","","","",""
"2015.9400000000023","{""pre-3"":0}","[0]","survey-likert","145","393970","0.0-145.0","4k0za41r","","","","","",""
"5044.524999999965","{""post-5"":2}","[0]","survey-likert","146","399016","0.0-146.0","4k0za41r","","","","","",""
"","","","call-function","147","399016","0.0-147.0","4k0za41r","","","","","",""
"null","","","video-keyboard-response","148","402130","0.0-148.0","4k0za41r","","","","null","Agent A","STIM_SET_1_REAL/1592804.bmp_pp91_L3_V1.0_scrambled_freeview_isoFalse_fps144.mp4"
"","","","call-function","149","402131","0.0-149.0","4k0za41r","","","","","",""
"2602.680000000051","{""pre-1"":1}","[0]","survey-likert","150","404736","0.0-150.0","4k0za41r","","","","","",""
"2365.859999999986","{""pre-2"":1}","[0]","survey-likert","151","407103","0.0-151.0","4k0za41r","","","","","",""
"2496.3399999999674","{""pre-3"":0}","[0]","survey-likert","152","409600","0.0-152.0","4k0za41r","","","","","",""
"1858.9550000000163","{""post-5"":2}","[0]","survey-likert","153","411460","0.0-153.0","4k0za41r","","","","","",""
"","","","call-function","154","411461","0.0-154.0","4k0za41r","","","","","",""
"null","","","video-keyboard-response","155","414536","0.0-155.0","4k0za41r","","","","null","Agent A","STIM_SET_1_REAL/713707.bmp_pp154_L1_V1.0_scrambled_freeview_isoFalse_fps144.mp4"
"","","","call-function","156","414537","0.0-156.0","4k0za41r","","","","","",""
"2972.6350000000093","{""pre-1"":2}","[0]","survey-likert","157","417510","0.0-157.0","4k0za41r","","","","","",""
"1682.1749999999884","{""pre-2"":1}","[0]","survey-likert","158","419194","0.0-158.0","4k0za41r","","","","","",""
"2155.7600000000093","{""pre-3"":1}","[0]","survey-likert","159","421351","0.0-159.0","4k0za41r","","","","","",""
"2247.140000000014","{""post-5"":2}","[0]","survey-likert","160","423599","0.0-160.0","4k0za41r","","","","","",""
"2742.524999999965","","","instructions","161","426342","0.0-161.0","4k0za41r","[{""page_index"":0,""viewing_time"":1024.3499999999767},{""page_index"":1,""viewing_time"":896.015000000014},{""page_index"":2,""viewing_time"":821.929999999993}]","","","","",""
"3062.5299999999697","","","instructions","162","429405","0.0-162.0","4k0za41r","[{""page_index"":0,""viewing_time"":530.5449999999837},{""page_index"":1,""viewing_time"":1742.0499999999884},{""page_index"":2,""viewing_time"":789.835000000021}]","","","","",""
"","","","call-function","163","429405","0.0-163.0","4k0za41r","","","","","",""
"null","","","video-keyboard-response","164","432481","0.0-164.0","4k0za41r","","","","null","Agent A","STIM_SET_1_REAL/498155.bmp_pp61_L2_V1.0_veridical_freeview_isoFalse_fps144.mp4"
"","","","call-function","165","432482","0.0-165.0","4k0za41r","","","","","",""
"4602.965000000026","{""pre-1"":1}","[0]","survey-likert","166","437085","0.0-166.0","4k0za41r","","","","","",""
"2617.5100000000093","{""pre-2"":1}","[0]","survey-likert","167","439704","0.0-167.0","4k0za41r","","","","","",""
"5442.259999999951","{""pre-3"":1}","[0]","survey-likert","168","445147","0.0-168.0","4k0za41r","","","","","",""
"2575.9949999999953","{""post-5"":1}","[0]","survey-likert","169","447724","0.0-169.0","4k0za41r","","","","","",""
"","","","call-function","170","447725","0.0-170.0","4k0za41r","","","","","",""
"null","","","video-keyboard-response","171","450798","0.0-171.0","4k0za41r","","","","null","Agent A","STIM_SET_1_REAL/498170.bmp_pp153_L3_V1.0_veridical_freeview_isoFalse_fps144.mp4"
"","","","call-function","172","450798","0.0-172.0","4k0za41r","","","","","",""
"2827.405000000028","{""pre-1"":2}","[0]","survey-likert","173","453626","0.0-173.0","4k0za41r","","","","","",""
"1285.579999999958","{""pre-2"":2}","[0]","survey-likert","174","454913","0.0-174.0","4k0za41r","","","","","",""
"1537.3950000000186","{""pre-3"":2}","[0]","survey-likert","175","456451","0.0-175.0","4k0za41r","","","","","",""
"2480.6350000000093","{""post-5"":0}","[0]","survey-likert","176","458933","0.0-176.0","4k0za41r","","","","","",""
"","","","call-function","177","458933","0.0-177.0","4k0za41r","","","","","",""
"null","","","video-keyboard-response","178","462034","0.0-178.0","4k0za41r","","","","null","Agent A","STIM_SET_1_REAL/1592804.bmp_pp91_L3_V1.0_veridical_freeview_isoFalse_fps144.mp4"
"","","","call-function","179","462035","0.0-179.0","4k0za41r","","","","","",""
"4699.090000000026","{""pre-1"":2}","[0]","survey-likert","180","466736","0.0-180.0","4k0za41r","","","","","",""
"2711.3549999999814","{""pre-2"":2}","[0]","survey-likert","181","469449","0.0-181.0","4k0za41r","","","","","",""
"1607.960000000021","{""pre-3"":1}","[0]","survey-likert","182","471058","0.0-182.0","4k0za41r","","","","","",""
"2437.5299999999697","{""post-5"":1}","[0]","survey-likert","183","473496","0.0-183.0","4k0za41r","","","","","",""
"","","","call-function","184","473497","0.0-184.0","4k0za41r","","","","","",""
"null","","","video-keyboard-response","185","476574","0.0-185.0","4k0za41r","","","","null","Agent A","STIM_SET_1_REAL/713620.bmp_pp65_L3_V1.0_veridical_freeview_isoFalse_fps144.mp4"
"","","","call-function","186","476574","0.0-186.0","4k0za41r","","","","","",""
"3763.1749999999884","{""pre-1"":3}","[0]","survey-likert","187","480339","0.0-187.0","4k0za41r","","","","","",""
"3393.5100000000093","{""pre-2"":3}","[0]","survey-likert","188","483733","0.0-188.0","4k0za41r","","","","","",""
"2686.9899999999907","{""pre-3"":3}","[0]","survey-likert","189","486422","0.0-189.0","4k0za41r","","","","","",""
"3260.2200000000303","{""post-5"":0}","[0]","survey-likert","190","489683","0.0-190.0","4k0za41r","","","","","",""
"","","","call-function","191","489683","0.0-191.0","4k0za41r","","","","","",""
"null","","","video-keyboard-response","192","492754","0.0-192.0","4k0za41r","","","","null","Agent A","STIM_SET_1_REAL/713135.bmp_pp54_L2_V1.0_veridical_freeview_isoFalse_fps144.mp4"
"","","","call-function","193","492754","0.0-193.0","4k0za41r","","","","","",""
"4703.005000000005","{""pre-1"":2}","[0]","survey-likert","194","497458","0.0-194.0","4k0za41r","","","","","",""
"1945.420000000042","{""pre-2"":1}","[0]","survey-likert","195","499404","0.0-195.0","4k0za41r","","","","","",""
"2297.5500000000466","{""pre-3"":1}","[0]","survey-likert","196","501703","0.0-196.0","4k0za41r","","","","","",""
"1900.765000000014","{""post-5"":1}","[0]","survey-likert","197","503605","0.0-197.0","4k0za41r","","","","","",""
"","","","call-function","198","503605","0.0-198.0","4k0za41r","","","","","",""
"null","","","video-keyboard-response","199","506678","0.0-199.0","4k0za41r","","","","null","Agent A","STIM_SET_1_REAL/1159768.bmp_pp89_L1_V1.0_veridical_freeview_isoFalse_fps144.mp4"
"","","","call-function","200","506679","0.0-200.0","4k0za41r","","","","","",""
"3052.2999999999884","{""pre-1"":1}","[0]","survey-likert","201","509733","0.0-201.0","4k0za41r","","","","","",""
"1715.4249999999884","{""pre-2"":1}","[0]","survey-likert","202","511450","0.0-202.0","4k0za41r","","","","","",""
"2922.5599999999977","{""pre-3"":0}","[0]","survey-likert","203","514373","0.0-203.0","4k0za41r","","","","","",""
"3365.5349999999744","{""post-5"":1}","[0]","survey-likert","204","517740","0.0-204.0","4k0za41r","","","","","",""
"","","","call-function","205","517740","0.0-205.0","4k0za41r","","","","","",""
"null","","","video-keyboard-response","206","520809","0.0-206.0","4k0za41r","","","","null","Agent A","STIM_SET_1_REAL/713017.bmp_pp152_L2_V1.0_scrambled_freeview_isoFalse_fps144.mp4"
"","","","call-function","207","520810","0.0-207.0","4k0za41r","","","","","",""
"2508.554999999993","{""pre-1"":2}","[0]","survey-likert","208","523320","0.0-208.0","4k0za41r","","","","","",""
"2095.5449999999255","{""pre-2"":1}","[0]","survey-likert","209","525416","0.0-209.0","4k0za41r","","","","","",""
"2519.219999999972","{""pre-3"":1}","[0]","survey-likert","210","527937","0.0-210.0","4k0za41r","","","","","",""
"4568.105000000098","{""post-5"":2}","[0]","survey-likert","211","532506","0.0-211.0","4k0za41r","","","","","",""
"","","","call-function","212","532506","0.0-212.0","4k0za41r","","","","","",""
"null","","","video-keyboard-response","213","535583","0.0-213.0","4k0za41r","","","","null","Agent A","STIM_SET_1_REAL/1159855.bmp_pp99_L2_V1.0_scrambled_freeview_isoFalse_fps144.mp4"
"","","","call-function","214","535584","0.0-214.0","4k0za41r","","","","","",""
"3273.405000000028","{""pre-1"":0}","[0]","survey-likert","215","538858","0.0-215.0","4k0za41r","","","","","",""
"2535.515000000014","{""pre-2"":0}","[0]","survey-likert","216","541395","0.0-216.0","4k0za41r","","","","","",""
"2814.680000000051","{""pre-3"":0}","[0]","survey-likert","217","544211","0.0-217.0","4k0za41r","","","","","",""
"6831.854999999981","{""post-5"":3}","[0]","survey-likert","218","551044","0.0-218.0","4k0za41r","","","","","",""
"","","","call-function","219","551044","0.0-219.0","4k0za41r","","","","","",""
"null","","","video-keyboard-response","220","554152","0.0-220.0","4k0za41r","","","","null","Agent A","STIM_SET_1_REAL/1159675.bmp_pp77_L3_V1.0_scrambled_freeview_isoFalse_fps144.mp4"
"","","","call-function","221","554152","0.0-221.0","4k0za41r","","","","","",""
"3450.2700000000186","{""pre-1"":3}","[0]","survey-likert","222","557604","0.0-222.0","4k0za41r","","","","","",""
"1641.7900000000373","{""pre-2"":3}","[0]","survey-likert","223","559246","0.0-223.0","4k0za41r","","","","","",""
"2190.4899999999907","{""pre-3"":2}","[0]","survey-likert","224","561438","0.0-224.0","4k0za41r","","","","","",""
"3104.554999999935","{""post-5"":1}","[0]","survey-likert","225","564545","0.0-225.0","4k0za41r","","","","","",""
"","","","call-function","226","564546","0.0-226.0","4k0za41r","","","","","",""
"null","","","video-keyboard-response","227","567622","0.0-227.0","4k0za41r","","","","null","Agent A","STIM_SET_1_REAL/1591954.bmp_pp62_L2_V1.0_veridical_freeview_isoFalse_fps144.mp4"
"","","","call-function","228","567623","0.0-228.0","4k0za41r","","","","","",""
"1621","{""pre-1"":2}","[0]","survey-likert","229","569245","0.0-229.0","4k0za41r","","","","","",""
"1404.0550000000512","{""pre-2"":2}","[0]","survey-likert","230","570650","0.0-230.0","4k0za41r","","","","","",""
"1401.2850000000326","{""pre-3"":2}","[0]","survey-likert","231","572052","0.0-231.0","4k0za41r","","","","","",""
"2853.0500000000466","{""post-5"":1}","[0]","survey-likert","232","574906","0.0-232.0","4k0za41r","","","","","",""
"","","","call-function","233","574907","0.0-233.0","4k0za41r","","","","","",""
"null","","","video-keyboard-response","234","577979","0.0-234.0","4k0za41r","","","","null","Agent A","STIM_SET_1_REAL/1159768.bmp_pp89_L1_V1.0_scrambled_freeview_isoFalse_fps144.mp4"
"","","","call-function","235","577979","0.0-235.0","4k0za41r","","","","","",""
"2374.20000000007","{""pre-1"":3}","[0]","survey-likert","236","580355","0.0-236.0","4k0za41r","","","","","",""
"1071.6899999999441","{""pre-2"":2}","[0]","survey-likert","237","581427","0.0-237.0","4k0za41r","","","","","",""
"3236.399999999907","{""pre-3"":1}","[0]","survey-likert","238","584665","0.0-238.0","4k0za41r","","","","","",""
"1874.9599999999627","{""post-5"":1}","[0]","survey-likert","239","586541","0.0-239.0","4k0za41r","","","","","",""
"","","","call-function","240","586541","0.0-240.0","4k0za41r","","","","","",""
"null","","","video-keyboard-response","241","589644","0.0-241.0","4k0za41r","","","","null","Agent A","STIM_SET_1_REAL/1159515.bmp_pp84_L3_V1.0_scrambled_freeview_isoFalse_fps144.mp4"
"","","","call-function","242","589644","0.0-242.0","4k0za41r","","","","","",""
"2709.7050000000745","{""pre-1"":2}","[0]","survey-likert","243","592355","0.0-243.0","4k0za41r","","","","","",""
"2281.3649999999907","{""pre-2"":1}","[0]","survey-likert","244","594639","0.0-244.0","4k0za41r","","","","","",""
"2290.7249999999767","{""pre-3"":1}","[0]","survey-likert","245","596930","0.0-245.0","4k0za41r","","","","","",""
"3317.265000000014","{""post-5"":1}","[0]","survey-likert","246","600249","0.0-246.0","4k0za41r","","","","","",""
"","","","call-function","247","600249","0.0-247.0","4k0za41r","","","","","",""
"null","","","video-keyboard-response","248","603356","0.0-248.0","4k0za41r","","","","null","Agent A","STIM_SET_1_REAL/713620.bmp_pp65_L3_V1.0_scrambled_freeview_isoFalse_fps144.mp4"
"","","","call-function","249","603357","0.0-249.0","4k0za41r","","","","","",""
"3011.109999999986","{""pre-1"":3}","[0]","survey-likert","250","606369","0.0-250.0","4k0za41r","","","","","",""
"2519.435000000056","{""pre-2"":2}","[0]","survey-likert","251","608889","0.0-251.0","4k0za41r","","","","","",""
"2572.3549999999814","{""pre-3"":2}","[0]","survey-likert","252","611462","0.0-252.0","4k0za41r","","","","","",""
"2414.6149999999907","{""post-5"":0}","[0]","survey-likert","253","613879","0.0-253.0","4k0za41r","","","","","",""
"","","","call-function","254","613880","0.0-254.0","4k0za41r","","","","","",""
"null","","","video-keyboard-response","255","616977","0.0-255.0","4k0za41r","","","","null","Agent A","STIM_SET_1_REAL/498175.bmp_pp154_L1_V1.0_scrambled_freeview_isoFalse_fps144.mp4"
"","","","call-function","256","616977","0.0-256.0","4k0za41r","","","","","",""
"3921.4649999999674","{""pre-1"":1}","[0]","survey-likert","257","620900","0.0-257.0","4k0za41r","","","","","",""
"3225.0350000000326","{""pre-2"":0}","[0]","survey-likert","258","624126","0.0-258.0","4k0za41r","","","","","",""
"1724.8050000000512","{""pre-3"":0}","[0]","survey-likert","259","625852","0.0-259.0","4k0za41r","","","","","",""
"1835.6600000000326","{""post-5"":2}","[0]","survey-likert","260","627689","0.0-260.0","4k0za41r","","","","","",""
"","","","call-function","261","627690","0.0-261.0","4k0za41r","","","","","",""
"null","","","video-keyboard-response","262","630753","0.0-262.0","4k0za41r","","","","null","Agent A","STIM_SET_1_REAL/1592817.bmp_pp55_L3_V1.0_scrambled_freeview_isoFalse_fps144.mp4"
"","","","call-function","263","630753","0.0-263.0","4k0za41r","","","","","",""
"3034.4899999999907","{""pre-1"":0}","[0]","survey-likert","264","633789","0.0-264.0","4k0za41r","","","","","",""
"1937.454999999958","{""pre-2"":0}","[0]","survey-likert","265","635727","0.0-265.0","4k0za41r","","","","","",""
"1715.265000000014","{""pre-3"":0}","[0]","survey-likert","266","637444","0.0-266.0","4k0za41r","","","","","",""
"4220.034999999916","{""post-5"":3}","[0]","survey-likert","267","641665","0.0-267.0","4k0za41r","","","","","",""
"","","","call-function","268","641665","0.0-268.0","4k0za41r","","","","","",""
"null","","","video-keyboard-response","269","644726","0.0-269.0","4k0za41r","","","","null","Agent A","STIM_SET_1_REAL/286001.bmp_pp54_L2_V1.0_veridical_freeview_isoFalse_fps144.mp4"
"","","","call-function","270","644726","0.0-270.0","4k0za41r","","","","","",""
"4430.260000000009","{""pre-1"":0}","[0]","survey-likert","271","649157","0.0-271.0","4k0za41r","","","","","",""
"1594.5399999999208","{""pre-2"":0}","[0]","survey-likert","272","650753","0.0-272.0","4k0za41r","","","","","",""
"2484.5749999999534","{""pre-3"":0}","[0]","survey-likert","273","653239","0.0-273.0","4k0za41r","","","","","",""
"1529.579999999958","{""post-5"":3}","[0]","survey-likert","274","654770","0.0-274.0","4k0za41r","","","","","",""
"","","","call-function","275","654770","0.0-275.0","4k0za41r","","","","","",""
"null","","","video-keyboard-response","276","657847","0.0-276.0","4k0za41r","","","","null","Agent A","STIM_SET_1_REAL/713760.bmp_pp81_L1_V1.0_scrambled_freeview_isoFalse_fps144.mp4"
"","","","call-function","277","657847","0.0-277.0","4k0za41r","","","","","",""
"4584.399999999907","{""pre-1"":0}","[0]","survey-likert","278","662433","0.0-278.0","4k0za41r","","","","","",""
"1950.6950000000652","{""pre-2"":0}","[0]","survey-likert","279","664384","0.0-279.0","4k0za41r","","","","","",""
"1684.155000000028","{""pre-3"":0}","[0]","survey-likert","280","666069","0.0-280.0","4k0za41r","","","","","",""
"2090.7750000000233","{""post-5"":2}","[0]","survey-likert","281","668162","0.0-281.0","4k0za41r","","","","","",""
"","","","call-function","282","668163","0.0-282.0","4k0za41r","","","","","",""
"null","","","video-keyboard-response","283","671273","0.0-283.0","4k0za41r","","","","null","Agent A","STIM_SET_1_REAL/1593041.bmp_pp58_L1_V1.0_scrambled_freeview_isoFalse_fps144.mp4"
"","","","call-function","284","671273","0.0-284.0","4k0za41r","","","","","",""
"1911.984999999986","{""pre-1"":2}","[0]","survey-likert","285","673186","0.0-285.0","4k0za41r","","","","","",""
"3600.79999999993","{""pre-2"":1}","[0]","survey-likert","286","676788","0.0-286.0","4k0za41r","","","","","",""
"1930.8950000000186","{""pre-3"":1}","[0]","survey-likert","287","678720","0.0-287.0","4k0za41r","","","","","",""
"2085.3399999999674","{""post-5"":2}","[0]","survey-likert","288","680807","0.0-288.0","4k0za41r","","","","","",""
"","","","call-function","289","680807","0.0-289.0","4k0za41r","","","","","",""
"null","","","video-keyboard-response","290","683904","0.0-290.0","4k0za41r","","","","null","Agent A","STIM_SET_1_REAL/1159675.bmp_pp77_L3_V1.0_veridical_freeview_isoFalse_fps144.mp4"
"","","","call-function","291","683904","0.0-291.0","4k0za41r","","","","","",""
"2163.469999999972","{""pre-1"":2}","[0]","survey-likert","292","686069","0.0-292.0","4k0za41r","","","","","",""
"1689.3399999999674","{""pre-2"":1}","[0]","survey-likert","293","687759","0.0-293.0","4k0za41r","","","","","",""
"2675.4550000000745","{""pre-3"":1}","[0]","survey-likert","294","690436","0.0-294.0","4k0za41r","","","","","",""
"2009.4049999999115","{""post-5"":1}","[0]","survey-likert","295","692446","0.0-295.0","4k0za41r","","","","","",""
"","","","call-function","296","692446","0.0-296.0","4k0za41r","","","","","",""
"null","","","video-keyboard-response","297","695524","0.0-297.0","4k0za41r","","","","null","Agent A","STIM_SET_1_REAL/713593.bmp_pp64_L1_V1.0_veridical_freeview_isoFalse_fps144.mp4"
"","","","call-function","298","695524","0.0-298.0","4k0za41r","","","","","",""
"3261.9400000000605","{""pre-1"":2}","[0]","survey-likert","299","698787","0.0-299.0","4k0za41r","","","","","",""
"1528.094999999972","{""pre-2"":2}","[0]","survey-likert","300","700316","0.0-300.0","4k0za41r","","","","","",""
"1415.9949999999953","{""pre-3"":1}","[0]","survey-likert","301","701733","0.0-301.0","4k0za41r","","","","","",""
"2626.954999999958","{""post-5"":1}","[0]","survey-likert","302","704361","0.0-302.0","4k0za41r","","","","","",""
"6394.739999999991","","","instructions","303","710756","0.0-303.0","4k0za41r","[{""page_index"":0,""viewing_time"":898.5600000000559},{""page_index"":1,""viewing_time"":4872.92499999993},{""page_index"":2,""viewing_time"":623.0650000000605}]","","","","",""
"2443.335000000079","","","instructions","304","713200","0.0-304.0","4k0za41r","[{""page_index"":0,""viewing_time"":553.4350000000559},{""page_index"":1,""viewing_time"":1067.875},{""page_index"":2,""viewing_time"":821.9100000000326}]","","","","",""
"","","","call-function","305","713200","0.0-305.0","4k0za41r","","","","","",""
"null","","","video-keyboard-response","306","716294","0.0-306.0","4k0za41r","","","","null","Agent A","STIM_SET_1_REAL/498155.bmp_pp61_L2_V1.0_scrambled_freeview_isoFalse_fps144.mp4"
"","","","call-function","307","716294","0.0-307.0","4k0za41r","","","","","",""
"2148.814999999944","{""pre-1"":2}","[0]","survey-likert","308","718444","0.0-308.0","4k0za41r","","","","","",""
"1275.4499999999534","{""pre-2"":1}","[0]","survey-likert","309","719721","0.0-309.0","4k0za41r","","","","","",""
"3094.7399999999907","{""pre-3"":1}","[0]","survey-likert","310","722816","0.0-310.0","4k0za41r","","","","","",""
"1991.905000000028","{""post-5"":1}","[0]","survey-likert","311","724809","0.0-311.0","4k0za41r","","","","","",""
"","","","call-function","312","724810","0.0-312.0","4k0za41r","","","","","",""
"null","","","video-keyboard-response","313","727920","0.0-313.0","4k0za41r","","","","null","Agent A","STIM_SET_1_REAL/1160127.bmp_pp90_L2_V1.0_scrambled_freeview_isoFalse_fps144.mp4"
"","","","call-function","314","727920","0.0-314.0","4k0za41r","","","","","",""
"2228.305000000051","{""pre-1"":0}","[0]","survey-likert","315","730150","0.0-315.0","4k0za41r","","","","","",""
"1697.795000000042","{""pre-2"":0}","[0]","survey-likert","316","731850","0.0-316.0","4k0za41r","","","","","",""
"1571.2449999999953","{""pre-3"":0}","[0]","survey-likert","317","733423","0.0-317.0","4k0za41r","","","","","",""
"2219.6650000000373","{""post-5"":2}","[0]","survey-likert","318","735644","0.0-318.0","4k0za41r","","","","","",""
"","","","call-function","319","735644","0.0-319.0","4k0za41r","","","","","",""
"null","","","video-keyboard-response","320","738713","0.0-320.0","4k0za41r","","","","null","Agent A","STIM_SET_1_REAL/1592934.bmp_pp63_L1_V1.0_veridical_freeview_isoFalse_fps144.mp4"
"","","","call-function","321","738714","0.0-321.0","4k0za41r","","","","","",""
"3513.405000000028","{""pre-1"":1}","[0]","survey-likert","322","742228","0.0-322.0","4k0za41r","","","","","",""
"2493.804999999935","{""pre-2"":1}","[0]","survey-likert","323","744723","0.0-323.0","4k0za41r","","","","","",""
"2530.944999999949","{""pre-3"":0}","[0]","survey-likert","324","747255","0.0-324.0","4k0za41r","","","","","",""
"1494.4350000000559","{""post-5"":2}","[0]","survey-likert","325","748751","0.0-325.0","4k0za41r","","","","","",""
"","","","call-function","326","748751","0.0-326.0","4k0za41r","","","","","",""
"null","","","video-keyboard-response","327","751821","0.0-327.0","4k0za41r","","","","null","Agent A","STIM_SET_1_REAL/713135.bmp_pp54_L2_V1.0_scrambled_freeview_isoFalse_fps144.mp4"
"","","","call-function","328","751821","0.0-328.0","4k0za41r","","","","","",""
"3162.945000000065","{""pre-1"":0}","[0]","survey-likert","329","754985","0.0-329.0","4k0za41r","","","","","",""
"1576.8399999999674","{""pre-2"":1}","[0]","survey-likert","330","756563","0.0-330.0","4k0za41r","","","","","",""
"2938.2249999999767","{""pre-3"":1}","[0]","survey-likert","331","759502","0.0-331.0","4k0za41r","","","","","",""
"1868.405000000028","{""post-5"":2}","[0]","survey-likert","332","761371","0.0-332.0","4k0za41r","","","","","",""
"","","","call-function","333","761372","0.0-333.0","4k0za41r","","","","","",""
"null","","","video-keyboard-response","334","764448","0.0-334.0","4k0za41r","","","","null","Agent A","STIM_SET_1_REAL/1591994.bmp_pp69_L3_V1.0_veridical_freeview_isoFalse_fps144.mp4"
"","","","call-function","335","764448","0.0-335.0","4k0za41r","","","","","",""
"2528.5100000000093","{""pre-1"":2}","[0]","survey-likert","336","766978","0.0-336.0","4k0za41r","","","","","",""
"2011.890000000014","{""pre-2"":1}","[0]","survey-likert","337","768991","0.0-337.0","4k0za41r","","","","","",""
"2133.064999999944","{""pre-3"":1}","[0]","survey-likert","338","771125","0.0-338.0","4k0za41r","","","","","",""
"2488.0049999998882","{""post-5"":1}","[0]","survey-likert","339","773614","0.0-339.0","4k0za41r","","","","","",""
"","","","call-function","340","773614","0.0-340.0","4k0za41r","","","","","",""
"null","","","video-keyboard-response","341","776720","0.0-341.0","4k0za41r","","","","null","Agent A","STIM_SET_1_REAL/498149.bmp_pp99_L2_V1.0_scrambled_freeview_isoFalse_fps144.mp4"
"","","","call-function","342","776721","0.0-342.0","4k0za41r","","","","","",""
"1968.3150000000605","{""pre-1"":2}","[0]","survey-likert","343","778690","0.0-343.0","4k0za41r","","","","","",""
"1617.9899999999907","{""pre-2"":1}","[0]","survey-likert","344","780309","0.0-344.0","4k0za41r","","","","","",""
"2656.6849999999395","{""pre-3"":0}","[0]","survey-likert","345","782968","0.0-345.0","4k0za41r","","","","","",""
"2123.6350000000093","{""post-5"":1}","[0]","survey-likert","346","785093","0.0-346.0","4k0za41r","","","","","",""
"","","","call-function","347","785094","0.0-347.0","4k0za41r","","","","","",""
"null","","","video-keyboard-response","348","788159","0.0-348.0","4k0za41r","","","","null","Agent A","STIM_SET_1_REAL/1592890.bmp_pp82_L2_V1.0_scrambled_freeview_isoFalse_fps144.mp4"
"","","","call-function","349","788160","0.0-349.0","4k0za41r","","","","","",""
"1574.3800000000047","{""pre-1"":2}","[0]","survey-likert","350","789735","0.0-350.0","4k0za41r","","","","","",""
"1502.8049999999348","{""pre-2"":1}","[0]","survey-likert","351","791239","0.0-351.0","4k0za41r","","","","","",""
"4136.214999999967","{""pre-3"":1}","[0]","survey-likert","352","795376","0.0-352.0","4k0za41r","","","","","",""
"2100.515000000014","{""post-5"":1}","[0]","survey-likert","353","797478","0.0-353.0","4k0za41r","","","","","",""
"","","","call-function","354","797478","0.0-354.0","4k0za41r","","","","","",""
"null","","","video-keyboard-response","355","800576","0.0-355.0","4k0za41r","","","","null","Agent A","STIM_SET_1_REAL/497950.bmp_pp151_L1_V1.0_veridical_freeview_isoFalse_fps144.mp4"
"","","","call-function","356","800577","0.0-356.0","4k0za41r","","","","","",""
"2966.8699999999953","{""pre-1"":3}","[0]","survey-likert","357","803545","0.0-357.0","4k0za41r","","","","","",""
"2749.9250000000466","{""pre-2"":2}","[0]","survey-likert","358","806296","0.0-358.0","4k0za41r","","","","","",""
"1338.094999999972","{""pre-3"":2}","[0]","survey-likert","359","807635","0.0-359.0","4k0za41r","","","","","",""
"2918.560000000056","{""post-5"":0}","[0]","survey-likert","360","810554","0.0-360.0","4k0za41r","","","","","",""
"","","","call-function","361","810555","0.0-361.0","4k0za41r","","","","","",""
"null","","","video-keyboard-response","362","813615","0.0-362.0","4k0za41r","","","","null","Agent A","STIM_SET_1_REAL/713403.bmp_pp80_L3_V1.0_veridical_freeview_isoFalse_fps144.mp4"
"","","","call-function","363","813616","0.0-363.0","4k0za41r","","","","","",""
"2447.939999999944","{""pre-1"":2}","[0]","survey-likert","364","816064","0.0-364.0","4k0za41r","","","","","",""
"2345.320000000065","{""pre-2"":2}","[0]","survey-likert","365","818411","0.0-365.0","4k0za41r","","","","","",""
"1435.640000000014","{""pre-3"":1}","[0]","survey-likert","366","819847","0.0-366.0","4k0za41r","","","","","",""
"2911.2850000000326","{""post-5"":1}","[0]","survey-likert","367","822760","0.0-367.0","4k0za41r","","","","","",""
"","","","call-function","368","822760","0.0-368.0","4k0za41r","","","","","",""
"null","","","video-keyboard-response","369","825882","0.0-369.0","4k0za41r","","","","null","Agent A","STIM_SET_1_REAL/713681.bmp_pp86_L2_V1.0_scrambled_freeview_isoFalse_fps144.mp4"
"","","","call-function","370","825883","0.0-370.0","4k0za41r","","","","","",""
"3156.2299999999814","{""pre-1"":1}","[0]","survey-likert","371","829040","0.0-371.0","4k0za41r","","","","","",""
"4046.9100000000326","{""pre-2"":1}","[0]","survey-likert","372","833088","0.0-372.0","4k0za41r","","","","","",""
"2205.9599999999627","{""pre-3"":0}","[0]","survey-likert","373","835295","0.0-373.0","4k0za41r","","","","","",""
"1751.0350000000326","{""post-5"":2}","[0]","survey-likert","374","837047","0.0-374.0","4k0za41r","","","","","",""
"","","","call-function","375","837047","0.0-375.0","4k0za41r","","","","","",""
"null","","","video-keyboard-response","376","840148","0.0-376.0","4k0za41r","","","","null","Agent A","STIM_SET_1_REAL/1593146.bmp_pp93_L1_V1.0_veridical_freeview_isoFalse_fps144.mp4"
"","","","call-function","377","840149","0.0-377.0","4k0za41r","","","","","",""
"3457.640000000014","{""pre-1"":0}","[0]","survey-likert","378","843608","0.0-378.0","4k0za41r","","","","","",""
"2287.3649999999907","{""pre-2"":0}","[0]","survey-likert","379","845897","0.0-379.0","4k0za41r","","","","","",""
"1840.6499999999069","{""pre-3"":0}","[0]","survey-likert","380","847739","0.0-380.0","4k0za41r","","","","","",""
"1521.045000000042","{""post-5"":3}","[0]","survey-likert","381","849261","0.0-381.0","4k0za41r","","","","","",""
"","","","call-function","382","849261","0.0-382.0","4k0za41r","","","","","",""
"null","","","video-keyboard-response","383","852322","0.0-383.0","4k0za41r","","","","null","Agent A","STIM_SET_1_REAL/1592890.bmp_pp82_L2_V1.0_veridical_freeview_isoFalse_fps144.mp4"
"","","","call-function","384","852323","0.0-384.0","4k0za41r","","","","","",""
"2070.469999999972","{""pre-1"":2}","[0]","survey-likert","385","854394","0.0-385.0","4k0za41r","","","","","",""
"1207.7449999999953","{""pre-2"":1}","[0]","survey-likert","386","855603","0.0-386.0","4k0za41r","","","","","",""
"2694.4150000000373","{""pre-3"":0}","[0]","survey-likert","387","858299","0.0-387.0","4k0za41r","","","","","",""
"2393.079999999958","{""post-5"":1}","[0]","survey-likert","388","860693","0.0-388.0","4k0za41r","","","","","",""
"","","","call-function","389","860693","0.0-389.0","4k0za41r","","","","","",""
"null","","","video-keyboard-response","390","863785","0.0-390.0","4k0za41r","","","","null","Agent A","STIM_SET_1_REAL/713211.bmp_pp100_L3_V1.0_veridical_freeview_isoFalse_fps144.mp4"
"","","","call-function","391","863786","0.0-391.0","4k0za41r","","","","","",""
"2391.015000000014","{""pre-1"":0}","[0]","survey-likert","392","866178","0.0-392.0","4k0za41r","","","","","",""
"2309.2550000000047","{""pre-2"":0}","[0]","survey-likert","393","868488","0.0-393.0","4k0za41r","","","","","",""
"1435.530000000028","{""pre-3"":0}","[0]","survey-likert","394","869924","0.0-394.0","4k0za41r","","","","","",""
"1504.2700000000186","{""post-5"":3}","[0]","survey-likert","395","871430","0.0-395.0","4k0za41r","","","","","",""
"","","","call-function","396","871430","0.0-396.0","4k0za41r","","","","","",""
"null","","","video-keyboard-response","397","874491","0.0-397.0","4k0za41r","","","","null","Agent A","STIM_SET_1_REAL/1159572.bmp_pp71_L1_V1.0_veridical_freeview_isoFalse_fps144.mp4"
"","","","call-function","398","874491","0.0-398.0","4k0za41r","","","","","",""
"3783.2299999999814","{""pre-1"":2}","[0]","survey-likert","399","878275","0.0-399.0","4k0za41r","","","","","",""
"2910.4799999999814","{""pre-2"":1}","[0]","survey-likert","400","881187","0.0-400.0","4k0za41r","","","","","",""
"1016.7449999999953","{""pre-3"":1}","[0]","survey-likert","401","882205","0.0-401.0","4k0za41r","","","","","",""
"2624.54999999993","{""post-5"":1}","[0]","survey-likert","402","884830","0.0-402.0","4k0za41r","","","","","",""
"","","","call-function","403","884831","0.0-403.0","4k0za41r","","","","","",""
"null","","","video-keyboard-response","404","887926","0.0-404.0","4k0za41r","","","","null","Agent A","STIM_SET_1_REAL/1592499.bmp_pp96_L2_V1.0_scrambled_freeview_isoFalse_fps144.mp4"
"","","","call-function","405","887926","0.0-405.0","4k0za41r","","","","","",""
"2745.6500000000233","{""pre-1"":2}","[0]","survey-likert","406","890673","0.0-406.0","4k0za41r","","","","","",""
"1284.4599999999627","{""pre-2"":1}","[0]","survey-likert","407","891959","0.0-407.0","4k0za41r","","","","","",""
"1378.7050000000745","{""pre-3"":1}","[0]","survey-likert","408","893340","0.0-408.0","4k0za41r","","","","","",""
"1953.125","{""post-5"":1}","[0]","survey-likert","409","895294","0.0-409.0","4k0za41r","","","","","",""
"","","","call-function","410","895295","0.0-410.0","4k0za41r","","","","","",""
"null","","","video-keyboard-response","411","898372","0.0-411.0","4k0za41r","","","","null","Agent A","STIM_SET_1_REAL/1592372.bmp_pp76_L1_V1.0_veridical_freeview_isoFalse_fps144.mp4"
"","","","call-function","412","898373","0.0-412.0","4k0za41r","","","","","",""
"3484.359999999986","{""pre-1"":2}","[0]","survey-likert","413","901858","0.0-413.0","4k0za41r","","","","","",""
"5127.5950000000885","{""pre-2"":1}","[0]","survey-likert","414","906987","0.0-414.0","4k0za41r","","","","","",""
"1346.7299999999814","{""pre-3"":0}","[0]","survey-likert","415","908335","0.0-415.0","4k0za41r","","","","","",""
"2311.2149999999674","{""post-5"":1}","[0]","survey-likert","416","910647","0.0-416.0","4k0za41r","","","","","",""
"","","","call-function","417","910648","0.0-417.0","4k0za41r","","","","","",""
"null","","","video-keyboard-response","418","913718","0.0-418.0","4k0za41r","","","","null","Agent A","STIM_SET_1_REAL/1593035.bmp_pp94_L2_V1.0_scrambled_freeview_isoFalse_fps144.mp4"
"","","","call-function","419","913718","0.0-419.0","4k0za41r","","","","","",""
"3692.6450000000186","{""pre-1"":0}","[0]","survey-likert","420","917412","0.0-420.0","4k0za41r","","","","","",""
"1964.8050000000512","{""pre-2"":0}","[0]","survey-likert","421","919378","0.0-421.0","4k0za41r","","","","","",""
"1719.9799999999814","{""pre-3"":0}","[0]","survey-likert","422","921099","0.0-422.0","4k0za41r","","","","","",""
"2376.765000000014","{""post-5"":3}","[0]","survey-likert","423","923477","0.0-423.0","4k0za41r","","","","","",""
"","","","call-function","424","923477","0.0-424.0","4k0za41r","","","","","",""
"null","","","video-keyboard-response","425","926539","0.0-425.0","4k0za41r","","","","null","Agent A","STIM_SET_1_REAL/713779.bmp_pp152_L2_V1.0_scrambled_freeview_isoFalse_fps144.mp4"
"","","","call-function","426","926539","0.0-426.0","4k0za41r","","","","","",""
"2539.7399999999907","{""pre-1"":3}","[0]","survey-likert","427","929080","0.0-427.0","4k0za41r","","","","","",""
"1474.5999999999767","{""pre-2"":2}","[0]","survey-likert","428","930556","0.0-428.0","4k0za41r","","","","","",""
"1702.3950000000186","{""pre-3"":1}","[0]","survey-likert","429","932259","0.0-429.0","4k0za41r","","","","","",""
"2090.0599999999395","{""post-5"":1}","[0]","survey-likert","430","934350","0.0-430.0","4k0za41r","","","","","",""
"","","","call-function","431","934350","0.0-431.0","4k0za41r","","","","","",""
"null","","","video-keyboard-response","432","937445","0.0-432.0","4k0za41r","","","","null","Agent A","STIM_SET_1_REAL/1593035.bmp_pp94_L2_V1.0_veridical_freeview_isoFalse_fps144.mp4"
"","","","call-function","433","937446","0.0-433.0","4k0za41r","","","","","",""
"3146.170000000042","{""pre-1"":2}","[0]","survey-likert","434","940593","0.0-434.0","4k0za41r","","","","","",""
"2240.100000000093","{""pre-2"":1}","[0]","survey-likert","435","942834","0.0-435.0","4k0za41r","","","","","",""
"2777.335000000079","{""pre-3"":0}","[0]","survey-likert","436","945613","0.0-436.0","4k0za41r","","","","","",""
"2230.640000000014","{""post-5"":1}","[0]","survey-likert","437","947846","0.0-437.0","4k0za41r","","","","","",""
"","","","call-function","438","947847","0.0-438.0","4k0za41r","","","","","",""
"null","","","video-keyboard-response","439","950925","0.0-439.0","4k0za41r","","","","null","Agent A","STIM_SET_1_REAL/1159777.bmp_pp77_L3_V1.0_scrambled_freeview_isoFalse_fps144.mp4"
"","","","call-function","440","950925","0.0-440.0","4k0za41r","","","","","",""
"2583.5449999999255","{""pre-1"":2}","[0]","survey-likert","441","953510","0.0-441.0","4k0za41r","","","","","",""
"2883.7600000000093","{""pre-2"":1}","[0]","survey-likert","442","956395","0.0-442.0","4k0za41r","","","","","",""
"1993.4100000000326","{""pre-3"":1}","[0]","survey-likert","443","958389","0.0-443.0","4k0za41r","","","","","",""
"5062.42499999993","{""post-5"":1}","[0]","survey-likert","444","963453","0.0-444.0","4k0za41r","","","","","",""
"2224.289999999921","","","instructions","445","965678","0.0-445.0","4k0za41r","[{""page_index"":0,""viewing_time"":831.1699999999255},{""page_index"":1,""viewing_time"":804.9100000000326},{""page_index"":2,""viewing_time"":588.0400000000373}]","","","","",""
"1855.4899999999907","","","instructions","446","967534","0.0-446.0","4k0za41r","[{""page_index"":0,""viewing_time"":499.36999999999534},{""page_index"":1,""viewing_time"":831.0800000000745},{""page_index"":2,""viewing_time"":524.9349999999395}]","","","","",""
"","","","call-function","447","967534","0.0-447.0","4k0za41r","","","","","",""
"null","","","video-keyboard-response","448","970603","0.0-448.0","4k0za41r","","","","null","Agent A","STIM_SET_1_REAL/1159829.bmp_pp91_L3_V1.0_veridical_freeview_isoFalse_fps144.mp4"
"","","","call-function","449","970604","0.0-449.0","4k0za41r","","","","","",""
"1876.359999999986","{""pre-1"":2}","[0]","survey-likert","450","972481","0.0-450.0","4k0za41r","","","","","",""
"1761.7850000000326","{""pre-2"":1}","[0]","survey-likert","451","974244","0.0-451.0","4k0za41r","","","","","",""
"2111.609999999986","{""pre-3"":0}","[0]","survey-likert","452","976357","0.0-452.0","4k0za41r","","","","","",""
"3120.319999999949","{""post-5"":1}","[0]","survey-likert","453","979478","0.0-453.0","4k0za41r","","","","","",""
"","","","call-function","454","979478","0.0-454.0","4k0za41r","","","","","",""
"null","","","video-keyboard-response","455","982543","0.0-455.0","4k0za41r","","","","null","Agent A","STIM_SET_1_REAL/1592351.bmp_pp51_L1_V1.0_veridical_freeview_isoFalse_fps144.mp4"
"","","","call-function","456","982544","0.0-456.0","4k0za41r","","","","","",""
"2988.5100000000093","{""pre-1"":0}","[0]","survey-likert","457","985533","0.0-457.0","4k0za41r","","","","","",""
"2708.3800000000047","{""pre-2"":0}","[0]","survey-likert","458","988243","0.0-458.0","4k0za41r","","","","","",""
"2233.939999999944","{""pre-3"":0}","[0]","survey-likert","459","990478","0.0-459.0","4k0za41r","","","","","",""
"2859.310000000056","{""post-5"":2}","[0]","survey-likert","460","993338","0.0-460.0","4k0za41r","","","","","",""
"","","","call-function","461","993338","0.0-461.0","4k0za41r","","","","","",""
"null","","","video-keyboard-response","462","996437","0.0-462.0","4k0za41r","","","","null","Agent A","STIM_SET_1_REAL/1592657.bmp_pp98_L1_V1.0_veridical_freeview_isoFalse_fps144.mp4"
"","","","call-function","463","996438","0.0-463.0","4k0za41r","","","","","",""
"1988.329999999958","{""pre-1"":2}","[0]","survey-likert","464","998427","0.0-464.0","4k0za41r","","","","","",""
"2122","{""pre-2"":2}","[0]","survey-likert","465","1000551","0.0-465.0","4k0za41r","","","","","",""
"2432.554999999935","{""pre-3"":1}","[0]","survey-likert","466","1002985","0.0-466.0","4k0za41r","","","","","",""
"2322.1350000000093","{""post-5"":2}","[0]","survey-likert","467","1005309","0.0-467.0","4k0za41r","","","","","",""
"","","","call-function","468","1005310","0.0-468.0","4k0za41r","","","","","",""
"null","","","video-keyboard-response","469","1008371","0.0-469.0","4k0za41r","","","","null","Agent A","STIM_SET_1_REAL/285994.bmp_pp92_L3_V1.0_veridical_freeview_isoFalse_fps144.mp4"
"","","","call-function","470","1008371","0.0-470.0","4k0za41r","","","","","",""
"2469.0950000000885","{""pre-1"":3}","[0]","survey-likert","471","1010842","0.0-471.0","4k0za41r","","","","","",""
"3424.375","{""pre-2"":1}","[0]","survey-likert","472","1014267","0.0-472.0","4k0za41r","","","","","",""
"1545.8000000000466","{""pre-3"":1}","[0]","survey-likert","473","1015814","0.0-473.0","4k0za41r","","","","","",""
"3226.430000000051","{""post-5"":0}","[0]","survey-likert","474","1019042","0.0-474.0","4k0za41r","","","","","",""
"","","","call-function","475","1019042","0.0-475.0","4k0za41r","","","","","",""
"null","","","video-keyboard-response","476","1022118","0.0-476.0","4k0za41r","","","","null","Agent A","STIM_SET_1_REAL/1592817.bmp_pp55_L3_V1.0_veridical_freeview_isoFalse_fps144.mp4"
"","","","call-function","477","1022118","0.0-477.0","4k0za41r","","","","","",""
"2187.0250000000233","{""pre-1"":2}","[0]","survey-likert","478","1024306","0.0-478.0","4k0za41r","","","","","",""
"1961.5499999999302","{""pre-2"":2}","[0]","survey-likert","479","1026269","0.0-479.0","4k0za41r","","","","","",""
"1140.5600000000559","{""pre-3"":1}","[0]","survey-likert","480","1027411","0.0-480.0","4k0za41r","","","","","",""
"2105.9499999999534","{""post-5"":0}","[0]","survey-likert","481","1029518","0.0-481.0","4k0za41r","","","","","",""
"","","","call-function","482","1029518","0.0-482.0","4k0za41r","","","","","",""
"null","","","video-keyboard-response","483","1032580","0.0-483.0","4k0za41r","","","","null","Agent A","STIM_SET_1_REAL/713089.bmp_pp60_L3_V1.0_veridical_freeview_isoFalse_fps144.mp4"
"","","","call-function","484","1032580","0.0-484.0","4k0za41r","","","","","",""
"2988.7700000000186","{""pre-1"":1}","[0]","survey-likert","485","1035570","0.0-485.0","4k0za41r","","","","","",""
"3689.9100000000326","{""pre-2"":0}","[0]","survey-likert","486","1039261","0.0-486.0","4k0za41r","","","","","",""
"2218.030000000028","{""pre-3"":0}","[0]","survey-likert","487","1041480","0.0-487.0","4k0za41r","","","","","",""
"4235.215000000084","{""post-5"":2}","[0]","survey-likert","488","1045717","0.0-488.0","4k0za41r","","","","","",""
"","","","call-function","489","1045717","0.0-489.0","4k0za41r","","","","","",""
"null","","","video-keyboard-response","490","1048802","0.0-490.0","4k0za41r","","","","null","Agent A","STIM_SET_1_REAL/713089.bmp_pp60_L3_V1.0_scrambled_freeview_isoFalse_fps144.mp4"
"","","","call-function","491","1048803","0.0-491.0","4k0za41r","","","","","",""
"3544.185000000056","{""pre-1"":1}","[0]","survey-likert","492","1052349","0.0-492.0","4k0za41r","","","","","",""
"2773.0449999999255","{""pre-2"":0}","[0]","survey-likert","493","1055124","0.0-493.0","4k0za41r","","","","","",""
"1564.3499999998603","{""pre-3"":0}","[0]","survey-likert","494","1056690","0.0-494.0","4k0za41r","","","","","",""
"3830.320000000065","{""post-5"":2}","[0]","survey-likert","495","1060522","0.0-495.0","4k0za41r","","","","","",""
"","","","call-function","496","1060523","0.0-496.0","4k0za41r","","","","","",""
"null","","","video-keyboard-response","497","1063612","0.0-497.0","4k0za41r","","","","null","Agent A","STIM_SET_1_REAL/1159813.bmp_pp79_L2_V1.0_veridical_freeview_isoFalse_fps144.mp4"
"","","","call-function","498","1063612","0.0-498.0","4k0za41r","","","","","",""
"2537.619999999879","{""pre-1"":0}","[0]","survey-likert","499","1066151","0.0-499.0","4k0za41r","","","","","",""
"2283.7549999998882","{""pre-2"":0}","[0]","survey-likert","500","1068436","0.0-500.0","4k0za41r","","","","","",""
"2240.030000000028","{""pre-3"":0}","[0]","survey-likert","501","1070677","0.0-501.0","4k0za41r","","","","","",""
"2315.6149999999907","{""post-5"":2}","[0]","survey-likert","502","1072994","0.0-502.0","4k0za41r","","","","","",""
"","","","call-function","503","1072995","0.0-503.0","4k0za41r","","","","","",""
"null","","","video-keyboard-response","504","1076062","0.0-504.0","4k0za41r","","","","null","Agent A","STIM_SET_1_REAL/1592397.bmp_pp85_L3_V1.0_scrambled_freeview_isoFalse_fps144.mp4"
"","","","call-function","505","1076063","0.0-505.0","4k0za41r","","","","","",""
"4022.304999999935","{""pre-1"":2}","[0]","survey-likert","506","1080086","0.0-506.0","4k0za41r","","","","","",""
"1367.625","{""pre-2"":2}","[0]","survey-likert","507","1081455","0.0-507.0","4k0za41r","","","","","",""
"4917.284999999916","{""pre-3"":1}","[0]","survey-likert","508","1086373","0.0-508.0","4k0za41r","","","","","",""
"2137.475000000093","{""post-5"":0}","[0]","survey-likert","509","1088512","0.0-509.0","4k0za41r","","","","","",""
"","","","call-function","510","1088512","0.0-510.0","4k0za41r","","","","","",""
"null","","","video-keyboard-response","511","1091588","0.0-511.0","4k0za41r","","","","null","Agent A","STIM_SET_1_REAL/713593.bmp_pp64_L1_V1.0_scrambled_freeview_isoFalse_fps144.mp4"
"","","","call-function","512","1091589","0.0-512.0","4k0za41r","","","","","",""
"2589.375","{""pre-1"":0}","[0]","survey-likert","513","1094179","0.0-513.0","4k0za41r","","","","","",""
"2806.1450000000186","{""pre-2"":0}","[0]","survey-likert","514","1096986","0.0-514.0","4k0za41r","","","","","",""
"1580.469999999972","{""pre-3"":0}","[0]","survey-likert","515","1098568","0.0-515.0","4k0za41r","","","","","",""
"1468.1650000000373","{""post-5"":3}","[0]","survey-likert","516","1100037","0.0-516.0","4k0za41r","","","","","",""
"","","","call-function","517","1100037","0.0-517.0","4k0za41r","","","","","",""
"null","","","video-keyboard-response","518","1103127","0.0-518.0","4k0za41r","","","","null","Agent A","STIM_SET_1_REAL/497950.bmp_pp151_L1_V1.0_scrambled_freeview_isoFalse_fps144.mp4"
"","","","call-function","519","1103128","0.0-519.0","4k0za41r","","","","","",""
"2624.965000000084","{""pre-1"":1}","[0]","survey-likert","520","1105755","0.0-520.0","4k0za41r","","","","","",""
"2623.655000000028","{""pre-2"":0}","[0]","survey-likert","521","1108380","0.0-521.0","4k0za41r","","","","","",""
"3419.2649999998976","{""pre-3"":0}","[0]","survey-likert","522","1111800","0.0-522.0","4k0za41r","","","","","",""
"2282.619999999879","{""post-5"":2}","[0]","survey-likert","523","1114084","0.0-523.0","4k0za41r","","","","","",""
"","","","call-function","524","1114085","0.0-524.0","4k0za41r","","","","","",""
"null","","","video-keyboard-response","525","1117148","0.0-525.0","4k0za41r","","","","null","Agent A","STIM_SET_1_REAL/1159446.bmp_pp60_L3_V1.0_scrambled_freeview_isoFalse_fps144.mp4"
"","","","call-function","526","1117149","0.0-526.0","4k0za41r","","","","","",""
"3012.6999999999534","{""pre-1"":2}","[0]","survey-likert","527","1120162","0.0-527.0","4k0za41r","","","","","",""
"2028.5449999999255","{""pre-2"":1}","[0]","survey-likert","528","1122192","0.0-528.0","4k0za41r","","","","","",""
"2605.0699999998324","{""pre-3"":0}","[0]","survey-likert","529","1124799","0.0-529.0","4k0za41r","","","","","",""
"4076.0849999999627","{""post-5"":2}","[0]","survey-likert","530","1128876","0.0-530.0","4k0za41r","","","","","",""
"","","","call-function","531","1128876","0.0-531.0","4k0za41r","","","","","",""
"null","","","video-keyboard-response","532","1131978","0.0-532.0","4k0za41r","","","","null","Agent A","STIM_SET_1_REAL/1592807.bmp_pp68_L1_V1.0_scrambled_freeview_isoFalse_fps144.mp4"
"","","","call-function","533","1131978","0.0-533.0","4k0za41r","","","","","",""
"2243.280000000028","{""pre-1"":0}","[0]","survey-likert","534","1134222","0.0-534.0","4k0za41r","","","","","",""
"1790.4499999999534","{""pre-2"":0}","[0]","survey-likert","535","1136014","0.0-535.0","4k0za41r","","","","","",""
"1782.5800000000745","{""pre-3"":0}","[0]","survey-likert","536","1137797","0.0-536.0","4k0za41r","","","","","",""
"2812.9499999999534","{""post-5"":2}","[0]","survey-likert","537","1140611","0.0-537.0","4k0za41r","","","","","",""
"","","","call-function","538","1140612","0.0-538.0","4k0za41r","","","","","",""
"null","","","video-keyboard-response","539","1143685","0.0-539.0","4k0za41r","","","","null","Agent A","STIM_SET_1_REAL/1159855.bmp_pp99_L2_V1.0_veridical_freeview_isoFalse_fps144.mp4"
"","","","call-function","540","1143686","0.0-540.0","4k0za41r","","","","","",""
"2397.929999999935","{""pre-1"":2}","[0]","survey-likert","541","1146085","0.0-541.0","4k0za41r","","","","","",""
"2659.310000000056","{""pre-2"":2}","[0]","survey-likert","542","1148745","0.0-542.0","4k0za41r","","","","","",""
"1391.0100000000093","{""pre-3"":1}","[0]","survey-likert","543","1150137","0.0-543.0","4k0za41r","","","","","",""
"2633.994999999879","{""post-5"":1}","[0]","survey-likert","544","1152772","0.0-544.0","4k0za41r","","","","","",""
"","","","call-function","545","1152773","0.0-545.0","4k0za41r","","","","","",""
"null","","","video-keyboard-response","546","1155860","0.0-546.0","4k0za41r","","","","null","Agent A","STIM_SET_1_REAL/286001.bmp_pp54_L2_V1.0_scrambled_freeview_isoFalse_fps144.mp4"
"","","","call-function","547","1155861","0.0-547.0","4k0za41r","","","","","",""
"2364.119999999879","{""pre-1"":0}","[0]","survey-likert","548","1158227","0.0-548.0","4k0za41r","","","","","",""
"2266.780000000028","{""pre-2"":1}","[0]","survey-likert","549","1160495","0.0-549.0","4k0za41r","","","","","",""
"1815.3200000000652","{""pre-3"":0}","[0]","survey-likert","550","1162312","0.0-550.0","4k0za41r","","","","","",""
"1507.5500000000466","{""post-5"":3}","[0]","survey-likert","551","1163820","0.0-551.0","4k0za41r","","","","","",""
"","","","call-function","552","1163821","0.0-552.0","4k0za41r","","","","","",""
"null","","","video-keyboard-response","553","1166896","0.0-553.0","4k0za41r","","","","null","Agent A","STIM_SET_1_REAL/1592807.bmp_pp68_L1_V1.0_veridical_freeview_isoFalse_fps144.mp4"
"","","","call-function","554","1166897","0.0-554.0","4k0za41r","","","","","",""
"1917.875","{""pre-1"":1}","[0]","survey-likert","555","1168816","0.0-555.0","4k0za41r","","","","","",""
"2809.7899999998044","{""pre-2"":0}","[0]","survey-likert","556","1171627","0.0-556.0","4k0za41r","","","","","",""
"2306.304999999935","{""pre-3"":0}","[0]","survey-likert","557","1173934","0.0-557.0","4k0za41r","","","","","",""
"2296.685000000056","{""post-5"":2}","[0]","survey-likert","558","1176232","0.0-558.0","4k0za41r","","","","","",""
"","","","call-function","559","1176232","0.0-559.0","4k0za41r","","","","","",""
"null","","","video-keyboard-response","560","1179295","0.0-560.0","4k0za41r","","","","null","Agent A","STIM_SET_1_REAL/713403.bmp_pp80_L3_V1.0_scrambled_freeview_isoFalse_fps144.mp4"
"","","","call-function","561","1179295","0.0-561.0","4k0za41r","","","","","",""
"2297.159999999916","{""pre-1"":0}","[0]","survey-likert","562","1181593","0.0-562.0","4k0za41r","","","","","",""
"2094.9150000000373","{""pre-2"":1}","[0]","survey-likert","563","1183689","0.0-563.0","4k0za41r","","","","","",""
"4230.454999999842","{""pre-3"":0}","[0]","survey-likert","564","1187921","0.0-564.0","4k0za41r","","","","","",""
"1795.5500000000466","{""post-5"":3}","[0]","survey-likert","565","1189717","0.0-565.0","4k0za41r","","","","","",""
"","","","call-function","566","1189718","0.0-566.0","4k0za41r","","","","","",""
"null","","","video-keyboard-response","567","1192791","0.0-567.0","4k0za41r","","","","null","Agent A","STIM_SET_1_REAL/498175.bmp_pp154_L1_V1.0_veridical_freeview_isoFalse_fps144.mp4"
"","","","call-function","568","1192791","0.0-568.0","4k0za41r","","","","","",""
"1902.0049999998882","{""pre-1"":2}","[0]","survey-likert","569","1194694","0.0-569.0","4k0za41r","","","","","",""
"1359.5149999998976","{""pre-2"":1}","[0]","survey-likert","570","1196055","0.0-570.0","4k0za41r","","","","","",""
"1470.4150000000373","{""pre-3"":0}","[0]","survey-likert","571","1197526","0.0-571.0","4k0za41r","","","","","",""
"1851.0649999999441","{""post-5"":1}","[0]","survey-likert","572","1199378","0.0-572.0","4k0za41r","","","","","",""
"","","","call-function","573","1199379","0.0-573.0","4k0za41r","","","","","",""
"null","","","video-keyboard-response","574","1202502","0.0-574.0","4k0za41r","","","","null","Agent A","STIM_SET_1_REAL/1160168.bmp_pp53_L2_V1.0_scrambled_freeview_isoFalse_fps144.mp4"
"","","","call-function","575","1202502","0.0-575.0","4k0za41r","","","","","",""
"3723.875","{""pre-1"":0}","[0]","survey-likert","576","1206227","0.0-576.0","4k0za41r","","","","","",""
"3167.219999999972","{""pre-2"":1}","[0]","survey-likert","577","1209395","0.0-577.0","4k0za41r","","","","","",""
"1534.4849999998696","{""pre-3"":0}","[0]","survey-likert","578","1210931","0.0-578.0","4k0za41r","","","","","",""
"4171.120000000112","{""post-5"":2}","[0]","survey-likert","579","1215104","0.0-579.0","4k0za41r","","","","","",""
"","","","call-function","580","1215105","0.0-580.0","4k0za41r","","","","","",""
"null","","","video-keyboard-response","581","1218192","0.0-581.0","4k0za41r","","","","null","Agent A","STIM_SET_1_REAL/1593041.bmp_pp58_L1_V1.0_veridical_freeview_isoFalse_fps144.mp4"
"","","","call-function","582","1218193","0.0-582.0","4k0za41r","","","","","",""
"3932.1500000001397","{""pre-1"":2}","[0]","survey-likert","583","1222126","0.0-583.0","4k0za41r","","","","","",""
"1058.880000000121","{""pre-2"":2}","[0]","survey-likert","584","1223186","0.0-584.0","4k0za41r","","","","","",""
"2438.9849999998696","{""pre-3"":0}","[0]","survey-likert","585","1225627","0.0-585.0","4k0za41r","","","","","",""
"4847.850000000093","{""post-5"":1}","[0]","survey-likert","586","1230476","0.0-586.0","4k0za41r","","","","","",""
"3494.7000000001863","","","instructions","587","1233971","0.0-587.0","4k0za41r","[{""page_index"":0,""viewing_time"":1873.6750000000466},{""page_index"":1,""viewing_time"":1028.2399999999907},{""page_index"":2,""viewing_time"":592.6149999999907}]","","","","",""
"1895.6099999998696","","","instructions","588","1235867","0.0-588.0","4k0za41r","[{""page_index"":0,""viewing_time"":517.4299999999348},{""page_index"":1,""viewing_time"":831.0600000000559},{""page_index"":2,""viewing_time"":547.0149999998976}]","","","","",""
"","","","call-function","589","1235868","0.0-589.0","4k0za41r","","","","","",""
"null","","","video-keyboard-response","590","1238936","0.0-590.0","4k0za41r","","","","null","Agent A","STIM_SET_1_REAL/1159440.bmp_pp98_L1_V1.0_veridical_freeview_isoFalse_fps144.mp4"
"","","","call-function","591","1238937","0.0-591.0","4k0za41r","","","","","",""
"2657.475000000093","{""pre-1"":2}","[0]","survey-likert","592","1241595","0.0-592.0","4k0za41r","","","","","",""
"1260.844999999972","{""pre-2"":1}","[0]","survey-likert","593","1242857","0.0-593.0","4k0za41r","","","","","",""
"2663.7350000001024","{""pre-3"":0}","[0]","survey-likert","594","1245522","0.0-594.0","4k0za41r","","","","","",""
"2570.4599999999627","{""post-5"":1}","[0]","survey-likert","595","1248094","0.0-595.0","4k0za41r","","","","","",""
"","","","call-function","596","1248094","0.0-596.0","4k0za41r","","","","","",""
"null","","","video-keyboard-response","597","1251172","0.0-597.0","4k0za41r","","","","null","Agent A","STIM_SET_1_REAL/713211.bmp_pp100_L3_V1.0_scrambled_freeview_isoFalse_fps144.mp4"
"","","","call-function","598","1251173","0.0-598.0","4k0za41r","","","","","",""
"1801.0649999999441","{""pre-1"":0}","[0]","survey-likert","599","1252975","0.0-599.0","4k0za41r","","","","","",""
"1672.5550000001676","{""pre-2"":0}","[0]","survey-likert","600","1254649","0.0-600.0","4k0za41r","","","","","",""
"1472.4550000000745","{""pre-3"":0}","[0]","survey-likert","601","1256122","0.0-601.0","4k0za41r","","","","","",""
"3515.780000000028","{""post-5"":3}","[0]","survey-likert","602","1259639","0.0-602.0","4k0za41r","","","","","",""
"","","","call-function","603","1259639","0.0-603.0","4k0za41r","","","","","",""
"null","","","video-keyboard-response","604","1262746","0.0-604.0","4k0za41r","","","","null","Agent A","STIM_SET_1_REAL/1591876.bmp_pp63_L1_V1.0_scrambled_freeview_isoFalse_fps144.mp4"
"","","","call-function","605","1262746","0.0-605.0","4k0za41r","","","","","",""
"3713.339999999851","{""pre-1"":1}","[0]","survey-likert","606","1266460","0.0-606.0","4k0za41r","","","","","",""
"1950.625","{""pre-2"":0}","[0]","survey-likert","607","1268413","0.0-607.0","4k0za41r","","","","","",""
"4198.889999999898","{""pre-3"":0}","[0]","survey-likert","608","1272614","0.0-608.0","4k0za41r","","","","","",""
"2080.005000000121","{""post-5"":2}","[0]","survey-likert","609","1274695","0.0-609.0","4k0za41r","","","","","",""
"","","","call-function","610","1274696","0.0-610.0","4k0za41r","","","","","",""
"null","","","video-keyboard-response","611","1277793","0.0-611.0","4k0za41r","","","","null","Agent A","STIM_SET_1_REAL/285933.bmp_pp81_L1_V1.0_veridical_freeview_isoFalse_fps144.mp4"
"","","","call-function","612","1277794","0.0-612.0","4k0za41r","","","","","",""
"3251.5100000000093","{""pre-1"":1}","[0]","survey-likert","613","1281047","0.0-613.0","4k0za41r","","","","","",""
"2024.6200000001118","{""pre-2"":1}","[0]","survey-likert","614","1283073","0.0-614.0","4k0za41r","","","","","",""
"2442.5149999998976","{""pre-3"":0}","[0]","survey-likert","615","1285517","0.0-615.0","4k0za41r","","","","","",""
"2303.7600000000093","{""post-5"":2}","[0]","survey-likert","616","1287822","0.0-616.0","4k0za41r","","","","","",""
"","","","call-function","617","1287822","0.0-617.0","4k0za41r","","","","","",""
"null","","","video-keyboard-response","618","1290892","0.0-618.0","4k0za41r","","","","null","Agent A","STIM_SET_1_REAL/1591961.bmp_pp67_L2_V1.0_veridical_freeview_isoFalse_fps144.mp4"
"","","","call-function","619","1290893","0.0-619.0","4k0za41r","","","","","",""
"2999.7950000001583","{""pre-1"":1}","[0]","survey-likert","620","1293893","0.0-620.0","4k0za41r","","","","","",""
"3176.875","{""pre-2"":1}","[0]","survey-likert","621","1297071","0.0-621.0","4k0za41r","","","","","",""
"3794.1200000001118","{""pre-3"":1}","[0]","survey-likert","622","1300867","0.0-622.0","4k0za41r","","","","","",""
"1817.869999999879","{""post-5"":2}","[0]","survey-likert","623","1302686","0.0-623.0","4k0za41r","","","","","",""
"","","","call-function","624","1302686","0.0-624.0","4k0za41r","","","","","",""
"null","","","video-keyboard-response","625","1305768","0.0-625.0","4k0za41r","","","","null","Agent A","STIM_SET_1_REAL/1592581.bmp_pp100_L3_V1.0_veridical_freeview_isoFalse_fps144.mp4"
"","","","call-function","626","1305769","0.0-626.0","4k0za41r","","","","","",""
"2839.3199999998324","{""pre-1"":0}","[0]","survey-likert","627","1308609","0.0-627.0","4k0za41r","","","","","",""
"9112.190000000177","{""pre-2"":1}","[0]","survey-likert","628","1317723","0.0-628.0","4k0za41r","","","","","",""
"2178.8349999999627","{""pre-3"":0}","[0]","survey-likert","629","1319902","0.0-629.0","4k0za41r","","","","","",""
"2839.9250000000466","{""post-5"":2}","[0]","survey-likert","630","1322743","0.0-630.0","4k0za41r","","","","","",""
"","","","call-function","631","1322744","0.0-631.0","4k0za41r","","","","","",""
"null","","","video-keyboard-response","632","1325845","0.0-632.0","4k0za41r","","","","null","Agent A","STIM_SET_1_REAL/1159515.bmp_pp84_L3_V1.0_veridical_freeview_isoFalse_fps144.mp4"
"","","","call-function","633","1325847","0.0-633.0","4k0za41r","","","","","",""
"2975.7000000001863","{""pre-1"":2}","[0]","survey-likert","634","1328824","0.0-634.0","4k0za41r","","","","","",""
"1469.2399999999907","{""pre-2"":2}","[0]","survey-likert","635","1330295","0.0-635.0","4k0za41r","","","","","",""
"1187.9150000000373","{""pre-3"":1}","[0]","survey-likert","636","1331484","0.0-636.0","4k0za41r","","","","","",""
"2671.744999999879","{""post-5"":0}","[0]","survey-likert","637","1334157","0.0-637.0","4k0za41r","","","","","",""
"","","","call-function","638","1334157","0.0-638.0","4k0za41r","","","","","",""
"null","","","video-keyboard-response","639","1337217","0.0-639.0","4k0za41r","","","","null","Agent A","STIM_SET_1_REAL/498170.bmp_pp153_L3_V1.0_scrambled_freeview_isoFalse_fps144.mp4"
"","","","call-function","640","1337218","0.0-640.0","4k0za41r","","","","","",""
"3115.869999999879","{""pre-1"":3}","[0]","survey-likert","641","1340335","0.0-641.0","4k0za41r","","","","","",""
"3309.179999999935","{""pre-2"":2}","[0]","survey-likert","642","1343645","0.0-642.0","4k0za41r","","","","","",""
"1377.3000000000466","{""pre-3"":2}","[0]","survey-likert","643","1345024","0.0-643.0","4k0za41r","","","","","",""
"2242.219999999972","{""post-5"":0}","[0]","survey-likert","644","1347267","0.0-644.0","4k0za41r","","","","","",""
"","","","call-function","645","1347268","0.0-645.0","4k0za41r","","","","","",""
"null","","","video-keyboard-response","646","1350329","0.0-646.0","4k0za41r","","","","null","Agent A","STIM_SET_1_REAL/1159447.bmp_pp70_L2_V1.0_veridical_freeview_isoFalse_fps144.mp4"
"","","","call-function","647","1350330","0.0-647.0","4k0za41r","","","","","",""
"3176.439999999944","{""pre-1"":3}","[0]","survey-likert","648","1353507","0.0-648.0","4k0za41r","","","","","",""
"3671.7450000001118","{""pre-2"":2}","[0]","survey-likert","649","1357180","0.0-649.0","4k0za41r","","","","","",""
"3687.0200000000186","{""pre-3"":1}","[0]","survey-likert","650","1360868","0.0-650.0","4k0za41r","","","","","",""
"2087.6650000000373","{""post-5"":0}","[0]","survey-likert","651","1362957","0.0-651.0","4k0za41r","","","","","",""
"","","","call-function","652","1362958","0.0-652.0","4k0za41r","","","","","",""
"null","","","video-keyboard-response","653","1366064","0.0-653.0","4k0za41r","","","","null","Agent A","STIM_SET_1_REAL/1592499.bmp_pp96_L2_V1.0_veridical_freeview_isoFalse_fps144.mp4"
"","","","call-function","654","1366065","0.0-654.0","4k0za41r","","","","","",""
"2061.034999999916","{""pre-1"":1}","[0]","survey-likert","655","1368127","0.0-655.0","4k0za41r","","","","","",""
"1821.9550000000745","{""pre-2"":1}","[0]","survey-likert","656","1369950","0.0-656.0","4k0za41r","","","","","",""
"2657.980000000214","{""pre-3"":1}","[0]","survey-likert","657","1372609","0.0-657.0","4k0za41r","","","","","",""
"2965.4950000001118","{""post-5"":1}","[0]","survey-likert","658","1375575","0.0-658.0","4k0za41r","","","","","",""
"","","","call-function","659","1375576","0.0-659.0","4k0za41r","","","","","",""
"null","","","video-keyboard-response","660","1378669","0.0-660.0","4k0za41r","","","","null","Agent A","STIM_SET_1_REAL/713796.bmp_pp84_L3_V1.0_scrambled_freeview_isoFalse_fps144.mp4"
"","","","call-function","661","1378670","0.0-661.0","4k0za41r","","","","","",""
"2767.725000000093","{""pre-1"":1}","[0]","survey-likert","662","1381439","0.0-662.0","4k0za41r","","","","","",""
"2307.875","{""pre-2"":1}","[0]","survey-likert","663","1383748","0.0-663.0","4k0za41r","","","","","",""
"1423.035000000149","{""pre-3"":0}","[0]","survey-likert","664","1385173","0.0-664.0","4k0za41r","","","","","",""
"1785.0150000001304","{""post-5"":2}","[0]","survey-likert","665","1386959","0.0-665.0","4k0za41r","","","","","",""
"","","","call-function","666","1386959","0.0-666.0","4k0za41r","","","","","",""
"null","","","video-keyboard-response","667","1390048","0.0-667.0","4k0za41r","","","","null","Agent A","STIM_SET_1_REAL/1159813.bmp_pp79_L2_V1.0_scrambled_freeview_isoFalse_fps144.mp4"
"","","","call-function","668","1390048","0.0-668.0","4k0za41r","","","","","",""
"2822.4950000001118","{""pre-1"":2}","[0]","survey-likert","669","1392872","0.0-669.0","4k0za41r","","","","","",""
"3015.4950000001118","{""pre-2"":1}","[0]","survey-likert","670","1395889","0.0-670.0","4k0za41r","","","","","",""
"2787.6099999998696","{""pre-3"":1}","[0]","survey-likert","671","1398677","0.0-671.0","4k0za41r","","","","","",""
"2967.220000000205","{""post-5"":2}","[0]","survey-likert","672","1401646","0.0-672.0","4k0za41r","","","","","",""
"","","","call-function","673","1401646","0.0-673.0","4k0za41r","","","","","",""
"null","","","video-keyboard-response","674","1404712","0.0-674.0","4k0za41r","","","","null","Agent A","STIM_SET_1_REAL/1592727.bmp_pp59_L3_V1.0_scrambled_freeview_isoFalse_fps144.mp4"
"","","","call-function","675","1404712","0.0-675.0","4k0za41r","","","","","",""
"1909.375","{""pre-1"":0}","[0]","survey-likert","676","1406622","0.0-676.0","4k0za41r","","","","","",""
"3449.8549999999814","{""pre-2"":0}","[0]","survey-likert","677","1410073","0.0-677.0","4k0za41r","","","","","",""
"1795.339999999851","{""pre-3"":0}","[0]","survey-likert","678","1411870","0.0-678.0","4k0za41r","","","","","",""
"2274.7900000000373","{""post-5"":3}","[0]","survey-likert","679","1414146","0.0-679.0","4k0za41r","","","","","",""
"","","","call-function","680","1414146","0.0-680.0","4k0za41r","","","","","",""
"null","","","video-keyboard-response","681","1417206","0.0-681.0","4k0za41r","","","","null","Agent A","STIM_SET_1_REAL/1592351.bmp_pp51_L1_V1.0_scrambled_freeview_isoFalse_fps144.mp4"
"","","","call-function","682","1417206","0.0-682.0","4k0za41r","","","","","",""
"2137.7649999998976","{""pre-1"":0}","[0]","survey-likert","683","1419346","0.0-683.0","4k0za41r","","","","","",""
"1433.6800000001676","{""pre-2"":0}","[0]","survey-likert","684","1420781","0.0-684.0","4k0za41r","","","","","",""
"1383.5400000000373","{""pre-3"":0}","[0]","survey-likert","685","1422165","0.0-685.0","4k0za41r","","","","","",""
"1662.2099999999627","{""post-5"":3}","[0]","survey-likert","686","1423828","0.0-686.0","4k0za41r","","","","","",""
"","","","call-function","687","1423829","0.0-687.0","4k0za41r","","","","","",""
"null","","","video-keyboard-response","688","1426940","0.0-688.0","4k0za41r","","","","null","Agent A","STIM_SET_1_REAL/1592619.bmp_pp56_L3_V1.0_scrambled_freeview_isoFalse_fps144.mp4"
"","","","call-function","689","1426941","0.0-689.0","4k0za41r","","","","","",""
"1787.8900000001304","{""pre-1"":0}","[0]","survey-likert","690","1428730","0.0-690.0","4k0za41r","","","","","",""
"1514.2950000001583","{""pre-2"":0}","[0]","survey-likert","691","1430247","0.0-691.0","4k0za41r","","","","","",""
"1783.8600000001024","{""pre-3"":0}","[0]","survey-likert","692","1432033","0.0-692.0","4k0za41r","","","","","",""
"1491.880000000121","{""post-5"":3}","[0]","survey-likert","693","1433526","0.0-693.0","4k0za41r","","","","","",""
"","","","call-function","694","1433527","0.0-694.0","4k0za41r","","","","","",""
"null","","","video-keyboard-response","695","1436590","0.0-695.0","4k0za41r","","","","null","Agent A","STIM_SET_1_REAL/713681.bmp_pp86_L2_V1.0_veridical_freeview_isoFalse_fps144.mp4"
"","","","call-function","696","1436590","0.0-696.0","4k0za41r","","","","","",""
"1567.309999999823","{""pre-1"":2}","[0]","survey-likert","697","1438159","0.0-697.0","4k0za41r","","","","","",""
"2399","{""pre-2"":1}","[0]","survey-likert","698","1440559","0.0-698.0","4k0za41r","","","","","",""
"1048.6899999999441","{""pre-3"":1}","[0]","survey-likert","699","1441609","0.0-699.0","4k0za41r","","","","","",""
"2143.939999999944","{""post-5"":1}","[0]","survey-likert","700","1443754","0.0-700.0","4k0za41r","","","","","",""
"","","","call-function","701","1443755","0.0-701.0","4k0za41r","","","","","",""
"null","","","video-keyboard-response","702","1446822","0.0-702.0","4k0za41r","","","","null","Agent A","STIM_SET_1_REAL/713796.bmp_pp84_L3_V1.0_veridical_freeview_isoFalse_fps144.mp4"
"","","","call-function","703","1446823","0.0-703.0","4k0za41r","","","","","",""
"1877.7600000000093","{""pre-1"":2}","[0]","survey-likert","704","1448702","0.0-704.0","4k0za41r","","","","","",""
"1024.8000000000466","{""pre-2"":1}","[0]","survey-likert","705","1449728","0.0-705.0","4k0za41r","","","","","",""
"1849.7099999999627","{""pre-3"":0}","[0]","survey-likert","706","1451578","0.0-706.0","4k0za41r","","","","","",""
"2321.4250000000466","{""post-5"":1}","[0]","survey-likert","707","1453901","0.0-707.0","4k0za41r","","","","","",""
"","","","call-function","708","1453902","0.0-708.0","4k0za41r","","","","","",""
"null","","","video-keyboard-response","709","1456982","0.0-709.0","4k0za41r","","","","null","Agent A","STIM_SET_1_REAL/1592657.bmp_pp98_L1_V1.0_scrambled_freeview_isoFalse_fps144.mp4"
"","","","call-function","710","1456983","0.0-710.0","4k0za41r","","","","","",""
"2210.6100000001024","{""pre-1"":3}","[0]","survey-likert","711","1459195","0.0-711.0","4k0za41r","","","","","",""
"1696.214999999851","{""pre-2"":2}","[0]","survey-likert","712","1460892","0.0-712.0","4k0za41r","","","","","",""
"2522.774999999907","{""pre-3"":2}","[0]","survey-likert","713","1463416","0.0-713.0","4k0za41r","","","","","",""
"4036.375","{""post-5"":0}","[0]","survey-likert","714","1467453","0.0-714.0","4k0za41r","","","","","",""
"","","","call-function","715","1467454","0.0-715.0","4k0za41r","","","","","",""
"null","","","video-keyboard-response","716","1470557","0.0-716.0","4k0za41r","","","","null","Agent A","STIM_SET_1_REAL/1159621.bmp_pp92_L3_V1.0_veridical_freeview_isoFalse_fps144.mp4"
"","","","call-function","717","1470557","0.0-717.0","4k0za41r","","","","","",""
"1960.4599999999627","{""pre-1"":2}","[0]","survey-likert","718","1472519","0.0-718.0","4k0za41r","","","","","",""
"1241.8850000000093","{""pre-2"":1}","[0]","survey-likert","719","1473762","0.0-719.0","4k0za41r","","","","","",""
"1936.9950000001118","{""pre-3"":0}","[0]","survey-likert","720","1475700","0.0-720.0","4k0za41r","","","","","",""
"3312.1350000000093","{""post-5"":1}","[0]","survey-likert","721","1479013","0.0-721.0","4k0za41r","","","","","",""
"","","","call-function","722","1479013","0.0-722.0","4k0za41r","","","","","",""
"null","","","video-keyboard-response","723","1482113","0.0-723.0","4k0za41r","","","","null","Agent A","STIM_SET_1_REAL/712977.bmp_pp51_L1_V1.0_veridical_freeview_isoFalse_fps144.mp4"
"","","","call-function","724","1482114","0.0-724.0","4k0za41r","","","","","",""
"2258.465000000084","{""pre-1"":1}","[0]","survey-likert","725","1484374","0.0-725.0","4k0za41r","","","","","",""
"1460.6450000000186","{""pre-2"":1}","[0]","survey-likert","726","1485836","0.0-726.0","4k0za41r","","","","","",""
"2278.600000000093","{""pre-3"":1}","[0]","survey-likert","727","1488116","0.0-727.0","4k0za41r","","","","","",""
"2277","{""post-5"":1}","[0]","survey-likert","728","1490394","0.0-728.0","4k0za41r","","","","","",""
"19512.24500000011","","","instructions","729","1509907","0.0-729.0","4k0za41r","[{""page_index"":0,""viewing_time"":2024.5700000000652},{""page_index"":1,""viewing_time"":15273.794999999925},{""page_index"":2,""viewing_time"":2213.5850000001956}]","","","","",""
"2801.619999999879","","","instructions","730","1512709","0.0-730.0","4k0za41r","[{""page_index"":0,""viewing_time"":1352.3549999999814},{""page_index"":1,""viewing_time"":808.0349999999162},{""page_index"":2,""viewing_time"":641.125}]","","","","",""
"","","","call-function","731","1512710","0.0-731.0","4k0za41r","","","","","",""
"null","","","video-keyboard-response","732","1515784","0.0-732.0","4k0za41r","","","","null","Agent A","STIM_SET_1_REAL/1159777.bmp_pp77_L3_V1.0_veridical_freeview_isoFalse_fps144.mp4"
"","","","call-function","733","1515785","0.0-733.0","4k0za41r","","","","","",""
"4914.560000000056","{""pre-1"":3}","[0]","survey-likert","734","1520701","0.0-734.0","4k0za41r","","","","","",""
"1833.9749999998603","{""pre-2"":2}","[0]","survey-likert","735","1522536","0.0-735.0","4k0za41r","","","","","",""
"2008.4250000000466","{""pre-3"":1}","[0]","survey-likert","736","1524546","0.0-736.0","4k0za41r","","","","","",""
"2259.524999999907","{""post-5"":0}","[0]","survey-likert","737","1526806","0.0-737.0","4k0za41r","","","","","",""
"","","","call-function","738","1526807","0.0-738.0","4k0za41r","","","","","",""
"null","","","video-keyboard-response","739","1529948","0.0-739.0","4k0za41r","","","","null","Agent A","STIM_SET_1_REAL/1159784.bmp_pp73_L3_V1.0_veridical_freeview_isoFalse_fps144.mp4"
"","","","call-function","740","1529949","0.0-740.0","4k0za41r","","","","","",""
"1870.255000000121","{""pre-1"":2}","[0]","survey-likert","741","1531820","0.0-741.0","4k0za41r","","","","","",""
"1591.030000000028","{""pre-2"":2}","[0]","survey-likert","742","1533412","0.0-742.0","4k0za41r","","","","","",""
"1252.8649999999907","{""pre-3"":2}","[0]","survey-likert","743","1534666","0.0-743.0","4k0za41r","","","","","",""
"2102.3850000000093","{""post-5"":0}","[0]","survey-likert","744","1536770","0.0-744.0","4k0za41r","","","","","",""
"","","","call-function","745","1536770","0.0-745.0","4k0za41r","","","","","",""
"null","","","video-keyboard-response","746","1539845","0.0-746.0","4k0za41r","","","","null","Agent A","STIM_SET_1_REAL/713749.bmp_pp88_L2_V1.0_scrambled_freeview_isoFalse_fps144.mp4"
"","","","call-function","747","1539846","0.0-747.0","4k0za41r","","","","","",""
"1653.155000000028","{""pre-1"":2}","[0]","survey-likert","748","1541500","0.0-748.0","4k0za41r","","","","","",""
"4166.725000000093","{""pre-2"":2}","[0]","survey-likert","749","1545668","0.0-749.0","4k0za41r","","","","","",""
"1024.6650000000373","{""pre-3"":1}","[0]","survey-likert","750","1546694","0.0-750.0","4k0za41r","","","","","",""
"2648.25","{""post-5"":0}","[0]","survey-likert","751","1549343","0.0-751.0","4k0za41r","","","","","",""
"","","","call-function","752","1549344","0.0-752.0","4k0za41r","","","","","",""
"null","","","video-keyboard-response","753","1552450","0.0-753.0","4k0za41r","","","","null","Agent A","STIM_SET_1_REAL/285751.bmp_pp55_L3_V1.0_scrambled_freeview_isoFalse_fps144.mp4"
"","","","call-function","754","1552451","0.0-754.0","4k0za41r","","","","","",""
"5065.229999999981","{""pre-1"":2}","[0]","survey-likert","755","1557518","0.0-755.0","4k0za41r","","","","","",""
"2066.3649999999907","{""pre-2"":1}","[0]","survey-likert","756","1559586","0.0-756.0","4k0za41r","","","","","",""
"1298.75","{""pre-3"":0}","[0]","survey-likert","757","1560886","0.0-757.0","4k0za41r","","","","","",""
"1551.660000000149","{""post-5"":1}","[0]","survey-likert","758","1562439","0.0-758.0","4k0za41r","","","","","",""
"","","","call-function","759","1562440","0.0-759.0","4k0za41r","","","","","",""
"null","","","video-keyboard-response","760","1565541","0.0-760.0","4k0za41r","","","","null","Agent A","STIM_SET_1_REAL/1592934.bmp_pp63_L1_V1.0_scrambled_freeview_isoFalse_fps144.mp4"
"","","","call-function","761","1565542","0.0-761.0","4k0za41r","","","","","",""
"1982.345000000205","{""pre-1"":2}","[0]","survey-likert","762","1567525","0.0-762.0","4k0za41r","","","","","",""
"2352.6649999998044","{""pre-2"":2}","[0]","survey-likert","763","1569879","0.0-763.0","4k0za41r","","","","","",""
"2092.9200000001583","{""pre-3"":1}","[0]","survey-likert","764","1571973","0.0-764.0","4k0za41r","","","","","",""
"1378.9499999999534","{""post-5"":1}","[0]","survey-likert","765","1573353","0.0-765.0","4k0za41r","","","","","",""
"","","","call-function","766","1573354","0.0-766.0","4k0za41r","","","","","",""
"null","","","video-keyboard-response","767","1576413","0.0-767.0","4k0za41r","","","","null","Agent A","STIM_SET_1_REAL/1159572.bmp_pp71_L1_V1.0_scrambled_freeview_isoFalse_fps144.mp4"
"","","","call-function","768","1576413","0.0-768.0","4k0za41r","","","","","",""
"2501.5250000001397","{""pre-1"":1}","[0]","survey-likert","769","1578916","0.0-769.0","4k0za41r","","","","","",""
"1914.3100000000559","{""pre-2"":0}","[0]","survey-likert","770","1580831","0.0-770.0","4k0za41r","","","","","",""
"1166.875","{""pre-3"":0}","[0]","survey-likert","771","1581999","0.0-771.0","4k0za41r","","","","","",""
"2348.155000000028","{""post-5"":1}","[0]","survey-likert","772","1584349","0.0-772.0","4k0za41r","","","","","",""
"","","","call-function","773","1584349","0.0-773.0","4k0za41r","","","","","",""
"null","","","video-keyboard-response","774","1587419","0.0-774.0","4k0za41r","","","","null","Agent A","STIM_SET_1_REAL/1159440.bmp_pp98_L1_V1.0_scrambled_freeview_isoFalse_fps144.mp4"
"","","","call-function","775","1587420","0.0-775.0","4k0za41r","","","","","",""
"3370.594999999972","{""pre-1"":0}","[0]","survey-likert","776","1590791","0.0-776.0","4k0za41r","","","","","",""
"2031.2650000001304","{""pre-2"":0}","[0]","survey-likert","777","1592824","0.0-777.0","4k0za41r","","","","","",""
"1605.7849999999162","{""pre-3"":0}","[0]","survey-likert","778","1594431","0.0-778.0","4k0za41r","","","","","",""
"3063.469999999972","{""post-5"":2}","[0]","survey-likert","779","1597495","0.0-779.0","4k0za41r","","","","","",""
"","","","call-function","780","1597496","0.0-780.0","4k0za41r","","","","","",""
"null","","","video-keyboard-response","781","1600587","0.0-781.0","4k0za41r","","","","null","Agent A","STIM_SET_1_REAL/1592619.bmp_pp56_L3_V1.0_veridical_freeview_isoFalse_fps144.mp4"
"","","","call-function","782","1600587","0.0-782.0","4k0za41r","","","","","",""
"2679.5150000001304","{""pre-1"":2}","[0]","survey-likert","783","1603268","0.0-783.0","4k0za41r","","","","","",""
"1399.4250000000466","{""pre-2"":1}","[0]","survey-likert","784","1604669","0.0-784.0","4k0za41r","","","","","",""
"1256.255000000121","{""pre-3"":0}","[0]","survey-likert","785","1605927","0.0-785.0","4k0za41r","","","","","",""
"2299.189999999944","{""post-5"":2}","[0]","survey-likert","786","1608228","0.0-786.0","4k0za41r","","","","","",""
"","","","call-function","787","1608229","0.0-787.0","4k0za41r","","","","","",""
"null","","","video-keyboard-response","788","1611336","0.0-788.0","4k0za41r","","","","null","Agent A","STIM_SET_1_REAL/713666.bmp_pp97_L3_V1.0_scrambled_freeview_isoFalse_fps144.mp4"
"","","","call-function","789","1611337","0.0-789.0","4k0za41r","","","","","",""
"2656.9449999998324","{""pre-1"":2}","[0]","survey-likert","790","1613995","0.0-790.0","4k0za41r","","","","","",""
"3502.5849999999627","{""pre-2"":1}","[0]","survey-likert","791","1617499","0.0-791.0","4k0za41r","","","","","",""
"1157.6999999999534","{""pre-3"":0}","[0]","survey-likert","792","1618658","0.0-792.0","4k0za41r","","","","","",""
"1721.1999999999534","{""post-5"":1}","[0]","survey-likert","793","1620380","0.0-793.0","4k0za41r","","","","","",""
"","","","call-function","794","1620381","0.0-794.0","4k0za41r","","","","","",""
"null","","","video-keyboard-response","795","1624834","0.0-795.0","4k0za41r","","","","null","Agent A","STIM_SET_1_REAL/1592362.bmp_pp95_L2_V1.0_veridical_freeview_isoFalse_fps144.mp4"
"","","","call-function","796","1624834","0.0-796.0","4k0za41r","","","","","",""
"3074.034999999916","{""pre-1"":3}","[0]","survey-likert","797","1627909","0.0-797.0","4k0za41r","","","","","",""
"3777.9550000000745","{""pre-2"":3}","[0]","survey-likert","798","1631688","0.0-798.0","4k0za41r","","","","","",""
"1170.2700000000186","{""pre-3"":2}","[0]","survey-likert","799","1632860","0.0-799.0","4k0za41r","","","","","",""
"1913.4499999999534","{""post-5"":0}","[0]","survey-likert","800","1634774","0.0-800.0","4k0za41r","","","","","",""
"","","","call-function","801","1634775","0.0-801.0","4k0za41r","","","","","",""
"null","","","video-keyboard-response","802","1637882","0.0-802.0","4k0za41r","","","","null","Agent A","STIM_SET_1_REAL/498253.bmp_pp67_L2_V1.0_scrambled_freeview_isoFalse_fps144.mp4"
"","","","call-function","803","1637883","0.0-803.0","4k0za41r","","","","","",""
"2048.5499999998137","{""pre-1"":2}","[0]","survey-likert","804","1639932","0.0-804.0","4k0za41r","","","","","",""
"1586.4250000000466","{""pre-2"":2}","[0]","survey-likert","805","1641520","0.0-805.0","4k0za41r","","","","","",""
"1390.8999999999069","{""pre-3"":1}","[0]","survey-likert","806","1642912","0.0-806.0","4k0za41r","","","","","",""
"1732.5","{""post-5"":0}","[0]","survey-likert","807","1644645","0.0-807.0","4k0za41r","","","","","",""
"","","","call-function","808","1644646","0.0-808.0","4k0za41r","","","","","",""
"null","","","video-keyboard-response","809","1647756","0.0-809.0","4k0za41r","","","","null","Agent A","STIM_SET_1_REAL/713371.bmp_pp68_L1_V1.0_veridical_freeview_isoFalse_fps144.mp4"
"","","","call-function","810","1647757","0.0-810.0","4k0za41r","","","","","",""
"2454.0849999999627","{""pre-1"":3}","[0]","survey-likert","811","1650212","0.0-811.0","4k0za41r","","","","","",""
"1048.7649999998976","{""pre-2"":2}","[0]","survey-likert","812","1651262","0.0-812.0","4k0za41r","","","","","",""
"2271.8499999998603","{""pre-3"":1}","[0]","survey-likert","813","1653535","0.0-813.0","4k0za41r","","","","","",""
"1959.8400000000838","{""post-5"":0}","[0]","survey-likert","814","1655496","0.0-814.0","4k0za41r","","","","","",""
"","","","call-function","815","1655496","0.0-815.0","4k0za41r","","","","","",""
"null","","","video-keyboard-response","816","1658600","0.0-816.0","4k0za41r","","","","null","Agent A","STIM_SET_1_REAL/285905.bmp_pp57_L1_V1.0_scrambled_freeview_isoFalse_fps144.mp4"
"","","","call-function","817","1658601","0.0-817.0","4k0za41r","","","","","",""
"1954.8349999999627","{""pre-1"":2}","[0]","survey-likert","818","1660558","0.0-818.0","4k0za41r","","","","","",""
"2009.9099999999162","{""pre-2"":2}","[0]","survey-likert","819","1662569","0.0-819.0","4k0za41r","","","","","",""
"3515.6399999998976","{""pre-3"":1}","[0]","survey-likert","820","1666086","0.0-820.0","4k0za41r","","","","","",""
"2906.5","{""post-5"":0}","[0]","survey-likert","821","1668994","0.0-821.0","4k0za41r","","","","","",""
"","","","call-function","822","1668994","0.0-822.0","4k0za41r","","","","","",""
"null","","","video-keyboard-response","823","1672069","0.0-823.0","4k0za41r","","","","null","Agent A","STIM_SET_1_REAL/713371.bmp_pp68_L1_V1.0_scrambled_freeview_isoFalse_fps144.mp4"
"","","","call-function","824","1672070","0.0-824.0","4k0za41r","","","","","",""
"1798.9799999999814","{""pre-1"":2}","[0]","survey-likert","825","1673870","0.0-825.0","4k0za41r","","","","","",""
"3062.1450000000186","{""pre-2"":2}","[0]","survey-likert","826","1676933","0.0-826.0","4k0za41r","","","","","",""
"1495.1699999999255","{""pre-3"":1}","[0]","survey-likert","827","1678430","0.0-827.0","4k0za41r","","","","","",""
"1661.375","{""post-5"":0}","[0]","survey-likert","828","1680092","0.0-828.0","4k0za41r","","","","","",""
"","","","call-function","829","1680093","0.0-829.0","4k0za41r","","","","","",""
"null","","","video-keyboard-response","830","1683171","0.0-830.0","4k0za41r","","","","null","Agent A","STIM_SET_1_REAL/1593146.bmp_pp93_L1_V1.0_scrambled_freeview_isoFalse_fps144.mp4"
"","","","call-function","831","1683172","0.0-831.0","4k0za41r","","","","","",""
"2038.1999999999534","{""pre-1"":1}","[0]","survey-likert","832","1685211","0.0-832.0","4k0za41r","","","","","",""
"1836.3200000000652","{""pre-2"":1}","[0]","survey-likert","833","1687048","0.0-833.0","4k0za41r","","","","","",""
"1558.940000000177","{""pre-3"":0}","[0]","survey-likert","834","1688609","0.0-834.0","4k0za41r","","","","","",""
"1826.2900000000373","{""post-5"":2}","[0]","survey-likert","835","1690436","0.0-835.0","4k0za41r","","","","","",""
"","","","call-function","836","1690436","0.0-836.0","4k0za41r","","","","","",""
"null","","","video-keyboard-response","837","1693513","0.0-837.0","4k0za41r","","","","null","Agent A","STIM_SET_1_REAL/1159784.bmp_pp73_L3_V1.0_scrambled_freeview_isoFalse_fps144.mp4"
"","","","call-function","838","1693513","0.0-838.0","4k0za41r","","","","","",""
