"rt","responses","question_order","trial_type","trial_index","time_elapsed","internal_node_id","ID","view_history","value","stimulus","key_press","agent","image"
"574222.48","{""Experimenter"":[""Confirmed subject's identity (ID card)"",""Confirmed normal or corrected-to-normal vision"",""Obtained consent (signature and date)"",""Checked the test room lighting"",""Checked computer screen lighting"",""Checked distance from screen to chin rest (50cm)"",""Cleaned and adjusted chin rest"",""Counterbalanced the order of the tasks"",""Opened the experiment in Firefox"",""Made the experiment full screen"",""Encouraged subject to silence phone, put away distractors, etc.""]}","[0]","survey-multi-select","0","574231","0.0-0.0","7kvjppom","","","","","",""
"33783.375","","","instructions","1","608016","0.0-1.0","7kvjppom","[{""page_index"":0,""viewing_time"":33783.22499999998}]","","","","",""
"7595.680000000051","{""Age"":3,""Sex"":0,""Gender"":0}","[0,1,2]","survey-likert","2","615614","0.0-2.0","7kvjppom","","","","","",""
"1170.1599999999162","","","instructions","3","616784","0.0-3.0","7kvjppom","[{""page_index"":0,""viewing_time"":1170.0499999999302}]","","","","",""
"2614.1650000000373","","","instructions","4","619399","0.0-4.0","7kvjppom","[{""page_index"":0,""viewing_time"":1723.1149999999907},{""page_index"":1,""viewing_time"":890.9499999999534}]","","","","",""
"6740.804999999935","","","instructions","5","626140","0.0-5.0","7kvjppom","[{""page_index"":0,""viewing_time"":766.5599999999395},{""page_index"":1,""viewing_time"":733.0050000000047},{""page_index"":2,""viewing_time"":5241.099999999977}]","","","","",""
"1573.3950000000186","","","instructions","6","627714","0.0-6.0","7kvjppom","[{""page_index"":0,""viewing_time"":1573.295000000042}]","","","","",""
"","","","call-function","7","627715","0.0-7.0","7kvjppom","","","","","",""
"null","","","video-keyboard-response","8","630791","0.0-8.0","7kvjppom","","","","null","",""
"","","","call-function","9","630791","0.0-9.0","7kvjppom","","","","","",""
"9171.050000000047","","","instructions","10","639963","0.0-10.0","7kvjppom","[{""page_index"":0,""viewing_time"":2989.015000000014},{""page_index"":1,""viewing_time"":1696.4649999999674},{""page_index"":2,""viewing_time"":1364.0250000000233},{""page_index"":3,""viewing_time"":3120.9150000000373}]","","","","",""
"906.9949999999953","","","instructions","11","640871","0.0-11.0","7kvjppom","[{""page_index"":0,""viewing_time"":906.9000000000233}]","","","","",""
"","","","call-function","12","640872","0.0-12.0","7kvjppom","","","","","",""
"null","","","video-keyboard-response","13","643943","0.0-13.0","7kvjppom","","","","null","",""
"","","","call-function","14","643944","0.0-14.0","7kvjppom","","","","","",""
"15907.875","{""pre-1"":2}","[0]","survey-likert","15","659853","0.0-15.0","7kvjppom","","","","","",""
"5210.679999999935","{""pre-2"":1}","[0]","survey-likert","16","665065","0.0-16.0","7kvjppom","","","","","",""
"5378.494999999995","{""pre-3"":2}","[0]","survey-likert","17","670444","0.0-17.0","7kvjppom","","","","","",""
"4629.765000000014","{""post-5"":3}","[0]","survey-likert","18","675075","0.0-18.0","7kvjppom","","","","","",""
"1193.0100000000093","","","instructions","19","676268","0.0-19.0","7kvjppom","[{""page_index"":0,""viewing_time"":1192.9049999999115}]","","","","",""
"4597.570000000065","","","instructions","20","680866","0.0-20.0","7kvjppom","[{""page_index"":0,""viewing_time"":4597.454999999958}]","","","","",""
"","","","call-function","21","680867","0.0-21.0","7kvjppom","","","","","",""
"null","","","video-keyboard-response","22","683943","0.0-22.0","7kvjppom","","","","null","Agent A","STIM_SET_1_REAL/498175.bmp_pp154_L1_V1.0_scrambled_freeview_isoFalse_fps144.mp4"
"","","","call-function","23","683945","0.0-23.0","7kvjppom","","","","","",""
"5571.195000000065","{""pre-1"":1}","[0]","survey-likert","24","689517","0.0-24.0","7kvjppom","","","","","",""
"9754.199999999953","{""pre-2"":0}","[0]","survey-likert","25","699272","0.0-25.0","7kvjppom","","","","","",""
"3355.9799999999814","{""pre-3"":0}","[0]","survey-likert","26","702629","0.0-26.0","7kvjppom","","","","","",""
"2365.3649999999907","{""post-5"":3}","[0]","survey-likert","27","704996","0.0-27.0","7kvjppom","","","","","",""
"","","","call-function","28","704996","0.0-28.0","7kvjppom","","","","","",""
"null","","","video-keyboard-response","29","708064","0.0-29.0","7kvjppom","","","","null","Agent A","STIM_SET_1_REAL/1159829.bmp_pp91_L3_V1.0_veridical_freeview_isoFalse_fps144.mp4"
"","","","call-function","30","708064","0.0-30.0","7kvjppom","","","","","",""
"3683.5849999999627","{""pre-1"":1}","[0]","survey-likert","31","711749","0.0-31.0","7kvjppom","","","","","",""
"1564.344999999972","{""pre-2"":1}","[0]","survey-likert","32","713315","0.0-32.0","7kvjppom","","","","","",""
"2190.2299999999814","{""pre-3"":1}","[0]","survey-likert","33","715507","0.0-33.0","7kvjppom","","","","","",""
"2913.670000000042","{""post-5"":3}","[0]","survey-likert","34","718422","0.0-34.0","7kvjppom","","","","","",""
"","","","call-function","35","718422","0.0-35.0","7kvjppom","","","","","",""
"null","","","video-keyboard-response","36","721503","0.0-36.0","7kvjppom","","","","null","Agent A","STIM_SET_1_REAL/1592804.bmp_pp91_L3_V1.0_veridical_freeview_isoFalse_fps144.mp4"
"","","","call-function","37","721503","0.0-37.0","7kvjppom","","","","","",""
"3450.6049999999814","{""pre-1"":1}","[0]","survey-likert","38","724955","0.0-38.0","7kvjppom","","","","","",""
"1097.344999999972","{""pre-2"":1}","[0]","survey-likert","39","726054","0.0-39.0","7kvjppom","","","","","",""
"1308.890000000014","{""pre-3"":1}","[0]","survey-likert","40","727364","0.0-40.0","7kvjppom","","","","","",""
"1807.0650000000605","{""post-5"":3}","[0]","survey-likert","41","729172","0.0-41.0","7kvjppom","","","","","",""
"","","","call-function","42","729173","0.0-42.0","7kvjppom","","","","","",""
"null","","","video-keyboard-response","43","732244","0.0-43.0","7kvjppom","","","","null","Agent A","STIM_SET_1_REAL/1592362.bmp_pp95_L2_V1.0_veridical_freeview_isoFalse_fps144.mp4"
"","","","call-function","44","732244","0.0-44.0","7kvjppom","","","","","",""
"2903.055000000051","{""pre-1"":1}","[0]","survey-likert","45","735148","0.0-45.0","7kvjppom","","","","","",""
"1571.0899999999674","{""pre-2"":1}","[0]","survey-likert","46","736720","0.0-46.0","7kvjppom","","","","","",""
"2587.8800000000047","{""pre-3"":1}","[0]","survey-likert","47","739309","0.0-47.0","7kvjppom","","","","","",""
"2217.1849999999395","{""post-5"":3}","[0]","survey-likert","48","741527","0.0-48.0","7kvjppom","","","","","",""
"","","","call-function","49","741528","0.0-49.0","7kvjppom","","","","","",""
"null","","","video-keyboard-response","50","744605","0.0-50.0","7kvjppom","","","","null","Agent A","STIM_SET_1_REAL/713211.bmp_pp100_L3_V1.0_veridical_freeview_isoFalse_fps144.mp4"
"","","","call-function","51","744605","0.0-51.0","7kvjppom","","","","","",""
"1706.4899999999907","{""pre-1"":1}","[0]","survey-likert","52","746313","0.0-52.0","7kvjppom","","","","","",""
"1342.6199999999953","{""pre-2"":1}","[0]","survey-likert","53","747656","0.0-53.0","7kvjppom","","","","","",""
"1173.4599999999627","{""pre-3"":1}","[0]","survey-likert","54","748831","0.0-54.0","7kvjppom","","","","","",""
"1137.8050000000512","{""post-5"":3}","[0]","survey-likert","55","749970","0.0-55.0","7kvjppom","","","","","",""
"","","","call-function","56","749970","0.0-56.0","7kvjppom","","","","","",""
"null","","","video-keyboard-response","57","753039","0.0-57.0","7kvjppom","","","","null","Agent A","STIM_SET_1_REAL/1592286.bmp_pp52_L1_V1.0_scrambled_freeview_isoFalse_fps144.mp4"
"","","","call-function","58","753039","0.0-58.0","7kvjppom","","","","","",""
"2778.7550000000047","{""pre-1"":1}","[0]","survey-likert","59","755819","0.0-59.0","7kvjppom","","","","","",""
"982.8899999998976","{""pre-2"":1}","[0]","survey-likert","60","756803","0.0-60.0","7kvjppom","","","","","",""
"1512.0899999999674","{""pre-3"":1}","[0]","survey-likert","61","758316","0.0-61.0","7kvjppom","","","","","",""
"1047.0400000000373","{""post-5"":3}","[0]","survey-likert","62","759364","0.0-62.0","7kvjppom","","","","","",""
"","","","call-function","63","759364","0.0-63.0","7kvjppom","","","","","",""
"null","","","video-keyboard-response","64","762471","0.0-64.0","7kvjppom","","","","null","Agent A","STIM_SET_1_REAL/61537.bmp_pp73_L3_V1.0_veridical_freeview_isoFalse_fps144.mp4"
"","","","call-function","65","762471","0.0-65.0","7kvjppom","","","","","",""
"2477.140000000014","{""pre-1"":1}","[0]","survey-likert","66","764950","0.0-66.0","7kvjppom","","","","","",""
"1087.75","{""pre-2"":1}","[0]","survey-likert","67","766040","0.0-67.0","7kvjppom","","","","","",""
"1585.1300000000047","{""pre-3"":1}","[0]","survey-likert","68","767627","0.0-68.0","7kvjppom","","","","","",""
"3530.329999999958","{""post-5"":3}","[0]","survey-likert","69","771159","0.0-69.0","7kvjppom","","","","","",""
"","","","call-function","70","771160","0.0-70.0","7kvjppom","","","","","",""
"null","","","video-keyboard-response","71","774237","0.0-71.0","7kvjppom","","","","null","Agent A","STIM_SET_1_REAL/713707.bmp_pp154_L1_V1.0_scrambled_freeview_isoFalse_fps144.mp4"
"","","","call-function","72","774237","0.0-72.0","7kvjppom","","","","","",""
"2413.530000000028","{""pre-1"":1}","[0]","survey-likert","73","776652","0.0-73.0","7kvjppom","","","","","",""
"1036.2149999999674","{""pre-2"":1}","[0]","survey-likert","74","777690","0.0-74.0","7kvjppom","","","","","",""
"1569.0100000000093","{""pre-3"":1}","[0]","survey-likert","75","779260","0.0-75.0","7kvjppom","","","","","",""
"1275.969999999972","{""post-5"":2}","[0]","survey-likert","76","780537","0.0-76.0","7kvjppom","","","","","",""
"","","","call-function","77","780538","0.0-77.0","7kvjppom","","","","","",""
"null","","","video-keyboard-response","78","783611","0.0-78.0","7kvjppom","","","","null","Agent A","STIM_SET_1_REAL/285751.bmp_pp55_L3_V1.0_veridical_freeview_isoFalse_fps144.mp4"
"","","","call-function","79","783612","0.0-79.0","7kvjppom","","","","","",""
"2638.5200000000186","{""pre-1"":1}","[0]","survey-likert","80","786251","0.0-80.0","7kvjppom","","","","","",""
"3393.4000000000233","{""pre-2"":0}","[0]","survey-likert","81","789645","0.0-81.0","7kvjppom","","","","","",""
"1606.3400000000838","{""pre-3"":1}","[0]","survey-likert","82","791253","0.0-82.0","7kvjppom","","","","","",""
"1315.0200000000186","{""post-5"":3}","[0]","survey-likert","83","792569","0.0-83.0","7kvjppom","","","","","",""
"","","","call-function","84","792569","0.0-84.0","7kvjppom","","","","","",""
"null","","","video-keyboard-response","85","795645","0.0-85.0","7kvjppom","","","","null","Agent A","STIM_SET_1_REAL/498111.bmp_pp88_L2_V1.0_veridical_freeview_isoFalse_fps144.mp4"
"","","","call-function","86","795645","0.0-86.0","7kvjppom","","","","","",""
"4613.525000000023","{""pre-1"":1}","[0]","survey-likert","87","800260","0.0-87.0","7kvjppom","","","","","",""
"1433.890000000014","{""pre-2"":0}","[0]","survey-likert","88","801695","0.0-88.0","7kvjppom","","","","","",""
"2980.1500000000233","{""pre-3"":1}","[0]","survey-likert","89","804676","0.0-89.0","7kvjppom","","","","","",""
"1885.579999999958","{""post-5"":3}","[0]","survey-likert","90","806562","0.0-90.0","7kvjppom","","","","","",""
"","","","call-function","91","806563","0.0-91.0","7kvjppom","","","","","",""
"null","","","video-keyboard-response","92","809641","0.0-92.0","7kvjppom","","","","null","Agent A","STIM_SET_1_REAL/1159855.bmp_pp99_L2_V1.0_veridical_freeview_isoFalse_fps144.mp4"
"","","","call-function","93","809641","0.0-93.0","7kvjppom","","","","","",""
"3593.215000000084","{""pre-1"":1}","[0]","survey-likert","94","813236","0.0-94.0","7kvjppom","","","","","",""
"1740.4599999999627","{""pre-2"":1}","[0]","survey-likert","95","814978","0.0-95.0","7kvjppom","","","","","",""
"1431.4250000000466","{""pre-3"":1}","[0]","survey-likert","96","816411","0.0-96.0","7kvjppom","","","","","",""
"1970.7900000000373","{""post-5"":3}","[0]","survey-likert","97","818383","0.0-97.0","7kvjppom","","","","","",""
"","","","call-function","98","818384","0.0-98.0","7kvjppom","","","","","",""
"null","","","video-keyboard-response","99","821460","0.0-99.0","7kvjppom","","","","null","Agent A","STIM_SET_1_REAL/713620.bmp_pp65_L3_V1.0_scrambled_freeview_isoFalse_fps144.mp4"
"","","","call-function","100","821461","0.0-100.0","7kvjppom","","","","","",""
"2431.07500000007","{""pre-1"":1}","[0]","survey-likert","101","823893","0.0-101.0","7kvjppom","","","","","",""
"1602.140000000014","{""pre-2"":0}","[0]","survey-likert","102","825496","0.0-102.0","7kvjppom","","","","","",""
"3637.7550000000047","{""pre-3"":1}","[0]","survey-likert","103","829135","0.0-103.0","7kvjppom","","","","","",""
"1752.420000000042","{""post-5"":3}","[0]","survey-likert","104","830889","0.0-104.0","7kvjppom","","","","","",""
"","","","call-function","105","830889","0.0-105.0","7kvjppom","","","","","",""
"null","","","video-keyboard-response","106","833963","0.0-106.0","7kvjppom","","","","null","Agent A","STIM_SET_1_REAL/713371.bmp_pp68_L1_V1.0_scrambled_freeview_isoFalse_fps144.mp4"
"","","","call-function","107","833963","0.0-107.0","7kvjppom","","","","","",""
"1920.5500000000466","{""pre-1"":1}","[0]","survey-likert","108","835885","0.0-108.0","7kvjppom","","","","","",""
"2043.2600000000093","{""pre-2"":2}","[0]","survey-likert","109","837929","0.0-109.0","7kvjppom","","","","","",""
"3478.314999999944","{""pre-3"":1}","[0]","survey-likert","110","841408","0.0-110.0","7kvjppom","","","","","",""
"1303.7249999999767","{""post-5"":3}","[0]","survey-likert","111","842713","0.0-111.0","7kvjppom","","","","","",""
"","","","call-function","112","842713","0.0-112.0","7kvjppom","","","","","",""
"null","","","video-keyboard-response","113","845777","0.0-113.0","7kvjppom","","","","null","Agent A","STIM_SET_1_REAL/1159446.bmp_pp60_L3_V1.0_scrambled_freeview_isoFalse_fps144.mp4"
"","","","call-function","114","845777","0.0-114.0","7kvjppom","","","","","",""
"2871.6049999999814","{""pre-1"":1}","[0]","survey-likert","115","848650","0.0-115.0","7kvjppom","","","","","",""
"1533.9150000000373","{""pre-2"":1}","[0]","survey-likert","116","850184","0.0-116.0","7kvjppom","","","","","",""
"2412.2399999999907","{""pre-3"":1}","[0]","survey-likert","117","852598","0.0-117.0","7kvjppom","","","","","",""
"1359.7600000000093","{""post-5"":3}","[0]","survey-likert","118","853958","0.0-118.0","7kvjppom","","","","","",""
"","","","call-function","119","853959","0.0-119.0","7kvjppom","","","","","",""
"null","","","video-keyboard-response","120","857037","0.0-120.0","7kvjppom","","","","null","Agent A","STIM_SET_1_REAL/1591876.bmp_pp63_L1_V1.0_veridical_freeview_isoFalse_fps144.mp4"
"","","","call-function","121","857038","0.0-121.0","7kvjppom","","","","","",""
"1846.219999999972","{""pre-1"":1}","[0]","survey-likert","122","858886","0.0-122.0","7kvjppom","","","","","",""
"3772.8349999999627","{""pre-2"":1}","[0]","survey-likert","123","862660","0.0-123.0","7kvjppom","","","","","",""
"1821.295000000042","{""pre-3"":1}","[0]","survey-likert","124","864482","0.0-124.0","7kvjppom","","","","","",""
"3518.8249999999534","{""post-5"":2}","[0]","survey-likert","125","868002","0.0-125.0","7kvjppom","","","","","",""
"","","","call-function","126","868003","0.0-126.0","7kvjppom","","","","","",""
"null","","","video-keyboard-response","127","871085","0.0-127.0","7kvjppom","","","","null","Agent A","STIM_SET_1_REAL/1593041.bmp_pp58_L1_V1.0_veridical_freeview_isoFalse_fps144.mp4"
"","","","call-function","128","871085","0.0-128.0","7kvjppom","","","","","",""
"2281.4649999999674","{""pre-1"":1}","[0]","survey-likert","129","873367","0.0-129.0","7kvjppom","","","","","",""
"2492.7750000000233","{""pre-2"":1}","[0]","survey-likert","130","875861","0.0-130.0","7kvjppom","","","","","",""
"976.140000000014","{""pre-3"":1}","[0]","survey-likert","131","876839","0.0-131.0","7kvjppom","","","","","",""
"1643.25","{""post-5"":3}","[0]","survey-likert","132","878483","0.0-132.0","7kvjppom","","","","","",""
"","","","call-function","133","878483","0.0-133.0","7kvjppom","","","","","",""
"null","","","video-keyboard-response","134","881554","0.0-134.0","7kvjppom","","","","null","Agent A","STIM_SET_1_REAL/1592934.bmp_pp63_L1_V1.0_scrambled_freeview_isoFalse_fps144.mp4"
"","","","call-function","135","881555","0.0-135.0","7kvjppom","","","","","",""
"1549.530000000028","{""pre-1"":1}","[0]","survey-likert","136","883105","0.0-136.0","7kvjppom","","","","","",""
"1440.390000000014","{""pre-2"":0}","[0]","survey-likert","137","884548","0.0-137.0","7kvjppom","","","","","",""
"1255.0499999999302","{""pre-3"":1}","[0]","survey-likert","138","885804","0.0-138.0","7kvjppom","","","","","",""
"1530.2900000000373","{""post-5"":3}","[0]","survey-likert","139","887335","0.0-139.0","7kvjppom","","","","","",""
"","","","call-function","140","887335","0.0-140.0","7kvjppom","","","","","",""
"null","","","video-keyboard-response","141","890414","0.0-141.0","7kvjppom","","","","null","Agent A","STIM_SET_1_REAL/713707.bmp_pp154_L1_V1.0_veridical_freeview_isoFalse_fps144.mp4"
"","","","call-function","142","890414","0.0-142.0","7kvjppom","","","","","",""
"1637.875","{""pre-1"":1}","[0]","survey-likert","143","892053","0.0-143.0","7kvjppom","","","","","",""
"1292.5400000000373","{""pre-2"":0}","[0]","survey-likert","144","893347","0.0-144.0","7kvjppom","","","","","",""
"1923.9450000000652","{""pre-3"":1}","[0]","survey-likert","145","895272","0.0-145.0","7kvjppom","","","","","",""
"1418.9899999999907","{""post-5"":3}","[0]","survey-likert","146","896692","0.0-146.0","7kvjppom","","","","","",""
"","","","call-function","147","896692","0.0-147.0","7kvjppom","","","","","",""
"null","","","video-keyboard-response","148","899785","0.0-148.0","7kvjppom","","","","null","Agent A","STIM_SET_1_REAL/1159882.bmp_pp61_L2_V1.0_veridical_freeview_isoFalse_fps144.mp4"
"","","","call-function","149","899785","0.0-149.0","7kvjppom","","","","","",""
"2264.6149999999907","{""pre-1"":1}","[0]","survey-likert","150","902051","0.0-150.0","7kvjppom","","","","","",""
"1094.8149999999441","{""pre-2"":1}","[0]","survey-likert","151","903148","0.0-151.0","7kvjppom","","","","","",""
"869.7299999999814","{""pre-3"":1}","[0]","survey-likert","152","904019","0.0-152.0","7kvjppom","","","","","",""
"2701.4499999999534","{""post-5"":3}","[0]","survey-likert","153","906722","0.0-153.0","7kvjppom","","","","","",""
"","","","call-function","154","906722","0.0-154.0","7kvjppom","","","","","",""
"null","","","video-keyboard-response","155","909791","0.0-155.0","7kvjppom","","","","null","Agent A","STIM_SET_1_REAL/713135.bmp_pp54_L2_V1.0_veridical_freeview_isoFalse_fps144.mp4"
"","","","call-function","156","909792","0.0-156.0","7kvjppom","","","","","",""
"1792.4150000000373","{""pre-1"":1}","[0]","survey-likert","157","911585","0.0-157.0","7kvjppom","","","","","",""
"1984.3549999999814","{""pre-2"":0}","[0]","survey-likert","158","913570","0.0-158.0","7kvjppom","","","","","",""
"2699.780000000028","{""pre-3"":1}","[0]","survey-likert","159","916272","0.0-159.0","7kvjppom","","","","","",""
"1354.344999999972","{""post-5"":3}","[0]","survey-likert","160","917627","0.0-160.0","7kvjppom","","","","","",""
"1829.6800000000512","","","instructions","161","919458","0.0-161.0","7kvjppom","[{""page_index"":0,""viewing_time"":1038.1500000000233},{""page_index"":1,""viewing_time"":449.41500000003725},{""page_index"":2,""viewing_time"":341.9449999999488}]","","","","",""
"534.7700000000186","","","instructions","162","919993","0.0-162.0","7kvjppom","[{""page_index"":0,""viewing_time"":190.75},{""page_index"":1,""viewing_time"":180.95999999996275},{""page_index"":2,""viewing_time"":162.95000000006985}]","","","","",""
"","","","call-function","163","919993","0.0-163.0","7kvjppom","","","","","",""
"null","","","video-keyboard-response","164","923068","0.0-164.0","7kvjppom","","","","null","Agent A","STIM_SET_1_REAL/498155.bmp_pp61_L2_V1.0_scrambled_freeview_isoFalse_fps144.mp4"
"","","","call-function","165","923069","0.0-165.0","7kvjppom","","","","","",""
"2065.085000000079","{""pre-1"":1}","[0]","survey-likert","166","925135","0.0-166.0","7kvjppom","","","","","",""
"2065.8649999999907","{""pre-2"":0}","[0]","survey-likert","167","927202","0.0-167.0","7kvjppom","","","","","",""
"1534.1499999999069","{""pre-3"":1}","[0]","survey-likert","168","928737","0.0-168.0","7kvjppom","","","","","",""
"1252.4399999999441","{""post-5"":3}","[0]","survey-likert","169","929990","0.0-169.0","7kvjppom","","","","","",""
"","","","call-function","170","929991","0.0-170.0","7kvjppom","","","","","",""
"null","","","video-keyboard-response","171","933050","0.0-171.0","7kvjppom","","","","null","Agent A","STIM_SET_1_REAL/1593035.bmp_pp94_L2_V1.0_scrambled_freeview_isoFalse_fps144.mp4"
"","","","call-function","172","933050","0.0-172.0","7kvjppom","","","","","",""
"4042.7099999999627","{""pre-1"":0}","[0]","survey-likert","173","937094","0.0-173.0","7kvjppom","","","","","",""
"1574.1800000000512","{""pre-2"":0}","[0]","survey-likert","174","938669","0.0-174.0","7kvjppom","","","","","",""
"4647.765000000014","{""pre-3"":1}","[0]","survey-likert","175","943318","0.0-175.0","7kvjppom","","","","","",""
"1389.2849999999162","{""post-5"":3}","[0]","survey-likert","176","944708","0.0-176.0","7kvjppom","","","","","",""
"","","","call-function","177","944708","0.0-177.0","7kvjppom","","","","","",""
"null","","","video-keyboard-response","178","947801","0.0-178.0","7kvjppom","","","","null","Agent A","STIM_SET_1_REAL/1159813.bmp_pp79_L2_V1.0_veridical_freeview_isoFalse_fps144.mp4"
"","","","call-function","179","947801","0.0-179.0","7kvjppom","","","","","",""
"3134.2750000000233","{""pre-1"":1}","[0]","survey-likert","180","950936","0.0-180.0","7kvjppom","","","","","",""
"2494.390000000014","{""pre-2"":1}","[0]","survey-likert","181","953432","0.0-181.0","7kvjppom","","","","","",""
"1670.4899999999907","{""pre-3"":1}","[0]","survey-likert","182","955105","0.0-182.0","7kvjppom","","","","","",""
"1859.1350000000093","{""post-5"":3}","[0]","survey-likert","183","956966","0.0-183.0","7kvjppom","","","","","",""
"","","","call-function","184","956967","0.0-184.0","7kvjppom","","","","","",""
"null","","","video-keyboard-response","185","960044","0.0-185.0","7kvjppom","","","","null","Agent A","STIM_SET_1_REAL/713666.bmp_pp97_L3_V1.0_scrambled_freeview_isoFalse_fps144.mp4"
"","","","call-function","186","960044","0.0-186.0","7kvjppom","","","","","",""
"1554.170000000042","{""pre-1"":1}","[0]","survey-likert","187","961599","0.0-187.0","7kvjppom","","","","","",""
"1740.890000000014","{""pre-2"":1}","[0]","survey-likert","188","963342","0.0-188.0","7kvjppom","","","","","",""
"1048.3699999999953","{""pre-3"":1}","[0]","survey-likert","189","964391","0.0-189.0","7kvjppom","","","","","",""
"3531.694999999949","{""post-5"":3}","[0]","survey-likert","190","967924","0.0-190.0","7kvjppom","","","","","",""
"","","","call-function","191","967924","0.0-191.0","7kvjppom","","","","","",""
"null","","","video-keyboard-response","192","971001","0.0-192.0","7kvjppom","","","","null","Agent A","STIM_SET_1_REAL/712977.bmp_pp51_L1_V1.0_veridical_freeview_isoFalse_fps144.mp4"
"","","","call-function","193","971002","0.0-193.0","7kvjppom","","","","","",""
"1534.2399999999907","{""pre-1"":1}","[0]","survey-likert","194","972537","0.0-194.0","7kvjppom","","","","","",""
"1782.3649999999907","{""pre-2"":1}","[0]","survey-likert","195","974320","0.0-195.0","7kvjppom","","","","","",""
"1174.5700000000652","{""pre-3"":1}","[0]","survey-likert","196","975496","0.0-196.0","7kvjppom","","","","","",""
"2710.9000000000233","{""post-5"":3}","[0]","survey-likert","197","978208","0.0-197.0","7kvjppom","","","","","",""
"","","","call-function","198","978208","0.0-198.0","7kvjppom","","","","","",""
"null","","","video-keyboard-response","199","981287","0.0-199.0","7kvjppom","","","","null","Agent A","STIM_SET_1_REAL/1592807.bmp_pp68_L1_V1.0_veridical_freeview_isoFalse_fps144.mp4"
"","","","call-function","200","981288","0.0-200.0","7kvjppom","","","","","",""
"2259.210000000079","{""pre-1"":1}","[0]","survey-likert","201","983548","0.0-201.0","7kvjppom","","","","","",""
"2126.289999999921","{""pre-2"":2}","[0]","survey-likert","202","985675","0.0-202.0","7kvjppom","","","","","",""
"3747.030000000028","{""pre-3"":2}","[0]","survey-likert","203","989423","0.0-203.0","7kvjppom","","","","","",""
"1291.7050000000745","{""post-5"":3}","[0]","survey-likert","204","990717","0.0-204.0","7kvjppom","","","","","",""
"","","","call-function","205","990717","0.0-205.0","7kvjppom","","","","","",""
"null","","","video-keyboard-response","206","993779","0.0-206.0","7kvjppom","","","","null","Agent A","STIM_SET_1_REAL/1159621.bmp_pp92_L3_V1.0_veridical_freeview_isoFalse_fps144.mp4"
"","","","call-function","207","993779","0.0-207.0","7kvjppom","","","","","",""
"1986.6749999999302","{""pre-1"":1}","[0]","survey-likert","208","995767","0.0-208.0","7kvjppom","","","","","",""
"2053.390000000014","{""pre-2"":0}","[0]","survey-likert","209","997821","0.0-209.0","7kvjppom","","","","","",""
"1508.905000000028","{""pre-3"":1}","[0]","survey-likert","210","999331","0.0-210.0","7kvjppom","","","","","",""
"1054.9399999999441","{""post-5"":3}","[0]","survey-likert","211","1000387","0.0-211.0","7kvjppom","","","","","",""
"","","","call-function","212","1000388","0.0-212.0","7kvjppom","","","","","",""
"null","","","video-keyboard-response","213","1003484","0.0-213.0","7kvjppom","","","","null","Agent A","STIM_SET_1_REAL/1592397.bmp_pp85_L3_V1.0_veridical_freeview_isoFalse_fps144.mp4"
"","","","call-function","214","1003485","0.0-214.0","7kvjppom","","","","","",""
"1559.3399999999674","{""pre-1"":1}","[0]","survey-likert","215","1005045","0.0-215.0","7kvjppom","","","","","",""
"1112.515000000014","{""pre-2"":2}","[0]","survey-likert","216","1006160","0.0-216.0","7kvjppom","","","","","",""
"1694.8100000000559","{""pre-3"":2}","[0]","survey-likert","217","1007856","0.0-217.0","7kvjppom","","","","","",""
"1296.7749999999069","{""post-5"":3}","[0]","survey-likert","218","1009154","0.0-218.0","7kvjppom","","","","","",""
"","","","call-function","219","1009155","0.0-219.0","7kvjppom","","","","","",""
"null","","","video-keyboard-response","220","1012218","0.0-220.0","7kvjppom","","","","null","Agent A","STIM_SET_1_REAL/498149.bmp_pp99_L2_V1.0_scrambled_freeview_isoFalse_fps144.mp4"
"","","","call-function","221","1012219","0.0-221.0","7kvjppom","","","","","",""
"2967.8699999999953","{""pre-1"":1}","[0]","survey-likert","222","1015188","0.0-222.0","7kvjppom","","","","","",""
"1278.3950000000186","{""pre-2"":0}","[0]","survey-likert","223","1016468","0.0-223.0","7kvjppom","","","","","",""
"2151.390000000014","{""pre-3"":1}","[0]","survey-likert","224","1018620","0.0-224.0","7kvjppom","","","","","",""
"2130.0400000000373","{""post-5"":3}","[0]","survey-likert","225","1020751","0.0-225.0","7kvjppom","","","","","",""
"","","","call-function","226","1020752","0.0-226.0","7kvjppom","","","","","",""
"null","","","video-keyboard-response","227","1023825","0.0-227.0","7kvjppom","","","","null","Agent A","STIM_SET_1_REAL/713593.bmp_pp64_L1_V1.0_scrambled_freeview_isoFalse_fps144.mp4"
"","","","call-function","228","1023826","0.0-228.0","7kvjppom","","","","","",""
"1631.625","{""pre-1"":1}","[0]","survey-likert","229","1025458","0.0-229.0","7kvjppom","","","","","",""
"2110.7449999999953","{""pre-2"":0}","[0]","survey-likert","230","1027570","0.0-230.0","7kvjppom","","","","","",""
"2390.79999999993","{""pre-3"":1}","[0]","survey-likert","231","1029962","0.0-231.0","7kvjppom","","","","","",""
"1247.6350000000093","{""post-5"":3}","[0]","survey-likert","232","1031211","0.0-232.0","7kvjppom","","","","","",""
"","","","call-function","233","1031211","0.0-233.0","7kvjppom","","","","","",""
"null","","","video-keyboard-response","234","1034273","0.0-234.0","7kvjppom","","","","null","Agent A","STIM_SET_1_REAL/1159572.bmp_pp71_L1_V1.0_veridical_freeview_isoFalse_fps144.mp4"
"","","","call-function","235","1034273","0.0-235.0","7kvjppom","","","","","",""
"2353.445000000065","{""pre-1"":1}","[0]","survey-likert","236","1036628","0.0-236.0","7kvjppom","","","","","",""
"1543.094999999972","{""pre-2"":0}","[0]","survey-likert","237","1038172","0.0-237.0","7kvjppom","","","","","",""
"1106.6899999999441","{""pre-3"":1}","[0]","survey-likert","238","1039280","0.0-238.0","7kvjppom","","","","","",""
"1665.984999999986","{""post-5"":3}","[0]","survey-likert","239","1040947","0.0-239.0","7kvjppom","","","","","",""
"","","","call-function","240","1040948","0.0-240.0","7kvjppom","","","","","",""
"null","","","video-keyboard-response","241","1044021","0.0-241.0","7kvjppom","","","","null","Agent A","STIM_SET_1_REAL/1592804.bmp_pp91_L3_V1.0_scrambled_freeview_isoFalse_fps144.mp4"
"","","","call-function","242","1044021","0.0-242.0","7kvjppom","","","","","",""
"2977.8850000000093","{""pre-1"":1}","[0]","survey-likert","243","1047001","0.0-243.0","7kvjppom","","","","","",""
"1430.7000000000698","{""pre-2"":0}","[0]","survey-likert","244","1048434","0.0-244.0","7kvjppom","","","","","",""
"2989.1299999998882","{""pre-3"":0}","[0]","survey-likert","245","1051424","0.0-245.0","7kvjppom","","","","","",""
"1909.5700000000652","{""post-5"":3}","[0]","survey-likert","246","1053336","0.0-246.0","7kvjppom","","","","","",""
"","","","call-function","247","1053336","0.0-247.0","7kvjppom","","","","","",""
"null","","","video-keyboard-response","248","1056414","0.0-248.0","7kvjppom","","","","null","Agent A","STIM_SET_1_REAL/713760.bmp_pp81_L1_V1.0_scrambled_freeview_isoFalse_fps144.mp4"
"","","","call-function","249","1056414","0.0-249.0","7kvjppom","","","","","",""
"2325.1099999998696","{""pre-1"":1}","[0]","survey-likert","250","1058740","0.0-250.0","7kvjppom","","","","","",""
"1715.9150000000373","{""pre-2"":0}","[0]","survey-likert","251","1060457","0.0-251.0","7kvjppom","","","","","",""
"1852.7600000000093","{""pre-3"":1}","[0]","survey-likert","252","1062311","0.0-252.0","7kvjppom","","","","","",""
"1595.1000000000931","{""post-5"":3}","[0]","survey-likert","253","1063908","0.0-253.0","7kvjppom","","","","","",""
"","","","call-function","254","1063908","0.0-254.0","7kvjppom","","","","","",""
"null","","","video-keyboard-response","255","1066970","0.0-255.0","7kvjppom","","","","null","Agent A","STIM_SET_1_REAL/497950.bmp_pp151_L1_V1.0_veridical_freeview_isoFalse_fps144.mp4"
"","","","call-function","256","1066971","0.0-256.0","7kvjppom","","","","","",""
"2134.7949999999255","{""pre-1"":1}","[0]","survey-likert","257","1069106","0.0-257.0","7kvjppom","","","","","",""
"1792.7900000000373","{""pre-2"":0}","[0]","survey-likert","258","1070900","0.0-258.0","7kvjppom","","","","","",""
"1309.0600000000559","{""pre-3"":1}","[0]","survey-likert","259","1072210","0.0-259.0","7kvjppom","","","","","",""
"1713.7600000000093","{""post-5"":3}","[0]","survey-likert","260","1073925","0.0-260.0","7kvjppom","","","","","",""
"","","","call-function","261","1073926","0.0-261.0","7kvjppom","","","","","",""
"null","","","video-keyboard-response","262","1077001","0.0-262.0","7kvjppom","","","","null","Agent A","STIM_SET_1_REAL/713666.bmp_pp97_L3_V1.0_veridical_freeview_isoFalse_fps144.mp4"
"","","","call-function","263","1077002","0.0-263.0","7kvjppom","","","","","",""
"1574.1350000000093","{""pre-1"":1}","[0]","survey-likert","264","1078577","0.0-264.0","7kvjppom","","","","","",""
"1517.5149999998976","{""pre-2"":1}","[0]","survey-likert","265","1080095","0.0-265.0","7kvjppom","","","","","",""
"3336.1350000000093","{""pre-3"":1}","[0]","survey-likert","266","1083433","0.0-266.0","7kvjppom","","","","","",""
"1167.4799999999814","{""post-5"":3}","[0]","survey-likert","267","1084601","0.0-267.0","7kvjppom","","","","","",""
"","","","call-function","268","1084602","0.0-268.0","7kvjppom","","","","","",""
"null","","","video-keyboard-response","269","1087671","0.0-269.0","7kvjppom","","","","null","Agent A","STIM_SET_1_REAL/1592499.bmp_pp96_L2_V1.0_scrambled_freeview_isoFalse_fps144.mp4"
"","","","call-function","270","1087671","0.0-270.0","7kvjppom","","","","","",""
"1650.280000000028","{""pre-1"":1}","[0]","survey-likert","271","1089322","0.0-271.0","7kvjppom","","","","","",""
"1721.3400000000838","{""pre-2"":1}","[0]","survey-likert","272","1091045","0.0-272.0","7kvjppom","","","","","",""
"1630.4499999999534","{""pre-3"":1}","[0]","survey-likert","273","1092679","0.0-273.0","7kvjppom","","","","","",""
"1648.5","{""post-5"":3}","[0]","survey-likert","274","1094329","0.0-274.0","7kvjppom","","","","","",""
"","","","call-function","275","1094330","0.0-275.0","7kvjppom","","","","","",""
"null","","","video-keyboard-response","276","1097388","0.0-276.0","7kvjppom","","","","null","Agent A","STIM_SET_1_REAL/498149.bmp_pp99_L2_V1.0_veridical_freeview_isoFalse_fps144.mp4"
"","","","call-function","277","1097388","0.0-277.0","7kvjppom","","","","","",""
"2225.1099999998696","{""pre-1"":1}","[0]","survey-likert","278","1099614","0.0-278.0","7kvjppom","","","","","",""
"1037.6000000000931","{""pre-2"":2}","[0]","survey-likert","279","1100653","0.0-279.0","7kvjppom","","","","","",""
"1742.2950000001583","{""pre-3"":1}","[0]","survey-likert","280","1102396","0.0-280.0","7kvjppom","","","","","",""
"1680.875","{""post-5"":3}","[0]","survey-likert","281","1104078","0.0-281.0","7kvjppom","","","","","",""
"","","","call-function","282","1104079","0.0-282.0","7kvjppom","","","","","",""
"null","","","video-keyboard-response","283","1107148","0.0-283.0","7kvjppom","","","","null","Agent A","STIM_SET_1_REAL/1592397.bmp_pp85_L3_V1.0_scrambled_freeview_isoFalse_fps144.mp4"
"","","","call-function","284","1107149","0.0-284.0","7kvjppom","","","","","",""
"1650.8500000000931","{""pre-1"":1}","[0]","survey-likert","285","1108801","0.0-285.0","7kvjppom","","","","","",""
"1120.1599999999162","{""pre-2"":2}","[0]","survey-likert","286","1109922","0.0-286.0","7kvjppom","","","","","",""
"1260.2349999998696","{""pre-3"":1}","[0]","survey-likert","287","1111183","0.0-287.0","7kvjppom","","","","","",""
"1314.7649999998976","{""post-5"":3}","[0]","survey-likert","288","1112499","0.0-288.0","7kvjppom","","","","","",""
"","","","call-function","289","1112499","0.0-289.0","7kvjppom","","","","","",""
"null","","","video-keyboard-response","290","1115576","0.0-290.0","7kvjppom","","","","null","Agent A","STIM_SET_1_REAL/1591954.bmp_pp62_L2_V1.0_veridical_freeview_isoFalse_fps144.mp4"
"","","","call-function","291","1115577","0.0-291.0","7kvjppom","","","","","",""
"3825.8700000001118","{""pre-1"":1}","[0]","survey-likert","292","1119405","0.0-292.0","7kvjppom","","","","","",""
"936.8649999999907","{""pre-2"":1}","[0]","survey-likert","293","1120342","0.0-293.0","7kvjppom","","","","","",""
"2554.8549999999814","{""pre-3"":1}","[0]","survey-likert","294","1122898","0.0-294.0","7kvjppom","","","","","",""
"1313.1049999999814","{""post-5"":3}","[0]","survey-likert","295","1124213","0.0-295.0","7kvjppom","","","","","",""
"","","","call-function","296","1124213","0.0-296.0","7kvjppom","","","","","",""
"null","","","video-keyboard-response","297","1127282","0.0-297.0","7kvjppom","","","","null","Agent A","STIM_SET_1_REAL/713017.bmp_pp152_L2_V1.0_scrambled_freeview_isoFalse_fps144.mp4"
"","","","call-function","298","1127282","0.0-298.0","7kvjppom","","","","","",""
"1653.8149999999441","{""pre-1"":1}","[0]","survey-likert","299","1128937","0.0-299.0","7kvjppom","","","","","",""
"1175.535000000149","{""pre-2"":2}","[0]","survey-likert","300","1130114","0.0-300.0","7kvjppom","","","","","",""
"2682.5200000000186","{""pre-3"":2}","[0]","survey-likert","301","1132797","0.0-301.0","7kvjppom","","","","","",""
"2847.2350000001024","{""post-5"":3}","[0]","survey-likert","302","1135645","0.0-302.0","7kvjppom","","","","","",""
"1900.0800000000745","","","instructions","303","1137546","0.0-303.0","7kvjppom","[{""page_index"":0,""viewing_time"":879.8950000000186},{""page_index"":1,""viewing_time"":571.1550000000279},{""page_index"":2,""viewing_time"":448.84499999997206}]","","","","",""
"55952.695000000065","","","instructions","304","1193500","0.0-304.0","7kvjppom","[{""page_index"":0,""viewing_time"":419.5200000000186},{""page_index"":1,""viewing_time"":389.3400000000838},{""page_index"":2,""viewing_time"":55143.28000000003}]","","","","",""
"","","","call-function","305","1193501","0.0-305.0","7kvjppom","","","","","",""
"null","","","video-keyboard-response","306","1196564","0.0-306.0","7kvjppom","","","","null","Agent A","STIM_SET_1_REAL/1592619.bmp_pp56_L3_V1.0_veridical_freeview_isoFalse_fps144.mp4"
"","","","call-function","307","1196564","0.0-307.0","7kvjppom","","","","","",""
"2053.774999999907","{""pre-1"":1}","[0]","survey-likert","308","1198619","0.0-308.0","7kvjppom","","","","","",""
"893.5050000001211","{""pre-2"":2}","[0]","survey-likert","309","1199514","0.0-309.0","7kvjppom","","","","","",""
"896.8700000001118","{""pre-3"":2}","[0]","survey-likert","310","1200412","0.0-310.0","7kvjppom","","","","","",""
"1466.910000000149","{""post-5"":3}","[0]","survey-likert","311","1201880","0.0-311.0","7kvjppom","","","","","",""
"","","","call-function","312","1201881","0.0-312.0","7kvjppom","","","","","",""
"null","","","video-keyboard-response","313","1204956","0.0-313.0","7kvjppom","","","","null","Agent A","STIM_SET_1_REAL/1592372.bmp_pp76_L1_V1.0_scrambled_freeview_isoFalse_fps144.mp4"
"","","","call-function","314","1204957","0.0-314.0","7kvjppom","","","","","",""
"1895.369999999879","{""pre-1"":1}","[0]","survey-likert","315","1206854","0.0-315.0","7kvjppom","","","","","",""
"3592.625","{""pre-2"":0}","[0]","survey-likert","316","1210447","0.0-316.0","7kvjppom","","","","","",""
"1396.8199999998324","{""pre-3"":1}","[0]","survey-likert","317","1211845","0.0-317.0","7kvjppom","","","","","",""
"1409.9350000000559","{""post-5"":3}","[0]","survey-likert","318","1213256","0.0-318.0","7kvjppom","","","","","",""
"","","","call-function","319","1213257","0.0-319.0","7kvjppom","","","","","",""
"null","","","video-keyboard-response","320","1216331","0.0-320.0","7kvjppom","","","","null","Agent A","STIM_SET_1_REAL/1159675.bmp_pp77_L3_V1.0_scrambled_freeview_isoFalse_fps144.mp4"
"","","","call-function","321","1216331","0.0-321.0","7kvjppom","","","","","",""
"2238.2349999998696","{""pre-1"":1}","[0]","survey-likert","322","1218570","0.0-322.0","7kvjppom","","","","","",""
"1301.219999999972","{""pre-2"":2}","[0]","survey-likert","323","1219872","0.0-323.0","7kvjppom","","","","","",""
"1319.4750000000931","{""pre-3"":1}","[0]","survey-likert","324","1221193","0.0-324.0","7kvjppom","","","","","",""
"1591.2900000000373","{""post-5"":3}","[0]","survey-likert","325","1222785","0.0-325.0","7kvjppom","","","","","",""
"","","","call-function","326","1222786","0.0-326.0","7kvjppom","","","","","",""
"null","","","video-keyboard-response","327","1225863","0.0-327.0","7kvjppom","","","","null","Agent A","STIM_SET_1_REAL/713749.bmp_pp88_L2_V1.0_veridical_freeview_isoFalse_fps144.mp4"
"","","","call-function","328","1225864","0.0-328.0","7kvjppom","","","","","",""
"1616.844999999972","{""pre-1"":1}","[0]","survey-likert","329","1227481","0.0-329.0","7kvjppom","","","","","",""
"1642.845000000205","{""pre-2"":0}","[0]","survey-likert","330","1229125","0.0-330.0","7kvjppom","","","","","",""
"1681.0700000000652","{""pre-3"":1}","[0]","survey-likert","331","1230808","0.0-331.0","7kvjppom","","","","","",""
"1539.8049999999348","{""post-5"":3}","[0]","survey-likert","332","1232348","0.0-332.0","7kvjppom","","","","","",""
"","","","call-function","333","1232349","0.0-333.0","7kvjppom","","","","","",""
"null","","","video-keyboard-response","334","1235454","0.0-334.0","7kvjppom","","","","null","Agent A","STIM_SET_1_REAL/1592657.bmp_pp98_L1_V1.0_scrambled_freeview_isoFalse_fps144.mp4"
"","","","call-function","335","1235454","0.0-335.0","7kvjppom","","","","","",""
"1796.2649999998976","{""pre-1"":1}","[0]","survey-likert","336","1237252","0.0-336.0","7kvjppom","","","","","",""
"1177.4250000000466","{""pre-2"":1}","[0]","survey-likert","337","1238431","0.0-337.0","7kvjppom","","","","","",""
"1141.3600000001024","{""pre-3"":1}","[0]","survey-likert","338","1239573","0.0-338.0","7kvjppom","","","","","",""
"3560.7700000000186","{""post-5"":3}","[0]","survey-likert","339","1243136","0.0-339.0","7kvjppom","","","","","",""
"","","","call-function","340","1243138","0.0-340.0","7kvjppom","","","","","",""
"null","","","video-keyboard-response","341","1246246","0.0-341.0","7kvjppom","","","","null","Agent A","STIM_SET_1_REAL/1592807.bmp_pp68_L1_V1.0_scrambled_freeview_isoFalse_fps144.mp4"
"","","","call-function","342","1246247","0.0-342.0","7kvjppom","","","","","",""
"1737.8149999999441","{""pre-1"":1}","[0]","survey-likert","343","1247986","0.0-343.0","7kvjppom","","","","","",""
"1512.4149999998044","{""pre-2"":1}","[0]","survey-likert","344","1249500","0.0-344.0","7kvjppom","","","","","",""
"1486.8999999999069","{""pre-3"":1}","[0]","survey-likert","345","1250988","0.0-345.0","7kvjppom","","","","","",""
"1209.4549999998417","{""post-5"":3}","[0]","survey-likert","346","1252199","0.0-346.0","7kvjppom","","","","","",""
"","","","call-function","347","1252199","0.0-347.0","7kvjppom","","","","","",""
"null","","","video-keyboard-response","348","1255273","0.0-348.0","7kvjppom","","","","null","Agent A","STIM_SET_1_REAL/285751.bmp_pp55_L3_V1.0_scrambled_freeview_isoFalse_fps144.mp4"
"","","","call-function","349","1255274","0.0-349.0","7kvjppom","","","","","",""
"1690.6599999999162","{""pre-1"":1}","[0]","survey-likert","350","1256966","0.0-350.0","7kvjppom","","","","","",""
"1575.5749999999534","{""pre-2"":0}","[0]","survey-likert","351","1258543","0.0-351.0","7kvjppom","","","","","",""
"1046.9650000000838","{""pre-3"":1}","[0]","survey-likert","352","1259591","0.0-352.0","7kvjppom","","","","","",""
"2313.8899999998976","{""post-5"":3}","[0]","survey-likert","353","1261906","0.0-353.0","7kvjppom","","","","","",""
"","","","call-function","354","1261906","0.0-354.0","7kvjppom","","","","","",""
"null","","","video-keyboard-response","355","1264980","0.0-355.0","7kvjppom","","","","null","Agent A","STIM_SET_1_REAL/498155.bmp_pp61_L2_V1.0_veridical_freeview_isoFalse_fps144.mp4"
"","","","call-function","356","1264981","0.0-356.0","7kvjppom","","","","","",""
"2636.659999999916","{""pre-1"":1}","[0]","survey-likert","357","1267618","0.0-357.0","7kvjppom","","","","","",""
"1149.8100000000559","{""pre-2"":2}","[0]","survey-likert","358","1268769","0.0-358.0","7kvjppom","","","","","",""
"1057.4499999999534","{""pre-3"":1}","[0]","survey-likert","359","1269829","0.0-359.0","7kvjppom","","","","","",""
"1319.4950000001118","{""post-5"":3}","[0]","survey-likert","360","1271149","0.0-360.0","7kvjppom","","","","","",""
"","","","call-function","361","1271150","0.0-361.0","7kvjppom","","","","","",""
"null","","","video-keyboard-response","362","1274224","0.0-362.0","7kvjppom","","","","null","Agent A","STIM_SET_1_REAL/1159777.bmp_pp77_L3_V1.0_veridical_freeview_isoFalse_fps144.mp4"
"","","","call-function","363","1274224","0.0-363.0","7kvjppom","","","","","",""
"3172.7000000001863","{""pre-1"":1}","[0]","survey-likert","364","1277398","0.0-364.0","7kvjppom","","","","","",""
"2042.0649999999441","{""pre-2"":1}","[0]","survey-likert","365","1279441","0.0-365.0","7kvjppom","","","","","",""
"1003.5749999999534","{""pre-3"":1}","[0]","survey-likert","366","1280446","0.0-366.0","7kvjppom","","","","","",""
"1431.9150000000373","{""post-5"":3}","[0]","survey-likert","367","1281879","0.0-367.0","7kvjppom","","","","","",""
"","","","call-function","368","1281879","0.0-368.0","7kvjppom","","","","","",""
"null","","","video-keyboard-response","369","1284957","0.0-369.0","7kvjppom","","","","null","Agent A","STIM_SET_1_REAL/713760.bmp_pp81_L1_V1.0_veridical_freeview_isoFalse_fps144.mp4"
"","","","call-function","370","1284957","0.0-370.0","7kvjppom","","","","","",""
"1760.8600000001024","{""pre-1"":1}","[0]","survey-likert","371","1286719","0.0-371.0","7kvjppom","","","","","",""
"1279.5049999998882","{""pre-2"":2}","[0]","survey-likert","372","1288000","0.0-372.0","7kvjppom","","","","","",""
"1710.844999999972","{""pre-3"":1}","[0]","survey-likert","373","1289712","0.0-373.0","7kvjppom","","","","","",""
"1826.0649999999441","{""post-5"":3}","[0]","survey-likert","374","1291539","0.0-374.0","7kvjppom","","","","","",""
"","","","call-function","375","1291539","0.0-375.0","7kvjppom","","","","","",""
"null","","","video-keyboard-response","376","1294640","0.0-376.0","7kvjppom","","","","null","Agent A","STIM_SET_1_REAL/285905.bmp_pp57_L1_V1.0_scrambled_freeview_isoFalse_fps144.mp4"
"","","","call-function","377","1294641","0.0-377.0","7kvjppom","","","","","",""
"1629.6799999999348","{""pre-1"":1}","[0]","survey-likert","378","1296272","0.0-378.0","7kvjppom","","","","","",""
"1415.1049999999814","{""pre-2"":0}","[0]","survey-likert","379","1297689","0.0-379.0","7kvjppom","","","","","",""
"1459.3500000000931","{""pre-3"":1}","[0]","survey-likert","380","1299150","0.0-380.0","7kvjppom","","","","","",""
"1110.6699999999255","{""post-5"":3}","[0]","survey-likert","381","1300262","0.0-381.0","7kvjppom","","","","","",""
"","","","call-function","382","1300263","0.0-382.0","7kvjppom","","","","","",""
"null","","","video-keyboard-response","383","1303324","0.0-383.0","7kvjppom","","","","null","Agent A","STIM_SET_1_REAL/285994.bmp_pp92_L3_V1.0_scrambled_freeview_isoFalse_fps144.mp4"
"","","","call-function","384","1303325","0.0-384.0","7kvjppom","","","","","",""
"1829.5550000001676","{""pre-1"":1}","[0]","survey-likert","385","1305155","0.0-385.0","7kvjppom","","","","","",""
"2082.1500000001397","{""pre-2"":2}","[0]","survey-likert","386","1307239","0.0-386.0","7kvjppom","","","","","",""
"1641.7849999999162","{""pre-3"":1}","[0]","survey-likert","387","1308882","0.0-387.0","7kvjppom","","","","","",""
"1672.4350000000559","{""post-5"":3}","[0]","survey-likert","388","1310555","0.0-388.0","7kvjppom","","","","","",""
"","","","call-function","389","1310556","0.0-389.0","7kvjppom","","","","","",""
"null","","","video-keyboard-response","390","1313630","0.0-390.0","7kvjppom","","","","null","Agent A","STIM_SET_1_REAL/1159855.bmp_pp99_L2_V1.0_scrambled_freeview_isoFalse_fps144.mp4"
"","","","call-function","391","1313631","0.0-391.0","7kvjppom","","","","","",""
"1706.2399999999907","{""pre-1"":1}","[0]","survey-likert","392","1315338","0.0-392.0","7kvjppom","","","","","",""
"3467.8350000001956","{""pre-2"":0}","[0]","survey-likert","393","1318807","0.0-393.0","7kvjppom","","","","","",""
"3133.5799999998417","{""pre-3"":1}","[0]","survey-likert","394","1321941","0.0-394.0","7kvjppom","","","","","",""
"2244.3649999999907","{""post-5"":3}","[0]","survey-likert","395","1324187","0.0-395.0","7kvjppom","","","","","",""
"","","","call-function","396","1324187","0.0-396.0","7kvjppom","","","","","",""
"null","","","video-keyboard-response","397","1327256","0.0-397.0","7kvjppom","","","","null","Agent A","STIM_SET_1_REAL/1591961.bmp_pp67_L2_V1.0_veridical_freeview_isoFalse_fps144.mp4"
"","","","call-function","398","1327256","0.0-398.0","7kvjppom","","","","","",""
"2342.1650000000373","{""pre-1"":1}","[0]","survey-likert","399","1329599","0.0-399.0","7kvjppom","","","","","",""
"2374.3549999999814","{""pre-2"":2}","[0]","survey-likert","400","1331975","0.0-400.0","7kvjppom","","","","","",""
"1510.0500000000466","{""pre-3"":1}","[0]","survey-likert","401","1333486","0.0-401.0","7kvjppom","","","","","",""
"1590.6699999999255","{""post-5"":3}","[0]","survey-likert","402","1335078","0.0-402.0","7kvjppom","","","","","",""
"","","","call-function","403","1335078","0.0-403.0","7kvjppom","","","","","",""
"null","","","video-keyboard-response","404","1338150","0.0-404.0","7kvjppom","","","","null","Agent A","STIM_SET_1_REAL/1592934.bmp_pp63_L1_V1.0_veridical_freeview_isoFalse_fps144.mp4"
"","","","call-function","405","1338150","0.0-405.0","7kvjppom","","","","","",""
"3136.969999999972","{""pre-1"":1}","[0]","survey-likert","406","1341289","0.0-406.0","7kvjppom","","","","","",""
"3008.375","{""pre-2"":2}","[0]","survey-likert","407","1344299","0.0-407.0","7kvjppom","","","","","",""
"1386.0150000001304","{""pre-3"":1}","[0]","survey-likert","408","1345687","0.0-408.0","7kvjppom","","","","","",""
"1114.0149999998976","{""post-5"":3}","[0]","survey-likert","409","1346803","0.0-409.0","7kvjppom","","","","","",""
"","","","call-function","410","1346803","0.0-410.0","7kvjppom","","","","","",""
"null","","","video-keyboard-response","411","1349865","0.0-411.0","7kvjppom","","","","null","Agent A","STIM_SET_1_REAL/713779.bmp_pp152_L2_V1.0_veridical_freeview_isoFalse_fps144.mp4"
"","","","call-function","412","1349866","0.0-412.0","7kvjppom","","","","","",""
"1894.094999999972","{""pre-1"":1}","[0]","survey-likert","413","1351761","0.0-413.0","7kvjppom","","","","","",""
"1194.744999999879","{""pre-2"":2}","[0]","survey-likert","414","1352957","0.0-414.0","7kvjppom","","","","","",""
"1243.0799999998417","{""pre-3"":1}","[0]","survey-likert","415","1354201","0.0-415.0","7kvjppom","","","","","",""
"1354.8250000001863","{""post-5"":3}","[0]","survey-likert","416","1355557","0.0-416.0","7kvjppom","","","","","",""
"","","","call-function","417","1355558","0.0-417.0","7kvjppom","","","","","",""
"null","","","video-keyboard-response","418","1358625","0.0-418.0","7kvjppom","","","","null","Agent A","STIM_SET_1_REAL/713796.bmp_pp84_L3_V1.0_scrambled_freeview_isoFalse_fps144.mp4"
"","","","call-function","419","1358625","0.0-419.0","7kvjppom","","","","","",""
"4962.235000000102","{""pre-1"":0}","[0]","survey-likert","420","1363589","0.0-420.0","7kvjppom","","","","","",""
"1696.880000000121","{""pre-2"":0}","[0]","survey-likert","421","1365287","0.0-421.0","7kvjppom","","","","","",""
"1538.4299999999348","{""pre-3"":1}","[0]","survey-likert","422","1366826","0.0-422.0","7kvjppom","","","","","",""
"1786.6350000000093","{""post-5"":3}","[0]","survey-likert","423","1368614","0.0-423.0","7kvjppom","","","","","",""
"","","","call-function","424","1368614","0.0-424.0","7kvjppom","","","","","",""
"null","","","video-keyboard-response","425","1371686","0.0-425.0","7kvjppom","","","","null","Agent A","STIM_SET_1_REAL/1159784.bmp_pp73_L3_V1.0_scrambled_freeview_isoFalse_fps144.mp4"
"","","","call-function","426","1371686","0.0-426.0","7kvjppom","","","","","",""
"2253.0149999998976","{""pre-1"":0}","[0]","survey-likert","427","1373940","0.0-427.0","7kvjppom","","","","","",""
"1311","{""pre-2"":0}","[0]","survey-likert","428","1375252","0.0-428.0","7kvjppom","","","","","",""
"1294.0800000000745","{""pre-3"":1}","[0]","survey-likert","429","1376547","0.0-429.0","7kvjppom","","","","","",""
"1266.2099999999627","{""post-5"":3}","[0]","survey-likert","430","1377815","0.0-430.0","7kvjppom","","","","","",""
"","","","call-function","431","1377815","0.0-431.0","7kvjppom","","","","","",""
"null","","","video-keyboard-response","432","1380878","0.0-432.0","7kvjppom","","","","null","Agent A","STIM_SET_1_REAL/286001.bmp_pp54_L2_V1.0_veridical_freeview_isoFalse_fps144.mp4"
"","","","call-function","433","1380878","0.0-433.0","7kvjppom","","","","","",""
"3818.405000000028","{""pre-1"":0}","[0]","survey-likert","434","1384698","0.0-434.0","7kvjppom","","","","","",""
"1508.0900000000838","{""pre-2"":0}","[0]","survey-likert","435","1386207","0.0-435.0","7kvjppom","","","","","",""
"5754.014999999898","{""pre-3"":0}","[0]","survey-likert","436","1391962","0.0-436.0","7kvjppom","","","","","",""
"1608.3900000001304","{""post-5"":3}","[0]","survey-likert","437","1393572","0.0-437.0","7kvjppom","","","","","",""
"","","","call-function","438","1393572","0.0-438.0","7kvjppom","","","","","",""
"null","","","video-keyboard-response","439","1396661","0.0-439.0","7kvjppom","","","","null","Agent A","STIM_SET_1_REAL/1593035.bmp_pp94_L2_V1.0_veridical_freeview_isoFalse_fps144.mp4"
"","","","call-function","440","1396662","0.0-440.0","7kvjppom","","","","","",""
"1977.880000000121","{""pre-1"":1}","[0]","survey-likert","441","1398641","0.0-441.0","7kvjppom","","","","","",""
"1616.2249999998603","{""pre-2"":0}","[0]","survey-likert","442","1400259","0.0-442.0","7kvjppom","","","","","",""
"1972.594999999972","{""pre-3"":2}","[0]","survey-likert","443","1402233","0.0-443.0","7kvjppom","","","","","",""
"2115.4599999999627","{""post-5"":3}","[0]","survey-likert","444","1404349","0.0-444.0","7kvjppom","","","","","",""
"1242.969999999972","","","instructions","445","1405593","0.0-445.0","7kvjppom","[{""page_index"":0,""viewing_time"":892.6299999998882},{""page_index"":1,""viewing_time"":201.27000000001863},{""page_index"":2,""viewing_time"":148.8850000000093}]","","","","",""
"468.5649999999441","","","instructions","446","1406062","0.0-446.0","7kvjppom","[{""page_index"":0,""viewing_time"":146.45499999984168},{""page_index"":1,""viewing_time"":154.0800000000745},{""page_index"":2,""viewing_time"":167.9199999999255}]","","","","",""
"","","","call-function","447","1406062","0.0-447.0","7kvjppom","","","","","",""
"null","","","video-keyboard-response","448","1409139","0.0-448.0","7kvjppom","","","","null","Agent A","STIM_SET_1_REAL/1159784.bmp_pp73_L3_V1.0_veridical_freeview_isoFalse_fps144.mp4"
"","","","call-function","449","1409140","0.0-449.0","7kvjppom","","","","","",""
"1806.2399999999907","{""pre-1"":1}","[0]","survey-likert","450","1410948","0.0-450.0","7kvjppom","","","","","",""
"1608.4599999999627","{""pre-2"":0}","[0]","survey-likert","451","1412557","0.0-451.0","7kvjppom","","","","","",""
"1458.3200000000652","{""pre-3"":2}","[0]","survey-likert","452","1414016","0.0-452.0","7kvjppom","","","","","",""
"1147.875","{""post-5"":3}","[0]","survey-likert","453","1415165","0.0-453.0","7kvjppom","","","","","",""
"","","","call-function","454","1415166","0.0-454.0","7kvjppom","","","","","",""
"null","","","video-keyboard-response","455","1418234","0.0-455.0","7kvjppom","","","","null","Agent A","STIM_SET_1_REAL/1592727.bmp_pp59_L3_V1.0_veridical_freeview_isoFalse_fps144.mp4"
"","","","call-function","456","1418235","0.0-456.0","7kvjppom","","","","","",""
"1569.1449999997858","{""pre-1"":1}","[0]","survey-likert","457","1419805","0.0-457.0","7kvjppom","","","","","",""
"2124.8950000000186","{""pre-2"":0}","[0]","survey-likert","458","1421931","0.0-458.0","7kvjppom","","","","","",""
"1629.3200000000652","{""pre-3"":2}","[0]","survey-likert","459","1423561","0.0-459.0","7kvjppom","","","","","",""
"2631.310000000056","{""post-5"":3}","[0]","survey-likert","460","1426194","0.0-460.0","7kvjppom","","","","","",""
"","","","call-function","461","1426194","0.0-461.0","7kvjppom","","","","","",""
"null","","","video-keyboard-response","462","1429260","0.0-462.0","7kvjppom","","","","null","Agent A","STIM_SET_1_REAL/713513.bmp_pp62_L2_V1.0_scrambled_freeview_isoFalse_fps144.mp4"
"","","","call-function","463","1429261","0.0-463.0","7kvjppom","","","","","",""
"3859.655000000028","{""pre-1"":0}","[0]","survey-likert","464","1433121","0.0-464.0","7kvjppom","","","","","",""
"2735.375","{""pre-2"":0}","[0]","survey-likert","465","1435858","0.0-465.0","7kvjppom","","","","","",""
"1810.0349999999162","{""pre-3"":2}","[0]","survey-likert","466","1437669","0.0-466.0","7kvjppom","","","","","",""
"1957.25","{""post-5"":3}","[0]","survey-likert","467","1439627","0.0-467.0","7kvjppom","","","","","",""
"","","","call-function","468","1439628","0.0-468.0","7kvjppom","","","","","",""
"null","","","video-keyboard-response","469","1442713","0.0-469.0","7kvjppom","","","","null","Agent A","STIM_SET_1_REAL/1593041.bmp_pp58_L1_V1.0_scrambled_freeview_isoFalse_fps144.mp4"
"","","","call-function","470","1442714","0.0-470.0","7kvjppom","","","","","",""
"1477.5249999999069","{""pre-1"":1}","[0]","survey-likert","471","1444193","0.0-471.0","7kvjppom","","","","","",""
"2201.5","{""pre-2"":0}","[0]","survey-likert","472","1446396","0.0-472.0","7kvjppom","","","","","",""
"1466.9800000002142","{""pre-3"":1}","[0]","survey-likert","473","1447865","0.0-473.0","7kvjppom","","","","","",""
"2335.2600000000093","{""post-5"":3}","[0]","survey-likert","474","1450202","0.0-474.0","7kvjppom","","","","","",""
"","","","call-function","475","1450204","0.0-475.0","7kvjppom","","","","","",""
"null","","","video-keyboard-response","476","1453277","0.0-476.0","7kvjppom","","","","null","Agent A","STIM_SET_1_REAL/713620.bmp_pp65_L3_V1.0_veridical_freeview_isoFalse_fps144.mp4"
"","","","call-function","477","1453278","0.0-477.0","7kvjppom","","","","","",""
"2130.159999999916","{""pre-1"":1}","[0]","survey-likert","478","1455409","0.0-478.0","7kvjppom","","","","","",""
"1868.3049999999348","{""pre-2"":0}","[0]","survey-likert","479","1457279","0.0-479.0","7kvjppom","","","","","",""
"1937.2000000001863","{""pre-3"":1}","[0]","survey-likert","480","1459217","0.0-480.0","7kvjppom","","","","","",""
"2217.3349999999627","{""post-5"":3}","[0]","survey-likert","481","1461436","0.0-481.0","7kvjppom","","","","","",""
"","","","call-function","482","1461436","0.0-482.0","7kvjppom","","","","","",""
"null","","","video-keyboard-response","483","1464503","0.0-483.0","7kvjppom","","","","null","Agent A","STIM_SET_1_REAL/1592727.bmp_pp59_L3_V1.0_scrambled_freeview_isoFalse_fps144.mp4"
"","","","call-function","484","1464503","0.0-484.0","7kvjppom","","","","","",""
"2835.4550000000745","{""pre-1"":0}","[0]","survey-likert","485","1467340","0.0-485.0","7kvjppom","","","","","",""
"1694.7749999999069","{""pre-2"":0}","[0]","survey-likert","486","1469036","0.0-486.0","7kvjppom","","","","","",""
"2297.7299999999814","{""pre-3"":0}","[0]","survey-likert","487","1471335","0.0-487.0","7kvjppom","","","","","",""
"2175.350000000093","{""post-5"":3}","[0]","survey-likert","488","1473511","0.0-488.0","7kvjppom","","","","","",""
"","","","call-function","489","1473512","0.0-489.0","7kvjppom","","","","","",""
"null","","","video-keyboard-response","490","1476572","0.0-490.0","7kvjppom","","","","null","Agent A","STIM_SET_1_REAL/1592133.bmp_pp75_L1_V1.0_veridical_freeview_isoFalse_fps144.mp4"
"","","","call-function","491","1476573","0.0-491.0","7kvjppom","","","","","",""
"1728.3700000001118","{""pre-1"":0}","[0]","survey-likert","492","1478302","0.0-492.0","7kvjppom","","","","","",""
"2449.195000000065","{""pre-2"":0}","[0]","survey-likert","493","1480752","0.0-493.0","7kvjppom","","","","","",""
"2762.940000000177","{""pre-3"":2}","[0]","survey-likert","494","1483516","0.0-494.0","7kvjppom","","","","","",""
"1738.8049999999348","{""post-5"":3}","[0]","survey-likert","495","1485256","0.0-495.0","7kvjppom","","","","","",""
"","","","call-function","496","1485257","0.0-496.0","7kvjppom","","","","","",""
"null","","","video-keyboard-response","497","1488332","0.0-497.0","7kvjppom","","","","null","Agent A","STIM_SET_1_REAL/1159777.bmp_pp77_L3_V1.0_scrambled_freeview_isoFalse_fps144.mp4"
"","","","call-function","498","1488333","0.0-498.0","7kvjppom","","","","","",""
"1900.0749999999534","{""pre-1"":1}","[0]","survey-likert","499","1490234","0.0-499.0","7kvjppom","","","","","",""
"1763.9200000001583","{""pre-2"":0}","[0]","survey-likert","500","1491999","0.0-500.0","7kvjppom","","","","","",""
"1169.375","{""pre-3"":1}","[0]","survey-likert","501","1493169","0.0-501.0","7kvjppom","","","","","",""
"1561.255000000121","{""post-5"":3}","[0]","survey-likert","502","1494732","0.0-502.0","7kvjppom","","","","","",""
"","","","call-function","503","1494733","0.0-503.0","7kvjppom","","","","","",""
"null","","","video-keyboard-response","504","1497831","0.0-504.0","7kvjppom","","","","null","Agent A","STIM_SET_1_REAL/1592133.bmp_pp75_L1_V1.0_scrambled_freeview_isoFalse_fps144.mp4"
"","","","call-function","505","1497831","0.0-505.0","7kvjppom","","","","","",""
"1743.7750000001397","{""pre-1"":1}","[0]","survey-likert","506","1499576","0.0-506.0","7kvjppom","","","","","",""
"1430.494999999879","{""pre-2"":1}","[0]","survey-likert","507","1501008","0.0-507.0","7kvjppom","","","","","",""
"1370.0449999999255","{""pre-3"":1}","[0]","survey-likert","508","1502379","0.0-508.0","7kvjppom","","","","","",""
"2321.4899999999907","{""post-5"":3}","[0]","survey-likert","509","1504702","0.0-509.0","7kvjppom","","","","","",""
"","","","call-function","510","1504702","0.0-510.0","7kvjppom","","","","","",""
"null","","","video-keyboard-response","511","1507770","0.0-511.0","7kvjppom","","","","null","Agent A","STIM_SET_1_REAL/713681.bmp_pp86_L2_V1.0_scrambled_freeview_isoFalse_fps144.mp4"
"","","","call-function","512","1507771","0.0-512.0","7kvjppom","","","","","",""
"4006.060000000056","{""pre-1"":0}","[0]","survey-likert","513","1511778","0.0-513.0","7kvjppom","","","","","",""
"1914.1499999999069","{""pre-2"":0}","[0]","survey-likert","514","1513693","0.0-514.0","7kvjppom","","","","","",""
"2567.155000000028","{""pre-3"":0}","[0]","survey-likert","515","1516261","0.0-515.0","7kvjppom","","","","","",""
"2050.350000000093","{""post-5"":3}","[0]","survey-likert","516","1518313","0.0-516.0","7kvjppom","","","","","",""
"","","","call-function","517","1518313","0.0-517.0","7kvjppom","","","","","",""
"null","","","video-keyboard-response","518","1521388","0.0-518.0","7kvjppom","","","","null","Agent A","STIM_SET_1_REAL/1160127.bmp_pp90_L2_V1.0_veridical_freeview_isoFalse_fps144.mp4"
"","","","call-function","519","1521388","0.0-519.0","7kvjppom","","","","","",""
"1801.2849999999162","{""pre-1"":1}","[0]","survey-likert","520","1523191","0.0-520.0","7kvjppom","","","","","",""
"2985.75","{""pre-2"":2}","[0]","survey-likert","521","1526177","0.0-521.0","7kvjppom","","","","","",""
"3216.1200000001118","{""pre-3"":2}","[0]","survey-likert","522","1529395","0.0-522.0","7kvjppom","","","","","",""
"1839.2350000001024","{""post-5"":2}","[0]","survey-likert","523","1531235","0.0-523.0","7kvjppom","","","","","",""
"","","","call-function","524","1531235","0.0-524.0","7kvjppom","","","","","",""
"null","","","video-keyboard-response","525","1534311","0.0-525.0","7kvjppom","","","","null","Agent A","STIM_SET_1_REAL/1593146.bmp_pp93_L1_V1.0_scrambled_freeview_isoFalse_fps144.mp4"
"","","","call-function","526","1534312","0.0-526.0","7kvjppom","","","","","",""
"2041.3649999999907","{""pre-1"":2}","[0]","survey-likert","527","1536354","0.0-527.0","7kvjppom","","","","","",""
"2311.2399999999907","{""pre-2"":2}","[0]","survey-likert","528","1538667","0.0-528.0","7kvjppom","","","","","",""
"1286.1949999998324","{""pre-3"":2}","[0]","survey-likert","529","1539956","0.0-529.0","7kvjppom","","","","","",""
"1337.7399999999907","{""post-5"":2}","[0]","survey-likert","530","1541295","0.0-530.0","7kvjppom","","","","","",""
"","","","call-function","531","1541296","0.0-531.0","7kvjppom","","","","","",""
"null","","","video-keyboard-response","532","1544360","0.0-532.0","7kvjppom","","","","null","Agent A","STIM_SET_1_REAL/1159447.bmp_pp70_L2_V1.0_scrambled_freeview_isoFalse_fps144.mp4"
"","","","call-function","533","1544361","0.0-533.0","7kvjppom","","","","","",""
"1730.559999999823","{""pre-1"":1}","[0]","survey-likert","534","1546093","0.0-534.0","7kvjppom","","","","","",""
"2041.719999999972","{""pre-2"":0}","[0]","survey-likert","535","1548136","0.0-535.0","7kvjppom","","","","","",""
"3436.5850000001956","{""pre-3"":2}","[0]","survey-likert","536","1551573","0.0-536.0","7kvjppom","","","","","",""
"1833.5749999999534","{""post-5"":3}","[0]","survey-likert","537","1553408","0.0-537.0","7kvjppom","","","","","",""
"","","","call-function","538","1553409","0.0-538.0","7kvjppom","","","","","",""
"null","","","video-keyboard-response","539","1556485","0.0-539.0","7kvjppom","","","","null","Agent A","STIM_SET_1_REAL/713371.bmp_pp68_L1_V1.0_veridical_freeview_isoFalse_fps144.mp4"
"","","","call-function","540","1556486","0.0-540.0","7kvjppom","","","","","",""
"11282.564999999944","{""pre-1"":1}","[0]","survey-likert","541","1567769","0.0-541.0","7kvjppom","","","","","",""
"2267.939999999944","{""pre-2"":1}","[0]","survey-likert","542","1570038","0.0-542.0","7kvjppom","","","","","",""
"1502.8850000000093","{""pre-3"":1}","[0]","survey-likert","543","1571543","0.0-543.0","7kvjppom","","","","","",""
"1447.6299999998882","{""post-5"":3}","[0]","survey-likert","544","1572991","0.0-544.0","7kvjppom","","","","","",""
"","","","call-function","545","1572992","0.0-545.0","7kvjppom","","","","","",""
"null","","","video-keyboard-response","546","1576066","0.0-546.0","7kvjppom","","","","null","Agent A","STIM_SET_1_REAL/1159675.bmp_pp77_L3_V1.0_veridical_freeview_isoFalse_fps144.mp4"
"","","","call-function","547","1576066","0.0-547.0","7kvjppom","","","","","",""
"1484.5499999998137","{""pre-1"":1}","[0]","survey-likert","548","1577552","0.0-548.0","7kvjppom","","","","","",""
"1325.8100000000559","{""pre-2"":1}","[0]","survey-likert","549","1578879","0.0-549.0","7kvjppom","","","","","",""
"1625.7299999999814","{""pre-3"":0}","[0]","survey-likert","550","1580506","0.0-550.0","7kvjppom","","","","","",""
"1350.9299999999348","{""post-5"":3}","[0]","survey-likert","551","1581858","0.0-551.0","7kvjppom","","","","","",""
"","","","call-function","552","1581859","0.0-552.0","7kvjppom","","","","","",""
"null","","","video-keyboard-response","553","1584936","0.0-553.0","7kvjppom","","","","null","Agent A","STIM_SET_1_REAL/712977.bmp_pp51_L1_V1.0_scrambled_freeview_isoFalse_fps144.mp4"
"","","","call-function","554","1584936","0.0-554.0","7kvjppom","","","","","",""
"3503.3499999998603","{""pre-1"":2}","[0]","survey-likert","555","1588440","0.0-555.0","7kvjppom","","","","","",""
"1826.625","{""pre-2"":2}","[0]","survey-likert","556","1590268","0.0-556.0","7kvjppom","","","","","",""
"1683.7700000000186","{""pre-3"":0}","[0]","survey-likert","557","1591953","0.0-557.0","7kvjppom","","","","","",""
"3954.094999999972","{""post-5"":1}","[0]","survey-likert","558","1595909","0.0-558.0","7kvjppom","","","","","",""
"","","","call-function","559","1595910","0.0-559.0","7kvjppom","","","","","",""
"null","","","video-keyboard-response","560","1599010","0.0-560.0","7kvjppom","","","","null","Agent A","STIM_SET_1_REAL/285933.bmp_pp81_L1_V1.0_scrambled_freeview_isoFalse_fps144.mp4"
"","","","call-function","561","1599010","0.0-561.0","7kvjppom","","","","","",""
"3395.314999999944","{""pre-1"":0}","[0]","survey-likert","562","1602407","0.0-562.0","7kvjppom","","","","","",""
"3460.25","{""pre-2"":0}","[0]","survey-likert","563","1605868","0.0-563.0","7kvjppom","","","","","",""
"3513.8649999999907","{""pre-3"":1}","[0]","survey-likert","564","1609384","0.0-564.0","7kvjppom","","","","","",""
"1708.5600000000559","{""post-5"":3}","[0]","survey-likert","565","1611093","0.0-565.0","7kvjppom","","","","","",""
"","","","call-function","566","1611094","0.0-566.0","7kvjppom","","","","","",""
"null","","","video-keyboard-response","567","1614165","0.0-567.0","7kvjppom","","","","null","Agent A","STIM_SET_1_REAL/713135.bmp_pp54_L2_V1.0_scrambled_freeview_isoFalse_fps144.mp4"
"","","","call-function","568","1614165","0.0-568.0","7kvjppom","","","","","",""
"1912.8700000001118","{""pre-1"":1}","[0]","survey-likert","569","1616079","0.0-569.0","7kvjppom","","","","","",""
"1287.6799999999348","{""pre-2"":1}","[0]","survey-likert","570","1617368","0.0-570.0","7kvjppom","","","","","",""
"2529.7650000001304","{""pre-3"":0}","[0]","survey-likert","571","1619899","0.0-571.0","7kvjppom","","","","","",""
"1744.4950000001118","{""post-5"":3}","[0]","survey-likert","572","1621645","0.0-572.0","7kvjppom","","","","","",""
"","","","call-function","573","1621645","0.0-573.0","7kvjppom","","","","","",""
"null","","","video-keyboard-response","574","1624715","0.0-574.0","7kvjppom","","","","null","Agent A","STIM_SET_1_REAL/1160168.bmp_pp53_L2_V1.0_veridical_freeview_isoFalse_fps144.mp4"
"","","","call-function","575","1624715","0.0-575.0","7kvjppom","","","","","",""
"1741.8149999999441","{""pre-1"":1}","[0]","survey-likert","576","1626458","0.0-576.0","7kvjppom","","","","","",""
"2319.439999999944","{""pre-2"":1}","[0]","survey-likert","577","1628779","0.0-577.0","7kvjppom","","","","","",""
"1685.4000000001397","{""pre-3"":0}","[0]","survey-likert","578","1630465","0.0-578.0","7kvjppom","","","","","",""
"1710.8049999999348","{""post-5"":3}","[0]","survey-likert","579","1632177","0.0-579.0","7kvjppom","","","","","",""
"","","","call-function","580","1632178","0.0-580.0","7kvjppom","","","","","",""
"null","","","video-keyboard-response","581","1635251","0.0-581.0","7kvjppom","","","","null","Agent A","STIM_SET_1_REAL/1159440.bmp_pp98_L1_V1.0_scrambled_freeview_isoFalse_fps144.mp4"
"","","","call-function","582","1635253","0.0-582.0","7kvjppom","","","","","",""
"2768.8000000000466","{""pre-1"":1}","[0]","survey-likert","583","1638023","0.0-583.0","7kvjppom","","","","","",""
"1808.255000000121","{""pre-2"":2}","[0]","survey-likert","584","1639833","0.0-584.0","7kvjppom","","","","","",""
"1530.0399999998044","{""pre-3"":1}","[0]","survey-likert","585","1641364","0.0-585.0","7kvjppom","","","","","",""
"1424.7399999999907","{""post-5"":3}","[0]","survey-likert","586","1642790","0.0-586.0","7kvjppom","","","","","",""
"1863.5600000000559","","","instructions","587","1644654","0.0-587.0","7kvjppom","[{""page_index"":0,""viewing_time"":1523.1899999999441},{""page_index"":1,""viewing_time"":183.52000000001863},{""page_index"":2,""viewing_time"":156.60499999998137}]","","","","",""
"480.5100000000093","","","instructions","588","1645135","0.0-588.0","7kvjppom","[{""page_index"":0,""viewing_time"":150.40500000002794},{""page_index"":1,""viewing_time"":152.0449999999255},{""page_index"":2,""viewing_time"":177.9450000000652}]","","","","",""
"","","","call-function","589","1645136","0.0-589.0","7kvjppom","","","","","",""
"null","","","video-keyboard-response","590","1648199","0.0-590.0","7kvjppom","","","","null","Agent A","STIM_SET_1_REAL/713089.bmp_pp60_L3_V1.0_veridical_freeview_isoFalse_fps144.mp4"
"","","","call-function","591","1648200","0.0-591.0","7kvjppom","","","","","",""
"2442.2049999998417","{""pre-1"":1}","[0]","survey-likert","592","1650643","0.0-592.0","7kvjppom","","","","","",""
"1354.4749999998603","{""pre-2"":1}","[0]","survey-likert","593","1651999","0.0-593.0","7kvjppom","","","","","",""
"1132.4599999999627","{""pre-3"":1}","[0]","survey-likert","594","1653132","0.0-594.0","7kvjppom","","","","","",""
"2636.785000000149","{""post-5"":3}","[0]","survey-likert","595","1655770","0.0-595.0","7kvjppom","","","","","",""
"","","","call-function","596","1655771","0.0-596.0","7kvjppom","","","","","",""
"null","","","video-keyboard-response","597","1658837","0.0-597.0","7kvjppom","","","","null","Agent A","STIM_SET_1_REAL/285933.bmp_pp81_L1_V1.0_veridical_freeview_isoFalse_fps144.mp4"
"","","","call-function","598","1658837","0.0-598.0","7kvjppom","","","","","",""
"2059.3499999998603","{""pre-1"":1}","[0]","survey-likert","599","1660897","0.0-599.0","7kvjppom","","","","","",""
"1471.875","{""pre-2"":0}","[0]","survey-likert","600","1662371","0.0-600.0","7kvjppom","","","","","",""
"1703.8649999999907","{""pre-3"":2}","[0]","survey-likert","601","1664075","0.0-601.0","7kvjppom","","","","","",""
"2112.649999999907","{""post-5"":3}","[0]","survey-likert","602","1666189","0.0-602.0","7kvjppom","","","","","",""
"","","","call-function","603","1666190","0.0-603.0","7kvjppom","","","","","",""
"null","","","video-keyboard-response","604","1669259","0.0-604.0","7kvjppom","","","","null","Agent A","STIM_SET_1_REAL/1592581.bmp_pp100_L3_V1.0_veridical_freeview_isoFalse_fps144.mp4"
"","","","call-function","605","1669260","0.0-605.0","7kvjppom","","","","","",""
"3388.2349999998696","{""pre-1"":1}","[0]","survey-likert","606","1672649","0.0-606.0","7kvjppom","","","","","",""
"2565.5849999999627","{""pre-2"":0}","[0]","survey-likert","607","1675216","0.0-607.0","7kvjppom","","","","","",""
"1750.9250000000466","{""pre-3"":1}","[0]","survey-likert","608","1676970","0.0-608.0","7kvjppom","","","","","",""
"1624.0749999999534","{""post-5"":3}","[0]","survey-likert","609","1678596","0.0-609.0","7kvjppom","","","","","",""
"","","","call-function","610","1678596","0.0-610.0","7kvjppom","","","","","",""
"null","","","video-keyboard-response","611","1681665","0.0-611.0","7kvjppom","","","","null","Agent A","STIM_SET_1_REAL/1592362.bmp_pp95_L2_V1.0_scrambled_freeview_isoFalse_fps144.mp4"
"","","","call-function","612","1681665","0.0-612.0","7kvjppom","","","","","",""
"1289.5700000000652","{""pre-1"":1}","[0]","survey-likert","613","1682956","0.0-613.0","7kvjppom","","","","","",""
"1416.4800000002142","{""pre-2"":0}","[0]","survey-likert","614","1684374","0.0-614.0","7kvjppom","","","","","",""
"1374.6100000001024","{""pre-3"":1}","[0]","survey-likert","615","1685750","0.0-615.0","7kvjppom","","","","","",""
"2128.030000000028","{""post-5"":3}","[0]","survey-likert","616","1687879","0.0-616.0","7kvjppom","","","","","",""
"","","","call-function","617","1687880","0.0-617.0","7kvjppom","","","","","",""
"null","","","video-keyboard-response","618","1690943","0.0-618.0","7kvjppom","","","","null","Agent A","STIM_SET_1_REAL/1592619.bmp_pp56_L3_V1.0_scrambled_freeview_isoFalse_fps144.mp4"
"","","","call-function","619","1690943","0.0-619.0","7kvjppom","","","","","",""
"1983.809999999823","{""pre-1"":1}","[0]","survey-likert","620","1692928","0.0-620.0","7kvjppom","","","","","",""
"1431.5549999999348","{""pre-2"":0}","[0]","survey-likert","621","1694361","0.0-621.0","7kvjppom","","","","","",""
"2030.244999999879","{""pre-3"":1}","[0]","survey-likert","622","1696392","0.0-622.0","7kvjppom","","","","","",""
"1342.0600000000559","{""post-5"":3}","[0]","survey-likert","623","1697735","0.0-623.0","7kvjppom","","","","","",""
"","","","call-function","624","1697736","0.0-624.0","7kvjppom","","","","","",""
"null","","","video-keyboard-response","625","1700809","0.0-625.0","7kvjppom","","","","null","Agent A","STIM_SET_1_REAL/1591876.bmp_pp63_L1_V1.0_scrambled_freeview_isoFalse_fps144.mp4"
"","","","call-function","626","1700810","0.0-626.0","7kvjppom","","","","","",""
"1760.6949999998324","{""pre-1"":1}","[0]","survey-likert","627","1702571","0.0-627.0","7kvjppom","","","","","",""
"1057.7950000001583","{""pre-2"":0}","[0]","survey-likert","628","1703630","0.0-628.0","7kvjppom","","","","","",""
"2244.1699999999255","{""pre-3"":2}","[0]","survey-likert","629","1705875","0.0-629.0","7kvjppom","","","","","",""
"2340.7549999998882","{""post-5"":3}","[0]","survey-likert","630","1708217","0.0-630.0","7kvjppom","","","","","",""
"","","","call-function","631","1708218","0.0-631.0","7kvjppom","","","","","",""
"null","","","video-keyboard-response","632","1711278","0.0-632.0","7kvjppom","","","","null","Agent A","STIM_SET_1_REAL/713403.bmp_pp80_L3_V1.0_veridical_freeview_isoFalse_fps144.mp4"
"","","","call-function","633","1711278","0.0-633.0","7kvjppom","","","","","",""
"3088.600000000093","{""pre-1"":0}","[0]","survey-likert","634","1714368","0.0-634.0","7kvjppom","","","","","",""
"1794.5600000000559","{""pre-2"":0}","[0]","survey-likert","635","1716163","0.0-635.0","7kvjppom","","","","","",""
"2778.8549999999814","{""pre-3"":2}","[0]","survey-likert","636","1718944","0.0-636.0","7kvjppom","","","","","",""
"2178.375","{""post-5"":3}","[0]","survey-likert","637","1721123","0.0-637.0","7kvjppom","","","","","",""
"","","","call-function","638","1721125","0.0-638.0","7kvjppom","","","","","",""
"null","","","video-keyboard-response","639","1724218","0.0-639.0","7kvjppom","","","","null","Agent A","STIM_SET_1_REAL/713513.bmp_pp62_L2_V1.0_veridical_freeview_isoFalse_fps144.mp4"
"","","","call-function","640","1724218","0.0-640.0","7kvjppom","","","","","",""
"2189.505000000121","{""pre-1"":1}","[0]","survey-likert","641","1726409","0.0-641.0","7kvjppom","","","","","",""
"1436.6799999999348","{""pre-2"":1}","[0]","survey-likert","642","1727847","0.0-642.0","7kvjppom","","","","","",""
"989.5600000000559","{""pre-3"":1}","[0]","survey-likert","643","1728839","0.0-643.0","7kvjppom","","","","","",""
"1598.4500000001863","{""post-5"":3}","[0]","survey-likert","644","1730439","0.0-644.0","7kvjppom","","","","","",""
"","","","call-function","645","1730440","0.0-645.0","7kvjppom","","","","","",""
"null","","","video-keyboard-response","646","1733515","0.0-646.0","7kvjppom","","","","null","Agent A","STIM_SET_1_REAL/1160168.bmp_pp53_L2_V1.0_scrambled_freeview_isoFalse_fps144.mp4"
"","","","call-function","647","1733515","0.0-647.0","7kvjppom","","","","","",""
"2020.0349999999162","{""pre-1"":1}","[0]","survey-likert","648","1735537","0.0-648.0","7kvjppom","","","","","",""
"1716.285000000149","{""pre-2"":0}","[0]","survey-likert","649","1737254","0.0-649.0","7kvjppom","","","","","",""
"1543.1950000000652","{""pre-3"":2}","[0]","survey-likert","650","1738799","0.0-650.0","7kvjppom","","","","","",""
"1555.1350000000093","{""post-5"":3}","[0]","survey-likert","651","1740355","0.0-651.0","7kvjppom","","","","","",""
"","","","call-function","652","1740356","0.0-652.0","7kvjppom","","","","","",""
"null","","","video-keyboard-response","653","1743432","0.0-653.0","7kvjppom","","","","null","Agent A","STIM_SET_1_REAL/713684.bmp_pp85_L3_V1.0_scrambled_freeview_isoFalse_fps144.mp4"
"","","","call-function","654","1743432","0.0-654.0","7kvjppom","","","","","",""
"2761.7700000000186","{""pre-1"":1}","[0]","survey-likert","655","1746195","0.0-655.0","7kvjppom","","","","","",""
"1133.5700000000652","{""pre-2"":1}","[0]","survey-likert","656","1747329","0.0-656.0","7kvjppom","","","","","",""
"1218.8999999999069","{""pre-3"":1}","[0]","survey-likert","657","1748549","0.0-657.0","7kvjppom","","","","","",""
"1616.7600000000093","{""post-5"":3}","[0]","survey-likert","658","1750168","0.0-658.0","7kvjppom","","","","","",""
"","","","call-function","659","1750168","0.0-659.0","7kvjppom","","","","","",""
"null","","","video-keyboard-response","660","1753229","0.0-660.0","7kvjppom","","","","null","Agent A","STIM_SET_1_REAL/713779.bmp_pp152_L2_V1.0_scrambled_freeview_isoFalse_fps144.mp4"
"","","","call-function","661","1753230","0.0-661.0","7kvjppom","","","","","",""
"2533.6049999999814","{""pre-1"":1}","[0]","survey-likert","662","1755764","0.0-662.0","7kvjppom","","","","","",""
"1962","{""pre-2"":0}","[0]","survey-likert","663","1757728","0.0-663.0","7kvjppom","","","","","",""
"1169","{""pre-3"":1}","[0]","survey-likert","664","1758898","0.0-664.0","7kvjppom","","","","","",""
"2009.7600000000093","{""post-5"":3}","[0]","survey-likert","665","1760909","0.0-665.0","7kvjppom","","","","","",""
"","","","call-function","666","1760909","0.0-666.0","7kvjppom","","","","","",""
"null","","","video-keyboard-response","667","1763970","0.0-667.0","7kvjppom","","","","null","Agent A","STIM_SET_1_REAL/1159447.bmp_pp70_L2_V1.0_veridical_freeview_isoFalse_fps144.mp4"
"","","","call-function","668","1763970","0.0-668.0","7kvjppom","","","","","",""
"1602.1599999999162","{""pre-1"":1}","[0]","survey-likert","669","1765573","0.0-669.0","7kvjppom","","","","","",""
"1910.9799999999814","{""pre-2"":0}","[0]","survey-likert","670","1767486","0.0-670.0","7kvjppom","","","","","",""
"1940.6749999998137","{""pre-3"":1}","[0]","survey-likert","671","1769427","0.0-671.0","7kvjppom","","","","","",""
"1291.0100000000093","{""post-5"":3}","[0]","survey-likert","672","1770719","0.0-672.0","7kvjppom","","","","","",""
"","","","call-function","673","1770720","0.0-673.0","7kvjppom","","","","","",""
"null","","","video-keyboard-response","674","1773815","0.0-674.0","7kvjppom","","","","null","Agent A","STIM_SET_1_REAL/1159829.bmp_pp91_L3_V1.0_scrambled_freeview_isoFalse_fps144.mp4"
"","","","call-function","675","1773815","0.0-675.0","7kvjppom","","","","","",""
"1909.5349999999162","{""pre-1"":1}","[0]","survey-likert","676","1775726","0.0-676.0","7kvjppom","","","","","",""
"1502.5499999998137","{""pre-2"":1}","[0]","survey-likert","677","1777231","0.0-677.0","7kvjppom","","","","","",""
"940.7800000000279","{""pre-3"":1}","[0]","survey-likert","678","1778174","0.0-678.0","7kvjppom","","","","","",""
"1677.6149999999907","{""post-5"":3}","[0]","survey-likert","679","1779853","0.0-679.0","7kvjppom","","","","","",""
"","","","call-function","680","1779854","0.0-680.0","7kvjppom","","","","","",""
"null","","","video-keyboard-response","681","1782914","0.0-681.0","7kvjppom","","","","null","Agent A","STIM_SET_1_REAL/1592351.bmp_pp51_L1_V1.0_veridical_freeview_isoFalse_fps144.mp4"
"","","","call-function","682","1782915","0.0-682.0","7kvjppom","","","","","",""
"1577.1650000000373","{""pre-1"":1}","[0]","survey-likert","683","1784493","0.0-683.0","7kvjppom","","","","","",""
"1278.4749999998603","{""pre-2"":0}","[0]","survey-likert","684","1785773","0.0-684.0","7kvjppom","","","","","",""
"1169.3200000000652","{""pre-3"":1}","[0]","survey-likert","685","1786943","0.0-685.0","7kvjppom","","","","","",""
"2004.9150000000373","{""post-5"":3}","[0]","survey-likert","686","1788950","0.0-686.0","7kvjppom","","","","","",""
"","","","call-function","687","1788950","0.0-687.0","7kvjppom","","","","","",""
"null","","","video-keyboard-response","688","1792023","0.0-688.0","7kvjppom","","","","null","Agent A","STIM_SET_1_REAL/1591961.bmp_pp67_L2_V1.0_scrambled_freeview_isoFalse_fps144.mp4"
"","","","call-function","689","1792023","0.0-689.0","7kvjppom","","","","","",""
"1928.6999999999534","{""pre-1"":0}","[0]","survey-likert","690","1793953","0.0-690.0","7kvjppom","","","","","",""
"2638.725000000093","{""pre-2"":0}","[0]","survey-likert","691","1796594","0.0-691.0","7kvjppom","","","","","",""
"1495.6699999999255","{""pre-3"":2}","[0]","survey-likert","692","1798091","0.0-692.0","7kvjppom","","","","","",""
"3694.0999999998603","{""post-5"":3}","[0]","survey-likert","693","1801786","0.0-693.0","7kvjppom","","","","","",""
"","","","call-function","694","1801786","0.0-694.0","7kvjppom","","","","","",""
"null","","","video-keyboard-response","695","1804864","0.0-695.0","7kvjppom","","","","null","Agent A","STIM_SET_1_REAL/1591994.bmp_pp69_L3_V1.0_scrambled_freeview_isoFalse_fps144.mp4"
"","","","call-function","696","1804864","0.0-696.0","7kvjppom","","","","","",""
"1856.035000000149","{""pre-1"":1}","[0]","survey-likert","697","1806721","0.0-697.0","7kvjppom","","","","","",""
"3715.810000000056","{""pre-2"":1}","[0]","survey-likert","698","1810438","0.0-698.0","7kvjppom","","","","","",""
"1228.9550000000745","{""pre-3"":1}","[0]","survey-likert","699","1811668","0.0-699.0","7kvjppom","","","","","",""
"1249.0150000001304","{""post-5"":3}","[0]","survey-likert","700","1812919","0.0-700.0","7kvjppom","","","","","",""
"","","","call-function","701","1812919","0.0-701.0","7kvjppom","","","","","",""
"null","","","video-keyboard-response","702","1815990","0.0-702.0","7kvjppom","","","","null","Agent A","STIM_SET_1_REAL/1592581.bmp_pp100_L3_V1.0_scrambled_freeview_isoFalse_fps144.mp4"
"","","","call-function","703","1815991","0.0-703.0","7kvjppom","","","","","",""
"1468.7050000000745","{""pre-1"":1}","[0]","survey-likert","704","1817461","0.0-704.0","7kvjppom","","","","","",""
"1578.7099999999627","{""pre-2"":1}","[0]","survey-likert","705","1819040","0.0-705.0","7kvjppom","","","","","",""
"2651.8649999999907","{""pre-3"":1}","[0]","survey-likert","706","1821694","0.0-706.0","7kvjppom","","","","","",""
"1656.1499999999069","{""post-5"":3}","[0]","survey-likert","707","1823352","0.0-707.0","7kvjppom","","","","","",""
"","","","call-function","708","1823353","0.0-708.0","7kvjppom","","","","","",""
"null","","","video-keyboard-response","709","1826429","0.0-709.0","7kvjppom","","","","null","Agent A","STIM_SET_1_REAL/498111.bmp_pp88_L2_V1.0_scrambled_freeview_isoFalse_fps144.mp4"
"","","","call-function","710","1826430","0.0-710.0","7kvjppom","","","","","",""
"1811.994999999879","{""pre-1"":1}","[0]","survey-likert","711","1828243","0.0-711.0","7kvjppom","","","","","",""
"1477.2849999999162","{""pre-2"":0}","[0]","survey-likert","712","1829722","0.0-712.0","7kvjppom","","","","","",""
"1098.9749999998603","{""pre-3"":1}","[0]","survey-likert","713","1830822","0.0-713.0","7kvjppom","","","","","",""
"1424.5800000000745","{""post-5"":3}","[0]","survey-likert","714","1832248","0.0-714.0","7kvjppom","","","","","",""
"","","","call-function","715","1832248","0.0-715.0","7kvjppom","","","","","",""
"null","","","video-keyboard-response","716","1835325","0.0-716.0","7kvjppom","","","","null","Agent A","STIM_SET_1_REAL/713211.bmp_pp100_L3_V1.0_scrambled_freeview_isoFalse_fps144.mp4"
"","","","call-function","717","1835325","0.0-717.0","7kvjppom","","","","","",""
"1960.6699999999255","{""pre-1"":1}","[0]","survey-likert","718","1837287","0.0-718.0","7kvjppom","","","","","",""
"2507.215000000084","{""pre-2"":0}","[0]","survey-likert","719","1839795","0.0-719.0","7kvjppom","","","","","",""
"2248.060000000056","{""pre-3"":2}","[0]","survey-likert","720","1842045","0.0-720.0","7kvjppom","","","","","",""
"1464.7750000001397","{""post-5"":3}","[0]","survey-likert","721","1843510","0.0-721.0","7kvjppom","","","","","",""
"","","","call-function","722","1843511","0.0-722.0","7kvjppom","","","","","",""
"null","","","video-keyboard-response","723","1846585","0.0-723.0","7kvjppom","","","","null","Agent A","STIM_SET_1_REAL/498175.bmp_pp154_L1_V1.0_veridical_freeview_isoFalse_fps144.mp4"
"","","","call-function","724","1846586","0.0-724.0","7kvjppom","","","","","",""
"2123.505000000121","{""pre-1"":1}","[0]","survey-likert","725","1848710","0.0-725.0","7kvjppom","","","","","",""
"2231.3300000000745","{""pre-2"":0}","[0]","survey-likert","726","1850943","0.0-726.0","7kvjppom","","","","","",""
"2332.0550000001676","{""pre-3"":1}","[0]","survey-likert","727","1853276","0.0-727.0","7kvjppom","","","","","",""
"1992.6049999999814","{""post-5"":3}","[0]","survey-likert","728","1855270","0.0-728.0","7kvjppom","","","","","",""
"1979.3799999998882","","","instructions","729","1857250","0.0-729.0","7kvjppom","[{""page_index"":0,""viewing_time"":1670.8199999998324},{""page_index"":1,""viewing_time"":148.28000000002794},{""page_index"":2,""viewing_time"":160.10000000009313}]","","","","",""
"732.3899999998976","","","instructions","730","1857982","0.0-730.0","7kvjppom","[{""page_index"":0,""viewing_time"":150.2249999998603},{""page_index"":1,""viewing_time"":157.96500000008382},{""page_index"":2,""viewing_time"":424.0999999998603}]","","","","",""
"","","","call-function","731","1857983","0.0-731.0","7kvjppom","","","","","",""
"null","","","video-keyboard-response","732","1861059","0.0-732.0","7kvjppom","","","","null","Agent A","STIM_SET_1_REAL/1592372.bmp_pp76_L1_V1.0_veridical_freeview_isoFalse_fps144.mp4"
"","","","call-function","733","1861059","0.0-733.0","7kvjppom","","","","","",""
"2235.689999999944","{""pre-1"":1}","[0]","survey-likert","734","1863296","0.0-734.0","7kvjppom","","","","","",""
"1860.1200000001118","{""pre-2"":1}","[0]","survey-likert","735","1865158","0.0-735.0","7kvjppom","","","","","",""
"2141.560000000056","{""pre-3"":1}","[0]","survey-likert","736","1867302","0.0-736.0","7kvjppom","","","","","",""
"1669.4249999998137","{""post-5"":3}","[0]","survey-likert","737","1868973","0.0-737.0","7kvjppom","","","","","",""
"","","","call-function","738","1868974","0.0-738.0","7kvjppom","","","","","",""
"null","","","video-keyboard-response","739","1872039","0.0-739.0","7kvjppom","","","","null","Agent A","STIM_SET_1_REAL/1159572.bmp_pp71_L1_V1.0_scrambled_freeview_isoFalse_fps144.mp4"
"","","","call-function","740","1872040","0.0-740.0","7kvjppom","","","","","",""
"1642.7949999999255","{""pre-1"":1}","[0]","survey-likert","741","1873684","0.0-741.0","7kvjppom","","","","","",""
"1567.089999999851","{""pre-2"":0}","[0]","survey-likert","742","1875252","0.0-742.0","7kvjppom","","","","","",""
"2695.429999999935","{""pre-3"":1}","[0]","survey-likert","743","1877949","0.0-743.0","7kvjppom","","","","","",""
"2372.215000000084","{""post-5"":3}","[0]","survey-likert","744","1880322","0.0-744.0","7kvjppom","","","","","",""
"","","","call-function","745","1880323","0.0-745.0","7kvjppom","","","","","",""
"null","","","video-keyboard-response","746","1883386","0.0-746.0","7kvjppom","","","","null","Agent A","STIM_SET_1_REAL/285994.bmp_pp92_L3_V1.0_veridical_freeview_isoFalse_fps144.mp4"
"","","","call-function","747","1883387","0.0-747.0","7kvjppom","","","","","",""
"2639.4150000000373","{""pre-1"":1}","[0]","survey-likert","748","1886028","0.0-748.0","7kvjppom","","","","","",""
"2024.714999999851","{""pre-2"":0}","[0]","survey-likert","749","1888054","0.0-749.0","7kvjppom","","","","","",""
"1661.1800000001676","{""pre-3"":1}","[0]","survey-likert","750","1889716","0.0-750.0","7kvjppom","","","","","",""
"1064.0400000000373","{""post-5"":3}","[0]","survey-likert","751","1890781","0.0-751.0","7kvjppom","","","","","",""
"","","","call-function","752","1890782","0.0-752.0","7kvjppom","","","","","",""
"null","","","video-keyboard-response","753","1893852","0.0-753.0","7kvjppom","","","","null","Agent A","STIM_SET_1_REAL/1159515.bmp_pp84_L3_V1.0_veridical_freeview_isoFalse_fps144.mp4"
"","","","call-function","754","1893852","0.0-754.0","7kvjppom","","","","","",""
"2388.344999999972","{""pre-1"":1}","[0]","survey-likert","755","1896242","0.0-755.0","7kvjppom","","","","","",""
"1771.9099999999162","{""pre-2"":0}","[0]","survey-likert","756","1898015","0.0-756.0","7kvjppom","","","","","",""
"1948.7099999999627","{""pre-3"":0}","[0]","survey-likert","757","1899965","0.0-757.0","7kvjppom","","","","","",""
"1783.0850000001956","{""post-5"":3}","[0]","survey-likert","758","1901749","0.0-758.0","7kvjppom","","","","","",""
"","","","call-function","759","1901749","0.0-759.0","7kvjppom","","","","","",""
"null","","","video-keyboard-response","760","1904816","0.0-760.0","7kvjppom","","","","null","Agent A","STIM_SET_1_REAL/1592499.bmp_pp96_L2_V1.0_veridical_freeview_isoFalse_fps144.mp4"
"","","","call-function","761","1904817","0.0-761.0","7kvjppom","","","","","",""
"1911.3500000000931","{""pre-1"":1}","[0]","survey-likert","762","1906729","0.0-762.0","7kvjppom","","","","","",""
"2063.034999999916","{""pre-2"":0}","[0]","survey-likert","763","1908794","0.0-763.0","7kvjppom","","","","","",""
"1273.8700000001118","{""pre-3"":0}","[0]","survey-likert","764","1910069","0.0-764.0","7kvjppom","","","","","",""
"2740.5500000000466","{""post-5"":3}","[0]","survey-likert","765","1912810","0.0-765.0","7kvjppom","","","","","",""
"","","","call-function","766","1912811","0.0-766.0","7kvjppom","","","","","",""
"null","","","video-keyboard-response","767","1915907","0.0-767.0","7kvjppom","","","","null","Agent A","STIM_SET_1_REAL/1592890.bmp_pp82_L2_V1.0_veridical_freeview_isoFalse_fps144.mp4"
"","","","call-function","768","1915908","0.0-768.0","7kvjppom","","","","","",""
"2118.1399999998976","{""pre-1"":1}","[0]","survey-likert","769","1918027","0.0-769.0","7kvjppom","","","","","",""
"1340.404999999795","{""pre-2"":1}","[0]","survey-likert","770","1919370","0.0-770.0","7kvjppom","","","","","",""
"1115.1800000001676","{""pre-3"":1}","[0]","survey-likert","771","1920487","0.0-771.0","7kvjppom","","","","","",""
"2926.3899999998976","{""post-5"":3}","[0]","survey-likert","772","1923415","0.0-772.0","7kvjppom","","","","","",""
"","","","call-function","773","1923416","0.0-773.0","7kvjppom","","","","","",""
"null","","","video-keyboard-response","774","1926480","0.0-774.0","7kvjppom","","","","null","Agent A","STIM_SET_1_REAL/713089.bmp_pp60_L3_V1.0_scrambled_freeview_isoFalse_fps144.mp4"
"","","","call-function","775","1926481","0.0-775.0","7kvjppom","","","","","",""
"3461.784999999916","{""pre-1"":0}","[0]","survey-likert","776","1929944","0.0-776.0","7kvjppom","","","","","",""
"1628.8850000000093","{""pre-2"":0}","[0]","survey-likert","777","1931574","0.0-777.0","7kvjppom","","","","","",""
"3437.725000000093","{""pre-3"":2}","[0]","survey-likert","778","1935013","0.0-778.0","7kvjppom","","","","","",""
"1287.4850000001024","{""post-5"":3}","[0]","survey-likert","779","1936302","0.0-779.0","7kvjppom","","","","","",""
"","","","call-function","780","1936302","0.0-780.0","7kvjppom","","","","","",""
"null","","","video-keyboard-response","781","1939363","0.0-781.0","7kvjppom","","","","null","Agent A","STIM_SET_1_REAL/497950.bmp_pp151_L1_V1.0_scrambled_freeview_isoFalse_fps144.mp4"
"","","","call-function","782","1939363","0.0-782.0","7kvjppom","","","","","",""
"1773.6500000001397","{""pre-1"":1}","[0]","survey-likert","783","1941138","0.0-783.0","7kvjppom","","","","","",""
"2292.6700000001583","{""pre-2"":1}","[0]","survey-likert","784","1943432","0.0-784.0","7kvjppom","","","","","",""
"1657.3799999998882","{""pre-3"":1}","[0]","survey-likert","785","1945090","0.0-785.0","7kvjppom","","","","","",""
"1476.5600000000559","{""post-5"":3}","[0]","survey-likert","786","1946568","0.0-786.0","7kvjppom","","","","","",""
"","","","call-function","787","1946568","0.0-787.0","7kvjppom","","","","","",""
"null","","","video-keyboard-response","788","1949641","0.0-788.0","7kvjppom","","","","null","Agent A","STIM_SET_1_REAL/498253.bmp_pp67_L2_V1.0_scrambled_freeview_isoFalse_fps144.mp4"
"","","","call-function","789","1949641","0.0-789.0","7kvjppom","","","","","",""
"1719.3549999999814","{""pre-1"":1}","[0]","survey-likert","790","1951362","0.0-790.0","7kvjppom","","","","","",""
"1854.7900000000373","{""pre-2"":0}","[0]","survey-likert","791","1953218","0.0-791.0","7kvjppom","","","","","",""
"1113.1149999999907","{""pre-3"":1}","[0]","survey-likert","792","1954332","0.0-792.0","7kvjppom","","","","","",""
"1508.4099999999162","{""post-5"":3}","[0]","survey-likert","793","1955841","0.0-793.0","7kvjppom","","","","","",""
"","","","call-function","794","1955842","0.0-794.0","7kvjppom","","","","","",""
"null","","","video-keyboard-response","795","1958917","0.0-795.0","7kvjppom","","","","null","Agent A","STIM_SET_1_REAL/1591954.bmp_pp62_L2_V1.0_scrambled_freeview_isoFalse_fps144.mp4"
"","","","call-function","796","1958919","0.0-796.0","7kvjppom","","","","","",""
"2548.7649999998976","{""pre-1"":0}","[0]","survey-likert","797","1961469","0.0-797.0","7kvjppom","","","","","",""
"2524.475000000093","{""pre-2"":0}","[0]","survey-likert","798","1963995","0.0-798.0","7kvjppom","","","","","",""
"2162.75","{""pre-3"":2}","[0]","survey-likert","799","1966160","0.0-799.0","7kvjppom","","","","","",""
"1327.1399999998976","{""post-5"":3}","[0]","survey-likert","800","1967489","0.0-800.0","7kvjppom","","","","","",""
"","","","call-function","801","1967490","0.0-801.0","7kvjppom","","","","","",""
"null","","","video-keyboard-response","802","1970566","0.0-802.0","7kvjppom","","","","null","Agent A","STIM_SET_1_REAL/713749.bmp_pp88_L2_V1.0_scrambled_freeview_isoFalse_fps144.mp4"
"","","","call-function","803","1970567","0.0-803.0","7kvjppom","","","","","",""
"1404.0549999999348","{""pre-1"":1}","[0]","survey-likert","804","1971972","0.0-804.0","7kvjppom","","","","","",""
"2592.2099999999627","{""pre-2"":0}","[0]","survey-likert","805","1974566","0.0-805.0","7kvjppom","","","","","",""
"1623.1800000001676","{""pre-3"":1}","[0]","survey-likert","806","1976190","0.0-806.0","7kvjppom","","","","","",""
"1489.6650000000373","{""post-5"":3}","[0]","survey-likert","807","1977681","0.0-807.0","7kvjppom","","","","","",""
"","","","call-function","808","1977681","0.0-808.0","7kvjppom","","","","","",""
"null","","","video-keyboard-response","809","1980743","0.0-809.0","7kvjppom","","","","null","Agent A","STIM_SET_1_REAL/713403.bmp_pp80_L3_V1.0_scrambled_freeview_isoFalse_fps144.mp4"
"","","","call-function","810","1980744","0.0-810.0","7kvjppom","","","","","",""
"2362.060000000056","{""pre-1"":0}","[0]","survey-likert","811","1983107","0.0-811.0","7kvjppom","","","","","",""
"2295.7399999999907","{""pre-2"":0}","[0]","survey-likert","812","1985404","0.0-812.0","7kvjppom","","","","","",""
"1799.1000000000931","{""pre-3"":0}","[0]","survey-likert","813","1987204","0.0-813.0","7kvjppom","","","","","",""
"1670.9899999999907","{""post-5"":3}","[0]","survey-likert","814","1988877","0.0-814.0","7kvjppom","","","","","",""
"","","","call-function","815","1988877","0.0-815.0","7kvjppom","","","","","",""
"null","","","video-keyboard-response","816","1991947","0.0-816.0","7kvjppom","","","","null","Agent A","STIM_SET_1_REAL/1159768.bmp_pp89_L1_V1.0_scrambled_freeview_isoFalse_fps144.mp4"
"","","","call-function","817","1991947","0.0-817.0","7kvjppom","","","","","",""
"2207.7700000000186","{""pre-1"":0}","[0]","survey-likert","818","1994156","0.0-818.0","7kvjppom","","","","","",""
"1788.7549999998882","{""pre-2"":0}","[0]","survey-likert","819","1995946","0.0-819.0","7kvjppom","","","","","",""
"1591.6200000001118","{""pre-3"":2}","[0]","survey-likert","820","1997539","0.0-820.0","7kvjppom","","","","","",""
"2412.3249999999534","{""post-5"":3}","[0]","survey-likert","821","1999952","0.0-821.0","7kvjppom","","","","","",""
"","","","call-function","822","1999952","0.0-822.0","7kvjppom","","","","","",""
"null","","","video-keyboard-response","823","2003024","0.0-823.0","7kvjppom","","","","null","Agent A","STIM_SET_1_REAL/1159440.bmp_pp98_L1_V1.0_veridical_freeview_isoFalse_fps144.mp4"
"","","","call-function","824","2003024","0.0-824.0","7kvjppom","","","","","",""
"2829.445000000065","{""pre-1"":0}","[0]","survey-likert","825","2005855","0.0-825.0","7kvjppom","","","","","",""
"1383.9799999999814","{""pre-2"":0}","[0]","survey-likert","826","2007240","0.0-826.0","7kvjppom","","","","","",""
"1253.6099999998696","{""pre-3"":2}","[0]","survey-likert","827","2008495","0.0-827.0","7kvjppom","","","","","",""
"1157.3850000000093","{""post-5"":3}","[0]","survey-likert","828","2009654","0.0-828.0","7kvjppom","","","","","",""
"","","","call-function","829","2009655","0.0-829.0","7kvjppom","","","","","",""
"null","","","video-keyboard-response","830","2012744","0.0-830.0","7kvjppom","","","","null","Agent A","STIM_SET_1_REAL/1159446.bmp_pp60_L3_V1.0_veridical_freeview_isoFalse_fps144.mp4"
"","","","call-function","831","2012745","0.0-831.0","7kvjppom","","","","","",""
"3875.149999999907","{""pre-1"":1}","[0]","survey-likert","832","2016621","0.0-832.0","7kvjppom","","","","","",""
"1072.4749999998603","{""pre-2"":1}","[0]","survey-likert","833","2017695","0.0-833.0","7kvjppom","","","","","",""
"1717.7450000001118","{""pre-3"":1}","[0]","survey-likert","834","2019414","0.0-834.0","7kvjppom","","","","","",""
"1611.7549999998882","{""post-5"":3}","[0]","survey-likert","835","2021027","0.0-835.0","7kvjppom","","","","","",""
