"rt","responses","question_order","trial_type","trial_index","time_elapsed","internal_node_id","ID","view_history","value","stimulus","key_press","agent","image"
"18845.079999999998","{""Experimenter"":[""Confirmed subject's identity (ID card)"",""Confirmed normal or corrected-to-normal vision"",""Obtained consent (signature and date)"",""Checked the test room lighting"",""Checked computer screen lighting"",""Checked distance from screen to chin rest (50cm)"",""Cleaned and adjusted chin rest"",""Counterbalanced the order of the tasks"",""Opened the experiment in Firefox"",""Made the experiment full screen"",""Encouraged subject to silence phone, put away distractors, etc.""]}","[0]","survey-multi-select","0","18853","0.0-0.0","7yzxlh4j","","","","","",""
"154946.145","","","instructions","1","173801","0.0-1.0","7yzxlh4j","[{""page_index"":0,""viewing_time"":154946}]","","","","",""
"7194.614999999991","{""Age"":2,""Sex"":0,""Gender"":0}","[0,1,2]","survey-likert","2","180998","0.0-2.0","7yzxlh4j","","","","","",""
"1094.1849999999977","","","instructions","3","182093","0.0-3.0","7yzxlh4j","[{""page_index"":0,""viewing_time"":1094.0849999999919}]","","","","",""
"6928.479999999981","","","instructions","4","189022","0.0-4.0","7yzxlh4j","[{""page_index"":0,""viewing_time"":5518.789999999979},{""page_index"":1,""viewing_time"":1409.585000000021}]","","","","",""
"15672.464999999997","","","instructions","5","204695","0.0-5.0","7yzxlh4j","[{""page_index"":0,""viewing_time"":1665.7399999999907},{""page_index"":1,""viewing_time"":9009.685000000027},{""page_index"":2,""viewing_time"":4996.919999999984}]","","","","",""
"2836.8699999999953","","","instructions","6","207532","0.0-6.0","7yzxlh4j","[{""page_index"":0,""viewing_time"":2836.765000000014}]","","","","",""
"","","","call-function","7","207533","0.0-7.0","7yzxlh4j","","","","","",""
"null","","","video-keyboard-response","8","210608","0.0-8.0","7yzxlh4j","","","","null","",""
"","","","call-function","9","210609","0.0-9.0","7yzxlh4j","","","","","",""
"10302.149999999994","","","instructions","10","220912","0.0-10.0","7yzxlh4j","[{""page_index"":0,""viewing_time"":3166.4349999999977},{""page_index"":1,""viewing_time"":2159.1199999999953},{""page_index"":2,""viewing_time"":1170.9000000000233},{""page_index"":3,""viewing_time"":3805.125}]","","","","",""
"1226.179999999993","","","instructions","11","222139","0.0-11.0","7yzxlh4j","[{""page_index"":0,""viewing_time"":1226.070000000007}]","","","","",""
"","","","call-function","12","222140","0.0-12.0","7yzxlh4j","","","","","",""
"null","","","video-keyboard-response","13","225213","0.0-13.0","7yzxlh4j","","","","null","",""
"","","","call-function","14","225214","0.0-14.0","7yzxlh4j","","","","","",""
"8841.934999999998","{""pre-1"":3}","[0]","survey-likert","15","234057","0.0-15.0","7yzxlh4j","","","","","",""
"8005.095000000001","{""pre-2"":2}","[0]","survey-likert","16","242063","0.0-16.0","7yzxlh4j","","","","","",""
"5411.024999999994","{""pre-3"":1}","[0]","survey-likert","17","247475","0.0-17.0","7yzxlh4j","","","","","",""
"3757.6600000000035","{""post-5"":3}","[0]","survey-likert","18","251234","0.0-18.0","7yzxlh4j","","","","","",""
"939.0750000000116","","","instructions","19","252174","0.0-19.0","7yzxlh4j","[{""page_index"":0,""viewing_time"":938.9750000000058}]","","","","",""
"5178.695000000007","","","instructions","20","257353","0.0-20.0","7yzxlh4j","[{""page_index"":0,""viewing_time"":5178.584999999992}]","","","","",""
"","","","call-function","21","257353","0.0-21.0","7yzxlh4j","","","","","",""
"null","","","video-keyboard-response","22","260428","0.0-22.0","7yzxlh4j","","","","null","Agent A","STIM_SET_1_REAL/713681.bmp_pp86_L2_V1.0_scrambled_freeview_isoFalse_fps144.mp4"
"","","","call-function","23","260429","0.0-23.0","7yzxlh4j","","","","","",""
"7029.164999999979","{""pre-1"":2}","[0]","survey-likert","24","267459","0.0-24.0","7yzxlh4j","","","","","",""
"8030.674999999988","{""pre-2"":1}","[0]","survey-likert","25","275491","0.0-25.0","7yzxlh4j","","","","","",""
"5673.005000000005","{""pre-3"":0}","[0]","survey-likert","26","281165","0.0-26.0","7yzxlh4j","","","","","",""
"3887.7000000000116","{""post-5"":1}","[0]","survey-likert","27","285054","0.0-27.0","7yzxlh4j","","","","","",""
"","","","call-function","28","285054","0.0-28.0","7yzxlh4j","","","","","",""
"null","","","video-keyboard-response","29","288146","0.0-29.0","7yzxlh4j","","","","null","Agent A","STIM_SET_1_REAL/1159813.bmp_pp79_L2_V1.0_scrambled_freeview_isoFalse_fps144.mp4"
"","","","call-function","30","288146","0.0-30.0","7yzxlh4j","","","","","",""
"11189.565000000002","{""pre-1"":2}","[0]","survey-likert","31","299337","0.0-31.0","7yzxlh4j","","","","","",""
"2780.820000000007","{""pre-2"":2}","[0]","survey-likert","32","302120","0.0-32.0","7yzxlh4j","","","","","",""
"3563.460000000021","{""pre-3"":2}","[0]","survey-likert","33","305684","0.0-33.0","7yzxlh4j","","","","","",""
"3262.6900000000023","{""post-5"":0}","[0]","survey-likert","34","308948","0.0-34.0","7yzxlh4j","","","","","",""
"","","","call-function","35","308949","0.0-35.0","7yzxlh4j","","","","","",""
"null","","","video-keyboard-response","36","312017","0.0-36.0","7yzxlh4j","","","","null","Agent A","STIM_SET_1_REAL/713796.bmp_pp84_L3_V1.0_veridical_freeview_isoFalse_fps144.mp4"
"","","","call-function","37","312017","0.0-37.0","7yzxlh4j","","","","","",""
"9678.724999999977","{""pre-1"":1}","[0]","survey-likert","38","321698","0.0-38.0","7yzxlh4j","","","","","",""
"3123.530000000028","{""pre-2"":3}","[0]","survey-likert","39","324823","0.0-39.0","7yzxlh4j","","","","","",""
"4180.650000000023","{""pre-3"":2}","[0]","survey-likert","40","329004","0.0-40.0","7yzxlh4j","","","","","",""
"3597.125","{""post-5"":1}","[0]","survey-likert","41","332603","0.0-41.0","7yzxlh4j","","","","","",""
"","","","call-function","42","332604","0.0-42.0","7yzxlh4j","","","","","",""
"null","","","video-keyboard-response","43","335674","0.0-43.0","7yzxlh4j","","","","null","Agent A","STIM_SET_1_REAL/1160168.bmp_pp53_L2_V1.0_veridical_freeview_isoFalse_fps144.mp4"
"","","","call-function","44","335674","0.0-44.0","7yzxlh4j","","","","","",""
"9440.570000000007","{""pre-1"":3}","[0]","survey-likert","45","345116","0.0-45.0","7yzxlh4j","","","","","",""
"10485.674999999988","{""pre-2"":0}","[0]","survey-likert","46","355603","0.0-46.0","7yzxlh4j","","","","","",""
"2963.850000000035","{""pre-3"":0}","[0]","survey-likert","47","358569","0.0-47.0","7yzxlh4j","","","","","",""
"5421.114999999991","{""post-5"":2}","[0]","survey-likert","48","363991","0.0-48.0","7yzxlh4j","","","","","",""
"","","","call-function","49","363992","0.0-49.0","7yzxlh4j","","","","","",""
"null","","","video-keyboard-response","50","367068","0.0-50.0","7yzxlh4j","","","","null","Agent A","STIM_SET_1_REAL/1160127.bmp_pp90_L2_V1.0_veridical_freeview_isoFalse_fps144.mp4"
"","","","call-function","51","367068","0.0-51.0","7yzxlh4j","","","","","",""
"4154.580000000016","{""pre-1"":3}","[0]","survey-likert","52","371224","0.0-52.0","7yzxlh4j","","","","","",""
"4560.820000000007","{""pre-2"":1}","[0]","survey-likert","53","375787","0.0-53.0","7yzxlh4j","","","","","",""
"4207.219999999972","{""pre-3"":0}","[0]","survey-likert","54","379995","0.0-54.0","7yzxlh4j","","","","","",""
"5838.434999999998","{""post-5"":1}","[0]","survey-likert","55","385834","0.0-55.0","7yzxlh4j","","","","","",""
"","","","call-function","56","385835","0.0-56.0","7yzxlh4j","","","","","",""
"null","","","video-keyboard-response","57","388900","0.0-57.0","7yzxlh4j","","","","null","Agent A","STIM_SET_1_REAL/1159447.bmp_pp70_L2_V1.0_scrambled_freeview_isoFalse_fps144.mp4"
"","","","call-function","58","388901","0.0-58.0","7yzxlh4j","","","","","",""
"14391.51000000001","{""pre-1"":1}","[0]","survey-likert","59","403293","0.0-59.0","7yzxlh4j","","","","","",""
"13662.190000000002","{""pre-2"":2}","[0]","survey-likert","60","416957","0.0-60.0","7yzxlh4j","","","","","",""
"4119.005000000005","{""pre-3"":2}","[0]","survey-likert","61","421078","0.0-61.0","7yzxlh4j","","","","","",""
"3620.5599999999977","{""post-5"":0}","[0]","survey-likert","62","424700","0.0-62.0","7yzxlh4j","","","","","",""
"","","","call-function","63","424700","0.0-63.0","7yzxlh4j","","","","","",""
"null","","","video-keyboard-response","64","427800","0.0-64.0","7yzxlh4j","","","","null","Agent A","STIM_SET_1_REAL/498253.bmp_pp67_L2_V1.0_veridical_freeview_isoFalse_fps144.mp4"
"","","","call-function","65","427800","0.0-65.0","7yzxlh4j","","","","","",""
"4118.570000000007","{""pre-1"":2}","[0]","survey-likert","66","431920","0.0-66.0","7yzxlh4j","","","","","",""
"2803.280000000028","{""pre-2"":3}","[0]","survey-likert","67","434724","0.0-67.0","7yzxlh4j","","","","","",""
"3822.7849999999744","{""pre-3"":2}","[0]","survey-likert","68","438548","0.0-68.0","7yzxlh4j","","","","","",""
"3655.109999999986","{""post-5"":1}","[0]","survey-likert","69","442205","0.0-69.0","7yzxlh4j","","","","","",""
"","","","call-function","70","442206","0.0-70.0","7yzxlh4j","","","","","",""
"null","","","video-keyboard-response","71","445279","0.0-71.0","7yzxlh4j","","","","null","Agent A","STIM_SET_1_REAL/1159777.bmp_pp77_L3_V1.0_veridical_freeview_isoFalse_fps144.mp4"
"","","","call-function","72","445280","0.0-72.0","7yzxlh4j","","","","","",""
"3240.375","{""pre-1"":2}","[0]","survey-likert","73","448521","0.0-73.0","7yzxlh4j","","","","","",""
"3020.375","{""pre-2"":2}","[0]","survey-likert","74","451543","0.0-74.0","7yzxlh4j","","","","","",""
"4284.190000000002","{""pre-3"":1}","[0]","survey-likert","75","455828","0.0-75.0","7yzxlh4j","","","","","",""
"2677.4899999999907","{""post-5"":0}","[0]","survey-likert","76","458506","0.0-76.0","7yzxlh4j","","","","","",""
"","","","call-function","77","458507","0.0-77.0","7yzxlh4j","","","","","",""
"null","","","video-keyboard-response","78","461595","0.0-78.0","7yzxlh4j","","","","null","Agent A","STIM_SET_1_REAL/285751.bmp_pp55_L3_V1.0_scrambled_freeview_isoFalse_fps144.mp4"
"","","","call-function","79","461597","0.0-79.0","7yzxlh4j","","","","","",""
"6439.534999999974","{""pre-1"":1}","[0]","survey-likert","80","468037","0.0-80.0","7yzxlh4j","","","","","",""
"3431.335000000021","{""pre-2"":0}","[0]","survey-likert","81","471470","0.0-81.0","7yzxlh4j","","","","","",""
"3497.0599999999977","{""pre-3"":0}","[0]","survey-likert","82","474968","0.0-82.0","7yzxlh4j","","","","","",""
"3430.9800000000396","{""post-5"":2}","[0]","survey-likert","83","478400","0.0-83.0","7yzxlh4j","","","","","",""
"","","","call-function","84","478401","0.0-84.0","7yzxlh4j","","","","","",""
"null","","","video-keyboard-response","85","481472","0.0-85.0","7yzxlh4j","","","","null","Agent A","STIM_SET_1_REAL/1159440.bmp_pp98_L1_V1.0_scrambled_freeview_isoFalse_fps144.mp4"
"","","","call-function","86","481473","0.0-86.0","7yzxlh4j","","","","","",""
"4715.015000000014","{""pre-1"":3}","[0]","survey-likert","87","486189","0.0-87.0","7yzxlh4j","","","","","",""
"6984.695000000007","{""pre-2"":0}","[0]","survey-likert","88","493175","0.0-88.0","7yzxlh4j","","","","","",""
"3473.679999999993","{""pre-3"":0}","[0]","survey-likert","89","496650","0.0-89.0","7yzxlh4j","","","","","",""
"4054.4249999999884","{""post-5"":1}","[0]","survey-likert","90","500705","0.0-90.0","7yzxlh4j","","","","","",""
"","","","call-function","91","500706","0.0-91.0","7yzxlh4j","","","","","",""
"null","","","video-keyboard-response","92","503772","0.0-92.0","7yzxlh4j","","","","null","Agent A","STIM_SET_1_REAL/713017.bmp_pp152_L2_V1.0_scrambled_freeview_isoFalse_fps144.mp4"
"","","","call-function","93","503773","0.0-93.0","7yzxlh4j","","","","","",""
"15848.100000000035","{""pre-1"":1}","[0]","survey-likert","94","519622","0.0-94.0","7yzxlh4j","","","","","",""
"3123.5050000000047","{""pre-2"":1}","[0]","survey-likert","95","522747","0.0-95.0","7yzxlh4j","","","","","",""
"4033.505000000063","{""pre-3"":0}","[0]","survey-likert","96","526781","0.0-96.0","7yzxlh4j","","","","","",""
"3024.25","{""post-5"":1}","[0]","survey-likert","97","529807","0.0-97.0","7yzxlh4j","","","","","",""
"","","","call-function","98","529808","0.0-98.0","7yzxlh4j","","","","","",""
"null","","","video-keyboard-response","99","532872","0.0-99.0","7yzxlh4j","","","","null","Agent A","STIM_SET_1_REAL/1159882.bmp_pp61_L2_V1.0_veridical_freeview_isoFalse_fps144.mp4"
"","","","call-function","100","532872","0.0-100.0","7yzxlh4j","","","","","",""
"5138.244999999995","{""pre-1"":0}","[0]","survey-likert","101","538012","0.0-101.0","7yzxlh4j","","","","","",""
"2628.399999999907","{""pre-2"":0}","[0]","survey-likert","102","540642","0.0-102.0","7yzxlh4j","","","","","",""
"5129.535000000033","{""pre-3"":0}","[0]","survey-likert","103","545773","0.0-103.0","7yzxlh4j","","","","","",""
"2925.1199999999953","{""post-5"":3}","[0]","survey-likert","104","548699","0.0-104.0","7yzxlh4j","","","","","",""
"","","","call-function","105","548699","0.0-105.0","7yzxlh4j","","","","","",""
"null","","","video-keyboard-response","106","551769","0.0-106.0","7yzxlh4j","","","","null","Agent A","STIM_SET_1_REAL/285905.bmp_pp57_L1_V1.0_veridical_freeview_isoFalse_fps144.mp4"
"","","","call-function","107","551770","0.0-107.0","7yzxlh4j","","","","","",""
"3205.134999999893","{""pre-1"":2}","[0]","survey-likert","108","554976","0.0-108.0","7yzxlh4j","","","","","",""
"2506.5","{""pre-2"":2}","[0]","survey-likert","109","557483","0.0-109.0","7yzxlh4j","","","","","",""
"5261.485000000102","{""pre-3"":2}","[0]","survey-likert","110","562746","0.0-110.0","7yzxlh4j","","","","","",""
"3093.5899999999674","{""post-5"":1}","[0]","survey-likert","111","565841","0.0-111.0","7yzxlh4j","","","","","",""
"","","","call-function","112","565841","0.0-112.0","7yzxlh4j","","","","","",""
"null","","","video-keyboard-response","113","568931","0.0-113.0","7yzxlh4j","","","","null","Agent A","STIM_SET_1_REAL/1592619.bmp_pp56_L3_V1.0_scrambled_freeview_isoFalse_fps144.mp4"
"","","","call-function","114","568931","0.0-114.0","7yzxlh4j","","","","","",""
"3241.340000000084","{""pre-1"":1}","[0]","survey-likert","115","572173","0.0-115.0","7yzxlh4j","","","","","",""
"1685.3149999999441","{""pre-2"":1}","[0]","survey-likert","116","573860","0.0-116.0","7yzxlh4j","","","","","",""
"3355.57500000007","{""pre-3"":0}","[0]","survey-likert","117","577216","0.0-117.0","7yzxlh4j","","","","","",""
"5585.420000000042","{""post-5"":2}","[0]","survey-likert","118","582803","0.0-118.0","7yzxlh4j","","","","","",""
"","","","call-function","119","582803","0.0-119.0","7yzxlh4j","","","","","",""
"null","","","video-keyboard-response","120","585869","0.0-120.0","7yzxlh4j","","","","null","Agent A","STIM_SET_1_REAL/1592351.bmp_pp51_L1_V1.0_veridical_freeview_isoFalse_fps144.mp4"
"","","","call-function","121","585870","0.0-121.0","7yzxlh4j","","","","","",""
"5500.0800000000745","{""pre-1"":0}","[0]","survey-likert","122","591372","0.0-122.0","7yzxlh4j","","","","","",""
"2872","{""pre-2"":0}","[0]","survey-likert","123","594245","0.0-123.0","7yzxlh4j","","","","","",""
"5906.614999999991","{""pre-3"":0}","[0]","survey-likert","124","600153","0.0-124.0","7yzxlh4j","","","","","",""
"3395.984999999986","{""post-5"":3}","[0]","survey-likert","125","603550","0.0-125.0","7yzxlh4j","","","","","",""
"","","","call-function","126","603551","0.0-126.0","7yzxlh4j","","","","","",""
"null","","","video-keyboard-response","127","606610","0.0-127.0","7yzxlh4j","","","","null","Agent A","STIM_SET_1_REAL/713403.bmp_pp80_L3_V1.0_veridical_freeview_isoFalse_fps144.mp4"
"","","","call-function","128","606611","0.0-128.0","7yzxlh4j","","","","","",""
"4074.0200000000186","{""pre-1"":1}","[0]","survey-likert","129","610686","0.0-129.0","7yzxlh4j","","","","","",""
"3806.140000000014","{""pre-2"":1}","[0]","survey-likert","130","614493","0.0-130.0","7yzxlh4j","","","","","",""
"5992.570000000065","{""pre-3"":1}","[0]","survey-likert","131","620487","0.0-131.0","7yzxlh4j","","","","","",""
"2134.0500000000466","{""post-5"":2}","[0]","survey-likert","132","622622","0.0-132.0","7yzxlh4j","","","","","",""
"","","","call-function","133","622622","0.0-133.0","7yzxlh4j","","","","","",""
"null","","","video-keyboard-response","134","625683","0.0-134.0","7yzxlh4j","","","","null","Agent A","STIM_SET_1_REAL/1159572.bmp_pp71_L1_V1.0_veridical_freeview_isoFalse_fps144.mp4"
"","","","call-function","135","625684","0.0-135.0","7yzxlh4j","","","","","",""
"4997.994999999995","{""pre-1"":2}","[0]","survey-likert","136","630682","0.0-136.0","7yzxlh4j","","","","","",""
"2593.1300000000047","{""pre-2"":2}","[0]","survey-likert","137","633277","0.0-137.0","7yzxlh4j","","","","","",""
"2966.5200000000186","{""pre-3"":1}","[0]","survey-likert","138","636245","0.0-138.0","7yzxlh4j","","","","","",""
"2372.7399999999907","{""post-5"":0}","[0]","survey-likert","139","638618","0.0-139.0","7yzxlh4j","","","","","",""
"","","","call-function","140","638619","0.0-140.0","7yzxlh4j","","","","","",""
"null","","","video-keyboard-response","141","641701","0.0-141.0","7yzxlh4j","","","","null","Agent A","STIM_SET_1_REAL/713135.bmp_pp54_L2_V1.0_veridical_freeview_isoFalse_fps144.mp4"
"","","","call-function","142","641702","0.0-142.0","7yzxlh4j","","","","","",""
"8892.94000000006","{""pre-1"":1}","[0]","survey-likert","143","650596","0.0-143.0","7yzxlh4j","","","","","",""
"3027.890000000014","{""pre-2"":3}","[0]","survey-likert","144","653625","0.0-144.0","7yzxlh4j","","","","","",""
"4279.195000000065","{""pre-3"":2}","[0]","survey-likert","145","657905","0.0-145.0","7yzxlh4j","","","","","",""
"3275.390000000014","{""post-5"":1}","[0]","survey-likert","146","661183","0.0-146.0","7yzxlh4j","","","","","",""
"","","","call-function","147","661184","0.0-147.0","7yzxlh4j","","","","","",""
"null","","","video-keyboard-response","148","664254","0.0-148.0","7yzxlh4j","","","","null","Agent A","STIM_SET_1_REAL/1592286.bmp_pp52_L1_V1.0_scrambled_freeview_isoFalse_fps144.mp4"
"","","","call-function","149","664254","0.0-149.0","7yzxlh4j","","","","","",""
"4136.130000000005","{""pre-1"":1}","[0]","survey-likert","150","668392","0.0-150.0","7yzxlh4j","","","","","",""
"3708.210000000079","{""pre-2"":1}","[0]","survey-likert","151","672101","0.0-151.0","7yzxlh4j","","","","","",""
"9899.330000000075","{""pre-3"":1}","[0]","survey-likert","152","682002","0.0-152.0","7yzxlh4j","","","","","",""
"3900.1900000000605","{""post-5"":3}","[0]","survey-likert","153","685903","0.0-153.0","7yzxlh4j","","","","","",""
"","","","call-function","154","685903","0.0-154.0","7yzxlh4j","","","","","",""
"null","","","video-keyboard-response","155","688977","0.0-155.0","7yzxlh4j","","","","null","Agent A","STIM_SET_1_REAL/498175.bmp_pp154_L1_V1.0_veridical_freeview_isoFalse_fps144.mp4"
"","","","call-function","156","688977","0.0-156.0","7yzxlh4j","","","","","",""
"4965.244999999995","{""pre-1"":2}","[0]","survey-likert","157","693944","0.0-157.0","7yzxlh4j","","","","","",""
"6434.229999999981","{""pre-2"":2}","[0]","survey-likert","158","700379","0.0-158.0","7yzxlh4j","","","","","",""
"2417.7750000000233","{""pre-3"":2}","[0]","survey-likert","159","702798","0.0-159.0","7yzxlh4j","","","","","",""
"5744.085000000079","{""post-5"":1}","[0]","survey-likert","160","708543","0.0-160.0","7yzxlh4j","","","","","",""
"3161.905000000028","","","instructions","161","711705","0.0-161.0","7yzxlh4j","[{""page_index"":0,""viewing_time"":1188.7250000000931},{""page_index"":1,""viewing_time"":1348.579999999958},{""page_index"":2,""viewing_time"":624.4300000000512}]","","","","",""
"7622.594999999972","","","instructions","162","719329","0.0-162.0","7yzxlh4j","[{""page_index"":0,""viewing_time"":961.7750000000233},{""page_index"":1,""viewing_time"":677.4299999999348},{""page_index"":2,""viewing_time"":1375.7850000000326},{""page_index"":1,""viewing_time"":3489.805000000051},{""page_index"":2,""viewing_time"":1117.265000000014}]","","","","",""
"","","","call-function","163","719330","0.0-163.0","7yzxlh4j","","","","","",""
"null","","","video-keyboard-response","164","722402","0.0-164.0","7yzxlh4j","","","","null","Agent A","STIM_SET_1_REAL/1159768.bmp_pp89_L1_V1.0_scrambled_freeview_isoFalse_fps144.mp4"
"","","","call-function","165","722402","0.0-165.0","7yzxlh4j","","","","","",""
"6858.535000000033","{""pre-1"":3}","[0]","survey-likert","166","729262","0.0-166.0","7yzxlh4j","","","","","",""
"2880.6900000000605","{""pre-2"":2}","[0]","survey-likert","167","732143","0.0-167.0","7yzxlh4j","","","","","",""
"2673.2900000000373","{""pre-3"":2}","[0]","survey-likert","168","734818","0.0-168.0","7yzxlh4j","","","","","",""
"1948.9599999999627","{""post-5"":0}","[0]","survey-likert","169","736768","0.0-169.0","7yzxlh4j","","","","","",""
"","","","call-function","170","736768","0.0-170.0","7yzxlh4j","","","","","",""
"null","","","video-keyboard-response","171","739841","0.0-171.0","7yzxlh4j","","","","null","Agent A","STIM_SET_1_REAL/1592657.bmp_pp98_L1_V1.0_veridical_freeview_isoFalse_fps144.mp4"
"","","","call-function","172","739841","0.0-172.0","7yzxlh4j","","","","","",""
"4383.640000000014","{""pre-1"":0}","[0]","survey-likert","173","744226","0.0-173.0","7yzxlh4j","","","","","",""
"4739.584999999963","{""pre-2"":0}","[0]","survey-likert","174","748967","0.0-174.0","7yzxlh4j","","","","","",""
"1552.045000000042","{""pre-3"":0}","[0]","survey-likert","175","750520","0.0-175.0","7yzxlh4j","","","","","",""
"2728.1300000000047","{""post-5"":3}","[0]","survey-likert","176","753249","0.0-176.0","7yzxlh4j","","","","","",""
"","","","call-function","177","753250","0.0-177.0","7yzxlh4j","","","","","",""
"null","","","video-keyboard-response","178","756343","0.0-178.0","7yzxlh4j","","","","null","Agent A","STIM_SET_1_REAL/498253.bmp_pp67_L2_V1.0_scrambled_freeview_isoFalse_fps144.mp4"
"","","","call-function","179","756344","0.0-179.0","7yzxlh4j","","","","","",""
"7326.670000000042","{""pre-1"":1}","[0]","survey-likert","180","763671","0.0-180.0","7yzxlh4j","","","","","",""
"3113.0050000000047","{""pre-2"":1}","[0]","survey-likert","181","766785","0.0-181.0","7yzxlh4j","","","","","",""
"4163.019999999902","{""pre-3"":0}","[0]","survey-likert","182","770949","0.0-182.0","7yzxlh4j","","","","","",""
"1750.4100000000326","{""post-5"":2}","[0]","survey-likert","183","772701","0.0-183.0","7yzxlh4j","","","","","",""
"","","","call-function","184","772701","0.0-184.0","7yzxlh4j","","","","","",""
"null","","","video-keyboard-response","185","775789","0.0-185.0","7yzxlh4j","","","","null","Agent A","STIM_SET_1_REAL/498175.bmp_pp154_L1_V1.0_scrambled_freeview_isoFalse_fps144.mp4"
"","","","call-function","186","775789","0.0-186.0","7yzxlh4j","","","","","",""
"2671.819999999949","{""pre-1"":0}","[0]","survey-likert","187","778463","0.0-187.0","7yzxlh4j","","","","","",""
"2416.8549999999814","{""pre-2"":0}","[0]","survey-likert","188","780881","0.0-188.0","7yzxlh4j","","","","","",""
"2951.670000000042","{""pre-3"":0}","[0]","survey-likert","189","783836","0.0-189.0","7yzxlh4j","","","","","",""
"2159.019999999902","{""post-5"":3}","[0]","survey-likert","190","785997","0.0-190.0","7yzxlh4j","","","","","",""
"","","","call-function","191","785998","0.0-191.0","7yzxlh4j","","","","","",""
"null","","","video-keyboard-response","192","789061","0.0-192.0","7yzxlh4j","","","","null","Agent A","STIM_SET_1_REAL/1592890.bmp_pp82_L2_V1.0_scrambled_freeview_isoFalse_fps144.mp4"
"","","","call-function","193","789061","0.0-193.0","7yzxlh4j","","","","","",""
"3065.295000000042","{""pre-1"":2}","[0]","survey-likert","194","792128","0.0-194.0","7yzxlh4j","","","","","",""
"2377.4749999999767","{""pre-2"":2}","[0]","survey-likert","195","794506","0.0-195.0","7yzxlh4j","","","","","",""
"2628.8499999999767","{""pre-3"":2}","[0]","survey-likert","196","797136","0.0-196.0","7yzxlh4j","","","","","",""
"4993.67499999993","{""post-5"":1}","[0]","survey-likert","197","802131","0.0-197.0","7yzxlh4j","","","","","",""
"","","","call-function","198","802131","0.0-198.0","7yzxlh4j","","","","","",""
"null","","","video-keyboard-response","199","805192","0.0-199.0","7yzxlh4j","","","","null","Agent A","STIM_SET_1_REAL/1159446.bmp_pp60_L3_V1.0_veridical_freeview_isoFalse_fps144.mp4"
"","","","call-function","200","805192","0.0-200.0","7yzxlh4j","","","","","",""
"3216.9000000000233","{""pre-1"":3}","[0]","survey-likert","201","808410","0.0-201.0","7yzxlh4j","","","","","",""
"3022.515000000014","{""pre-2"":3}","[0]","survey-likert","202","811433","0.0-202.0","7yzxlh4j","","","","","",""
"2526.810000000056","{""pre-3"":3}","[0]","survey-likert","203","813961","0.0-203.0","7yzxlh4j","","","","","",""
"1619","{""post-5"":0}","[0]","survey-likert","204","815582","0.0-204.0","7yzxlh4j","","","","","",""
"","","","call-function","205","815582","0.0-205.0","7yzxlh4j","","","","","",""
"null","","","video-keyboard-response","206","818658","0.0-206.0","7yzxlh4j","","","","null","Agent A","STIM_SET_1_REAL/1592807.bmp_pp68_L1_V1.0_veridical_freeview_isoFalse_fps144.mp4"
"","","","call-function","207","818658","0.0-207.0","7yzxlh4j","","","","","",""
"5482.660000000033","{""pre-1"":1}","[0]","survey-likert","208","824142","0.0-208.0","7yzxlh4j","","","","","",""
"2727.1650000000373","{""pre-2"":1}","[0]","survey-likert","209","826870","0.0-209.0","7yzxlh4j","","","","","",""
"2312.734999999986","{""pre-3"":0}","[0]","survey-likert","210","829184","0.0-210.0","7yzxlh4j","","","","","",""
"2108.2099999999627","{""post-5"":1}","[0]","survey-likert","211","831293","0.0-211.0","7yzxlh4j","","","","","",""
"","","","call-function","212","831294","0.0-212.0","7yzxlh4j","","","","","",""
"null","","","video-keyboard-response","213","834354","0.0-213.0","7yzxlh4j","","","","null","Agent A","STIM_SET_1_REAL/713089.bmp_pp60_L3_V1.0_scrambled_freeview_isoFalse_fps144.mp4"
"","","","call-function","214","834355","0.0-214.0","7yzxlh4j","","","","","",""
"5271.875","{""pre-1"":2}","[0]","survey-likert","215","839629","0.0-215.0","7yzxlh4j","","","","","",""
"5241.459999999963","{""pre-2"":3}","[0]","survey-likert","216","844872","0.0-216.0","7yzxlh4j","","","","","",""
"2284.305000000051","{""pre-3"":2}","[0]","survey-likert","217","847158","0.0-217.0","7yzxlh4j","","","","","",""
"4628.244999999995","{""post-5"":0}","[0]","survey-likert","218","851787","0.0-218.0","7yzxlh4j","","","","","",""
"","","","call-function","219","851788","0.0-219.0","7yzxlh4j","","","","","",""
"null","","","video-keyboard-response","220","854870","0.0-220.0","7yzxlh4j","","","","null","Agent A","STIM_SET_1_REAL/1593041.bmp_pp58_L1_V1.0_veridical_freeview_isoFalse_fps144.mp4"
"","","","call-function","221","854870","0.0-221.0","7yzxlh4j","","","","","",""
"11392.169999999925","{""pre-1"":1}","[0]","survey-likert","222","866263","0.0-222.0","7yzxlh4j","","","","","",""
"2554.814999999944","{""pre-2"":3}","[0]","survey-likert","223","868820","0.0-223.0","7yzxlh4j","","","","","",""
"3533.1350000000093","{""pre-3"":2}","[0]","survey-likert","224","872354","0.0-224.0","7yzxlh4j","","","","","",""
"4969.79999999993","{""post-5"":0}","[0]","survey-likert","225","877325","0.0-225.0","7yzxlh4j","","","","","",""
"","","","call-function","226","877325","0.0-226.0","7yzxlh4j","","","","","",""
"null","","","video-keyboard-response","227","880386","0.0-227.0","7yzxlh4j","","","","null","Agent A","STIM_SET_1_REAL/1592619.bmp_pp56_L3_V1.0_veridical_freeview_isoFalse_fps144.mp4"
"","","","call-function","228","880387","0.0-228.0","7yzxlh4j","","","","","",""
"3888.2550000000047","{""pre-1"":2}","[0]","survey-likert","229","884276","0.0-229.0","7yzxlh4j","","","","","",""
"3726.3150000000605","{""pre-2"":0}","[0]","survey-likert","230","888003","0.0-230.0","7yzxlh4j","","","","","",""
"2887.9899999999907","{""pre-3"":0}","[0]","survey-likert","231","890893","0.0-231.0","7yzxlh4j","","","","","",""
"2377.890000000014","{""post-5"":3}","[0]","survey-likert","232","893272","0.0-232.0","7yzxlh4j","","","","","",""
"","","","call-function","233","893273","0.0-233.0","7yzxlh4j","","","","","",""
"null","","","video-keyboard-response","234","896335","0.0-234.0","7yzxlh4j","","","","null","Agent A","STIM_SET_1_REAL/1592351.bmp_pp51_L1_V1.0_scrambled_freeview_isoFalse_fps144.mp4"
"","","","call-function","235","896336","0.0-235.0","7yzxlh4j","","","","","",""
"2959.6149999999907","{""pre-1"":2}","[0]","survey-likert","236","899296","0.0-236.0","7yzxlh4j","","","","","",""
"2361.0200000000186","{""pre-2"":1}","[0]","survey-likert","237","901659","0.0-237.0","7yzxlh4j","","","","","",""
"2444","{""pre-3"":0}","[0]","survey-likert","238","904104","0.0-238.0","7yzxlh4j","","","","","",""
"4191.089999999967","{""post-5"":2}","[0]","survey-likert","239","908296","0.0-239.0","7yzxlh4j","","","","","",""
"","","","call-function","240","908297","0.0-240.0","7yzxlh4j","","","","","",""
"null","","","video-keyboard-response","241","911384","0.0-241.0","7yzxlh4j","","","","null","Agent A","STIM_SET_1_REAL/1591994.bmp_pp69_L3_V1.0_scrambled_freeview_isoFalse_fps144.mp4"
"","","","call-function","242","911384","0.0-242.0","7yzxlh4j","","","","","",""
"2376.475000000093","{""pre-1"":2}","[0]","survey-likert","243","913762","0.0-243.0","7yzxlh4j","","","","","",""
"2439.594999999972","{""pre-2"":3}","[0]","survey-likert","244","916203","0.0-244.0","7yzxlh4j","","","","","",""
"2504.9799999999814","{""pre-3"":2}","[0]","survey-likert","245","918709","0.0-245.0","7yzxlh4j","","","","","",""
"2487.914999999921","{""post-5"":0}","[0]","survey-likert","246","921197","0.0-246.0","7yzxlh4j","","","","","",""
"","","","call-function","247","921198","0.0-247.0","7yzxlh4j","","","","","",""
"null","","","video-keyboard-response","248","924268","0.0-248.0","7yzxlh4j","","","","null","Agent A","STIM_SET_1_REAL/1592934.bmp_pp63_L1_V1.0_veridical_freeview_isoFalse_fps144.mp4"
"","","","call-function","249","924268","0.0-249.0","7yzxlh4j","","","","","",""
"3074.585000000079","{""pre-1"":2}","[0]","survey-likert","250","927343","0.0-250.0","7yzxlh4j","","","","","",""
"4869.009999999893","{""pre-2"":3}","[0]","survey-likert","251","932213","0.0-251.0","7yzxlh4j","","","","","",""
"2553.064999999944","{""pre-3"":1}","[0]","survey-likert","252","934768","0.0-252.0","7yzxlh4j","","","","","",""
"2355.060000000056","{""post-5"":0}","[0]","survey-likert","253","937125","0.0-253.0","7yzxlh4j","","","","","",""
"","","","call-function","254","937125","0.0-254.0","7yzxlh4j","","","","","",""
"null","","","video-keyboard-response","255","940200","0.0-255.0","7yzxlh4j","","","","null","Agent A","STIM_SET_1_REAL/713684.bmp_pp85_L3_V1.0_veridical_freeview_isoFalse_fps144.mp4"
"","","","call-function","256","940201","0.0-256.0","7yzxlh4j","","","","","",""
"6853.1549999999115","{""pre-1"":1}","[0]","survey-likert","257","947055","0.0-257.0","7yzxlh4j","","","","","",""
"2146.1500000000233","{""pre-2"":2}","[0]","survey-likert","258","949203","0.0-258.0","7yzxlh4j","","","","","",""
"1582.170000000042","{""pre-3"":2}","[0]","survey-likert","259","950787","0.0-259.0","7yzxlh4j","","","","","",""
"2033.5650000000605","{""post-5"":1}","[0]","survey-likert","260","952822","0.0-260.0","7yzxlh4j","","","","","",""
"","","","call-function","261","952822","0.0-261.0","7yzxlh4j","","","","","",""
"null","","","video-keyboard-response","262","955887","0.0-262.0","7yzxlh4j","","","","null","Agent A","STIM_SET_1_REAL/498170.bmp_pp153_L3_V1.0_scrambled_freeview_isoFalse_fps144.mp4"
"","","","call-function","263","955888","0.0-263.0","7yzxlh4j","","","","","",""
"3194.189999999944","{""pre-1"":1}","[0]","survey-likert","264","959083","0.0-264.0","7yzxlh4j","","","","","",""
"2889.804999999935","{""pre-2"":3}","[0]","survey-likert","265","961974","0.0-265.0","7yzxlh4j","","","","","",""
"3742.9250000000466","{""pre-3"":3}","[0]","survey-likert","266","965718","0.0-266.0","7yzxlh4j","","","","","",""
"3020.2550000000047","{""post-5"":1}","[0]","survey-likert","267","968739","0.0-267.0","7yzxlh4j","","","","","",""
"","","","call-function","268","968740","0.0-268.0","7yzxlh4j","","","","","",""
"null","","","video-keyboard-response","269","971853","0.0-269.0","7yzxlh4j","","","","null","Agent A","STIM_SET_1_REAL/498155.bmp_pp61_L2_V1.0_scrambled_freeview_isoFalse_fps144.mp4"
"","","","call-function","270","971853","0.0-270.0","7yzxlh4j","","","","","",""
"2480.3499999999767","{""pre-1"":2}","[0]","survey-likert","271","974335","0.0-271.0","7yzxlh4j","","","","","",""
"1983.5100000000093","{""pre-2"":0}","[0]","survey-likert","272","976319","0.0-272.0","7yzxlh4j","","","","","",""
"2882.9049999999115","{""pre-3"":0}","[0]","survey-likert","273","979204","0.0-273.0","7yzxlh4j","","","","","",""
"2569.039999999921","{""post-5"":2}","[0]","survey-likert","274","981774","0.0-274.0","7yzxlh4j","","","","","",""
"","","","call-function","275","981774","0.0-275.0","7yzxlh4j","","","","","",""
"null","","","video-keyboard-response","276","984849","0.0-276.0","7yzxlh4j","","","","null","Agent A","STIM_SET_1_REAL/713760.bmp_pp81_L1_V1.0_scrambled_freeview_isoFalse_fps144.mp4"
"","","","call-function","277","984850","0.0-277.0","7yzxlh4j","","","","","",""
"3000.4799999999814","{""pre-1"":1}","[0]","survey-likert","278","987851","0.0-278.0","7yzxlh4j","","","","","",""
"2765.4700000000885","{""pre-2"":0}","[0]","survey-likert","279","990618","0.0-279.0","7yzxlh4j","","","","","",""
"1785.9949999999953","{""pre-3"":0}","[0]","survey-likert","280","992405","0.0-280.0","7yzxlh4j","","","","","",""
"1934.8450000000885","{""post-5"":3}","[0]","survey-likert","281","994341","0.0-281.0","7yzxlh4j","","","","","",""
"","","","call-function","282","994341","0.0-282.0","7yzxlh4j","","","","","",""
"null","","","video-keyboard-response","283","997419","0.0-283.0","7yzxlh4j","","","","null","Agent A","STIM_SET_1_REAL/1159784.bmp_pp73_L3_V1.0_scrambled_freeview_isoFalse_fps144.mp4"
"","","","call-function","284","997421","0.0-284.0","7yzxlh4j","","","","","",""
"4428.729999999981","{""pre-1"":1}","[0]","survey-likert","285","1001851","0.0-285.0","7yzxlh4j","","","","","",""
"4279.709999999963","{""pre-2"":1}","[0]","survey-likert","286","1006133","0.0-286.0","7yzxlh4j","","","","","",""
"2822.5800000000745","{""pre-3"":0}","[0]","survey-likert","287","1008957","0.0-287.0","7yzxlh4j","","","","","",""
"2604.515000000014","{""post-5"":2}","[0]","survey-likert","288","1011562","0.0-288.0","7yzxlh4j","","","","","",""
"","","","call-function","289","1011563","0.0-289.0","7yzxlh4j","","","","","",""
"null","","","video-keyboard-response","290","1014640","0.0-290.0","7yzxlh4j","","","","null","Agent A","STIM_SET_1_REAL/285751.bmp_pp55_L3_V1.0_veridical_freeview_isoFalse_fps144.mp4"
"","","","call-function","291","1014640","0.0-291.0","7yzxlh4j","","","","","",""
"4144.29999999993","{""pre-1"":2}","[0]","survey-likert","292","1018785","0.0-292.0","7yzxlh4j","","","","","",""
"3595.3099999999395","{""pre-2"":2}","[0]","survey-likert","293","1022382","0.0-293.0","7yzxlh4j","","","","","",""
"2615.125","{""pre-3"":2}","[0]","survey-likert","294","1024999","0.0-294.0","7yzxlh4j","","","","","",""
"2073.405000000028","{""post-5"":1}","[0]","survey-likert","295","1027073","0.0-295.0","7yzxlh4j","","","","","",""
"","","","call-function","296","1027074","0.0-296.0","7yzxlh4j","","","","","",""
"null","","","video-keyboard-response","297","1030132","0.0-297.0","7yzxlh4j","","","","null","Agent A","STIM_SET_1_REAL/497950.bmp_pp151_L1_V1.0_veridical_freeview_isoFalse_fps144.mp4"
"","","","call-function","298","1030132","0.0-298.0","7yzxlh4j","","","","","",""
"4694.165000000037","{""pre-1"":2}","[0]","survey-likert","299","1034827","0.0-299.0","7yzxlh4j","","","","","",""
"2163.9100000000326","{""pre-2"":0}","[0]","survey-likert","300","1036992","0.0-300.0","7yzxlh4j","","","","","",""
"1965.0699999999488","{""pre-3"":0}","[0]","survey-likert","301","1038959","0.0-301.0","7yzxlh4j","","","","","",""
"1727.625","{""post-5"":1}","[0]","survey-likert","302","1040688","0.0-302.0","7yzxlh4j","","","","","",""
"3453.0250000000233","","","instructions","303","1044141","0.0-303.0","7yzxlh4j","[{""page_index"":0,""viewing_time"":919.0100000000093},{""page_index"":1,""viewing_time"":1329.0549999999348},{""page_index"":0,""viewing_time"":407.3200000000652},{""page_index"":1,""viewing_time"":361.5100000000093},{""page_index"":2,""viewing_time"":435.9649999999674}]","","","","",""
"1196.6149999999907","","","instructions","304","1045338","0.0-304.0","7yzxlh4j","[{""page_index"":0,""viewing_time"":383.71000000007916},{""page_index"":1,""viewing_time"":355.6599999999162},{""page_index"":2,""viewing_time"":457.1350000000093}]","","","","",""
"","","","call-function","305","1045339","0.0-305.0","7yzxlh4j","","","","","",""
"null","","","video-keyboard-response","306","1048419","0.0-306.0","7yzxlh4j","","","","null","Agent A","STIM_SET_1_REAL/1159515.bmp_pp84_L3_V1.0_scrambled_freeview_isoFalse_fps144.mp4"
"","","","call-function","307","1048420","0.0-307.0","7yzxlh4j","","","","","",""
"3118.975000000093","{""pre-1"":1}","[0]","survey-likert","308","1051540","0.0-308.0","7yzxlh4j","","","","","",""
"2840.2450000001118","{""pre-2"":0}","[0]","survey-likert","309","1054381","0.0-309.0","7yzxlh4j","","","","","",""
"1912.9399999999441","{""pre-3"":0}","[0]","survey-likert","310","1056295","0.0-310.0","7yzxlh4j","","","","","",""
"2430.3549999999814","{""post-5"":3}","[0]","survey-likert","311","1058726","0.0-311.0","7yzxlh4j","","","","","",""
"","","","call-function","312","1058727","0.0-312.0","7yzxlh4j","","","","","",""
"null","","","video-keyboard-response","313","1061802","0.0-313.0","7yzxlh4j","","","","null","Agent A","STIM_SET_1_REAL/713371.bmp_pp68_L1_V1.0_veridical_freeview_isoFalse_fps144.mp4"
"","","","call-function","314","1061804","0.0-314.0","7yzxlh4j","","","","","",""
"4416.005000000121","{""pre-1"":1}","[0]","survey-likert","315","1066221","0.0-315.0","7yzxlh4j","","","","","",""
"1862.9249999998137","{""pre-2"":3}","[0]","survey-likert","316","1068085","0.0-316.0","7yzxlh4j","","","","","",""
"1532.089999999851","{""pre-3"":3}","[0]","survey-likert","317","1069619","0.0-317.0","7yzxlh4j","","","","","",""
"2035.9799999999814","{""post-5"":0}","[0]","survey-likert","318","1071656","0.0-318.0","7yzxlh4j","","","","","",""
"","","","call-function","319","1071656","0.0-319.0","7yzxlh4j","","","","","",""
"null","","","video-keyboard-response","320","1074758","0.0-320.0","7yzxlh4j","","","","null","Agent A","STIM_SET_1_REAL/1592286.bmp_pp52_L1_V1.0_veridical_freeview_isoFalse_fps144.mp4"
"","","","call-function","321","1074759","0.0-321.0","7yzxlh4j","","","","","",""
"4398.020000000019","{""pre-1"":1}","[0]","survey-likert","322","1079158","0.0-322.0","7yzxlh4j","","","","","",""
"1464.9550000000745","{""pre-2"":2}","[0]","survey-likert","323","1080624","0.0-323.0","7yzxlh4j","","","","","",""
"2691.2399999999907","{""pre-3"":2}","[0]","survey-likert","324","1083316","0.0-324.0","7yzxlh4j","","","","","",""
"2503.3549999999814","{""post-5"":0}","[0]","survey-likert","325","1085821","0.0-325.0","7yzxlh4j","","","","","",""
"","","","call-function","326","1085821","0.0-326.0","7yzxlh4j","","","","","",""
"null","","","video-keyboard-response","327","1088913","0.0-327.0","7yzxlh4j","","","","null","Agent A","STIM_SET_1_REAL/1592372.bmp_pp76_L1_V1.0_veridical_freeview_isoFalse_fps144.mp4"
"","","","call-function","328","1088914","0.0-328.0","7yzxlh4j","","","","","",""
"3278.054999999935","{""pre-1"":1}","[0]","survey-likert","329","1092193","0.0-329.0","7yzxlh4j","","","","","",""
"2092.4199999999255","{""pre-2"":1}","[0]","survey-likert","330","1094286","0.0-330.0","7yzxlh4j","","","","","",""
"2497.5100000000093","{""pre-3"":0}","[0]","survey-likert","331","1096785","0.0-331.0","7yzxlh4j","","","","","",""
"2291.1099999998696","{""post-5"":2}","[0]","survey-likert","332","1099077","0.0-332.0","7yzxlh4j","","","","","",""
"","","","call-function","333","1099077","0.0-333.0","7yzxlh4j","","","","","",""
"null","","","video-keyboard-response","334","1102155","0.0-334.0","7yzxlh4j","","","","null","Agent A","STIM_SET_1_REAL/713707.bmp_pp154_L1_V1.0_scrambled_freeview_isoFalse_fps144.mp4"
"","","","call-function","335","1102155","0.0-335.0","7yzxlh4j","","","","","",""
"5884.02500000014","{""pre-1"":2}","[0]","survey-likert","336","1108040","0.0-336.0","7yzxlh4j","","","","","",""
"2353.410000000149","{""pre-2"":0}","[0]","survey-likert","337","1110394","0.0-337.0","7yzxlh4j","","","","","",""
"4135.694999999832","{""pre-3"":0}","[0]","survey-likert","338","1114531","0.0-338.0","7yzxlh4j","","","","","",""
"2265.7450000001118","{""post-5"":1}","[0]","survey-likert","339","1116799","0.0-339.0","7yzxlh4j","","","","","",""
"","","","call-function","340","1116799","0.0-340.0","7yzxlh4j","","","","","",""
"null","","","video-keyboard-response","341","1119906","0.0-341.0","7yzxlh4j","","","","null","Agent A","STIM_SET_1_REAL/1159855.bmp_pp99_L2_V1.0_scrambled_freeview_isoFalse_fps144.mp4"
"","","","call-function","342","1119907","0.0-342.0","7yzxlh4j","","","","","",""
"5403.594999999972","{""pre-1"":0}","[0]","survey-likert","343","1125312","0.0-343.0","7yzxlh4j","","","","","",""
"1603.4449999998324","{""pre-2"":0}","[0]","survey-likert","344","1126917","0.0-344.0","7yzxlh4j","","","","","",""
"1301.6750000000466","{""pre-3"":0}","[0]","survey-likert","345","1128220","0.0-345.0","7yzxlh4j","","","","","",""
"1925.1099999998696","{""post-5"":3}","[0]","survey-likert","346","1130146","0.0-346.0","7yzxlh4j","","","","","",""
"","","","call-function","347","1130147","0.0-347.0","7yzxlh4j","","","","","",""
"null","","","video-keyboard-response","348","1133210","0.0-348.0","7yzxlh4j","","","","null","Agent A","STIM_SET_1_REAL/1592890.bmp_pp82_L2_V1.0_veridical_freeview_isoFalse_fps144.mp4"
"","","","call-function","349","1133211","0.0-349.0","7yzxlh4j","","","","","",""
"5940.045000000158","{""pre-1"":2}","[0]","survey-likert","350","1139152","0.0-350.0","7yzxlh4j","","","","","",""
"2054.439999999944","{""pre-2"":3}","[0]","survey-likert","351","1141207","0.0-351.0","7yzxlh4j","","","","","",""
"2200.320000000065","{""pre-3"":2}","[0]","survey-likert","352","1143409","0.0-352.0","7yzxlh4j","","","","","",""
"2384.75","{""post-5"":0}","[0]","survey-likert","353","1145795","0.0-353.0","7yzxlh4j","","","","","",""
"","","","call-function","354","1145795","0.0-354.0","7yzxlh4j","","","","","",""
"null","","","video-keyboard-response","355","1148864","0.0-355.0","7yzxlh4j","","","","null","Agent A","STIM_SET_1_REAL/1592581.bmp_pp100_L3_V1.0_scrambled_freeview_isoFalse_fps144.mp4"
"","","","call-function","356","1148864","0.0-356.0","7yzxlh4j","","","","","",""
"3839.695000000065","{""pre-1"":0}","[0]","survey-likert","357","1152705","0.0-357.0","7yzxlh4j","","","","","",""
"1901.2650000001304","{""pre-2"":1}","[0]","survey-likert","358","1154607","0.0-358.0","7yzxlh4j","","","","","",""
"2751.344999999972","{""pre-3"":1}","[0]","survey-likert","359","1157360","0.0-359.0","7yzxlh4j","","","","","",""
"3730.8549999999814","{""post-5"":2}","[0]","survey-likert","360","1161092","0.0-360.0","7yzxlh4j","","","","","",""
"","","","call-function","361","1161092","0.0-361.0","7yzxlh4j","","","","","",""
"null","","","video-keyboard-response","362","1164160","0.0-362.0","7yzxlh4j","","","","null","Agent A","STIM_SET_1_REAL/713796.bmp_pp84_L3_V1.0_scrambled_freeview_isoFalse_fps144.mp4"
"","","","call-function","363","1164160","0.0-363.0","7yzxlh4j","","","","","",""
"4550.084999999963","{""pre-1"":1}","[0]","survey-likert","364","1168711","0.0-364.0","7yzxlh4j","","","","","",""
"1502.9199999999255","{""pre-2"":1}","[0]","survey-likert","365","1170215","0.0-365.0","7yzxlh4j","","","","","",""
"1439.220000000205","{""pre-3"":1}","[0]","survey-likert","366","1171655","0.0-366.0","7yzxlh4j","","","","","",""
"3951.6149999999907","{""post-5"":2}","[0]","survey-likert","367","1175608","0.0-367.0","7yzxlh4j","","","","","",""
"","","","call-function","368","1175608","0.0-368.0","7yzxlh4j","","","","","",""
"null","","","video-keyboard-response","369","1178686","0.0-369.0","7yzxlh4j","","","","null","Agent A","STIM_SET_1_REAL/1592372.bmp_pp76_L1_V1.0_scrambled_freeview_isoFalse_fps144.mp4"
"","","","call-function","370","1178687","0.0-370.0","7yzxlh4j","","","","","",""
"5173.77500000014","{""pre-1"":0}","[0]","survey-likert","371","1183862","0.0-371.0","7yzxlh4j","","","","","",""
"3894.6749999998137","{""pre-2"":0}","[0]","survey-likert","372","1187758","0.0-372.0","7yzxlh4j","","","","","",""
"3617.744999999879","{""pre-3"":0}","[0]","survey-likert","373","1191377","0.0-373.0","7yzxlh4j","","","","","",""
"2146.844999999972","{""post-5"":2}","[0]","survey-likert","374","1193525","0.0-374.0","7yzxlh4j","","","","","",""
"","","","call-function","375","1193526","0.0-375.0","7yzxlh4j","","","","","",""
"null","","","video-keyboard-response","376","1196586","0.0-376.0","7yzxlh4j","","","","null","Agent A","STIM_SET_1_REAL/1159572.bmp_pp71_L1_V1.0_scrambled_freeview_isoFalse_fps144.mp4"
"","","","call-function","377","1196587","0.0-377.0","7yzxlh4j","","","","","",""
"3527.340000000084","{""pre-1"":2}","[0]","survey-likert","378","1200115","0.0-378.0","7yzxlh4j","","","","","",""
"1936.2000000001863","{""pre-2"":0}","[0]","survey-likert","379","1202053","0.0-379.0","7yzxlh4j","","","","","",""
"1566.2099999999627","{""pre-3"":0}","[0]","survey-likert","380","1203620","0.0-380.0","7yzxlh4j","","","","","",""
"1698.7049999998417","{""post-5"":1}","[0]","survey-likert","381","1205320","0.0-381.0","7yzxlh4j","","","","","",""
"","","","call-function","382","1205321","0.0-382.0","7yzxlh4j","","","","","",""
"null","","","video-keyboard-response","383","1208393","0.0-383.0","7yzxlh4j","","","","null","Agent A","STIM_SET_1_REAL/713593.bmp_pp64_L1_V1.0_veridical_freeview_isoFalse_fps144.mp4"
"","","","call-function","384","1208394","0.0-384.0","7yzxlh4j","","","","","",""
"4783.610000000102","{""pre-1"":1}","[0]","survey-likert","385","1213178","0.0-385.0","7yzxlh4j","","","","","",""
"2243.030000000028","{""pre-2"":1}","[0]","survey-likert","386","1215422","0.0-386.0","7yzxlh4j","","","","","",""
"1945.344999999972","{""pre-3"":0}","[0]","survey-likert","387","1217369","0.0-387.0","7yzxlh4j","","","","","",""
"1776.6299999998882","{""post-5"":2}","[0]","survey-likert","388","1219146","0.0-388.0","7yzxlh4j","","","","","",""
"","","","call-function","389","1219147","0.0-389.0","7yzxlh4j","","","","","",""
"null","","","video-keyboard-response","390","1222231","0.0-390.0","7yzxlh4j","","","","null","Agent A","STIM_SET_1_REAL/1593041.bmp_pp58_L1_V1.0_scrambled_freeview_isoFalse_fps144.mp4"
"","","","call-function","391","1222232","0.0-391.0","7yzxlh4j","","","","","",""
"4787.810000000056","{""pre-1"":2}","[0]","survey-likert","392","1227021","0.0-392.0","7yzxlh4j","","","","","",""
"3196.090000000084","{""pre-2"":1}","[0]","survey-likert","393","1230218","0.0-393.0","7yzxlh4j","","","","","",""
"2302.2399999999907","{""pre-3"":1}","[0]","survey-likert","394","1232521","0.0-394.0","7yzxlh4j","","","","","",""
"2718.8950000000186","{""post-5"":0}","[0]","survey-likert","395","1235241","0.0-395.0","7yzxlh4j","","","","","",""
"","","","call-function","396","1235243","0.0-396.0","7yzxlh4j","","","","","",""
"null","","","video-keyboard-response","397","1238351","0.0-397.0","7yzxlh4j","","","","null","Agent A","STIM_SET_1_REAL/713135.bmp_pp54_L2_V1.0_scrambled_freeview_isoFalse_fps144.mp4"
"","","","call-function","398","1238352","0.0-398.0","7yzxlh4j","","","","","",""
"2740.6800000001676","{""pre-1"":1}","[0]","survey-likert","399","1241094","0.0-399.0","7yzxlh4j","","","","","",""
"2070.0150000001304","{""pre-2"":0}","[0]","survey-likert","400","1243165","0.0-400.0","7yzxlh4j","","","","","",""
"2828.5100000000093","{""pre-3"":0}","[0]","survey-likert","401","1245995","0.0-401.0","7yzxlh4j","","","","","",""
"2274.9600000001956","{""post-5"":1}","[0]","survey-likert","402","1248271","0.0-402.0","7yzxlh4j","","","","","",""
"","","","call-function","403","1248271","0.0-403.0","7yzxlh4j","","","","","",""
"null","","","video-keyboard-response","404","1251331","0.0-404.0","7yzxlh4j","","","","null","Agent A","STIM_SET_1_REAL/498149.bmp_pp99_L2_V1.0_veridical_freeview_isoFalse_fps144.mp4"
"","","","call-function","405","1251332","0.0-405.0","7yzxlh4j","","","","","",""
"3482.0550000001676","{""pre-1"":0}","[0]","survey-likert","406","1254815","0.0-406.0","7yzxlh4j","","","","","",""
"2068.1149999999907","{""pre-2"":0}","[0]","survey-likert","407","1256884","0.0-407.0","7yzxlh4j","","","","","",""
"1876.0900000000838","{""pre-3"":0}","[0]","survey-likert","408","1258762","0.0-408.0","7yzxlh4j","","","","","",""
"1998.3600000001024","{""post-5"":3}","[0]","survey-likert","409","1260761","0.0-409.0","7yzxlh4j","","","","","",""
"","","","call-function","410","1260762","0.0-410.0","7yzxlh4j","","","","","",""
"null","","","video-keyboard-response","411","1263837","0.0-411.0","7yzxlh4j","","","","null","Agent A","STIM_SET_1_REAL/713593.bmp_pp64_L1_V1.0_scrambled_freeview_isoFalse_fps144.mp4"
"","","","call-function","412","1263838","0.0-412.0","7yzxlh4j","","","","","",""
"3525.7350000001024","{""pre-1"":1}","[0]","survey-likert","413","1267365","0.0-413.0","7yzxlh4j","","","","","",""
"2456.2249999998603","{""pre-2"":0}","[0]","survey-likert","414","1269822","0.0-414.0","7yzxlh4j","","","","","",""
"2510.9599999999627","{""pre-3"":0}","[0]","survey-likert","415","1272334","0.0-415.0","7yzxlh4j","","","","","",""
"2741.904999999795","{""post-5"":3}","[0]","survey-likert","416","1275077","0.0-416.0","7yzxlh4j","","","","","",""
"","","","call-function","417","1275077","0.0-417.0","7yzxlh4j","","","","","",""
"null","","","video-keyboard-response","418","1278138","0.0-418.0","7yzxlh4j","","","","null","Agent A","STIM_SET_1_REAL/1159621.bmp_pp92_L3_V1.0_scrambled_freeview_isoFalse_fps144.mp4"
"","","","call-function","419","1278138","0.0-419.0","7yzxlh4j","","","","","",""
"2701.189999999944","{""pre-1"":1}","[0]","survey-likert","420","1280840","0.0-420.0","7yzxlh4j","","","","","",""
"5683.324999999953","{""pre-2"":1}","[0]","survey-likert","421","1286525","0.0-421.0","7yzxlh4j","","","","","",""
"2391.5849999999627","{""pre-3"":0}","[0]","survey-likert","422","1288919","0.0-422.0","7yzxlh4j","","","","","",""
"2338.7650000001304","{""post-5"":2}","[0]","survey-likert","423","1291259","0.0-423.0","7yzxlh4j","","","","","",""
"","","","call-function","424","1291260","0.0-424.0","7yzxlh4j","","","","","",""
"null","","","video-keyboard-response","425","1294354","0.0-425.0","7yzxlh4j","","","","null","Agent A","STIM_SET_1_REAL/1592807.bmp_pp68_L1_V1.0_scrambled_freeview_isoFalse_fps144.mp4"
"","","","call-function","426","1294354","0.0-426.0","7yzxlh4j","","","","","",""
"5455.225000000093","{""pre-1"":3}","[0]","survey-likert","427","1299811","0.0-427.0","7yzxlh4j","","","","","",""
"1844.6200000001118","{""pre-2"":3}","[0]","survey-likert","428","1301656","0.0-428.0","7yzxlh4j","","","","","",""
"1313.7050000000745","{""pre-3"":3}","[0]","survey-likert","429","1302971","0.0-429.0","7yzxlh4j","","","","","",""
"2429.0100000000093","{""post-5"":0}","[0]","survey-likert","430","1305401","0.0-430.0","7yzxlh4j","","","","","",""
"","","","call-function","431","1305402","0.0-431.0","7yzxlh4j","","","","","",""
"null","","","video-keyboard-response","432","1308478","0.0-432.0","7yzxlh4j","","","","null","Agent A","STIM_SET_1_REAL/713620.bmp_pp65_L3_V1.0_scrambled_freeview_isoFalse_fps144.mp4"
"","","","call-function","433","1308479","0.0-433.0","7yzxlh4j","","","","","",""
"3923.4150000000373","{""pre-1"":2}","[0]","survey-likert","434","1312403","0.0-434.0","7yzxlh4j","","","","","",""
"2345.094999999972","{""pre-2"":2}","[0]","survey-likert","435","1314749","0.0-435.0","7yzxlh4j","","","","","",""
"2654.8799999998882","{""pre-3"":2}","[0]","survey-likert","436","1317405","0.0-436.0","7yzxlh4j","","","","","",""
"1617.1599999999162","{""post-5"":0}","[0]","survey-likert","437","1319024","0.0-437.0","7yzxlh4j","","","","","",""
"","","","call-function","438","1319025","0.0-438.0","7yzxlh4j","","","","","",""
"null","","","video-keyboard-response","439","1322099","0.0-439.0","7yzxlh4j","","","","null","Agent A","STIM_SET_1_REAL/61537.bmp_pp73_L3_V1.0_veridical_freeview_isoFalse_fps144.mp4"
"","","","call-function","440","1322100","0.0-440.0","7yzxlh4j","","","","","",""
"3807.4499999999534","{""pre-1"":2}","[0]","survey-likert","441","1325908","0.0-441.0","7yzxlh4j","","","","","",""
"1488.7749999999069","{""pre-2"":2}","[0]","survey-likert","442","1327398","0.0-442.0","7yzxlh4j","","","","","",""
"2678.4500000001863","{""pre-3"":2}","[0]","survey-likert","443","1330077","0.0-443.0","7yzxlh4j","","","","","",""
"2882.9550000000745","{""post-5"":1}","[0]","survey-likert","444","1332961","0.0-444.0","7yzxlh4j","","","","","",""
"2029.9200000001583","","","instructions","445","1334992","0.0-445.0","7yzxlh4j","[{""page_index"":0,""viewing_time"":788.7800000000279},{""page_index"":1,""viewing_time"":633.2450000001118},{""page_index"":2,""viewing_time"":607.1949999998324}]","","","","",""
"2475.2350000001024","","","instructions","446","1337469","0.0-446.0","7yzxlh4j","[{""page_index"":0,""viewing_time"":698.5400000000373},{""page_index"":1,""viewing_time"":1250.6899999999441},{""page_index"":2,""viewing_time"":525.9050000000279}]","","","","",""
"","","","call-function","447","1337470","0.0-447.0","7yzxlh4j","","","","","",""
"null","","","video-keyboard-response","448","1340536","0.0-448.0","7yzxlh4j","","","","null","Agent A","STIM_SET_1_REAL/713779.bmp_pp152_L2_V1.0_veridical_freeview_isoFalse_fps144.mp4"
"","","","call-function","449","1340537","0.0-449.0","7yzxlh4j","","","","","",""
"13762.604999999981","{""pre-1"":1}","[0]","survey-likert","450","1354300","0.0-450.0","7yzxlh4j","","","","","",""
"3037.185000000056","{""pre-2"":1}","[0]","survey-likert","451","1357339","0.0-451.0","7yzxlh4j","","","","","",""
"3658.3899999998976","{""pre-3"":0}","[0]","survey-likert","452","1360999","0.0-452.0","7yzxlh4j","","","","","",""
"5563.665000000037","{""post-5"":3}","[0]","survey-likert","453","1366564","0.0-453.0","7yzxlh4j","","","","","",""
"","","","call-function","454","1366564","0.0-454.0","7yzxlh4j","","","","","",""
"null","","","video-keyboard-response","455","1369635","0.0-455.0","7yzxlh4j","","","","null","Agent A","STIM_SET_1_REAL/713403.bmp_pp80_L3_V1.0_scrambled_freeview_isoFalse_fps144.mp4"
"","","","call-function","456","1369636","0.0-456.0","7yzxlh4j","","","","","",""
"2808.7700000000186","{""pre-1"":1}","[0]","survey-likert","457","1372446","0.0-457.0","7yzxlh4j","","","","","",""
"1848.3649999999907","{""pre-2"":0}","[0]","survey-likert","458","1374295","0.0-458.0","7yzxlh4j","","","","","",""
"1826.125","{""pre-3"":0}","[0]","survey-likert","459","1376122","0.0-459.0","7yzxlh4j","","","","","",""
"2469.8299999998417","{""post-5"":2}","[0]","survey-likert","460","1378593","0.0-460.0","7yzxlh4j","","","","","",""
"","","","call-function","461","1378594","0.0-461.0","7yzxlh4j","","","","","",""
"null","","","video-keyboard-response","462","1381654","0.0-462.0","7yzxlh4j","","","","null","Agent A","STIM_SET_1_REAL/1159447.bmp_pp70_L2_V1.0_veridical_freeview_isoFalse_fps144.mp4"
"","","","call-function","463","1381654","0.0-463.0","7yzxlh4j","","","","","",""
"6762.334999999963","{""pre-1"":2}","[0]","survey-likert","464","1388417","0.0-464.0","7yzxlh4j","","","","","",""
"1718.7399999999907","{""pre-2"":2}","[0]","survey-likert","465","1390137","0.0-465.0","7yzxlh4j","","","","","",""
"3366.3000000000466","{""pre-3"":1}","[0]","survey-likert","466","1393505","0.0-466.0","7yzxlh4j","","","","","",""
"2539.399999999907","{""post-5"":0}","[0]","survey-likert","467","1396046","0.0-467.0","7yzxlh4j","","","","","",""
"","","","call-function","468","1396047","0.0-468.0","7yzxlh4j","","","","","",""
"null","","","video-keyboard-response","469","1399113","0.0-469.0","7yzxlh4j","","","","null","Agent A","STIM_SET_1_REAL/498170.bmp_pp153_L3_V1.0_veridical_freeview_isoFalse_fps144.mp4"
"","","","call-function","470","1399114","0.0-470.0","7yzxlh4j","","","","","",""
"3281.064999999944","{""pre-1"":2}","[0]","survey-likert","471","1402396","0.0-471.0","7yzxlh4j","","","","","",""
"2691.399999999907","{""pre-2"":3}","[0]","survey-likert","472","1405089","0.0-472.0","7yzxlh4j","","","","","",""
"2391.9149999998044","{""pre-3"":2}","[0]","survey-likert","473","1407482","0.0-473.0","7yzxlh4j","","","","","",""
"1668.6799999999348","{""post-5"":0}","[0]","survey-likert","474","1409152","0.0-474.0","7yzxlh4j","","","","","",""
"","","","call-function","475","1409152","0.0-475.0","7yzxlh4j","","","","","",""
"null","","","video-keyboard-response","476","1412228","0.0-476.0","7yzxlh4j","","","","null","Agent A","STIM_SET_1_REAL/713211.bmp_pp100_L3_V1.0_scrambled_freeview_isoFalse_fps144.mp4"
"","","","call-function","477","1412229","0.0-477.0","7yzxlh4j","","","","","",""
"3436","{""pre-1"":1}","[0]","survey-likert","478","1415666","0.0-478.0","7yzxlh4j","","","","","",""
"2922.820000000065","{""pre-2"":0}","[0]","survey-likert","479","1418590","0.0-479.0","7yzxlh4j","","","","","",""
"2964.5999999998603","{""pre-3"":0}","[0]","survey-likert","480","1421556","0.0-480.0","7yzxlh4j","","","","","",""
"1973.255000000121","{""post-5"":2}","[0]","survey-likert","481","1423531","0.0-481.0","7yzxlh4j","","","","","",""
"","","","call-function","482","1423531","0.0-482.0","7yzxlh4j","","","","","",""
"null","","","video-keyboard-response","483","1426598","0.0-483.0","7yzxlh4j","","","","null","Agent A","STIM_SET_1_REAL/1159768.bmp_pp89_L1_V1.0_veridical_freeview_isoFalse_fps144.mp4"
"","","","call-function","484","1426598","0.0-484.0","7yzxlh4j","","","","","",""
"9563.23999999999","{""pre-1"":0}","[0]","survey-likert","485","1436163","0.0-485.0","7yzxlh4j","","","","","",""
"2086.179999999935","{""pre-2"":0}","[0]","survey-likert","486","1438251","0.0-486.0","7yzxlh4j","","","","","",""
"2403.435000000056","{""pre-3"":0}","[0]","survey-likert","487","1440655","0.0-487.0","7yzxlh4j","","","","","",""
"4645.189999999944","{""post-5"":3}","[0]","survey-likert","488","1445301","0.0-488.0","7yzxlh4j","","","","","",""
"","","","call-function","489","1445302","0.0-489.0","7yzxlh4j","","","","","",""
"null","","","video-keyboard-response","490","1448367","0.0-490.0","7yzxlh4j","","","","null","Agent A","STIM_SET_1_REAL/1592397.bmp_pp85_L3_V1.0_scrambled_freeview_isoFalse_fps144.mp4"
"","","","call-function","491","1448368","0.0-491.0","7yzxlh4j","","","","","",""
"3201.590000000084","{""pre-1"":3}","[0]","survey-likert","492","1451571","0.0-492.0","7yzxlh4j","","","","","",""
"2114.530000000028","{""pre-2"":2}","[0]","survey-likert","493","1453688","0.0-493.0","7yzxlh4j","","","","","",""
"3074.725000000093","{""pre-3"":1}","[0]","survey-likert","494","1456765","0.0-494.0","7yzxlh4j","","","","","",""
"2023.5","{""post-5"":0}","[0]","survey-likert","495","1458790","0.0-495.0","7yzxlh4j","","","","","",""
"","","","call-function","496","1458791","0.0-496.0","7yzxlh4j","","","","","",""
"null","","","video-keyboard-response","497","1461860","0.0-497.0","7yzxlh4j","","","","null","Agent A","STIM_SET_1_REAL/713513.bmp_pp62_L2_V1.0_scrambled_freeview_isoFalse_fps144.mp4"
"","","","call-function","498","1461861","0.0-498.0","7yzxlh4j","","","","","",""
"3959.0800000000745","{""pre-1"":1}","[0]","survey-likert","499","1465821","0.0-499.0","7yzxlh4j","","","","","",""
"2001.469999999972","{""pre-2"":0}","[0]","survey-likert","500","1467823","0.0-500.0","7yzxlh4j","","","","","",""
"2924.8649999999907","{""pre-3"":0}","[0]","survey-likert","501","1470750","0.0-501.0","7yzxlh4j","","","","","",""
"4268.879999999888","{""post-5"":1}","[0]","survey-likert","502","1475020","0.0-502.0","7yzxlh4j","","","","","",""
"","","","call-function","503","1475021","0.0-503.0","7yzxlh4j","","","","","",""
"null","","","video-keyboard-response","504","1478095","0.0-504.0","7yzxlh4j","","","","null","Agent A","STIM_SET_1_REAL/498155.bmp_pp61_L2_V1.0_veridical_freeview_isoFalse_fps144.mp4"
"","","","call-function","505","1478096","0.0-505.0","7yzxlh4j","","","","","",""
"3200.2299999999814","{""pre-1"":2}","[0]","survey-likert","506","1481297","0.0-506.0","7yzxlh4j","","","","","",""
"2283.695000000065","{""pre-2"":2}","[0]","survey-likert","507","1483582","0.0-507.0","7yzxlh4j","","","","","",""
"3401.219999999972","{""pre-3"":1}","[0]","survey-likert","508","1486985","0.0-508.0","7yzxlh4j","","","","","",""
"2331.8850000000093","{""post-5"":0}","[0]","survey-likert","509","1489318","0.0-509.0","7yzxlh4j","","","","","",""
"","","","call-function","510","1489318","0.0-510.0","7yzxlh4j","","","","","",""
"null","","","video-keyboard-response","511","1492393","0.0-511.0","7yzxlh4j","","","","null","Agent A","STIM_SET_1_REAL/1160127.bmp_pp90_L2_V1.0_scrambled_freeview_isoFalse_fps144.mp4"
"","","","call-function","512","1492393","0.0-512.0","7yzxlh4j","","","","","",""
"3014.219999999972","{""pre-1"":1}","[0]","survey-likert","513","1495409","0.0-513.0","7yzxlh4j","","","","","",""
"1856.2900000000373","{""pre-2"":1}","[0]","survey-likert","514","1497266","0.0-514.0","7yzxlh4j","","","","","",""
"3199.0500000000466","{""pre-3"":0}","[0]","survey-likert","515","1500466","0.0-515.0","7yzxlh4j","","","","","",""
"2942.7750000001397","{""post-5"":2}","[0]","survey-likert","516","1503411","0.0-516.0","7yzxlh4j","","","","","",""
"","","","call-function","517","1503411","0.0-517.0","7yzxlh4j","","","","","",""
"null","","","video-keyboard-response","518","1506475","0.0-518.0","7yzxlh4j","","","","null","Agent A","STIM_SET_1_REAL/497950.bmp_pp151_L1_V1.0_scrambled_freeview_isoFalse_fps144.mp4"
"","","","call-function","519","1506477","0.0-519.0","7yzxlh4j","","","","","",""
"28057.834999999963","{""pre-1"":1}","[0]","survey-likert","520","1534536","0.0-520.0","7yzxlh4j","","","","","",""
"2703.25","{""pre-2"":0}","[0]","survey-likert","521","1537241","0.0-521.0","7yzxlh4j","","","","","",""
"1510.219999999972","{""pre-3"":0}","[0]","survey-likert","522","1538752","0.0-522.0","7yzxlh4j","","","","","",""
"3130.9150000000373","{""post-5"":3}","[0]","survey-likert","523","1541884","0.0-523.0","7yzxlh4j","","","","","",""
"","","","call-function","524","1541885","0.0-524.0","7yzxlh4j","","","","","",""
"null","","","video-keyboard-response","525","1544958","0.0-525.0","7yzxlh4j","","","","null","Agent A","STIM_SET_1_REAL/1159440.bmp_pp98_L1_V1.0_veridical_freeview_isoFalse_fps144.mp4"
"","","","call-function","526","1544958","0.0-526.0","7yzxlh4j","","","","","",""
"2956.5100000000093","{""pre-1"":2}","[0]","survey-likert","527","1547916","0.0-527.0","7yzxlh4j","","","","","",""
"7593.590000000084","{""pre-2"":2}","[0]","survey-likert","528","1555511","0.0-528.0","7yzxlh4j","","","","","",""
"3008.590000000084","{""pre-3"":1}","[0]","survey-likert","529","1558521","0.0-529.0","7yzxlh4j","","","","","",""
"3363.3600000001024","{""post-5"":0}","[0]","survey-likert","530","1561885","0.0-530.0","7yzxlh4j","","","","","",""
"","","","call-function","531","1561886","0.0-531.0","7yzxlh4j","","","","","",""
"null","","","video-keyboard-response","532","1564975","0.0-532.0","7yzxlh4j","","","","null","Agent A","STIM_SET_1_REAL/1159813.bmp_pp79_L2_V1.0_veridical_freeview_isoFalse_fps144.mp4"
"","","","call-function","533","1564975","0.0-533.0","7yzxlh4j","","","","","",""
"2899.3950000000186","{""pre-1"":3}","[0]","survey-likert","534","1567875","0.0-534.0","7yzxlh4j","","","","","",""
"1783.5200000000186","{""pre-2"":2}","[0]","survey-likert","535","1569660","0.0-535.0","7yzxlh4j","","","","","",""
"1325.1699999999255","{""pre-3"":1}","[0]","survey-likert","536","1570986","0.0-536.0","7yzxlh4j","","","","","",""
"1585.4599999999627","{""post-5"":0}","[0]","survey-likert","537","1572573","0.0-537.0","7yzxlh4j","","","","","",""
"","","","call-function","538","1572573","0.0-538.0","7yzxlh4j","","","","","",""
"null","","","video-keyboard-response","539","1575632","0.0-539.0","7yzxlh4j","","","","null","Agent A","STIM_SET_1_REAL/286001.bmp_pp54_L2_V1.0_scrambled_freeview_isoFalse_fps144.mp4"
"","","","call-function","540","1575632","0.0-540.0","7yzxlh4j","","","","","",""
"2548.119999999879","{""pre-1"":0}","[0]","survey-likert","541","1578181","0.0-541.0","7yzxlh4j","","","","","",""
"1877.8649999999907","{""pre-2"":0}","[0]","survey-likert","542","1580061","0.0-542.0","7yzxlh4j","","","","","",""
"1465.155000000028","{""pre-3"":0}","[0]","survey-likert","543","1581528","0.0-543.0","7yzxlh4j","","","","","",""
"2151.190000000177","{""post-5"":3}","[0]","survey-likert","544","1583682","0.0-544.0","7yzxlh4j","","","","","",""
"","","","call-function","545","1583682","0.0-545.0","7yzxlh4j","","","","","",""
"null","","","video-keyboard-response","546","1586743","0.0-546.0","7yzxlh4j","","","","null","Agent A","STIM_SET_1_REAL/713779.bmp_pp152_L2_V1.0_scrambled_freeview_isoFalse_fps144.mp4"
"","","","call-function","547","1586743","0.0-547.0","7yzxlh4j","","","","","",""
"4071.0849999999627","{""pre-1"":2}","[0]","survey-likert","548","1590815","0.0-548.0","7yzxlh4j","","","","","",""
"3720.094999999972","{""pre-2"":0}","[0]","survey-likert","549","1594537","0.0-549.0","7yzxlh4j","","","","","",""
"2441.344999999972","{""pre-3"":0}","[0]","survey-likert","550","1596979","0.0-550.0","7yzxlh4j","","","","","",""
"1597.469999999972","{""post-5"":1}","[0]","survey-likert","551","1598578","0.0-551.0","7yzxlh4j","","","","","",""
"","","","call-function","552","1598579","0.0-552.0","7yzxlh4j","","","","","",""
"null","","","video-keyboard-response","553","1601638","0.0-553.0","7yzxlh4j","","","","null","Agent A","STIM_SET_1_REAL/1593035.bmp_pp94_L2_V1.0_veridical_freeview_isoFalse_fps144.mp4"
"","","","call-function","554","1601638","0.0-554.0","7yzxlh4j","","","","","",""
"2471.070000000065","{""pre-1"":1}","[0]","survey-likert","555","1604110","0.0-555.0","7yzxlh4j","","","","","",""
"2193.345000000205","{""pre-2"":1}","[0]","survey-likert","556","1606304","0.0-556.0","7yzxlh4j","","","","","",""
"2866.939999999944","{""pre-3"":0}","[0]","survey-likert","557","1609172","0.0-557.0","7yzxlh4j","","","","","",""
"3124.9199999999255","{""post-5"":2}","[0]","survey-likert","558","1612298","0.0-558.0","7yzxlh4j","","","","","",""
"","","","call-function","559","1612299","0.0-559.0","7yzxlh4j","","","","","",""
"null","","","video-keyboard-response","560","1615373","0.0-560.0","7yzxlh4j","","","","null","Agent A","STIM_SET_1_REAL/712977.bmp_pp51_L1_V1.0_veridical_freeview_isoFalse_fps144.mp4"
"","","","call-function","561","1615373","0.0-561.0","7yzxlh4j","","","","","",""
"4784.690000000177","{""pre-1"":1}","[0]","survey-likert","562","1620159","0.0-562.0","7yzxlh4j","","","","","",""
"1512.6799999999348","{""pre-2"":0}","[0]","survey-likert","563","1621673","0.0-563.0","7yzxlh4j","","","","","",""
"1234.630000000121","{""pre-3"":0}","[0]","survey-likert","564","1622908","0.0-564.0","7yzxlh4j","","","","","",""
"1894.5249999999069","{""post-5"":3}","[0]","survey-likert","565","1624804","0.0-565.0","7yzxlh4j","","","","","",""
"","","","call-function","566","1624804","0.0-566.0","7yzxlh4j","","","","","",""
"null","","","video-keyboard-response","567","1627867","0.0-567.0","7yzxlh4j","","","","null","Agent A","STIM_SET_1_REAL/1592817.bmp_pp55_L3_V1.0_veridical_freeview_isoFalse_fps144.mp4"
"","","","call-function","568","1627867","0.0-568.0","7yzxlh4j","","","","","",""
"3114.8349999999627","{""pre-1"":2}","[0]","survey-likert","569","1630983","0.0-569.0","7yzxlh4j","","","","","",""
"1414.9599999999627","{""pre-2"":1}","[0]","survey-likert","570","1632399","0.0-570.0","7yzxlh4j","","","","","",""
"1788.3500000000931","{""pre-3"":0}","[0]","survey-likert","571","1634188","0.0-571.0","7yzxlh4j","","","","","",""
"1678.219999999972","{""post-5"":0}","[0]","survey-likert","572","1635868","0.0-572.0","7yzxlh4j","","","","","",""
"","","","call-function","573","1635868","0.0-573.0","7yzxlh4j","","","","","",""
"null","","","video-keyboard-response","574","1638985","0.0-574.0","7yzxlh4j","","","","null","Agent A","STIM_SET_1_REAL/713684.bmp_pp85_L3_V1.0_scrambled_freeview_isoFalse_fps144.mp4"
"","","","call-function","575","1638986","0.0-575.0","7yzxlh4j","","","","","",""
"4184.719999999972","{""pre-1"":1}","[0]","survey-likert","576","1643172","0.0-576.0","7yzxlh4j","","","","","",""
"4392.829999999842","{""pre-2"":0}","[0]","survey-likert","577","1647566","0.0-577.0","7yzxlh4j","","","","","",""
"10248.479999999981","{""pre-3"":0}","[0]","survey-likert","578","1657816","0.0-578.0","7yzxlh4j","","","","","",""
"2233.064999999944","{""post-5"":2}","[0]","survey-likert","579","1660050","0.0-579.0","7yzxlh4j","","","","","",""
"","","","call-function","580","1660051","0.0-580.0","7yzxlh4j","","","","","",""
"null","","","video-keyboard-response","581","1663141","0.0-581.0","7yzxlh4j","","","","null","Agent A","STIM_SET_1_REAL/713666.bmp_pp97_L3_V1.0_scrambled_freeview_isoFalse_fps144.mp4"
"","","","call-function","582","1663141","0.0-582.0","7yzxlh4j","","","","","",""
"3220.8349999999627","{""pre-1"":0}","[0]","survey-likert","583","1666363","0.0-583.0","7yzxlh4j","","","","","",""
"1703.3349999999627","{""pre-2"":0}","[0]","survey-likert","584","1668068","0.0-584.0","7yzxlh4j","","","","","",""
"1359.3149999999441","{""pre-3"":0}","[0]","survey-likert","585","1669429","0.0-585.0","7yzxlh4j","","","","","",""
"2153.9550000000745","{""post-5"":3}","[0]","survey-likert","586","1671584","0.0-586.0","7yzxlh4j","","","","","",""
"31820.26000000001","","","instructions","587","1703405","0.0-587.0","7yzxlh4j","[{""page_index"":0,""viewing_time"":868.1199999998789},{""page_index"":1,""viewing_time"":30513.315000000177},{""page_index"":2,""viewing_time"":438.5799999998417}]","","","","",""
"1207.5150000001304","","","instructions","588","1704612","0.0-588.0","7yzxlh4j","[{""page_index"":0,""viewing_time"":338.5800000000745},{""page_index"":1,""viewing_time"":466.73500000010245},{""page_index"":2,""viewing_time"":402.09499999997206}]","","","","",""
"","","","call-function","589","1704613","0.0-589.0","7yzxlh4j","","","","","",""
"null","","","video-keyboard-response","590","1707712","0.0-590.0","7yzxlh4j","","","","null","Agent A","STIM_SET_1_REAL/1592934.bmp_pp63_L1_V1.0_scrambled_freeview_isoFalse_fps144.mp4"
"","","","call-function","591","1707713","0.0-591.0","7yzxlh4j","","","","","",""
"2716.2349999998696","{""pre-1"":2}","[0]","survey-likert","592","1710430","0.0-592.0","7yzxlh4j","","","","","",""
"2260.0750000001863","{""pre-2"":1}","[0]","survey-likert","593","1712691","0.0-593.0","7yzxlh4j","","","","","",""
"2987.780000000028","{""pre-3"":0}","[0]","survey-likert","594","1715680","0.0-594.0","7yzxlh4j","","","","","",""
"2008.7950000001583","{""post-5"":0}","[0]","survey-likert","595","1717690","0.0-595.0","7yzxlh4j","","","","","",""
"","","","call-function","596","1717690","0.0-596.0","7yzxlh4j","","","","","",""
"null","","","video-keyboard-response","597","1720767","0.0-597.0","7yzxlh4j","","","","null","Agent A","STIM_SET_1_REAL/1591994.bmp_pp69_L3_V1.0_veridical_freeview_isoFalse_fps144.mp4"
"","","","call-function","598","1720767","0.0-598.0","7yzxlh4j","","","","","",""
"2912.839999999851","{""pre-1"":2}","[0]","survey-likert","599","1723681","0.0-599.0","7yzxlh4j","","","","","",""
"2135.8499999998603","{""pre-2"":3}","[0]","survey-likert","600","1725818","0.0-600.0","7yzxlh4j","","","","","",""
"1937.0200000000186","{""pre-3"":1}","[0]","survey-likert","601","1727756","0.0-601.0","7yzxlh4j","","","","","",""
"2237.4549999998417","{""post-5"":0}","[0]","survey-likert","602","1729995","0.0-602.0","7yzxlh4j","","","","","",""
"","","","call-function","603","1729995","0.0-603.0","7yzxlh4j","","","","","",""
"null","","","video-keyboard-response","604","1733057","0.0-604.0","7yzxlh4j","","","","null","Agent A","STIM_SET_1_REAL/1159621.bmp_pp92_L3_V1.0_veridical_freeview_isoFalse_fps144.mp4"
"","","","call-function","605","1733058","0.0-605.0","7yzxlh4j","","","","","",""
"1990.1799999999348","{""pre-1"":2}","[0]","survey-likert","606","1735050","0.0-606.0","7yzxlh4j","","","","","",""
"1849.125","{""pre-2"":2}","[0]","survey-likert","607","1736901","0.0-607.0","7yzxlh4j","","","","","",""
"3466.3549999999814","{""pre-3"":2}","[0]","survey-likert","608","1740370","0.0-608.0","7yzxlh4j","","","","","",""
"1888.1450000000186","{""post-5"":0}","[0]","survey-likert","609","1742259","0.0-609.0","7yzxlh4j","","","","","",""
"","","","call-function","610","1742260","0.0-610.0","7yzxlh4j","","","","","",""
"null","","","video-keyboard-response","611","1745326","0.0-611.0","7yzxlh4j","","","","null","Agent A","STIM_SET_1_REAL/1592499.bmp_pp96_L2_V1.0_scrambled_freeview_isoFalse_fps144.mp4"
"","","","call-function","612","1745327","0.0-612.0","7yzxlh4j","","","","","",""
"2625.225000000093","{""pre-1"":0}","[0]","survey-likert","613","1747954","0.0-613.0","7yzxlh4j","","","","","",""
"1490.9850000001024","{""pre-2"":0}","[0]","survey-likert","614","1749446","0.0-614.0","7yzxlh4j","","","","","",""
"2980.274999999907","{""pre-3"":0}","[0]","survey-likert","615","1752427","0.0-615.0","7yzxlh4j","","","","","",""
"2614.445000000065","{""post-5"":3}","[0]","survey-likert","616","1755043","0.0-616.0","7yzxlh4j","","","","","",""
"","","","call-function","617","1755044","0.0-617.0","7yzxlh4j","","","","","",""
"null","","","video-keyboard-response","618","1758127","0.0-618.0","7yzxlh4j","","","","null","Agent A","STIM_SET_1_REAL/1592499.bmp_pp96_L2_V1.0_veridical_freeview_isoFalse_fps144.mp4"
"","","","call-function","619","1758127","0.0-619.0","7yzxlh4j","","","","","",""
"3918.8549999999814","{""pre-1"":2}","[0]","survey-likert","620","1762047","0.0-620.0","7yzxlh4j","","","","","",""
"2060.7900000000373","{""pre-2"":2}","[0]","survey-likert","621","1764109","0.0-621.0","7yzxlh4j","","","","","",""
"1628.5499999998137","{""pre-3"":0}","[0]","survey-likert","622","1765739","0.0-622.0","7yzxlh4j","","","","","",""
"2379.2900000000373","{""post-5"":1}","[0]","survey-likert","623","1768119","0.0-623.0","7yzxlh4j","","","","","",""
"","","","call-function","624","1768120","0.0-624.0","7yzxlh4j","","","","","",""
"null","","","video-keyboard-response","625","1771197","0.0-625.0","7yzxlh4j","","","","null","Agent A","STIM_SET_1_REAL/713620.bmp_pp65_L3_V1.0_veridical_freeview_isoFalse_fps144.mp4"
"","","","call-function","626","1771197","0.0-626.0","7yzxlh4j","","","","","",""
"2891.7399999999907","{""pre-1"":1}","[0]","survey-likert","627","1774090","0.0-627.0","7yzxlh4j","","","","","",""
"3431.8850000000093","{""pre-2"":1}","[0]","survey-likert","628","1777523","0.0-628.0","7yzxlh4j","","","","","",""
"1266.2750000001397","{""pre-3"":0}","[0]","survey-likert","629","1778790","0.0-629.0","7yzxlh4j","","","","","",""
"1740.8799999998882","{""post-5"":1}","[0]","survey-likert","630","1780532","0.0-630.0","7yzxlh4j","","","","","",""
"","","","call-function","631","1780533","0.0-631.0","7yzxlh4j","","","","","",""
"null","","","video-keyboard-response","632","1783662","0.0-632.0","7yzxlh4j","","","","null","Agent A","STIM_SET_1_REAL/1591954.bmp_pp62_L2_V1.0_scrambled_freeview_isoFalse_fps144.mp4"
"","","","call-function","633","1783662","0.0-633.0","7yzxlh4j","","","","","",""
"4133.439999999944","{""pre-1"":2}","[0]","survey-likert","634","1787797","0.0-634.0","7yzxlh4j","","","","","",""
"3623.064999999944","{""pre-2"":2}","[0]","survey-likert","635","1791422","0.0-635.0","7yzxlh4j","","","","","",""
"2990.899999999907","{""pre-3"":0}","[0]","survey-likert","636","1794415","0.0-636.0","7yzxlh4j","","","","","",""
"2448.8600000001024","{""post-5"":1}","[0]","survey-likert","637","1796865","0.0-637.0","7yzxlh4j","","","","","",""
"","","","call-function","638","1796866","0.0-638.0","7yzxlh4j","","","","","",""
"null","","","video-keyboard-response","639","1799973","0.0-639.0","7yzxlh4j","","","","null","Agent A","STIM_SET_1_REAL/1160168.bmp_pp53_L2_V1.0_scrambled_freeview_isoFalse_fps144.mp4"
"","","","call-function","640","1799974","0.0-640.0","7yzxlh4j","","","","","",""
"15326.454999999842","{""pre-1"":1}","[0]","survey-likert","641","1815301","0.0-641.0","7yzxlh4j","","","","","",""
"1653.125","{""pre-2"":1}","[0]","survey-likert","642","1816956","0.0-642.0","7yzxlh4j","","","","","",""
"1187.5800000000745","{""pre-3"":1}","[0]","survey-likert","643","1818144","0.0-643.0","7yzxlh4j","","","","","",""
"2712.3549999999814","{""post-5"":2}","[0]","survey-likert","644","1820858","0.0-644.0","7yzxlh4j","","","","","",""
"","","","call-function","645","1820859","0.0-645.0","7yzxlh4j","","","","","",""
"null","","","video-keyboard-response","646","1823962","0.0-646.0","7yzxlh4j","","","","null","Agent A","STIM_SET_1_REAL/1592727.bmp_pp59_L3_V1.0_scrambled_freeview_isoFalse_fps144.mp4"
"","","","call-function","647","1823962","0.0-647.0","7yzxlh4j","","","","","",""
"2076.284999999916","{""pre-1"":2}","[0]","survey-likert","648","1826040","0.0-648.0","7yzxlh4j","","","","","",""
"4488.23499999987","{""pre-2"":1}","[0]","survey-likert","649","1830529","0.0-649.0","7yzxlh4j","","","","","",""
"1935.155000000028","{""pre-3"":0}","[0]","survey-likert","650","1832466","0.0-650.0","7yzxlh4j","","","","","",""
"2255.6949999998324","{""post-5"":1}","[0]","survey-likert","651","1834723","0.0-651.0","7yzxlh4j","","","","","",""
"","","","call-function","652","1834723","0.0-652.0","7yzxlh4j","","","","","",""
"null","","","video-keyboard-response","653","1837867","0.0-653.0","7yzxlh4j","","","","null","Agent A","STIM_SET_1_REAL/713211.bmp_pp100_L3_V1.0_veridical_freeview_isoFalse_fps144.mp4"
"","","","call-function","654","1837868","0.0-654.0","7yzxlh4j","","","","","",""
"2723.070000000065","{""pre-1"":2}","[0]","survey-likert","655","1840593","0.0-655.0","7yzxlh4j","","","","","",""
"2452.8249999999534","{""pre-2"":2}","[0]","survey-likert","656","1843047","0.0-656.0","7yzxlh4j","","","","","",""
"3212.5","{""pre-3"":1}","[0]","survey-likert","657","1846261","0.0-657.0","7yzxlh4j","","","","","",""
"1596.4450000000652","{""post-5"":0}","[0]","survey-likert","658","1847858","0.0-658.0","7yzxlh4j","","","","","",""
"","","","call-function","659","1847859","0.0-659.0","7yzxlh4j","","","","","",""
"null","","","video-keyboard-response","660","1850935","0.0-660.0","7yzxlh4j","","","","null","Agent A","STIM_SET_1_REAL/1592804.bmp_pp91_L3_V1.0_veridical_freeview_isoFalse_fps144.mp4"
"","","","call-function","661","1850936","0.0-661.0","7yzxlh4j","","","","","",""
"2930.4550000000745","{""pre-1"":0}","[0]","survey-likert","662","1853867","0.0-662.0","7yzxlh4j","","","","","",""
"2448","{""pre-2"":0}","[0]","survey-likert","663","1856317","0.0-663.0","7yzxlh4j","","","","","",""
"4384.820000000065","{""pre-3"":0}","[0]","survey-likert","664","1860703","0.0-664.0","7yzxlh4j","","","","","",""
"6869.290000000037","{""post-5"":3}","[0]","survey-likert","665","1867573","0.0-665.0","7yzxlh4j","","","","","",""
"","","","call-function","666","1867574","0.0-666.0","7yzxlh4j","","","","","",""
"null","","","video-keyboard-response","667","1870660","0.0-667.0","7yzxlh4j","","","","null","Agent A","STIM_SET_1_REAL/498111.bmp_pp88_L2_V1.0_veridical_freeview_isoFalse_fps144.mp4"
"","","","call-function","668","1870661","0.0-668.0","7yzxlh4j","","","","","",""
"2181.719999999972","{""pre-1"":0}","[0]","survey-likert","669","1872843","0.0-669.0","7yzxlh4j","","","","","",""
"2272.4749999998603","{""pre-2"":0}","[0]","survey-likert","670","1875117","0.0-670.0","7yzxlh4j","","","","","",""
"1213.214999999851","{""pre-3"":0}","[0]","survey-likert","671","1876331","0.0-671.0","7yzxlh4j","","","","","",""
"2035.035000000149","{""post-5"":3}","[0]","survey-likert","672","1878367","0.0-672.0","7yzxlh4j","","","","","",""
"","","","call-function","673","1878368","0.0-673.0","7yzxlh4j","","","","","",""
"null","","","video-keyboard-response","674","1881439","0.0-674.0","7yzxlh4j","","","","null","Agent A","STIM_SET_1_REAL/713017.bmp_pp152_L2_V1.0_veridical_freeview_isoFalse_fps144.mp4"
"","","","call-function","675","1881440","0.0-675.0","7yzxlh4j","","","","","",""
"1903.7900000000373","{""pre-1"":2}","[0]","survey-likert","676","1883344","0.0-676.0","7yzxlh4j","","","","","",""
"2109.935000000056","{""pre-2"":3}","[0]","survey-likert","677","1885456","0.0-677.0","7yzxlh4j","","","","","",""
"2122.8249999999534","{""pre-3"":2}","[0]","survey-likert","678","1887580","0.0-678.0","7yzxlh4j","","","","","",""
"3597.064999999944","{""post-5"":1}","[0]","survey-likert","679","1891178","0.0-679.0","7yzxlh4j","","","","","",""
"","","","call-function","680","1891179","0.0-680.0","7yzxlh4j","","","","","",""
"null","","","video-keyboard-response","681","1894273","0.0-681.0","7yzxlh4j","","","","null","Agent A","STIM_SET_1_REAL/285994.bmp_pp92_L3_V1.0_veridical_freeview_isoFalse_fps144.mp4"
"","","","call-function","682","1894274","0.0-682.0","7yzxlh4j","","","","","",""
"2535.0449999999255","{""pre-1"":2}","[0]","survey-likert","683","1896811","0.0-683.0","7yzxlh4j","","","","","",""
"3206.4799999999814","{""pre-2"":2}","[0]","survey-likert","684","1900019","0.0-684.0","7yzxlh4j","","","","","",""
"6844.820000000065","{""pre-3"":1}","[0]","survey-likert","685","1906865","0.0-685.0","7yzxlh4j","","","","","",""
"3907.660000000149","{""post-5"":1}","[0]","survey-likert","686","1910774","0.0-686.0","7yzxlh4j","","","","","",""
"","","","call-function","687","1910774","0.0-687.0","7yzxlh4j","","","","","",""
"null","","","video-keyboard-response","688","1913843","0.0-688.0","7yzxlh4j","","","","null","Agent A","STIM_SET_1_REAL/1592397.bmp_pp85_L3_V1.0_veridical_freeview_isoFalse_fps144.mp4"
"","","","call-function","689","1913844","0.0-689.0","7yzxlh4j","","","","","",""
"2882.9899999999907","{""pre-1"":3}","[0]","survey-likert","690","1916728","0.0-690.0","7yzxlh4j","","","","","",""
"2397.9250000000466","{""pre-2"":3}","[0]","survey-likert","691","1919127","0.0-691.0","7yzxlh4j","","","","","",""
"1565.094999999972","{""pre-3"":3}","[0]","survey-likert","692","1920694","0.0-692.0","7yzxlh4j","","","","","",""
"1619.3349999999627","{""post-5"":0}","[0]","survey-likert","693","1922314","0.0-693.0","7yzxlh4j","","","","","",""
"","","","call-function","694","1922315","0.0-694.0","7yzxlh4j","","","","","",""
"null","","","video-keyboard-response","695","1925405","0.0-695.0","7yzxlh4j","","","","null","Agent A","STIM_SET_1_REAL/713749.bmp_pp88_L2_V1.0_veridical_freeview_isoFalse_fps144.mp4"
"","","","call-function","696","1925405","0.0-696.0","7yzxlh4j","","","","","",""
"4371.354999999981","{""pre-1"":3}","[0]","survey-likert","697","1929778","0.0-697.0","7yzxlh4j","","","","","",""
"2805.8350000001956","{""pre-2"":2}","[0]","survey-likert","698","1932584","0.0-698.0","7yzxlh4j","","","","","",""
"1324.8349999999627","{""pre-3"":1}","[0]","survey-likert","699","1933910","0.0-699.0","7yzxlh4j","","","","","",""
"2451.0800000000745","{""post-5"":0}","[0]","survey-likert","700","1936363","0.0-700.0","7yzxlh4j","","","","","",""
"","","","call-function","701","1936363","0.0-701.0","7yzxlh4j","","","","","",""
"null","","","video-keyboard-response","702","1939436","0.0-702.0","7yzxlh4j","","","","null","Agent A","STIM_SET_1_REAL/1592362.bmp_pp95_L2_V1.0_veridical_freeview_isoFalse_fps144.mp4"
"","","","call-function","703","1939436","0.0-703.0","7yzxlh4j","","","","","",""
"3446.25","{""pre-1"":2}","[0]","survey-likert","704","1942884","0.0-704.0","7yzxlh4j","","","","","",""
"2192.3649999999907","{""pre-2"":3}","[0]","survey-likert","705","1945078","0.0-705.0","7yzxlh4j","","","","","",""
"2352.3899999998976","{""pre-3"":2}","[0]","survey-likert","706","1947432","0.0-706.0","7yzxlh4j","","","","","",""
"1727.8500000000931","{""post-5"":0}","[0]","survey-likert","707","1949162","0.0-707.0","7yzxlh4j","","","","","",""
"","","","call-function","708","1949163","0.0-708.0","7yzxlh4j","","","","","",""
"null","","","video-keyboard-response","709","1952238","0.0-709.0","7yzxlh4j","","","","null","Agent A","STIM_SET_1_REAL/1593146.bmp_pp93_L1_V1.0_scrambled_freeview_isoFalse_fps144.mp4"
"","","","call-function","710","1952238","0.0-710.0","7yzxlh4j","","","","","",""
"3720.844999999972","{""pre-1"":1}","[0]","survey-likert","711","1955961","0.0-711.0","7yzxlh4j","","","","","",""
"11244.354999999981","{""pre-2"":3}","[0]","survey-likert","712","1967206","0.0-712.0","7yzxlh4j","","","","","",""
"1634.0200000000186","{""pre-3"":2}","[0]","survey-likert","713","1968841","0.0-713.0","7yzxlh4j","","","","","",""
"2394.094999999972","{""post-5"":2}","[0]","survey-likert","714","1971237","0.0-714.0","7yzxlh4j","","","","","",""
"","","","call-function","715","1971237","0.0-715.0","7yzxlh4j","","","","","",""
"null","","","video-keyboard-response","716","1974303","0.0-716.0","7yzxlh4j","","","","null","Agent A","STIM_SET_1_REAL/713513.bmp_pp62_L2_V1.0_veridical_freeview_isoFalse_fps144.mp4"
"","","","call-function","717","1974303","0.0-717.0","7yzxlh4j","","","","","",""
"3845.5400000000373","{""pre-1"":1}","[0]","survey-likert","718","1978150","0.0-718.0","7yzxlh4j","","","","","",""
"3300.909999999916","{""pre-2"":2}","[0]","survey-likert","719","1981452","0.0-719.0","7yzxlh4j","","","","","",""
"1505.440000000177","{""pre-3"":2}","[0]","survey-likert","720","1982958","0.0-720.0","7yzxlh4j","","","","","",""
"1251.1950000000652","{""post-5"":1}","[0]","survey-likert","721","1984211","0.0-721.0","7yzxlh4j","","","","","",""
"","","","call-function","722","1984211","0.0-722.0","7yzxlh4j","","","","","",""
"null","","","video-keyboard-response","723","1987285","0.0-723.0","7yzxlh4j","","","","null","Agent A","STIM_SET_1_REAL/1159515.bmp_pp84_L3_V1.0_veridical_freeview_isoFalse_fps144.mp4"
"","","","call-function","724","1987285","0.0-724.0","7yzxlh4j","","","","","",""
"3659.5200000000186","{""pre-1"":2}","[0]","survey-likert","725","1990946","0.0-725.0","7yzxlh4j","","","","","",""
"1455.8549999999814","{""pre-2"":1}","[0]","survey-likert","726","1992403","0.0-726.0","7yzxlh4j","","","","","",""
"1414.3300000000745","{""pre-3"":1}","[0]","survey-likert","727","1993818","0.0-727.0","7yzxlh4j","","","","","",""
"3635.225000000093","{""post-5"":1}","[0]","survey-likert","728","1997455","0.0-728.0","7yzxlh4j","","","","","",""
"81472.81000000006","","","instructions","729","2078929","0.0-729.0","7yzxlh4j","[{""page_index"":0,""viewing_time"":876.1799999999348},{""page_index"":1,""viewing_time"":1135.8349999999627},{""page_index"":0,""viewing_time"":77467.79500000016},{""page_index"":1,""viewing_time"":364.7949999999255},{""page_index"":2,""viewing_time"":642.4650000000838},{""page_index"":1,""viewing_time"":787.9149999998044},{""page_index"":2,""viewing_time"":197.15500000002794}]","","","","",""
"1699.315000000177","","","instructions","730","2080629","0.0-730.0","7yzxlh4j","[{""page_index"":0,""viewing_time"":418.2200000002049},{""page_index"":1,""viewing_time"":903.9449999998324},{""page_index"":2,""viewing_time"":377.04000000003725}]","","","","",""
"","","","call-function","731","2080630","0.0-731.0","7yzxlh4j","","","","","",""
"null","","","video-keyboard-response","732","2083718","0.0-732.0","7yzxlh4j","","","","null","Agent A","STIM_SET_1_REAL/1159675.bmp_pp77_L3_V1.0_veridical_freeview_isoFalse_fps144.mp4"
"","","","call-function","733","2083719","0.0-733.0","7yzxlh4j","","","","","",""
"3775.4550000000745","{""pre-1"":2}","[0]","survey-likert","734","2087495","0.0-734.0","7yzxlh4j","","","","","",""
"2811.0200000000186","{""pre-2"":3}","[0]","survey-likert","735","2090308","0.0-735.0","7yzxlh4j","","","","","",""
"1450.0499999998137","{""pre-3"":1}","[0]","survey-likert","736","2091759","0.0-736.0","7yzxlh4j","","","","","",""
"2806.810000000056","{""post-5"":0}","[0]","survey-likert","737","2094567","0.0-737.0","7yzxlh4j","","","","","",""
"","","","call-function","738","2094568","0.0-738.0","7yzxlh4j","","","","","",""
"null","","","video-keyboard-response","739","2097646","0.0-739.0","7yzxlh4j","","","","null","Agent A","STIM_SET_1_REAL/713666.bmp_pp97_L3_V1.0_veridical_freeview_isoFalse_fps144.mp4"
"","","","call-function","740","2097647","0.0-740.0","7yzxlh4j","","","","","",""
"4371.220000000205","{""pre-1"":2}","[0]","survey-likert","741","2102019","0.0-741.0","7yzxlh4j","","","","","",""
"1758.0600000000559","{""pre-2"":1}","[0]","survey-likert","742","2103778","0.0-742.0","7yzxlh4j","","","","","",""
"2326.3300000000745","{""pre-3"":0}","[0]","survey-likert","743","2106106","0.0-743.0","7yzxlh4j","","","","","",""
"1637.9350000000559","{""post-5"":1}","[0]","survey-likert","744","2107745","0.0-744.0","7yzxlh4j","","","","","",""
"","","","call-function","745","2107745","0.0-745.0","7yzxlh4j","","","","","",""
"null","","","video-keyboard-response","746","2110823","0.0-746.0","7yzxlh4j","","","","null","Agent A","STIM_SET_1_REAL/713749.bmp_pp88_L2_V1.0_scrambled_freeview_isoFalse_fps144.mp4"
"","","","call-function","747","2110823","0.0-747.0","7yzxlh4j","","","","","",""
"2264.564999999944","{""pre-1"":0}","[0]","survey-likert","748","2113089","0.0-748.0","7yzxlh4j","","","","","",""
"1364.7099999999627","{""pre-2"":0}","[0]","survey-likert","749","2114455","0.0-749.0","7yzxlh4j","","","","","",""
"1339.5049999998882","{""pre-3"":0}","[0]","survey-likert","750","2115796","0.0-750.0","7yzxlh4j","","","","","",""
"4026.035000000149","{""post-5"":3}","[0]","survey-likert","751","2119823","0.0-751.0","7yzxlh4j","","","","","",""
"","","","call-function","752","2119824","0.0-752.0","7yzxlh4j","","","","","",""
"null","","","video-keyboard-response","753","2122883","0.0-753.0","7yzxlh4j","","","","null","Agent A","STIM_SET_1_REAL/1159882.bmp_pp61_L2_V1.0_scrambled_freeview_isoFalse_fps144.mp4"
"","","","call-function","754","2122884","0.0-754.0","7yzxlh4j","","","","","",""
"2930.489999999758","{""pre-1"":1}","[0]","survey-likert","755","2125815","0.0-755.0","7yzxlh4j","","","","","",""
"1840.6650000000373","{""pre-2"":1}","[0]","survey-likert","756","2127658","0.0-756.0","7yzxlh4j","","","","","",""
"1241.6749999998137","{""pre-3"":0}","[0]","survey-likert","757","2128902","0.0-757.0","7yzxlh4j","","","","","",""
"1643.7299999999814","{""post-5"":2}","[0]","survey-likert","758","2130547","0.0-758.0","7yzxlh4j","","","","","",""
"","","","call-function","759","2130549","0.0-759.0","7yzxlh4j","","","","","",""
"null","","","video-keyboard-response","760","2133614","0.0-760.0","7yzxlh4j","","","","null","Agent A","STIM_SET_1_REAL/1593035.bmp_pp94_L2_V1.0_scrambled_freeview_isoFalse_fps144.mp4"
"","","","call-function","761","2133615","0.0-761.0","7yzxlh4j","","","","","",""
"1994.2949999999255","{""pre-1"":1}","[0]","survey-likert","762","2135611","0.0-762.0","7yzxlh4j","","","","","",""
"1745.8950000000186","{""pre-2"":1}","[0]","survey-likert","763","2137359","0.0-763.0","7yzxlh4j","","","","","",""
"1994.2849999996834","{""pre-3"":0}","[0]","survey-likert","764","2139355","0.0-764.0","7yzxlh4j","","","","","",""
"1676.9550000000745","{""post-5"":2}","[0]","survey-likert","765","2141033","0.0-765.0","7yzxlh4j","","","","","",""
"","","","call-function","766","2141034","0.0-766.0","7yzxlh4j","","","","","",""
"null","","","video-keyboard-response","767","2144110","0.0-767.0","7yzxlh4j","","","","null","Agent A","STIM_SET_1_REAL/1591876.bmp_pp63_L1_V1.0_veridical_freeview_isoFalse_fps144.mp4"
"","","","call-function","768","2144111","0.0-768.0","7yzxlh4j","","","","","",""
"3070.2949999999255","{""pre-1"":0}","[0]","survey-likert","769","2147182","0.0-769.0","7yzxlh4j","","","","","",""
"2719.8700000001118","{""pre-2"":0}","[0]","survey-likert","770","2149903","0.0-770.0","7yzxlh4j","","","","","",""
"1640.5699999998324","{""pre-3"":0}","[0]","survey-likert","771","2151545","0.0-771.0","7yzxlh4j","","","","","",""
"1559.0399999995716","{""post-5"":2}","[0]","survey-likert","772","2153105","0.0-772.0","7yzxlh4j","","","","","",""
"","","","call-function","773","2153106","0.0-773.0","7yzxlh4j","","","","","",""
"null","","","video-keyboard-response","774","2156186","0.0-774.0","7yzxlh4j","","","","null","Agent A","STIM_SET_1_REAL/1591954.bmp_pp62_L2_V1.0_veridical_freeview_isoFalse_fps144.mp4"
"","","","call-function","775","2156186","0.0-775.0","7yzxlh4j","","","","","",""
"2646.1800000001676","{""pre-1"":2}","[0]","survey-likert","776","2158833","0.0-776.0","7yzxlh4j","","","","","",""
"1995.3700000001118","{""pre-2"":2}","[0]","survey-likert","777","2160830","0.0-777.0","7yzxlh4j","","","","","",""
"1321","{""pre-3"":0}","[0]","survey-likert","778","2162152","0.0-778.0","7yzxlh4j","","","","","",""
"2087.760000000242","{""post-5"":1}","[0]","survey-likert","779","2164241","0.0-779.0","7yzxlh4j","","","","","",""
"","","","call-function","780","2164242","0.0-780.0","7yzxlh4j","","","","","",""
"null","","","video-keyboard-response","781","2167305","0.0-781.0","7yzxlh4j","","","","null","Agent A","STIM_SET_1_REAL/285994.bmp_pp92_L3_V1.0_scrambled_freeview_isoFalse_fps144.mp4"
"","","","call-function","782","2167305","0.0-782.0","7yzxlh4j","","","","","",""
"4511.560000000056","{""pre-1"":1}","[0]","survey-likert","783","2171818","0.0-783.0","7yzxlh4j","","","","","",""
"1857.3650000002235","{""pre-2"":2}","[0]","survey-likert","784","2173677","0.0-784.0","7yzxlh4j","","","","","",""
"2027.1049999999814","{""pre-3"":0}","[0]","survey-likert","785","2175705","0.0-785.0","7yzxlh4j","","","","","",""
"8208.19999999972","{""post-5"":1}","[0]","survey-likert","786","2183915","0.0-786.0","7yzxlh4j","","","","","",""
"","","","call-function","787","2183917","0.0-787.0","7yzxlh4j","","","","","",""
"null","","","video-keyboard-response","788","2186996","0.0-788.0","7yzxlh4j","","","","null","Agent A","STIM_SET_1_REAL/1591876.bmp_pp63_L1_V1.0_scrambled_freeview_isoFalse_fps144.mp4"
"","","","call-function","789","2186997","0.0-789.0","7yzxlh4j","","","","","",""
"4987.98499999987","{""pre-1"":2}","[0]","survey-likert","790","2191986","0.0-790.0","7yzxlh4j","","","","","",""
"2319.4849999998696","{""pre-2"":0}","[0]","survey-likert","791","2194307","0.0-791.0","7yzxlh4j","","","","","",""
"1817.0649999999441","{""pre-3"":0}","[0]","survey-likert","792","2196125","0.0-792.0","7yzxlh4j","","","","","",""
"1263.6200000001118","{""post-5"":0}","[0]","survey-likert","793","2197390","0.0-793.0","7yzxlh4j","","","","","",""
"","","","call-function","794","2197391","0.0-794.0","7yzxlh4j","","","","","",""
"null","","","video-keyboard-response","795","2200451","0.0-795.0","7yzxlh4j","","","","null","Agent A","STIM_SET_1_REAL/713681.bmp_pp86_L2_V1.0_veridical_freeview_isoFalse_fps144.mp4"
"","","","call-function","796","2200452","0.0-796.0","7yzxlh4j","","","","","",""
"4109.299999999814","{""pre-1"":2}","[0]","survey-likert","797","2204562","0.0-797.0","7yzxlh4j","","","","","",""
"2431.4499999997206","{""pre-2"":3}","[0]","survey-likert","798","2206995","0.0-798.0","7yzxlh4j","","","","","",""
"2362.4150000000373","{""pre-3"":2}","[0]","survey-likert","799","2209359","0.0-799.0","7yzxlh4j","","","","","",""
"3339.3300000000745","{""post-5"":1}","[0]","survey-likert","800","2212699","0.0-800.0","7yzxlh4j","","","","","",""
"","","","call-function","801","2212700","0.0-801.0","7yzxlh4j","","","","","",""
"null","","","video-keyboard-response","802","2215769","0.0-802.0","7yzxlh4j","","","","null","Agent A","STIM_SET_1_REAL/1591961.bmp_pp67_L2_V1.0_veridical_freeview_isoFalse_fps144.mp4"
"","","","call-function","803","2215770","0.0-803.0","7yzxlh4j","","","","","",""
"3905.060000000056","{""pre-1"":0}","[0]","survey-likert","804","2219676","0.0-804.0","7yzxlh4j","","","","","",""
"1954.75","{""pre-2"":0}","[0]","survey-likert","805","2221632","0.0-805.0","7yzxlh4j","","","","","",""
"1763.6949999998324","{""pre-3"":0}","[0]","survey-likert","806","2223397","0.0-806.0","7yzxlh4j","","","","","",""
"5127.070000000298","{""post-5"":3}","[0]","survey-likert","807","2228525","0.0-807.0","7yzxlh4j","","","","","",""
"","","","call-function","808","2228526","0.0-808.0","7yzxlh4j","","","","","",""
"null","","","video-keyboard-response","809","2231627","0.0-809.0","7yzxlh4j","","","","null","Agent A","STIM_SET_1_REAL/285933.bmp_pp81_L1_V1.0_veridical_freeview_isoFalse_fps144.mp4"
"","","","call-function","810","2231627","0.0-810.0","7yzxlh4j","","","","","",""
"4219.739999999758","{""pre-1"":3}","[0]","survey-likert","811","2235848","0.0-811.0","7yzxlh4j","","","","","",""
"1697.1849999995902","{""pre-2"":2}","[0]","survey-likert","812","2237546","0.0-812.0","7yzxlh4j","","","","","",""
"4417.439999999944","{""pre-3"":1}","[0]","survey-likert","813","2241966","0.0-813.0","7yzxlh4j","","","","","",""
"2979.9900000002235","{""post-5"":0}","[0]","survey-likert","814","2244948","0.0-814.0","7yzxlh4j","","","","","",""
"","","","call-function","815","2244949","0.0-815.0","7yzxlh4j","","","","","",""
"null","","","video-keyboard-response","816","2248019","0.0-816.0","7yzxlh4j","","","","null","Agent A","STIM_SET_1_REAL/1159829.bmp_pp91_L3_V1.0_veridical_freeview_isoFalse_fps144.mp4"
"","","","call-function","817","2248020","0.0-817.0","7yzxlh4j","","","","","",""
"2768.5550000001676","{""pre-1"":1}","[0]","survey-likert","818","2250789","0.0-818.0","7yzxlh4j","","","","","",""
"2065.5999999996275","{""pre-2"":0}","[0]","survey-likert","819","2252856","0.0-819.0","7yzxlh4j","","","","","",""
"1319.9150000000373","{""pre-3"":0}","[0]","survey-likert","820","2254177","0.0-820.0","7yzxlh4j","","","","","",""
"3635.7299999999814","{""post-5"":2}","[0]","survey-likert","821","2257814","0.0-821.0","7yzxlh4j","","","","","",""
"","","","call-function","822","2257815","0.0-822.0","7yzxlh4j","","","","","",""
"null","","","video-keyboard-response","823","2260902","0.0-823.0","7yzxlh4j","","","","null","Agent A","STIM_SET_1_REAL/1592657.bmp_pp98_L1_V1.0_scrambled_freeview_isoFalse_fps144.mp4"
"","","","call-function","824","2260902","0.0-824.0","7yzxlh4j","","","","","",""
"2269.149999999907","{""pre-1"":1}","[0]","survey-likert","825","2263173","0.0-825.0","7yzxlh4j","","","","","",""
"1609.3249999997206","{""pre-2"":0}","[0]","survey-likert","826","2264783","0.0-826.0","7yzxlh4j","","","","","",""
"1038.910000000149","{""pre-3"":0}","[0]","survey-likert","827","2265823","0.0-827.0","7yzxlh4j","","","","","",""
"3891.0750000001863","{""post-5"":3}","[0]","survey-likert","828","2269715","0.0-828.0","7yzxlh4j","","","","","",""
"","","","call-function","829","2269716","0.0-829.0","7yzxlh4j","","","","","",""
"null","","","video-keyboard-response","830","2272783","0.0-830.0","7yzxlh4j","","","","null","Agent A","STIM_SET_1_REAL/1159829.bmp_pp91_L3_V1.0_scrambled_freeview_isoFalse_fps144.mp4"
"","","","call-function","831","2272783","0.0-831.0","7yzxlh4j","","","","","",""
"3477.2650000001304","{""pre-1"":1}","[0]","survey-likert","832","2276261","0.0-832.0","7yzxlh4j","","","","","",""
"3539.3300000000745","{""pre-2"":1}","[0]","survey-likert","833","2279802","0.0-833.0","7yzxlh4j","","","","","",""
