"rt","responses","question_order","trial_type","trial_index","time_elapsed","internal_node_id","ID","view_history","value","stimulus","key_press","agent","image"
"190034.77","{""Experimenter"":[""Confirmed subject's identity (ID card)"",""Confirmed normal or corrected-to-normal vision"",""Obtained consent (signature and date)"",""Checked the test room lighting"",""Checked computer screen lighting"",""Checked distance from screen to chin rest (50cm)"",""Cleaned and adjusted chin rest"",""Counterbalanced the order of the tasks"",""Opened the experiment in Firefox"",""Made the experiment full screen"",""Encouraged subject to silence phone, put away distractors, etc.""]}","[0]","survey-multi-select","0","190042","0.0-0.0","a782q76b","","","","","",""
"12092.559999999998","","","instructions","1","202136","0.0-1.0","a782q76b","[{""page_index"":0,""viewing_time"":12092.404999999999}]","","","","",""
"7521.255000000005","{""Age"":0,""Sex"":1,""Gender"":1}","[0,1,2]","survey-likert","2","209660","0.0-2.0","a782q76b","","","","","",""
"1456.9549999999872","","","instructions","3","211117","0.0-3.0","a782q76b","[{""page_index"":0,""viewing_time"":1456.8549999999814}]","","","","",""
"4021.6600000000035","","","instructions","4","215139","0.0-4.0","a782q76b","[{""page_index"":0,""viewing_time"":2236.6300000000047},{""page_index"":1,""viewing_time"":1784.929999999993}]","","","","",""
"9360.610000000015","","","instructions","5","224500","0.0-5.0","a782q76b","[{""page_index"":0,""viewing_time"":2843.375},{""page_index"":1,""viewing_time"":2706.110000000015},{""page_index"":2,""viewing_time"":3811.0050000000047}]","","","","",""
"2169.7249999999767","","","instructions","6","226670","0.0-6.0","a782q76b","[{""page_index"":0,""viewing_time"":2169.6149999999907}]","","","","",""
"","","","call-function","7","226671","0.0-7.0","a782q76b","","","","","",""
"null","","","video-keyboard-response","8","229748","0.0-8.0","a782q76b","","","","null","",""
"","","","call-function","9","229748","0.0-9.0","a782q76b","","","","","",""
"15917.875","","","instructions","10","245667","0.0-10.0","a782q76b","[{""page_index"":0,""viewing_time"":3627.389999999985},{""page_index"":1,""viewing_time"":5446.635000000009},{""page_index"":2,""viewing_time"":2730.595000000001},{""page_index"":3,""viewing_time"":4112.684999999998}]","","","","",""
"41.454999999987194","","","instructions","11","245710","0.0-11.0","a782q76b","[{""page_index"":0,""viewing_time"":41.35000000000582}]","","","","",""
"","","","call-function","12","245710","0.0-12.0","a782q76b","","","","","",""
"null","","","video-keyboard-response","13","248787","0.0-13.0","a782q76b","","","","null","",""
"","","","call-function","14","248788","0.0-14.0","a782q76b","","","","","",""
"8329.494999999995","{""pre-1"":0}","[0]","survey-likert","15","257118","0.0-15.0","a782q76b","","","","","",""
"5991.170000000013","{""pre-2"":1}","[0]","survey-likert","16","263111","0.0-16.0","a782q76b","","","","","",""
"5495.994999999995","{""pre-3"":0}","[0]","survey-likert","17","268607","0.0-17.0","a782q76b","","","","","",""
"4500.869999999995","{""post-5"":3}","[0]","survey-likert","18","273110","0.0-18.0","a782q76b","","","","","",""
"1227.0699999999488","","","instructions","19","274337","0.0-19.0","a782q76b","[{""page_index"":0,""viewing_time"":1226.9649999999674}]","","","","",""
"4581.795000000042","","","instructions","20","278919","0.0-20.0","a782q76b","[{""page_index"":0,""viewing_time"":4581.684999999998}]","","","","",""
"","","","call-function","21","278920","0.0-21.0","a782q76b","","","","","",""
"null","","","video-keyboard-response","22","281991","0.0-22.0","a782q76b","","","","null","Agent A","STIM_SET_1_REAL/713135.bmp_pp54_L2_V1.0_veridical_freeview_isoFalse_fps144.mp4"
"","","","call-function","23","281992","0.0-23.0","a782q76b","","","","","",""
"6742.354999999981","{""pre-1"":0}","[0]","survey-likert","24","288736","0.0-24.0","a782q76b","","","","","",""
"6877.994999999995","{""pre-2"":1}","[0]","survey-likert","25","295615","0.0-25.0","a782q76b","","","","","",""
"3238.6849999999977","{""pre-3"":0}","[0]","survey-likert","26","298854","0.0-26.0","a782q76b","","","","","",""
"4671.989999999991","{""post-5"":2}","[0]","survey-likert","27","303527","0.0-27.0","a782q76b","","","","","",""
"","","","call-function","28","303528","0.0-28.0","a782q76b","","","","","",""
"null","","","video-keyboard-response","29","306602","0.0-29.0","a782q76b","","","","null","Agent A","STIM_SET_1_REAL/1592807.bmp_pp68_L1_V1.0_veridical_freeview_isoFalse_fps144.mp4"
"","","","call-function","30","306602","0.0-30.0","a782q76b","","","","","",""
"4802.849999999977","{""pre-1"":0}","[0]","survey-likert","31","311406","0.0-31.0","a782q76b","","","","","",""
"3620.015000000014","{""pre-2"":1}","[0]","survey-likert","32","315028","0.0-32.0","a782q76b","","","","","",""
"4757.600000000035","{""pre-3"":1}","[0]","survey-likert","33","319787","0.0-33.0","a782q76b","","","","","",""
"4704.234999999986","{""post-5"":2}","[0]","survey-likert","34","324492","0.0-34.0","a782q76b","","","","","",""
"","","","call-function","35","324493","0.0-35.0","a782q76b","","","","","",""
"null","","","video-keyboard-response","36","327556","0.0-36.0","a782q76b","","","","null","Agent A","STIM_SET_1_REAL/713403.bmp_pp80_L3_V1.0_veridical_freeview_isoFalse_fps144.mp4"
"","","","call-function","37","327557","0.0-37.0","a782q76b","","","","","",""
"4184.335000000021","{""pre-1"":1}","[0]","survey-likert","38","331743","0.0-38.0","a782q76b","","","","","",""
"4497.465000000026","{""pre-2"":1}","[0]","survey-likert","39","336242","0.0-39.0","a782q76b","","","","","",""
"5512.460000000021","{""pre-3"":0}","[0]","survey-likert","40","341755","0.0-40.0","a782q76b","","","","","",""
"4780.989999999991","{""post-5"":2}","[0]","survey-likert","41","346537","0.0-41.0","a782q76b","","","","","",""
"","","","call-function","42","346538","0.0-42.0","a782q76b","","","","","",""
"null","","","video-keyboard-response","43","349611","0.0-43.0","a782q76b","","","","null","Agent A","STIM_SET_1_REAL/1159784.bmp_pp73_L3_V1.0_veridical_freeview_isoFalse_fps144.mp4"
"","","","call-function","44","349611","0.0-44.0","a782q76b","","","","","",""
"3981.140000000014","{""pre-1"":0}","[0]","survey-likert","45","353593","0.0-45.0","a782q76b","","","","","",""
"2801.914999999979","{""pre-2"":2}","[0]","survey-likert","46","356396","0.0-46.0","a782q76b","","","","","",""
"2326.975000000035","{""pre-3"":2}","[0]","survey-likert","47","358724","0.0-47.0","a782q76b","","","","","",""
"3624.109999999986","{""post-5"":1}","[0]","survey-likert","48","362349","0.0-48.0","a782q76b","","","","","",""
"","","","call-function","49","362350","0.0-49.0","a782q76b","","","","","",""
"null","","","video-keyboard-response","50","365413","0.0-50.0","a782q76b","","","","null","Agent A","STIM_SET_1_REAL/498170.bmp_pp153_L3_V1.0_veridical_freeview_isoFalse_fps144.mp4"
"","","","call-function","51","365413","0.0-51.0","a782q76b","","","","","",""
"3678.3150000000023","{""pre-1"":0}","[0]","survey-likert","52","369093","0.0-52.0","a782q76b","","","","","",""
"3617.509999999951","{""pre-2"":1}","[0]","survey-likert","53","372712","0.0-53.0","a782q76b","","","","","",""
"2260.085000000021","{""pre-3"":0}","[0]","survey-likert","54","374973","0.0-54.0","a782q76b","","","","","",""
"3389.905000000028","{""post-5"":3}","[0]","survey-likert","55","378365","0.0-55.0","a782q76b","","","","","",""
"","","","call-function","56","378365","0.0-56.0","a782q76b","","","","","",""
"null","","","video-keyboard-response","57","381441","0.0-57.0","a782q76b","","","","null","Agent A","STIM_SET_1_REAL/713707.bmp_pp154_L1_V1.0_scrambled_freeview_isoFalse_fps144.mp4"
"","","","call-function","58","381442","0.0-58.0","a782q76b","","","","","",""
"2265.179999999993","{""pre-1"":1}","[0]","survey-likert","59","383708","0.0-59.0","a782q76b","","","","","",""
"4794.534999999974","{""pre-2"":0}","[0]","survey-likert","60","388504","0.0-60.0","a782q76b","","","","","",""
"4207.660000000033","{""pre-3"":0}","[0]","survey-likert","61","392712","0.0-61.0","a782q76b","","","","","",""
"3112.984999999986","{""post-5"":2}","[0]","survey-likert","62","395826","0.0-62.0","a782q76b","","","","","",""
"","","","call-function","63","395827","0.0-63.0","a782q76b","","","","","",""
"null","","","video-keyboard-response","64","398928","0.0-64.0","a782q76b","","","","null","Agent A","STIM_SET_1_REAL/1592397.bmp_pp85_L3_V1.0_veridical_freeview_isoFalse_fps144.mp4"
"","","","call-function","65","398928","0.0-65.0","a782q76b","","","","","",""
"2996.2399999999907","{""pre-1"":1}","[0]","survey-likert","66","401925","0.0-66.0","a782q76b","","","","","",""
"2782.9099999999744","{""pre-2"":1}","[0]","survey-likert","67","404709","0.0-67.0","a782q76b","","","","","",""
"3295.1149999999907","{""pre-3"":0}","[0]","survey-likert","68","408005","0.0-68.0","a782q76b","","","","","",""
"2810.9799999999814","{""post-5"":1}","[0]","survey-likert","69","410818","0.0-69.0","a782q76b","","","","","",""
"","","","call-function","70","410818","0.0-70.0","a782q76b","","","","","",""
"null","","","video-keyboard-response","71","413879","0.0-71.0","a782q76b","","","","null","Agent A","STIM_SET_1_REAL/713779.bmp_pp152_L2_V1.0_veridical_freeview_isoFalse_fps144.mp4"
"","","","call-function","72","413879","0.0-72.0","a782q76b","","","","","",""
"3954.875","{""pre-1"":0}","[0]","survey-likert","73","417835","0.0-73.0","a782q76b","","","","","",""
"3529.625","{""pre-2"":0}","[0]","survey-likert","74","421365","0.0-74.0","a782q76b","","","","","",""
"2447","{""pre-3"":0}","[0]","survey-likert","75","423813","0.0-75.0","a782q76b","","","","","",""
"2770.5749999999534","{""post-5"":3}","[0]","survey-likert","76","426585","0.0-76.0","a782q76b","","","","","",""
"","","","call-function","77","426586","0.0-77.0","a782q76b","","","","","",""
"null","","","video-keyboard-response","78","429650","0.0-78.0","a782q76b","","","","null","Agent A","STIM_SET_1_REAL/1159882.bmp_pp61_L2_V1.0_scrambled_freeview_isoFalse_fps144.mp4"
"","","","call-function","79","429651","0.0-79.0","a782q76b","","","","","",""
"3528.039999999979","{""pre-1"":0}","[0]","survey-likert","80","433180","0.0-80.0","a782q76b","","","","","",""
"2646.5599999999977","{""pre-2"":2}","[0]","survey-likert","81","435828","0.0-81.0","a782q76b","","","","","",""
"2249.9649999999674","{""pre-3"":2}","[0]","survey-likert","82","438079","0.0-82.0","a782q76b","","","","","",""
"3288.990000000049","{""post-5"":1}","[0]","survey-likert","83","441369","0.0-83.0","a782q76b","","","","","",""
"","","","call-function","84","441369","0.0-84.0","a782q76b","","","","","",""
"null","","","video-keyboard-response","85","444428","0.0-85.0","a782q76b","","","","null","Agent A","STIM_SET_1_REAL/1159447.bmp_pp70_L2_V1.0_veridical_freeview_isoFalse_fps144.mp4"
"","","","call-function","86","444429","0.0-86.0","a782q76b","","","","","",""
"3107.4949999999953","{""pre-1"":0}","[0]","survey-likert","87","447538","0.0-87.0","a782q76b","","","","","",""
"3689.984999999986","{""pre-2"":3}","[0]","survey-likert","88","451229","0.0-88.0","a782q76b","","","","","",""
"3220.7449999999953","{""pre-3"":2}","[0]","survey-likert","89","454450","0.0-89.0","a782q76b","","","","","",""
"3086.0100000000093","{""post-5"":1}","[0]","survey-likert","90","457538","0.0-90.0","a782q76b","","","","","",""
"","","","call-function","91","457538","0.0-91.0","a782q76b","","","","","",""
"null","","","video-keyboard-response","92","460612","0.0-92.0","a782q76b","","","","null","Agent A","STIM_SET_1_REAL/1159675.bmp_pp77_L3_V1.0_scrambled_freeview_isoFalse_fps144.mp4"
"","","","call-function","93","460612","0.0-93.0","a782q76b","","","","","",""
"4648.640000000014","{""pre-1"":1}","[0]","survey-likert","94","465262","0.0-94.0","a782q76b","","","","","",""
"2773.585000000021","{""pre-2"":2}","[0]","survey-likert","95","468036","0.0-95.0","a782q76b","","","","","",""
"1920.6599999999744","{""pre-3"":3}","[0]","survey-likert","96","469958","0.0-96.0","a782q76b","","","","","",""
"2708.539999999979","{""post-5"":1}","[0]","survey-likert","97","472667","0.0-97.0","a782q76b","","","","","",""
"","","","call-function","98","472668","0.0-98.0","a782q76b","","","","","",""
"null","","","video-keyboard-response","99","475742","0.0-99.0","a782q76b","","","","null","Agent A","STIM_SET_1_REAL/61537.bmp_pp73_L3_V1.0_veridical_freeview_isoFalse_fps144.mp4"
"","","","call-function","100","475743","0.0-100.0","a782q76b","","","","","",""
"5186.39499999996","{""pre-1"":0}","[0]","survey-likert","101","480930","0.0-101.0","a782q76b","","","","","",""
"4829.565000000002","{""pre-2"":1}","[0]","survey-likert","102","485760","0.0-102.0","a782q76b","","","","","",""
"2207.3300000000163","{""pre-3"":1}","[0]","survey-likert","103","487970","0.0-103.0","a782q76b","","","","","",""
"4088.1200000000536","{""post-5"":0}","[0]","survey-likert","104","492060","0.0-104.0","a782q76b","","","","","",""
"","","","call-function","105","492061","0.0-105.0","a782q76b","","","","","",""
"null","","","video-keyboard-response","106","495137","0.0-106.0","a782q76b","","","","null","Agent A","STIM_SET_1_REAL/713371.bmp_pp68_L1_V1.0_veridical_freeview_isoFalse_fps144.mp4"
"","","","call-function","107","495138","0.0-107.0","a782q76b","","","","","",""
"3035.875","{""pre-1"":1}","[0]","survey-likert","108","498175","0.0-108.0","a782q76b","","","","","",""
"2384.8349999999627","{""pre-2"":1}","[0]","survey-likert","109","500561","0.0-109.0","a782q76b","","","","","",""
"4097.565000000002","{""pre-3"":0}","[0]","survey-likert","110","504660","0.0-110.0","a782q76b","","","","","",""
"1864.1599999999744","{""post-5"":1}","[0]","survey-likert","111","506525","0.0-111.0","a782q76b","","","","","",""
"","","","call-function","112","506525","0.0-112.0","a782q76b","","","","","",""
"null","","","video-keyboard-response","113","509593","0.0-113.0","a782q76b","","","","null","Agent A","STIM_SET_1_REAL/713017.bmp_pp152_L2_V1.0_scrambled_freeview_isoFalse_fps144.mp4"
"","","","call-function","114","509594","0.0-114.0","a782q76b","","","","","",""
"2932.7699999999604","{""pre-1"":0}","[0]","survey-likert","115","512528","0.0-115.0","a782q76b","","","","","",""
"3404.9899999999907","{""pre-2"":0}","[0]","survey-likert","116","515934","0.0-116.0","a782q76b","","","","","",""
"2783.0599999999977","{""pre-3"":0}","[0]","survey-likert","117","518718","0.0-117.0","a782q76b","","","","","",""
"5147.075000000012","{""post-5"":2}","[0]","survey-likert","118","523866","0.0-118.0","a782q76b","","","","","",""
"","","","call-function","119","523866","0.0-119.0","a782q76b","","","","","",""
"null","","","video-keyboard-response","120","526935","0.0-120.0","a782q76b","","","","null","Agent A","STIM_SET_1_REAL/1159515.bmp_pp84_L3_V1.0_veridical_freeview_isoFalse_fps144.mp4"
"","","","call-function","121","526935","0.0-121.0","a782q76b","","","","","",""
"5199.709999999963","{""pre-1"":2}","[0]","survey-likert","122","532135","0.0-122.0","a782q76b","","","","","",""
"3122.4150000000373","{""pre-2"":2}","[0]","survey-likert","123","535260","0.0-123.0","a782q76b","","","","","",""
"2670.039999999921","{""pre-3"":1}","[0]","survey-likert","124","537931","0.0-124.0","a782q76b","","","","","",""
"3066.67499999993","{""post-5"":1}","[0]","survey-likert","125","541000","0.0-125.0","a782q76b","","","","","",""
"","","","call-function","126","541001","0.0-126.0","a782q76b","","","","","",""
"null","","","video-keyboard-response","127","544069","0.0-127.0","a782q76b","","","","null","Agent A","STIM_SET_1_REAL/1592934.bmp_pp63_L1_V1.0_scrambled_freeview_isoFalse_fps144.mp4"
"","","","call-function","128","544070","0.0-128.0","a782q76b","","","","","",""
"3411.4599999999627","{""pre-1"":0}","[0]","survey-likert","129","547482","0.0-129.0","a782q76b","","","","","",""
"2819.640000000014","{""pre-2"":0}","[0]","survey-likert","130","550303","0.0-130.0","a782q76b","","","","","",""
"2748.9899999999907","{""pre-3"":0}","[0]","survey-likert","131","553053","0.0-131.0","a782q76b","","","","","",""
"2552.5449999999255","{""post-5"":2}","[0]","survey-likert","132","555607","0.0-132.0","a782q76b","","","","","",""
"","","","call-function","133","555607","0.0-133.0","a782q76b","","","","","",""
"null","","","video-keyboard-response","134","558715","0.0-134.0","a782q76b","","","","null","Agent A","STIM_SET_1_REAL/1592286.bmp_pp52_L1_V1.0_veridical_freeview_isoFalse_fps144.mp4"
"","","","call-function","135","558715","0.0-135.0","a782q76b","","","","","",""
"3619.609999999986","{""pre-1"":0}","[0]","survey-likert","136","562336","0.0-136.0","a782q76b","","","","","",""
"2255.5350000000326","{""pre-2"":3}","[0]","survey-likert","137","564593","0.0-137.0","a782q76b","","","","","",""
"2372.6199999999953","{""pre-3"":2}","[0]","survey-likert","138","566967","0.0-138.0","a782q76b","","","","","",""
"2471.8249999999534","{""post-5"":0}","[0]","survey-likert","139","569440","0.0-139.0","a782q76b","","","","","",""
"","","","call-function","140","569440","0.0-140.0","a782q76b","","","","","",""
"null","","","video-keyboard-response","141","572509","0.0-141.0","a782q76b","","","","null","Agent A","STIM_SET_1_REAL/285933.bmp_pp81_L1_V1.0_scrambled_freeview_isoFalse_fps144.mp4"
"","","","call-function","142","572509","0.0-142.0","a782q76b","","","","","",""
"5408.75","{""pre-1"":0}","[0]","survey-likert","143","577919","0.0-143.0","a782q76b","","","","","",""
"3297.9150000000373","{""pre-2"":2}","[0]","survey-likert","144","581218","0.0-144.0","a782q76b","","","","","",""
"4300.159999999916","{""pre-3"":1}","[0]","survey-likert","145","585520","0.0-145.0","a782q76b","","","","","",""
"3455.07500000007","{""post-5"":1}","[0]","survey-likert","146","588976","0.0-146.0","a782q76b","","","","","",""
"","","","call-function","147","588976","0.0-147.0","a782q76b","","","","","",""
"null","","","video-keyboard-response","148","592052","0.0-148.0","a782q76b","","","","null","Agent A","STIM_SET_1_REAL/713666.bmp_pp97_L3_V1.0_veridical_freeview_isoFalse_fps144.mp4"
"","","","call-function","149","592052","0.0-149.0","a782q76b","","","","","",""
"2613.5899999999674","{""pre-1"":0}","[0]","survey-likert","150","594667","0.0-150.0","a782q76b","","","","","",""
"3014.2299999999814","{""pre-2"":2}","[0]","survey-likert","151","597682","0.0-151.0","a782q76b","","","","","",""
"1507.6350000000093","{""pre-3"":2}","[0]","survey-likert","152","599190","0.0-152.0","a782q76b","","","","","",""
"1946.0050000000047","{""post-5"":0}","[0]","survey-likert","153","601137","0.0-153.0","a782q76b","","","","","",""
"","","","call-function","154","601138","0.0-154.0","a782q76b","","","","","",""
"null","","","video-keyboard-response","155","604251","0.0-155.0","a782q76b","","","","null","Agent A","STIM_SET_1_REAL/1593041.bmp_pp58_L1_V1.0_scrambled_freeview_isoFalse_fps144.mp4"
"","","","call-function","156","604252","0.0-156.0","a782q76b","","","","","",""
"3132.7449999999953","{""pre-1"":0}","[0]","survey-likert","157","607387","0.0-157.0","a782q76b","","","","","",""
"3645.890000000014","{""pre-2"":0}","[0]","survey-likert","158","611034","0.0-158.0","a782q76b","","","","","",""
"1991.7699999999022","{""pre-3"":0}","[0]","survey-likert","159","613028","0.0-159.0","a782q76b","","","","","",""
"3239.015000000014","{""post-5"":3}","[0]","survey-likert","160","616268","0.0-160.0","a782q76b","","","","","",""
"31336.439999999944","","","instructions","161","647605","0.0-161.0","a782q76b","[{""page_index"":0,""viewing_time"":4482.0599999999395},{""page_index"":1,""viewing_time"":25524.810000000056},{""page_index"":2,""viewing_time"":1328.9949999999953}]","","","","",""
"4757.180000000051","","","instructions","162","652363","0.0-162.0","a782q76b","[{""page_index"":0,""viewing_time"":1044.0900000000838},{""page_index"":1,""viewing_time"":2841.0599999999395},{""page_index"":2,""viewing_time"":871.9200000000419}]","","","","",""
"","","","call-function","163","652363","0.0-163.0","a782q76b","","","","","",""
"null","","","video-keyboard-response","164","655429","0.0-164.0","a782q76b","","","","null","Agent A","STIM_SET_1_REAL/713796.bmp_pp84_L3_V1.0_scrambled_freeview_isoFalse_fps144.mp4"
"","","","call-function","165","655429","0.0-165.0","a782q76b","","","","","",""
"3684.920000000042","{""pre-1"":0}","[0]","survey-likert","166","659115","0.0-166.0","a782q76b","","","","","",""
"3002.1149999999907","{""pre-2"":1}","[0]","survey-likert","167","662118","0.0-167.0","a782q76b","","","","","",""
"3170.2149999999674","{""pre-3"":1}","[0]","survey-likert","168","665290","0.0-168.0","a782q76b","","","","","",""
"3914.5050000000047","{""post-5"":1}","[0]","survey-likert","169","669205","0.0-169.0","a782q76b","","","","","",""
"","","","call-function","170","669206","0.0-170.0","a782q76b","","","","","",""
"null","","","video-keyboard-response","171","672267","0.0-171.0","a782q76b","","","","null","Agent A","STIM_SET_1_REAL/1593035.bmp_pp94_L2_V1.0_scrambled_freeview_isoFalse_fps144.mp4"
"","","","call-function","172","672268","0.0-172.0","a782q76b","","","","","",""
"2975.2149999999674","{""pre-1"":1}","[0]","survey-likert","173","675244","0.0-173.0","a782q76b","","","","","",""
"2961.9599999999627","{""pre-2"":2}","[0]","survey-likert","174","678207","0.0-174.0","a782q76b","","","","","",""
"2666.75","{""pre-3"":0}","[0]","survey-likert","175","680874","0.0-175.0","a782q76b","","","","","",""
"2829.4400000000605","{""post-5"":1}","[0]","survey-likert","176","683705","0.0-176.0","a782q76b","","","","","",""
"","","","call-function","177","683705","0.0-177.0","a782q76b","","","","","",""
"null","","","video-keyboard-response","178","686769","0.0-178.0","a782q76b","","","","null","Agent A","STIM_SET_1_REAL/1592619.bmp_pp56_L3_V1.0_veridical_freeview_isoFalse_fps144.mp4"
"","","","call-function","179","686770","0.0-179.0","a782q76b","","","","","",""
"3714.515000000014","{""pre-1"":2}","[0]","survey-likert","180","690486","0.0-180.0","a782q76b","","","","","",""
"3137.8000000000466","{""pre-2"":2}","[0]","survey-likert","181","693625","0.0-181.0","a782q76b","","","","","",""
"1677.2149999999674","{""pre-3"":2}","[0]","survey-likert","182","695304","0.0-182.0","a782q76b","","","","","",""
"1919.3200000000652","{""post-5"":1}","[0]","survey-likert","183","697225","0.0-183.0","a782q76b","","","","","",""
"","","","call-function","184","697226","0.0-184.0","a782q76b","","","","","",""
"null","","","video-keyboard-response","185","700290","0.0-185.0","a782q76b","","","","null","Agent A","STIM_SET_1_REAL/1592817.bmp_pp55_L3_V1.0_scrambled_freeview_isoFalse_fps144.mp4"
"","","","call-function","186","700290","0.0-186.0","a782q76b","","","","","",""
"3466.6299999998882","{""pre-1"":2}","[0]","survey-likert","187","703758","0.0-187.0","a782q76b","","","","","",""
"3195.2750000000233","{""pre-2"":0}","[0]","survey-likert","188","706954","0.0-188.0","a782q76b","","","","","",""
"2217.6049999999814","{""pre-3"":1}","[0]","survey-likert","189","709173","0.0-189.0","a782q76b","","","","","",""
"3754.0100000000093","{""post-5"":2}","[0]","survey-likert","190","712928","0.0-190.0","a782q76b","","","","","",""
"","","","call-function","191","712928","0.0-191.0","a782q76b","","","","","",""
"null","","","video-keyboard-response","192","716001","0.0-192.0","a782q76b","","","","null","Agent A","STIM_SET_1_REAL/1160127.bmp_pp90_L2_V1.0_scrambled_freeview_isoFalse_fps144.mp4"
"","","","call-function","193","716001","0.0-193.0","a782q76b","","","","","",""
"2774.6650000000373","{""pre-1"":1}","[0]","survey-likert","194","718777","0.0-194.0","a782q76b","","","","","",""
"2280.4100000000326","{""pre-2"":1}","[0]","survey-likert","195","721058","0.0-195.0","a782q76b","","","","","",""
"1742.9599999999627","{""pre-3"":1}","[0]","survey-likert","196","722802","0.0-196.0","a782q76b","","","","","",""
"2581.814999999944","{""post-5"":1}","[0]","survey-likert","197","725385","0.0-197.0","a782q76b","","","","","",""
"","","","call-function","198","725385","0.0-198.0","a782q76b","","","","","",""
"null","","","video-keyboard-response","199","728473","0.0-199.0","a782q76b","","","","null","Agent A","STIM_SET_1_REAL/713760.bmp_pp81_L1_V1.0_scrambled_freeview_isoFalse_fps144.mp4"
"","","","call-function","200","728474","0.0-200.0","a782q76b","","","","","",""
"3059.055000000051","{""pre-1"":0}","[0]","survey-likert","201","731534","0.0-201.0","a782q76b","","","","","",""
"5058.954999999958","{""pre-2"":1}","[0]","survey-likert","202","736594","0.0-202.0","a782q76b","","","","","",""
"2080.1149999999907","{""pre-3"":1}","[0]","survey-likert","203","738675","0.0-203.0","a782q76b","","","","","",""
"3817.289999999921","{""post-5"":2}","[0]","survey-likert","204","742494","0.0-204.0","a782q76b","","","","","",""
"","","","call-function","205","742495","0.0-205.0","a782q76b","","","","","",""
"null","","","video-keyboard-response","206","745559","0.0-206.0","a782q76b","","","","null","Agent A","STIM_SET_1_REAL/1593035.bmp_pp94_L2_V1.0_veridical_freeview_isoFalse_fps144.mp4"
"","","","call-function","207","745559","0.0-207.0","a782q76b","","","","","",""
"5626.984999999986","{""pre-1"":1}","[0]","survey-likert","208","751187","0.0-208.0","a782q76b","","","","","",""
"2686.314999999944","{""pre-2"":0}","[0]","survey-likert","209","753875","0.0-209.0","a782q76b","","","","","",""
"1764.1849999999395","{""pre-3"":1}","[0]","survey-likert","210","755640","0.0-210.0","a782q76b","","","","","",""
"1753.6499999999069","{""post-5"":1}","[0]","survey-likert","211","757395","0.0-211.0","a782q76b","","","","","",""
"","","","call-function","212","757396","0.0-212.0","a782q76b","","","","","",""
"null","","","video-keyboard-response","213","760462","0.0-213.0","a782q76b","","","","null","Agent A","STIM_SET_1_REAL/1592581.bmp_pp100_L3_V1.0_veridical_freeview_isoFalse_fps144.mp4"
"","","","call-function","214","760462","0.0-214.0","a782q76b","","","","","",""
"2794.399999999907","{""pre-1"":1}","[0]","survey-likert","215","763258","0.0-215.0","a782q76b","","","","","",""
"4203.585000000079","{""pre-2"":1}","[0]","survey-likert","216","767463","0.0-216.0","a782q76b","","","","","",""
"4154.2050000000745","{""pre-3"":0}","[0]","survey-likert","217","771618","0.0-217.0","a782q76b","","","","","",""
"5400.704999999958","{""post-5"":2}","[0]","survey-likert","218","777020","0.0-218.0","a782q76b","","","","","",""
"","","","call-function","219","777020","0.0-219.0","a782q76b","","","","","",""
"null","","","video-keyboard-response","220","780096","0.0-220.0","a782q76b","","","","null","Agent A","STIM_SET_1_REAL/713666.bmp_pp97_L3_V1.0_scrambled_freeview_isoFalse_fps144.mp4"
"","","","call-function","221","780096","0.0-221.0","a782q76b","","","","","",""
"2457.819999999949","{""pre-1"":1}","[0]","survey-likert","222","782555","0.0-222.0","a782q76b","","","","","",""
"2389.7700000000186","{""pre-2"":2}","[0]","survey-likert","223","784946","0.0-223.0","a782q76b","","","","","",""
"2526.234999999986","{""pre-3"":1}","[0]","survey-likert","224","787473","0.0-224.0","a782q76b","","","","","",""
"2533.9599999999627","{""post-5"":2}","[0]","survey-likert","225","790008","0.0-225.0","a782q76b","","","","","",""
"","","","call-function","226","790008","0.0-226.0","a782q76b","","","","","",""
"null","","","video-keyboard-response","227","793086","0.0-227.0","a782q76b","","","","null","Agent A","STIM_SET_1_REAL/1592619.bmp_pp56_L3_V1.0_scrambled_freeview_isoFalse_fps144.mp4"
"","","","call-function","228","793087","0.0-228.0","a782q76b","","","","","",""
"8278.285000000033","{""pre-1"":2}","[0]","survey-likert","229","801366","0.0-229.0","a782q76b","","","","","",""
"2509.960000000079","{""pre-2"":1}","[0]","survey-likert","230","803877","0.0-230.0","a782q76b","","","","","",""
"3290.1350000000093","{""pre-3"":2}","[0]","survey-likert","231","807168","0.0-231.0","a782q76b","","","","","",""
"2644.0149999998976","{""post-5"":1}","[0]","survey-likert","232","809814","0.0-232.0","a782q76b","","","","","",""
"","","","call-function","233","809815","0.0-233.0","a782q76b","","","","","",""
"null","","","video-keyboard-response","234","812904","0.0-234.0","a782q76b","","","","null","Agent A","STIM_SET_1_REAL/285933.bmp_pp81_L1_V1.0_veridical_freeview_isoFalse_fps144.mp4"
"","","","call-function","235","812905","0.0-235.0","a782q76b","","","","","",""
"3083.484999999986","{""pre-1"":2}","[0]","survey-likert","236","815990","0.0-236.0","a782q76b","","","","","",""
"4233.410000000033","{""pre-2"":1}","[0]","survey-likert","237","820224","0.0-237.0","a782q76b","","","","","",""
"3448.1650000000373","{""pre-3"":2}","[0]","survey-likert","238","823674","0.0-238.0","a782q76b","","","","","",""
"2074.585000000079","{""post-5"":1}","[0]","survey-likert","239","825749","0.0-239.0","a782q76b","","","","","",""
"","","","call-function","240","825750","0.0-240.0","a782q76b","","","","","",""
"null","","","video-keyboard-response","241","828824","0.0-241.0","a782q76b","","","","null","Agent A","STIM_SET_1_REAL/1159784.bmp_pp73_L3_V1.0_scrambled_freeview_isoFalse_fps144.mp4"
"","","","call-function","242","828824","0.0-242.0","a782q76b","","","","","",""
"3588.850000000093","{""pre-1"":0}","[0]","survey-likert","243","832414","0.0-243.0","a782q76b","","","","","",""
"3700.6600000000326","{""pre-2"":1}","[0]","survey-likert","244","836116","0.0-244.0","a782q76b","","","","","",""
"2337.140000000014","{""pre-3"":0}","[0]","survey-likert","245","838454","0.0-245.0","a782q76b","","","","","",""
"5590.099999999977","{""post-5"":2}","[0]","survey-likert","246","844045","0.0-246.0","a782q76b","","","","","",""
"","","","call-function","247","844045","0.0-247.0","a782q76b","","","","","",""
"null","","","video-keyboard-response","248","847108","0.0-248.0","a782q76b","","","","null","Agent A","STIM_SET_1_REAL/713089.bmp_pp60_L3_V1.0_veridical_freeview_isoFalse_fps144.mp4"
"","","","call-function","249","847109","0.0-249.0","a782q76b","","","","","",""
"4462.42499999993","{""pre-1"":1}","[0]","survey-likert","250","851572","0.0-250.0","a782q76b","","","","","",""
"3180.75","{""pre-2"":1}","[0]","survey-likert","251","854754","0.0-251.0","a782q76b","","","","","",""
"6239.144999999902","{""pre-3"":0}","[0]","survey-likert","252","860994","0.0-252.0","a782q76b","","","","","",""
"2292.7550000000047","{""post-5"":1}","[0]","survey-likert","253","863288","0.0-253.0","a782q76b","","","","","",""
"","","","call-function","254","863288","0.0-254.0","a782q76b","","","","","",""
"null","","","video-keyboard-response","255","866362","0.0-255.0","a782q76b","","","","null","Agent A","STIM_SET_1_REAL/498175.bmp_pp154_L1_V1.0_scrambled_freeview_isoFalse_fps144.mp4"
"","","","call-function","256","866362","0.0-256.0","a782q76b","","","","","",""
"2182.679999999935","{""pre-1"":1}","[0]","survey-likert","257","868546","0.0-257.0","a782q76b","","","","","",""
"2060.8600000001024","{""pre-2"":2}","[0]","survey-likert","258","870608","0.0-258.0","a782q76b","","","","","",""
"2103.0350000000326","{""pre-3"":2}","[0]","survey-likert","259","872713","0.0-259.0","a782q76b","","","","","",""
"3919.0050000000047","{""post-5"":0}","[0]","survey-likert","260","876634","0.0-260.0","a782q76b","","","","","",""
"","","","call-function","261","876635","0.0-261.0","a782q76b","","","","","",""
"null","","","video-keyboard-response","262","879730","0.0-262.0","a782q76b","","","","null","Agent A","STIM_SET_1_REAL/498149.bmp_pp99_L2_V1.0_scrambled_freeview_isoFalse_fps144.mp4"
"","","","call-function","263","879730","0.0-263.0","a782q76b","","","","","",""
"4232.944999999949","{""pre-1"":2}","[0]","survey-likert","264","883964","0.0-264.0","a782q76b","","","","","",""
"2368.164999999921","{""pre-2"":2}","[0]","survey-likert","265","886334","0.0-265.0","a782q76b","","","","","",""
"1569.170000000042","{""pre-3"":2}","[0]","survey-likert","266","887904","0.0-266.0","a782q76b","","","","","",""
"1352.344999999972","{""post-5"":1}","[0]","survey-likert","267","889257","0.0-267.0","a782q76b","","","","","",""
"","","","call-function","268","889258","0.0-268.0","a782q76b","","","","","",""
"null","","","video-keyboard-response","269","892357","0.0-269.0","a782q76b","","","","null","Agent A","STIM_SET_1_REAL/713403.bmp_pp80_L3_V1.0_scrambled_freeview_isoFalse_fps144.mp4"
"","","","call-function","270","892358","0.0-270.0","a782q76b","","","","","",""
"2743.289999999921","{""pre-1"":2}","[0]","survey-likert","271","895102","0.0-271.0","a782q76b","","","","","",""
"2144.710000000079","{""pre-2"":1}","[0]","survey-likert","272","897248","0.0-272.0","a782q76b","","","","","",""
"1518.5649999999441","{""pre-3"":1}","[0]","survey-likert","273","898768","0.0-273.0","a782q76b","","","","","",""
"2778.109999999986","{""post-5"":2}","[0]","survey-likert","274","901547","0.0-274.0","a782q76b","","","","","",""
"","","","call-function","275","901548","0.0-275.0","a782q76b","","","","","",""
"null","","","video-keyboard-response","276","904608","0.0-276.0","a782q76b","","","","null","Agent A","STIM_SET_1_REAL/1592351.bmp_pp51_L1_V1.0_scrambled_freeview_isoFalse_fps144.mp4"
"","","","call-function","277","904609","0.0-277.0","a782q76b","","","","","",""
"2609.649999999907","{""pre-1"":0}","[0]","survey-likert","278","907219","0.0-278.0","a782q76b","","","","","",""
"2385.715000000084","{""pre-2"":0}","[0]","survey-likert","279","909606","0.0-279.0","a782q76b","","","","","",""
"2120.0149999998976","{""pre-3"":0}","[0]","survey-likert","280","911727","0.0-280.0","a782q76b","","","","","",""
"2942.45000000007","{""post-5"":3}","[0]","survey-likert","281","914670","0.0-281.0","a782q76b","","","","","",""
"","","","call-function","282","914671","0.0-282.0","a782q76b","","","","","",""
"null","","","video-keyboard-response","283","917750","0.0-283.0","a782q76b","","","","null","Agent A","STIM_SET_1_REAL/498253.bmp_pp67_L2_V1.0_veridical_freeview_isoFalse_fps144.mp4"
"","","","call-function","284","917751","0.0-284.0","a782q76b","","","","","",""
"2986.9400000000605","{""pre-1"":1}","[0]","survey-likert","285","920740","0.0-285.0","a782q76b","","","","","",""
"2916.680000000051","{""pre-2"":2}","[0]","survey-likert","286","923658","0.0-286.0","a782q76b","","","","","",""
"1726.4450000000652","{""pre-3"":2}","[0]","survey-likert","287","925386","0.0-287.0","a782q76b","","","","","",""
"3647.384999999893","{""post-5"":0}","[0]","survey-likert","288","929034","0.0-288.0","a782q76b","","","","","",""
"","","","call-function","289","929035","0.0-289.0","a782q76b","","","","","",""
"null","","","video-keyboard-response","290","932103","0.0-290.0","a782q76b","","","","null","Agent A","STIM_SET_1_REAL/1159768.bmp_pp89_L1_V1.0_scrambled_freeview_isoFalse_fps144.mp4"
"","","","call-function","291","932104","0.0-291.0","a782q76b","","","","","",""
"2320.5350000000326","{""pre-1"":1}","[0]","survey-likert","292","934425","0.0-292.0","a782q76b","","","","","",""
"2303.5449999999255","{""pre-2"":2}","[0]","survey-likert","293","936730","0.0-293.0","a782q76b","","","","","",""
"1146.6949999999488","{""pre-3"":2}","[0]","survey-likert","294","937878","0.0-294.0","a782q76b","","","","","",""
"1561.9000000000233","{""post-5"":0}","[0]","survey-likert","295","939441","0.0-295.0","a782q76b","","","","","",""
"","","","call-function","296","939442","0.0-296.0","a782q76b","","","","","",""
"null","","","video-keyboard-response","297","942504","0.0-297.0","a782q76b","","","","null","Agent A","STIM_SET_1_REAL/498170.bmp_pp153_L3_V1.0_scrambled_freeview_isoFalse_fps144.mp4"
"","","","call-function","298","942505","0.0-298.0","a782q76b","","","","","",""
"2942.6049999999814","{""pre-1"":0}","[0]","survey-likert","299","945448","0.0-299.0","a782q76b","","","","","",""
"2225.890000000014","{""pre-2"":1}","[0]","survey-likert","300","947675","0.0-300.0","a782q76b","","","","","",""
"1457.2000000000698","{""pre-3"":1}","[0]","survey-likert","301","949133","0.0-301.0","a782q76b","","","","","",""
"2876.715000000084","{""post-5"":2}","[0]","survey-likert","302","952011","0.0-302.0","a782q76b","","","","","",""
"96041.49500000011","","","instructions","303","1048053","0.0-303.0","a782q76b","[{""page_index"":0,""viewing_time"":93325.255},{""page_index"":1,""viewing_time"":1231.9800000000978},{""page_index"":2,""viewing_time"":1484.0899999999674}]","","","","",""
"27638.19000000006","","","instructions","304","1075692","0.0-304.0","a782q76b","[{""page_index"":0,""viewing_time"":20646.144999999902},{""page_index"":1,""viewing_time"":6098.925000000047},{""page_index"":2,""viewing_time"":893.0200000000186}]","","","","",""
"","","","call-function","305","1075693","0.0-305.0","a782q76b","","","","","",""
"null","","","video-keyboard-response","306","1078765","0.0-306.0","a782q76b","","","","null","Agent A","STIM_SET_1_REAL/1159829.bmp_pp91_L3_V1.0_scrambled_freeview_isoFalse_fps144.mp4"
"","","","call-function","307","1078766","0.0-307.0","a782q76b","","","","","",""
"7005.434999999823","{""pre-1"":2}","[0]","survey-likert","308","1085772","0.0-308.0","a782q76b","","","","","",""
"2419.9249999998137","{""pre-2"":1}","[0]","survey-likert","309","1088193","0.0-309.0","a782q76b","","","","","",""
"2031.1149999999907","{""pre-3"":2}","[0]","survey-likert","310","1090225","0.0-310.0","a782q76b","","","","","",""
"4136.284999999916","{""post-5"":1}","[0]","survey-likert","311","1094363","0.0-311.0","a782q76b","","","","","",""
"","","","call-function","312","1094365","0.0-312.0","a782q76b","","","","","",""
"null","","","video-keyboard-response","313","1097425","0.0-313.0","a782q76b","","","","null","Agent A","STIM_SET_1_REAL/713779.bmp_pp152_L2_V1.0_scrambled_freeview_isoFalse_fps144.mp4"
"","","","call-function","314","1097426","0.0-314.0","a782q76b","","","","","",""
"3178.7050000000745","{""pre-1"":2}","[0]","survey-likert","315","1100606","0.0-315.0","a782q76b","","","","","",""
"2797.405000000028","{""pre-2"":2}","[0]","survey-likert","316","1103404","0.0-316.0","a782q76b","","","","","",""
"1065.9199999999255","{""pre-3"":2}","[0]","survey-likert","317","1104472","0.0-317.0","a782q76b","","","","","",""
"2990.8799999998882","{""post-5"":1}","[0]","survey-likert","318","1107464","0.0-318.0","a782q76b","","","","","",""
"","","","call-function","319","1107464","0.0-319.0","a782q76b","","","","","",""
"null","","","video-keyboard-response","320","1110522","0.0-320.0","a782q76b","","","","null","Agent A","STIM_SET_1_REAL/286001.bmp_pp54_L2_V1.0_scrambled_freeview_isoFalse_fps144.mp4"
"","","","call-function","321","1110523","0.0-321.0","a782q76b","","","","","",""
"3259.6800000001676","{""pre-1"":1}","[0]","survey-likert","322","1113784","0.0-322.0","a782q76b","","","","","",""
"3170.4599999999627","{""pre-2"":0}","[0]","survey-likert","323","1116955","0.0-323.0","a782q76b","","","","","",""
"2213.939999999944","{""pre-3"":0}","[0]","survey-likert","324","1119170","0.0-324.0","a782q76b","","","","","",""
"2158.744999999879","{""post-5"":1}","[0]","survey-likert","325","1121330","0.0-325.0","a782q76b","","","","","",""
"","","","call-function","326","1121330","0.0-326.0","a782q76b","","","","","",""
"null","","","video-keyboard-response","327","1124393","0.0-327.0","a782q76b","","","","null","Agent A","STIM_SET_1_REAL/713681.bmp_pp86_L2_V1.0_veridical_freeview_isoFalse_fps144.mp4"
"","","","call-function","328","1124393","0.0-328.0","a782q76b","","","","","",""
"3507.2450000001118","{""pre-1"":2}","[0]","survey-likert","329","1127901","0.0-329.0","a782q76b","","","","","",""
"2481.7999999998137","{""pre-2"":2}","[0]","survey-likert","330","1130384","0.0-330.0","a782q76b","","","","","",""
"1710.9299999999348","{""pre-3"":2}","[0]","survey-likert","331","1132096","0.0-331.0","a782q76b","","","","","",""
"3170.225000000093","{""post-5"":1}","[0]","survey-likert","332","1135268","0.0-332.0","a782q76b","","","","","",""
"","","","call-function","333","1135268","0.0-333.0","a782q76b","","","","","",""
"null","","","video-keyboard-response","334","1138335","0.0-334.0","a782q76b","","","","null","Agent A","STIM_SET_1_REAL/1591961.bmp_pp67_L2_V1.0_veridical_freeview_isoFalse_fps144.mp4"
"","","","call-function","335","1138336","0.0-335.0","a782q76b","","","","","",""
"3407.4849999998696","{""pre-1"":1}","[0]","survey-likert","336","1141744","0.0-336.0","a782q76b","","","","","",""
"3320.594999999972","{""pre-2"":1}","[0]","survey-likert","337","1145067","0.0-337.0","a782q76b","","","","","",""
"3816.1350000000093","{""pre-3"":0}","[0]","survey-likert","338","1148885","0.0-338.0","a782q76b","","","","","",""
"5333.264999999898","{""post-5"":2}","[0]","survey-likert","339","1154220","0.0-339.0","a782q76b","","","","","",""
"","","","call-function","340","1154221","0.0-340.0","a782q76b","","","","","",""
"null","","","video-keyboard-response","341","1157310","0.0-341.0","a782q76b","","","","null","Agent A","STIM_SET_1_REAL/713681.bmp_pp86_L2_V1.0_scrambled_freeview_isoFalse_fps144.mp4"
"","","","call-function","342","1157310","0.0-342.0","a782q76b","","","","","",""
"3894.9150000000373","{""pre-1"":1}","[0]","survey-likert","343","1161207","0.0-343.0","a782q76b","","","","","",""
"2798.905000000028","{""pre-2"":2}","[0]","survey-likert","344","1164007","0.0-344.0","a782q76b","","","","","",""
"2192.244999999879","{""pre-3"":0}","[0]","survey-likert","345","1166200","0.0-345.0","a782q76b","","","","","",""
"1686.7099999999627","{""post-5"":1}","[0]","survey-likert","346","1167888","0.0-346.0","a782q76b","","","","","",""
"","","","call-function","347","1167888","0.0-347.0","a782q76b","","","","","",""
"null","","","video-keyboard-response","348","1170957","0.0-348.0","a782q76b","","","","null","Agent A","STIM_SET_1_REAL/1159768.bmp_pp89_L1_V1.0_veridical_freeview_isoFalse_fps144.mp4"
"","","","call-function","349","1170958","0.0-349.0","a782q76b","","","","","",""
"3403.244999999879","{""pre-1"":3}","[0]","survey-likert","350","1174362","0.0-350.0","a782q76b","","","","","",""
"2067.8700000001118","{""pre-2"":3}","[0]","survey-likert","351","1176431","0.0-351.0","a782q76b","","","","","",""
"1659.125","{""pre-3"":3}","[0]","survey-likert","352","1178091","0.0-352.0","a782q76b","","","","","",""
"1861.6850000000559","{""post-5"":0}","[0]","survey-likert","353","1179954","0.0-353.0","a782q76b","","","","","",""
"","","","call-function","354","1179955","0.0-354.0","a782q76b","","","","","",""
"null","","","video-keyboard-response","355","1183031","0.0-355.0","a782q76b","","","","null","Agent A","STIM_SET_1_REAL/498253.bmp_pp67_L2_V1.0_scrambled_freeview_isoFalse_fps144.mp4"
"","","","call-function","356","1183032","0.0-356.0","a782q76b","","","","","",""
"3995.7299999999814","{""pre-1"":1}","[0]","survey-likert","357","1187029","0.0-357.0","a782q76b","","","","","",""
"2112.784999999916","{""pre-2"":1}","[0]","survey-likert","358","1189142","0.0-358.0","a782q76b","","","","","",""
"2582.060000000056","{""pre-3"":1}","[0]","survey-likert","359","1191725","0.0-359.0","a782q76b","","","","","",""
"3919.0999999998603","{""post-5"":3}","[0]","survey-likert","360","1195645","0.0-360.0","a782q76b","","","","","",""
"","","","call-function","361","1195646","0.0-361.0","a782q76b","","","","","",""
"null","","","video-keyboard-response","362","1198715","0.0-362.0","a782q76b","","","","null","Agent A","STIM_SET_1_REAL/713135.bmp_pp54_L2_V1.0_scrambled_freeview_isoFalse_fps144.mp4"
"","","","call-function","363","1198717","0.0-363.0","a782q76b","","","","","",""
"1868.994999999879","{""pre-1"":1}","[0]","survey-likert","364","1200587","0.0-364.0","a782q76b","","","","","",""
"2037.785000000149","{""pre-2"":1}","[0]","survey-likert","365","1202626","0.0-365.0","a782q76b","","","","","",""
"1802.654999999795","{""pre-3"":0}","[0]","survey-likert","366","1204430","0.0-366.0","a782q76b","","","","","",""
"1573.405000000028","{""post-5"":3}","[0]","survey-likert","367","1206004","0.0-367.0","a782q76b","","","","","",""
"","","","call-function","368","1206005","0.0-368.0","a782q76b","","","","","",""
"null","","","video-keyboard-response","369","1209071","0.0-369.0","a782q76b","","","","null","Agent A","STIM_SET_1_REAL/1159882.bmp_pp61_L2_V1.0_veridical_freeview_isoFalse_fps144.mp4"
"","","","call-function","370","1209071","0.0-370.0","a782q76b","","","","","",""
"3136.1650000000373","{""pre-1"":2}","[0]","survey-likert","371","1212209","0.0-371.0","a782q76b","","","","","",""
"2750.5100000000093","{""pre-2"":2}","[0]","survey-likert","372","1214960","0.0-372.0","a782q76b","","","","","",""
"1962.7250000000931","{""pre-3"":3}","[0]","survey-likert","373","1216925","0.0-373.0","a782q76b","","","","","",""
"1714.8499999998603","{""post-5"":0}","[0]","survey-likert","374","1218640","0.0-374.0","a782q76b","","","","","",""
"","","","call-function","375","1218641","0.0-375.0","a782q76b","","","","","",""
"null","","","video-keyboard-response","376","1221708","0.0-376.0","a782q76b","","","","null","Agent A","STIM_SET_1_REAL/1592581.bmp_pp100_L3_V1.0_scrambled_freeview_isoFalse_fps144.mp4"
"","","","call-function","377","1221708","0.0-377.0","a782q76b","","","","","",""
"3078.6750000000466","{""pre-1"":2}","[0]","survey-likert","378","1224788","0.0-378.0","a782q76b","","","","","",""
"1913.4249999998137","{""pre-2"":2}","[0]","survey-likert","379","1226702","0.0-379.0","a782q76b","","","","","",""
"1907.0449999999255","{""pre-3"":2}","[0]","survey-likert","380","1228610","0.0-380.0","a782q76b","","","","","",""
"1969.1999999999534","{""post-5"":1}","[0]","survey-likert","381","1230581","0.0-381.0","a782q76b","","","","","",""
"","","","call-function","382","1230581","0.0-382.0","a782q76b","","","","","",""
"null","","","video-keyboard-response","383","1233649","0.0-383.0","a782q76b","","","","null","Agent A","STIM_SET_1_REAL/1592286.bmp_pp52_L1_V1.0_scrambled_freeview_isoFalse_fps144.mp4"
"","","","call-function","384","1233649","0.0-384.0","a782q76b","","","","","",""
"4259.280000000028","{""pre-1"":3}","[0]","survey-likert","385","1237910","0.0-385.0","a782q76b","","","","","",""
"1816.6099999998696","{""pre-2"":3}","[0]","survey-likert","386","1239727","0.0-386.0","a782q76b","","","","","",""
"3025.4899999999907","{""pre-3"":3}","[0]","survey-likert","387","1242754","0.0-387.0","a782q76b","","","","","",""
"1295.344999999972","{""post-5"":0}","[0]","survey-likert","388","1244050","0.0-388.0","a782q76b","","","","","",""
"","","","call-function","389","1244051","0.0-389.0","a782q76b","","","","","",""
"null","","","video-keyboard-response","390","1247154","0.0-390.0","a782q76b","","","","null","Agent A","STIM_SET_1_REAL/285751.bmp_pp55_L3_V1.0_veridical_freeview_isoFalse_fps144.mp4"
"","","","call-function","391","1247154","0.0-391.0","a782q76b","","","","","",""
"2908.2049999998417","{""pre-1"":2}","[0]","survey-likert","392","1250064","0.0-392.0","a782q76b","","","","","",""
"2690.1450000000186","{""pre-2"":1}","[0]","survey-likert","393","1252756","0.0-393.0","a782q76b","","","","","",""
"1746.9749999998603","{""pre-3"":2}","[0]","survey-likert","394","1254505","0.0-394.0","a782q76b","","","","","",""
"1899.9599999999627","{""post-5"":0}","[0]","survey-likert","395","1256406","0.0-395.0","a782q76b","","","","","",""
"","","","call-function","396","1256407","0.0-396.0","a782q76b","","","","","",""
"null","","","video-keyboard-response","397","1259474","0.0-397.0","a782q76b","","","","null","Agent A","STIM_SET_1_REAL/713513.bmp_pp62_L2_V1.0_scrambled_freeview_isoFalse_fps144.mp4"
"","","","call-function","398","1259475","0.0-398.0","a782q76b","","","","","",""
"3106.6500000001397","{""pre-1"":0}","[0]","survey-likert","399","1262582","0.0-399.0","a782q76b","","","","","",""
"1895.1899999999441","{""pre-2"":1}","[0]","survey-likert","400","1264479","0.0-400.0","a782q76b","","","","","",""
"2165.7049999998417","{""pre-3"":0}","[0]","survey-likert","401","1266645","0.0-401.0","a782q76b","","","","","",""
"3189.9199999999255","{""post-5"":3}","[0]","survey-likert","402","1269837","0.0-402.0","a782q76b","","","","","",""
"","","","call-function","403","1269837","0.0-403.0","a782q76b","","","","","",""
"null","","","video-keyboard-response","404","1272912","0.0-404.0","a782q76b","","","","null","Agent A","STIM_SET_1_REAL/498111.bmp_pp88_L2_V1.0_scrambled_freeview_isoFalse_fps144.mp4"
"","","","call-function","405","1272912","0.0-405.0","a782q76b","","","","","",""
"3317.1750000000466","{""pre-1"":2}","[0]","survey-likert","406","1276231","0.0-406.0","a782q76b","","","","","",""
"1824.875","{""pre-2"":2}","[0]","survey-likert","407","1278057","0.0-407.0","a782q76b","","","","","",""
"1341.125","{""pre-3"":2}","[0]","survey-likert","408","1279399","0.0-408.0","a782q76b","","","","","",""
"1626.4500000001863","{""post-5"":1}","[0]","survey-likert","409","1281027","0.0-409.0","a782q76b","","","","","",""
"","","","call-function","410","1281027","0.0-410.0","a782q76b","","","","","",""
"null","","","video-keyboard-response","411","1284090","0.0-411.0","a782q76b","","","","null","Agent A","STIM_SET_1_REAL/1592890.bmp_pp82_L2_V1.0_scrambled_freeview_isoFalse_fps144.mp4"
"","","","call-function","412","1284091","0.0-412.0","a782q76b","","","","","",""
"16907.139999999898","{""pre-1"":1}","[0]","survey-likert","413","1300999","0.0-413.0","a782q76b","","","","","",""
"2866.8899999998976","{""pre-2"":1}","[0]","survey-likert","414","1303867","0.0-414.0","a782q76b","","","","","",""
"1750.0049999998882","{""pre-3"":1}","[0]","survey-likert","415","1305618","0.0-415.0","a782q76b","","","","","",""
"1437.4299999999348","{""post-5"":1}","[0]","survey-likert","416","1307056","0.0-416.0","a782q76b","","","","","",""
"","","","call-function","417","1307056","0.0-417.0","a782q76b","","","","","",""
"null","","","video-keyboard-response","418","1310130","0.0-418.0","a782q76b","","","","null","Agent A","STIM_SET_1_REAL/713593.bmp_pp64_L1_V1.0_veridical_freeview_isoFalse_fps144.mp4"
"","","","call-function","419","1310131","0.0-419.0","a782q76b","","","","","",""
"2268.314999999944","{""pre-1"":2}","[0]","survey-likert","420","1312401","0.0-420.0","a782q76b","","","","","",""
"1661.4150000000373","{""pre-2"":2}","[0]","survey-likert","421","1314064","0.0-421.0","a782q76b","","","","","",""
"1484.6649999998044","{""pre-3"":2}","[0]","survey-likert","422","1315550","0.0-422.0","a782q76b","","","","","",""
"1584.1699999999255","{""post-5"":1}","[0]","survey-likert","423","1317135","0.0-423.0","a782q76b","","","","","",""
"","","","call-function","424","1317136","0.0-424.0","a782q76b","","","","","",""
"null","","","video-keyboard-response","425","1320214","0.0-425.0","a782q76b","","","","null","Agent A","STIM_SET_1_REAL/713684.bmp_pp85_L3_V1.0_scrambled_freeview_isoFalse_fps144.mp4"
"","","","call-function","426","1320214","0.0-426.0","a782q76b","","","","","",""
"2838.630000000121","{""pre-1"":0}","[0]","survey-likert","427","1323054","0.0-427.0","a782q76b","","","","","",""
"2481.804999999935","{""pre-2"":0}","[0]","survey-likert","428","1325537","0.0-428.0","a782q76b","","","","","",""
"2502.3899999998976","{""pre-3"":0}","[0]","survey-likert","429","1328041","0.0-429.0","a782q76b","","","","","",""
"2297.939999999944","{""post-5"":3}","[0]","survey-likert","430","1330340","0.0-430.0","a782q76b","","","","","",""
"","","","call-function","431","1330340","0.0-431.0","a782q76b","","","","","",""
"null","","","video-keyboard-response","432","1333399","0.0-432.0","a782q76b","","","","null","Agent A","STIM_SET_1_REAL/498149.bmp_pp99_L2_V1.0_veridical_freeview_isoFalse_fps144.mp4"
"","","","call-function","433","1333399","0.0-433.0","a782q76b","","","","","",""
"4106.579999999842","{""pre-1"":3}","[0]","survey-likert","434","1337507","0.0-434.0","a782q76b","","","","","",""
"1381.839999999851","{""pre-2"":3}","[0]","survey-likert","435","1338890","0.0-435.0","a782q76b","","","","","",""
"1616.780000000028","{""pre-3"":3}","[0]","survey-likert","436","1340507","0.0-436.0","a782q76b","","","","","",""
"1847.2250000000931","{""post-5"":0}","[0]","survey-likert","437","1342356","0.0-437.0","a782q76b","","","","","",""
"","","","call-function","438","1342356","0.0-438.0","a782q76b","","","","","",""
"null","","","video-keyboard-response","439","1345425","0.0-439.0","a782q76b","","","","null","Agent A","STIM_SET_1_REAL/713796.bmp_pp84_L3_V1.0_veridical_freeview_isoFalse_fps144.mp4"
"","","","call-function","440","1345425","0.0-440.0","a782q76b","","","","","",""
"2606.119999999879","{""pre-1"":2}","[0]","survey-likert","441","1348033","0.0-441.0","a782q76b","","","","","",""
"1902.1599999999162","{""pre-2"":2}","[0]","survey-likert","442","1349936","0.0-442.0","a782q76b","","","","","",""
"1046.0700000000652","{""pre-3"":2}","[0]","survey-likert","443","1350983","0.0-443.0","a782q76b","","","","","",""
"2531.7649999998976","{""post-5"":0}","[0]","survey-likert","444","1353516","0.0-444.0","a782q76b","","","","","",""
"167432.66500000004","","","instructions","445","1520950","0.0-445.0","a782q76b","[{""page_index"":0,""viewing_time"":165179.115},{""page_index"":1,""viewing_time"":1317.8700000001118},{""page_index"":2,""viewing_time"":935.0400000000373}]","","","","",""
"2985.4249999998137","","","instructions","446","1523937","0.0-446.0","a782q76b","[{""page_index"":0,""viewing_time"":749.7700000000186},{""page_index"":1,""viewing_time"":1574.5100000000093},{""page_index"":2,""viewing_time"":661.0449999999255}]","","","","",""
"","","","call-function","447","1523937","0.0-447.0","a782q76b","","","","","",""
"null","","","video-keyboard-response","448","1527018","0.0-448.0","a782q76b","","","","null","Agent A","STIM_SET_1_REAL/713684.bmp_pp85_L3_V1.0_veridical_freeview_isoFalse_fps144.mp4"
"","","","call-function","449","1527018","0.0-449.0","a782q76b","","","","","",""
"3023.7900000000373","{""pre-1"":0}","[0]","survey-likert","450","1530043","0.0-450.0","a782q76b","","","","","",""
"2508.1350000000093","{""pre-2"":1}","[0]","survey-likert","451","1532552","0.0-451.0","a782q76b","","","","","",""
"1986.6299999998882","{""pre-3"":1}","[0]","survey-likert","452","1534540","0.0-452.0","a782q76b","","","","","",""
"2897.6999999999534","{""post-5"":2}","[0]","survey-likert","453","1537439","0.0-453.0","a782q76b","","","","","",""
"","","","call-function","454","1537440","0.0-454.0","a782q76b","","","","","",""
"null","","","video-keyboard-response","455","1540514","0.0-455.0","a782q76b","","","","null","Agent A","STIM_SET_1_REAL/1591876.bmp_pp63_L1_V1.0_veridical_freeview_isoFalse_fps144.mp4"
"","","","call-function","456","1540514","0.0-456.0","a782q76b","","","","","",""
"4576.89000000013","{""pre-1"":2}","[0]","survey-likert","457","1545092","0.0-457.0","a782q76b","","","","","",""
"1713.910000000149","{""pre-2"":2}","[0]","survey-likert","458","1546807","0.0-458.0","a782q76b","","","","","",""
"2060.939999999944","{""pre-3"":3}","[0]","survey-likert","459","1548869","0.0-459.0","a782q76b","","","","","",""
"2852.435000000056","{""post-5"":0}","[0]","survey-likert","460","1551723","0.0-460.0","a782q76b","","","","","",""
"","","","call-function","461","1551723","0.0-461.0","a782q76b","","","","","",""
"null","","","video-keyboard-response","462","1554785","0.0-462.0","a782q76b","","","","null","Agent A","STIM_SET_1_REAL/497950.bmp_pp151_L1_V1.0_scrambled_freeview_isoFalse_fps144.mp4"
"","","","call-function","463","1554785","0.0-463.0","a782q76b","","","","","",""
"2489.804999999935","{""pre-1"":2}","[0]","survey-likert","464","1557276","0.0-464.0","a782q76b","","","","","",""
"1936.4550000000745","{""pre-2"":1}","[0]","survey-likert","465","1559214","0.0-465.0","a782q76b","","","","","",""
"2954.214999999851","{""pre-3"":1}","[0]","survey-likert","466","1562169","0.0-466.0","a782q76b","","","","","",""
"2682.3950000000186","{""post-5"":1}","[0]","survey-likert","467","1564853","0.0-467.0","a782q76b","","","","","",""
"","","","call-function","468","1564853","0.0-468.0","a782q76b","","","","","",""
"null","","","video-keyboard-response","469","1567920","0.0-469.0","a782q76b","","","","null","Agent A","STIM_SET_1_REAL/713513.bmp_pp62_L2_V1.0_veridical_freeview_isoFalse_fps144.mp4"
"","","","call-function","470","1567921","0.0-470.0","a782q76b","","","","","",""
"2129.909999999916","{""pre-1"":1}","[0]","survey-likert","471","1570053","0.0-471.0","a782q76b","","","","","",""
"2109.2350000001024","{""pre-2"":0}","[0]","survey-likert","472","1572163","0.0-472.0","a782q76b","","","","","",""
"1840.905000000028","{""pre-3"":0}","[0]","survey-likert","473","1574006","0.0-473.0","a782q76b","","","","","",""
"2109.0250000001397","{""post-5"":1}","[0]","survey-likert","474","1576117","0.0-474.0","a782q76b","","","","","",""
"","","","call-function","475","1576118","0.0-475.0","a782q76b","","","","","",""
"null","","","video-keyboard-response","476","1579195","0.0-476.0","a782q76b","","","","null","Agent A","STIM_SET_1_REAL/1591954.bmp_pp62_L2_V1.0_scrambled_freeview_isoFalse_fps144.mp4"
"","","","call-function","477","1579195","0.0-477.0","a782q76b","","","","","",""
"2583.6650000000373","{""pre-1"":2}","[0]","survey-likert","478","1581780","0.0-478.0","a782q76b","","","","","",""
"2727.9249999998137","{""pre-2"":1}","[0]","survey-likert","479","1584510","0.0-479.0","a782q76b","","","","","",""
"1595.6799999999348","{""pre-3"":0}","[0]","survey-likert","480","1586107","0.0-480.0","a782q76b","","","","","",""
"2312.155000000028","{""post-5"":2}","[0]","survey-likert","481","1588420","0.0-481.0","a782q76b","","","","","",""
"","","","call-function","482","1588421","0.0-482.0","a782q76b","","","","","",""
"null","","","video-keyboard-response","483","1591517","0.0-483.0","a782q76b","","","","null","Agent A","STIM_SET_1_REAL/1160168.bmp_pp53_L2_V1.0_scrambled_freeview_isoFalse_fps144.mp4"
"","","","call-function","484","1591517","0.0-484.0","a782q76b","","","","","",""
"3406.594999999972","{""pre-1"":2}","[0]","survey-likert","485","1594925","0.0-485.0","a782q76b","","","","","",""
"1587.0900000000838","{""pre-2"":2}","[0]","survey-likert","486","1596513","0.0-486.0","a782q76b","","","","","",""
"1512.744999999879","{""pre-3"":1}","[0]","survey-likert","487","1598027","0.0-487.0","a782q76b","","","","","",""
"4334.959999999963","{""post-5"":2}","[0]","survey-likert","488","1602363","0.0-488.0","a782q76b","","","","","",""
"","","","call-function","489","1602363","0.0-489.0","a782q76b","","","","","",""
"null","","","video-keyboard-response","490","1605440","0.0-490.0","a782q76b","","","","null","Agent A","STIM_SET_1_REAL/1159777.bmp_pp77_L3_V1.0_scrambled_freeview_isoFalse_fps144.mp4"
"","","","call-function","491","1605441","0.0-491.0","a782q76b","","","","","",""
"3912.2600000000093","{""pre-1"":2}","[0]","survey-likert","492","1609354","0.0-492.0","a782q76b","","","","","",""
"1461.9799999999814","{""pre-2"":2}","[0]","survey-likert","493","1610817","0.0-493.0","a782q76b","","","","","",""
"2561.929999999935","{""pre-3"":2}","[0]","survey-likert","494","1613380","0.0-494.0","a782q76b","","","","","",""
"2944.840000000084","{""post-5"":2}","[0]","survey-likert","495","1616326","0.0-495.0","a782q76b","","","","","",""
"","","","call-function","496","1616326","0.0-496.0","a782q76b","","","","","",""
"null","","","video-keyboard-response","497","1619392","0.0-497.0","a782q76b","","","","null","Agent A","STIM_SET_1_REAL/1592499.bmp_pp96_L2_V1.0_veridical_freeview_isoFalse_fps144.mp4"
"","","","call-function","498","1619393","0.0-498.0","a782q76b","","","","","",""
"3067.530000000028","{""pre-1"":2}","[0]","survey-likert","499","1622461","0.0-499.0","a782q76b","","","","","",""
"1461.9150000000373","{""pre-2"":1}","[0]","survey-likert","500","1623924","0.0-500.0","a782q76b","","","","","",""
"2034.280000000028","{""pre-3"":1}","[0]","survey-likert","501","1625960","0.0-501.0","a782q76b","","","","","",""
"2928.714999999851","{""post-5"":2}","[0]","survey-likert","502","1628891","0.0-502.0","a782q76b","","","","","",""
"","","","call-function","503","1628892","0.0-503.0","a782q76b","","","","","",""
"null","","","video-keyboard-response","504","1631971","0.0-504.0","a782q76b","","","","null","Agent A","STIM_SET_1_REAL/712977.bmp_pp51_L1_V1.0_veridical_freeview_isoFalse_fps144.mp4"
"","","","call-function","505","1631972","0.0-505.0","a782q76b","","","","","",""
"4109.699999999953","{""pre-1"":2}","[0]","survey-likert","506","1636083","0.0-506.0","a782q76b","","","","","",""
"2286.6500000001397","{""pre-2"":2}","[0]","survey-likert","507","1638371","0.0-507.0","a782q76b","","","","","",""
"1771.8649999999907","{""pre-3"":2}","[0]","survey-likert","508","1640144","0.0-508.0","a782q76b","","","","","",""
"5260.385000000009","{""post-5"":1}","[0]","survey-likert","509","1645405","0.0-509.0","a782q76b","","","","","",""
"","","","call-function","510","1645406","0.0-510.0","a782q76b","","","","","",""
"null","","","video-keyboard-response","511","1648465","0.0-511.0","a782q76b","","","","null","Agent A","STIM_SET_1_REAL/1592351.bmp_pp51_L1_V1.0_veridical_freeview_isoFalse_fps144.mp4"
"","","","call-function","512","1648465","0.0-512.0","a782q76b","","","","","",""
"2291.559999999823","{""pre-1"":1}","[0]","survey-likert","513","1650758","0.0-513.0","a782q76b","","","","","",""
"1300.9650000000838","{""pre-2"":1}","[0]","survey-likert","514","1652060","0.0-514.0","a782q76b","","","","","",""
"2358.8299999998417","{""pre-3"":0}","[0]","survey-likert","515","1654420","0.0-515.0","a782q76b","","","","","",""
"2403.090000000084","{""post-5"":2}","[0]","survey-likert","516","1656824","0.0-516.0","a782q76b","","","","","",""
"","","","call-function","517","1656825","0.0-517.0","a782q76b","","","","","",""
"null","","","video-keyboard-response","518","1659893","0.0-518.0","a782q76b","","","","null","Agent A","STIM_SET_1_REAL/1159440.bmp_pp98_L1_V1.0_veridical_freeview_isoFalse_fps144.mp4"
"","","","call-function","519","1659894","0.0-519.0","a782q76b","","","","","",""
"2320.5149999998976","{""pre-1"":2}","[0]","survey-likert","520","1662216","0.0-520.0","a782q76b","","","","","",""
"1660.5400000000373","{""pre-2"":2}","[0]","survey-likert","521","1663878","0.0-521.0","a782q76b","","","","","",""
"1320.2150000000838","{""pre-3"":2}","[0]","survey-likert","522","1665199","0.0-522.0","a782q76b","","","","","",""
"1895.0049999998882","{""post-5"":0}","[0]","survey-likert","523","1667095","0.0-523.0","a782q76b","","","","","",""
"","","","call-function","524","1667095","0.0-524.0","a782q76b","","","","","",""
"null","","","video-keyboard-response","525","1670154","0.0-525.0","a782q76b","","","","null","Agent A","STIM_SET_1_REAL/1592817.bmp_pp55_L3_V1.0_veridical_freeview_isoFalse_fps144.mp4"
"","","","call-function","526","1670155","0.0-526.0","a782q76b","","","","","",""
"3517.5149999998976","{""pre-1"":3}","[0]","survey-likert","527","1673673","0.0-527.0","a782q76b","","","","","",""
"1919.875","{""pre-2"":3}","[0]","survey-likert","528","1675594","0.0-528.0","a782q76b","","","","","",""
"1500.9299999999348","{""pre-3"":3}","[0]","survey-likert","529","1677096","0.0-529.0","a782q76b","","","","","",""
"1974.0249999999069","{""post-5"":0}","[0]","survey-likert","530","1679071","0.0-530.0","a782q76b","","","","","",""
"","","","call-function","531","1679071","0.0-531.0","a782q76b","","","","","",""
"null","","","video-keyboard-response","532","1682174","0.0-532.0","a782q76b","","","","null","Agent A","STIM_SET_1_REAL/1592804.bmp_pp91_L3_V1.0_veridical_freeview_isoFalse_fps144.mp4"
"","","","call-function","533","1682175","0.0-533.0","a782q76b","","","","","",""
"1782.6700000001583","{""pre-1"":1}","[0]","survey-likert","534","1683959","0.0-534.0","a782q76b","","","","","",""
"3456.590000000084","{""pre-2"":0}","[0]","survey-likert","535","1687417","0.0-535.0","a782q76b","","","","","",""
"1926.75","{""pre-3"":0}","[0]","survey-likert","536","1689345","0.0-536.0","a782q76b","","","","","",""
"2380.2050000000745","{""post-5"":2}","[0]","survey-likert","537","1691727","0.0-537.0","a782q76b","","","","","",""
"","","","call-function","538","1691727","0.0-538.0","a782q76b","","","","","",""
"null","","","video-keyboard-response","539","1694800","0.0-539.0","a782q76b","","","","null","Agent A","STIM_SET_1_REAL/713593.bmp_pp64_L1_V1.0_scrambled_freeview_isoFalse_fps144.mp4"
"","","","call-function","540","1694800","0.0-540.0","a782q76b","","","","","",""
"2577.875","{""pre-1"":2}","[0]","survey-likert","541","1697379","0.0-541.0","a782q76b","","","","","",""
"1490.0600000000559","{""pre-2"":2}","[0]","survey-likert","542","1698871","0.0-542.0","a782q76b","","","","","",""
"1712.8250000001863","{""pre-3"":1}","[0]","survey-likert","543","1700585","0.0-543.0","a782q76b","","","","","",""
"1532.8050000001676","{""post-5"":0}","[0]","survey-likert","544","1702119","0.0-544.0","a782q76b","","","","","",""
"","","","call-function","545","1702119","0.0-545.0","a782q76b","","","","","",""
"null","","","video-keyboard-response","546","1705186","0.0-546.0","a782q76b","","","","null","Agent A","STIM_SET_1_REAL/1592499.bmp_pp96_L2_V1.0_scrambled_freeview_isoFalse_fps144.mp4"
"","","","call-function","547","1705187","0.0-547.0","a782q76b","","","","","",""
"3117.3850000000093","{""pre-1"":2}","[0]","survey-likert","548","1708305","0.0-548.0","a782q76b","","","","","",""
"2188.0250000001397","{""pre-2"":1}","[0]","survey-likert","549","1710494","0.0-549.0","a782q76b","","","","","",""
"2158.695000000065","{""pre-3"":0}","[0]","survey-likert","550","1712654","0.0-550.0","a782q76b","","","","","",""
"1630.0900000000838","{""post-5"":2}","[0]","survey-likert","551","1714285","0.0-551.0","a782q76b","","","","","",""
"","","","call-function","552","1714286","0.0-552.0","a782q76b","","","","","",""
"null","","","video-keyboard-response","553","1717376","0.0-553.0","a782q76b","","","","null","Agent A","STIM_SET_1_REAL/1159446.bmp_pp60_L3_V1.0_veridical_freeview_isoFalse_fps144.mp4"
"","","","call-function","554","1717377","0.0-554.0","a782q76b","","","","","",""
"2273.375","{""pre-1"":2}","[0]","survey-likert","555","1719651","0.0-555.0","a782q76b","","","","","",""
"1708.094999999972","{""pre-2"":3}","[0]","survey-likert","556","1721360","0.0-556.0","a782q76b","","","","","",""
"1704.25","{""pre-3"":3}","[0]","survey-likert","557","1723065","0.0-557.0","a782q76b","","","","","",""
"1378.839999999851","{""post-5"":0}","[0]","survey-likert","558","1724445","0.0-558.0","a782q76b","","","","","",""
"","","","call-function","559","1724446","0.0-559.0","a782q76b","","","","","",""
"null","","","video-keyboard-response","560","1727523","0.0-560.0","a782q76b","","","","null","Agent A","STIM_SET_1_REAL/1591954.bmp_pp62_L2_V1.0_veridical_freeview_isoFalse_fps144.mp4"
"","","","call-function","561","1727523","0.0-561.0","a782q76b","","","","","",""
"4804.3300000000745","{""pre-1"":2}","[0]","survey-likert","562","1732329","0.0-562.0","a782q76b","","","","","",""
"1996.2649999998976","{""pre-2"":2}","[0]","survey-likert","563","1734328","0.0-563.0","a782q76b","","","","","",""
"2162.1650000000373","{""pre-3"":1}","[0]","survey-likert","564","1736491","0.0-564.0","a782q76b","","","","","",""
"2557.649999999907","{""post-5"":1}","[0]","survey-likert","565","1739050","0.0-565.0","a782q76b","","","","","",""
"","","","call-function","566","1739051","0.0-566.0","a782q76b","","","","","",""
"null","","","video-keyboard-response","567","1742113","0.0-567.0","a782q76b","","","","null","Agent A","STIM_SET_1_REAL/1592133.bmp_pp75_L1_V1.0_scrambled_freeview_isoFalse_fps144.mp4"
"","","","call-function","568","1742113","0.0-568.0","a782q76b","","","","","",""
"2440.3249999999534","{""pre-1"":1}","[0]","survey-likert","569","1744555","0.0-569.0","a782q76b","","","","","",""
"2035.6899999999441","{""pre-2"":0}","[0]","survey-likert","570","1746591","0.0-570.0","a782q76b","","","","","",""
"1879.5499999998137","{""pre-3"":0}","[0]","survey-likert","571","1748472","0.0-571.0","a782q76b","","","","","",""
"2174.8249999999534","{""post-5"":1}","[0]","survey-likert","572","1750648","0.0-572.0","a782q76b","","","","","",""
"","","","call-function","573","1750649","0.0-573.0","a782q76b","","","","","",""
"null","","","video-keyboard-response","574","1753742","0.0-574.0","a782q76b","","","","null","Agent A","STIM_SET_1_REAL/1159813.bmp_pp79_L2_V1.0_scrambled_freeview_isoFalse_fps144.mp4"
"","","","call-function","575","1753742","0.0-575.0","a782q76b","","","","","",""
"3077.119999999879","{""pre-1"":2}","[0]","survey-likert","576","1756820","0.0-576.0","a782q76b","","","","","",""
"2333.8900000001304","{""pre-2"":1}","[0]","survey-likert","577","1759155","0.0-577.0","a782q76b","","","","","",""
"1480.6599999999162","{""pre-3"":0}","[0]","survey-likert","578","1760637","0.0-578.0","a782q76b","","","","","",""
"2251.524999999907","{""post-5"":1}","[0]","survey-likert","579","1762890","0.0-579.0","a782q76b","","","","","",""
"","","","call-function","580","1762890","0.0-580.0","a782q76b","","","","","",""
"null","","","video-keyboard-response","581","1765966","0.0-581.0","a782q76b","","","","null","Agent A","STIM_SET_1_REAL/713620.bmp_pp65_L3_V1.0_scrambled_freeview_isoFalse_fps144.mp4"
"","","","call-function","582","1765966","0.0-582.0","a782q76b","","","","","",""
"2286.25","{""pre-1"":2}","[0]","survey-likert","583","1768253","0.0-583.0","a782q76b","","","","","",""
"1692.8200000000652","{""pre-2"":2}","[0]","survey-likert","584","1769947","0.0-584.0","a782q76b","","","","","",""
"1969.25","{""pre-3"":3}","[0]","survey-likert","585","1771917","0.0-585.0","a782q76b","","","","","",""
"2337.804999999935","{""post-5"":1}","[0]","survey-likert","586","1774256","0.0-586.0","a782q76b","","","","","",""
"137069.3500000001","","","instructions","587","1911326","0.0-587.0","a782q76b","[{""page_index"":0,""viewing_time"":135884.70500000007},{""page_index"":1,""viewing_time"":599.434999999823},{""page_index"":2,""viewing_time"":585.035000000149}]","","","","",""
"2159.560000000056","","","instructions","588","1913486","0.0-588.0","a782q76b","[{""page_index"":0,""viewing_time"":605.4600000001956},{""page_index"":1,""viewing_time"":911.9199999999255},{""page_index"":2,""viewing_time"":642.0649999999441}]","","","","",""
"","","","call-function","589","1913487","0.0-589.0","a782q76b","","","","","",""
"null","","","video-keyboard-response","590","1916555","0.0-590.0","a782q76b","","","","null","Agent A","STIM_SET_1_REAL/1592362.bmp_pp95_L2_V1.0_veridical_freeview_isoFalse_fps144.mp4"
"","","","call-function","591","1916555","0.0-591.0","a782q76b","","","","","",""
"2577.7900000000373","{""pre-1"":2}","[0]","survey-likert","592","1919134","0.0-592.0","a782q76b","","","","","",""
"1913.7750000001397","{""pre-2"":3}","[0]","survey-likert","593","1921049","0.0-593.0","a782q76b","","","","","",""
"1823.0850000001956","{""pre-3"":3}","[0]","survey-likert","594","1922873","0.0-594.0","a782q76b","","","","","",""
"2124.2349999998696","{""post-5"":1}","[0]","survey-likert","595","1924998","0.0-595.0","a782q76b","","","","","",""
"","","","call-function","596","1924999","0.0-596.0","a782q76b","","","","","",""
"null","","","video-keyboard-response","597","1928076","0.0-597.0","a782q76b","","","","null","Agent A","STIM_SET_1_REAL/1592657.bmp_pp98_L1_V1.0_scrambled_freeview_isoFalse_fps144.mp4"
"","","","call-function","598","1928078","0.0-598.0","a782q76b","","","","","",""
"3304.755000000121","{""pre-1"":2}","[0]","survey-likert","599","1931384","0.0-599.0","a782q76b","","","","","",""
"2440.409999999916","{""pre-2"":2}","[0]","survey-likert","600","1933826","0.0-600.0","a782q76b","","","","","",""
"1433.9599999999627","{""pre-3"":1}","[0]","survey-likert","601","1935261","0.0-601.0","a782q76b","","","","","",""
"1699.845000000205","{""post-5"":1}","[0]","survey-likert","602","1936962","0.0-602.0","a782q76b","","","","","",""
"","","","call-function","603","1936962","0.0-603.0","a782q76b","","","","","",""
"null","","","video-keyboard-response","604","1940038","0.0-604.0","a782q76b","","","","null","Agent A","STIM_SET_1_REAL/713620.bmp_pp65_L3_V1.0_veridical_freeview_isoFalse_fps144.mp4"
"","","","call-function","605","1940038","0.0-605.0","a782q76b","","","","","",""
"1575.1799999999348","{""pre-1"":2}","[0]","survey-likert","606","1941614","0.0-606.0","a782q76b","","","","","",""
"1167.4750000000931","{""pre-2"":2}","[0]","survey-likert","607","1942783","0.0-607.0","a782q76b","","","","","",""
"1551.9099999999162","{""pre-3"":2}","[0]","survey-likert","608","1944336","0.0-608.0","a782q76b","","","","","",""
"2944.9249999998137","{""post-5"":1}","[0]","survey-likert","609","1947283","0.0-609.0","a782q76b","","","","","",""
"","","","call-function","610","1947283","0.0-610.0","a782q76b","","","","","",""
"null","","","video-keyboard-response","611","1950367","0.0-611.0","a782q76b","","","","null","Agent A","STIM_SET_1_REAL/1159515.bmp_pp84_L3_V1.0_scrambled_freeview_isoFalse_fps144.mp4"
"","","","call-function","612","1950368","0.0-612.0","a782q76b","","","","","",""
"3100.0150000001304","{""pre-1"":2}","[0]","survey-likert","613","1953469","0.0-613.0","a782q76b","","","","","",""
"1501.1350000000093","{""pre-2"":2}","[0]","survey-likert","614","1954971","0.0-614.0","a782q76b","","","","","",""
"1505.9250000000466","{""pre-3"":1}","[0]","survey-likert","615","1956478","0.0-615.0","a782q76b","","","","","",""
"1767.0450000001583","{""post-5"":2}","[0]","survey-likert","616","1958247","0.0-616.0","a782q76b","","","","","",""
"","","","call-function","617","1958247","0.0-617.0","a782q76b","","","","","",""
"null","","","video-keyboard-response","618","1961321","0.0-618.0","a782q76b","","","","null","Agent A","STIM_SET_1_REAL/1593146.bmp_pp93_L1_V1.0_scrambled_freeview_isoFalse_fps144.mp4"
"","","","call-function","619","1961322","0.0-619.0","a782q76b","","","","","",""
"2596.214999999851","{""pre-1"":2}","[0]","survey-likert","620","1963919","0.0-620.0","a782q76b","","","","","",""
"2537.6049999999814","{""pre-2"":2}","[0]","survey-likert","621","1966457","0.0-621.0","a782q76b","","","","","",""
"2188.935000000056","{""pre-3"":2}","[0]","survey-likert","622","1968647","0.0-622.0","a782q76b","","","","","",""
"1866.0549999999348","{""post-5"":1}","[0]","survey-likert","623","1970515","0.0-623.0","a782q76b","","","","","",""
"","","","call-function","624","1970515","0.0-624.0","a782q76b","","","","","",""
"null","","","video-keyboard-response","625","1973611","0.0-625.0","a782q76b","","","","null","Agent A","STIM_SET_1_REAL/1592890.bmp_pp82_L2_V1.0_veridical_freeview_isoFalse_fps144.mp4"
"","","","call-function","626","1973611","0.0-626.0","a782q76b","","","","","",""
"2455.2700000000186","{""pre-1"":2}","[0]","survey-likert","627","1976067","0.0-627.0","a782q76b","","","","","",""
"2681.184999999823","{""pre-2"":2}","[0]","survey-likert","628","1978750","0.0-628.0","a782q76b","","","","","",""
"2063.784999999916","{""pre-3"":3}","[0]","survey-likert","629","1980815","0.0-629.0","a782q76b","","","","","",""
"1760.2849999999162","{""post-5"":0}","[0]","survey-likert","630","1982576","0.0-630.0","a782q76b","","","","","",""
"","","","call-function","631","1982576","0.0-631.0","a782q76b","","","","","",""
"null","","","video-keyboard-response","632","1985678","0.0-632.0","a782q76b","","","","null","Agent A","STIM_SET_1_REAL/712977.bmp_pp51_L1_V1.0_scrambled_freeview_isoFalse_fps144.mp4"
"","","","call-function","633","1985679","0.0-633.0","a782q76b","","","","","",""
"2952.350000000093","{""pre-1"":2}","[0]","survey-likert","634","1988633","0.0-634.0","a782q76b","","","","","",""
"3279.5100000000093","{""pre-2"":2}","[0]","survey-likert","635","1991914","0.0-635.0","a782q76b","","","","","",""
"1894.7700000000186","{""pre-3"":2}","[0]","survey-likert","636","1993810","0.0-636.0","a782q76b","","","","","",""
"1780.9850000001024","{""post-5"":0}","[0]","survey-likert","637","1995592","0.0-637.0","a782q76b","","","","","",""
"","","","call-function","638","1995592","0.0-638.0","a782q76b","","","","","",""
"null","","","video-keyboard-response","639","1998666","0.0-639.0","a782q76b","","","","null","Agent A","STIM_SET_1_REAL/1160127.bmp_pp90_L2_V1.0_veridical_freeview_isoFalse_fps144.mp4"
"","","","call-function","640","1998667","0.0-640.0","a782q76b","","","","","",""
"1831.6099999998696","{""pre-1"":2}","[0]","survey-likert","641","2000500","0.0-641.0","a782q76b","","","","","",""
"1858.5700000000652","{""pre-2"":3}","[0]","survey-likert","642","2002359","0.0-642.0","a782q76b","","","","","",""
"1623.1500000001397","{""pre-3"":3}","[0]","survey-likert","643","2003984","0.0-643.0","a782q76b","","","","","",""
"2007.6599999999162","{""post-5"":0}","[0]","survey-likert","644","2005993","0.0-644.0","a782q76b","","","","","",""
"","","","call-function","645","2005993","0.0-645.0","a782q76b","","","","","",""
"null","","","video-keyboard-response","646","2009053","0.0-646.0","a782q76b","","","","null","Agent A","STIM_SET_1_REAL/1159446.bmp_pp60_L3_V1.0_scrambled_freeview_isoFalse_fps144.mp4"
"","","","call-function","647","2009054","0.0-647.0","a782q76b","","","","","",""
"2054.8950000000186","{""pre-1"":2}","[0]","survey-likert","648","2011110","0.0-648.0","a782q76b","","","","","",""
"1749.8100000000559","{""pre-2"":2}","[0]","survey-likert","649","2012860","0.0-649.0","a782q76b","","","","","",""
"2067.785000000149","{""pre-3"":3}","[0]","survey-likert","650","2014929","0.0-650.0","a782q76b","","","","","",""
"1657.219999999972","{""post-5"":0}","[0]","survey-likert","651","2016588","0.0-651.0","a782q76b","","","","","",""
"","","","call-function","652","2016588","0.0-652.0","a782q76b","","","","","",""
"null","","","video-keyboard-response","653","2019648","0.0-653.0","a782q76b","","","","null","Agent A","STIM_SET_1_REAL/713089.bmp_pp60_L3_V1.0_scrambled_freeview_isoFalse_fps144.mp4"
"","","","call-function","654","2019648","0.0-654.0","a782q76b","","","","","",""
"2160.399999999907","{""pre-1"":1}","[0]","survey-likert","655","2021810","0.0-655.0","a782q76b","","","","","",""
"3242.564999999944","{""pre-2"":1}","[0]","survey-likert","656","2025053","0.0-656.0","a782q76b","","","","","",""
"1800.9750000000931","{""pre-3"":0}","[0]","survey-likert","657","2026856","0.0-657.0","a782q76b","","","","","",""
"2475.0250000001397","{""post-5"":2}","[0]","survey-likert","658","2029332","0.0-658.0","a782q76b","","","","","",""
"","","","call-function","659","2029332","0.0-659.0","a782q76b","","","","","",""
"null","","","video-keyboard-response","660","2032390","0.0-660.0","a782q76b","","","","null","Agent A","STIM_SET_1_REAL/1159572.bmp_pp71_L1_V1.0_scrambled_freeview_isoFalse_fps144.mp4"
"","","","call-function","661","2032391","0.0-661.0","a782q76b","","","","","",""
"2084.905000000028","{""pre-1"":0}","[0]","survey-likert","662","2034476","0.0-662.0","a782q76b","","","","","",""
"1943.6500000001397","{""pre-2"":1}","[0]","survey-likert","663","2036422","0.0-663.0","a782q76b","","","","","",""
"1987.2350000001024","{""pre-3"":0}","[0]","survey-likert","664","2038411","0.0-664.0","a782q76b","","","","","",""
"3146.214999999851","{""post-5"":3}","[0]","survey-likert","665","2041559","0.0-665.0","a782q76b","","","","","",""
"","","","call-function","666","2041559","0.0-666.0","a782q76b","","","","","",""
"null","","","video-keyboard-response","667","2044634","0.0-667.0","a782q76b","","","","null","Agent A","STIM_SET_1_REAL/1592372.bmp_pp76_L1_V1.0_veridical_freeview_isoFalse_fps144.mp4"
"","","","call-function","668","2044635","0.0-668.0","a782q76b","","","","","",""
"1840.0999999998603","{""pre-1"":1}","[0]","survey-likert","669","2046476","0.0-669.0","a782q76b","","","","","",""
"1643.6650000000373","{""pre-2"":1}","[0]","survey-likert","670","2048121","0.0-670.0","a782q76b","","","","","",""
"1827.6700000001583","{""pre-3"":0}","[0]","survey-likert","671","2049950","0.0-671.0","a782q76b","","","","","",""
"4594.824999999953","{""post-5"":2}","[0]","survey-likert","672","2054546","0.0-672.0","a782q76b","","","","","",""
"","","","call-function","673","2054546","0.0-673.0","a782q76b","","","","","",""
"null","","","video-keyboard-response","674","2057621","0.0-674.0","a782q76b","","","","null","Agent A","STIM_SET_1_REAL/1591994.bmp_pp69_L3_V1.0_scrambled_freeview_isoFalse_fps144.mp4"
"","","","call-function","675","2057621","0.0-675.0","a782q76b","","","","","",""
"2681.619999999879","{""pre-1"":2}","[0]","survey-likert","676","2060305","0.0-676.0","a782q76b","","","","","",""
"1390.8799999998882","{""pre-2"":2}","[0]","survey-likert","677","2061697","0.0-677.0","a782q76b","","","","","",""
"1716.3300000000745","{""pre-3"":1}","[0]","survey-likert","678","2063414","0.0-678.0","a782q76b","","","","","",""
"2151.344999999972","{""post-5"":1}","[0]","survey-likert","679","2065566","0.0-679.0","a782q76b","","","","","",""
"","","","call-function","680","2065567","0.0-680.0","a782q76b","","","","","",""
"null","","","video-keyboard-response","681","2068639","0.0-681.0","a782q76b","","","","null","Agent A","STIM_SET_1_REAL/1159675.bmp_pp77_L3_V1.0_veridical_freeview_isoFalse_fps144.mp4"
"","","","call-function","682","2068640","0.0-682.0","a782q76b","","","","","",""
"2375.344999999972","{""pre-1"":3}","[0]","survey-likert","683","2071016","0.0-683.0","a782q76b","","","","","",""
"1490.375","{""pre-2"":3}","[0]","survey-likert","684","2072508","0.0-684.0","a782q76b","","","","","",""
"1665.8900000001304","{""pre-3"":2}","[0]","survey-likert","685","2074175","0.0-685.0","a782q76b","","","","","",""
"1335.7250000000931","{""post-5"":0}","[0]","survey-likert","686","2075511","0.0-686.0","a782q76b","","","","","",""
"","","","call-function","687","2075512","0.0-687.0","a782q76b","","","","","",""
"null","","","video-keyboard-response","688","2078600","0.0-688.0","a782q76b","","","","null","Agent A","STIM_SET_1_REAL/1159813.bmp_pp79_L2_V1.0_veridical_freeview_isoFalse_fps144.mp4"
"","","","call-function","689","2078601","0.0-689.0","a782q76b","","","","","",""
"2330.060000000056","{""pre-1"":2}","[0]","survey-likert","690","2080932","0.0-690.0","a782q76b","","","","","",""
"1886.7949999999255","{""pre-2"":3}","[0]","survey-likert","691","2082820","0.0-691.0","a782q76b","","","","","",""
"1884.910000000149","{""pre-3"":3}","[0]","survey-likert","692","2084706","0.0-692.0","a782q76b","","","","","",""
"1327.8049999999348","{""post-5"":1}","[0]","survey-likert","693","2086035","0.0-693.0","a782q76b","","","","","",""
"","","","call-function","694","2086035","0.0-694.0","a782q76b","","","","","",""
"null","","","video-keyboard-response","695","2089135","0.0-695.0","a782q76b","","","","null","Agent A","STIM_SET_1_REAL/498175.bmp_pp154_L1_V1.0_veridical_freeview_isoFalse_fps144.mp4"
"","","","call-function","696","2089137","0.0-696.0","a782q76b","","","","","",""
"2695.019999999786","{""pre-1"":3}","[0]","survey-likert","697","2091834","0.0-697.0","a782q76b","","","","","",""
"1754.9250000000466","{""pre-2"":3}","[0]","survey-likert","698","2093590","0.0-698.0","a782q76b","","","","","",""
"1883.7099999999627","{""pre-3"":2}","[0]","survey-likert","699","2095475","0.0-699.0","a782q76b","","","","","",""
"1408.9250000000466","{""post-5"":0}","[0]","survey-likert","700","2096885","0.0-700.0","a782q76b","","","","","",""
"","","","call-function","701","2096885","0.0-701.0","a782q76b","","","","","",""
"null","","","video-keyboard-response","702","2099953","0.0-702.0","a782q76b","","","","null","Agent A","STIM_SET_1_REAL/285905.bmp_pp57_L1_V1.0_veridical_freeview_isoFalse_fps144.mp4"
"","","","call-function","703","2099954","0.0-703.0","a782q76b","","","","","",""
"1942.0599999995902","{""pre-1"":2}","[0]","survey-likert","704","2101897","0.0-704.0","a782q76b","","","","","",""
"1416.0949999997392","{""pre-2"":1}","[0]","survey-likert","705","2103315","0.0-705.0","a782q76b","","","","","",""
"1582.214999999851","{""pre-3"":2}","[0]","survey-likert","706","2104899","0.0-706.0","a782q76b","","","","","",""
"2332.0200000000186","{""post-5"":1}","[0]","survey-likert","707","2107232","0.0-707.0","a782q76b","","","","","",""
"","","","call-function","708","2107232","0.0-708.0","a782q76b","","","","","",""
"null","","","video-keyboard-response","709","2110294","0.0-709.0","a782q76b","","","","null","Agent A","STIM_SET_1_REAL/285994.bmp_pp92_L3_V1.0_veridical_freeview_isoFalse_fps144.mp4"
"","","","call-function","710","2110294","0.0-710.0","a782q76b","","","","","",""
"2503.6749999998137","{""pre-1"":1}","[0]","survey-likert","711","2112799","0.0-711.0","a782q76b","","","","","",""
"1808.9900000002235","{""pre-2"":1}","[0]","survey-likert","712","2114609","0.0-712.0","a782q76b","","","","","",""
"1701.6299999998882","{""pre-3"":0}","[0]","survey-likert","713","2116311","0.0-713.0","a782q76b","","","","","",""
"1432.1200000001118","{""post-5"":1}","[0]","survey-likert","714","2117745","0.0-714.0","a782q76b","","","","","",""
"","","","call-function","715","2117745","0.0-715.0","a782q76b","","","","","",""
"null","","","video-keyboard-response","716","2120818","0.0-716.0","a782q76b","","","","null","Agent A","STIM_SET_1_REAL/498155.bmp_pp61_L2_V1.0_veridical_freeview_isoFalse_fps144.mp4"
"","","","call-function","717","2120819","0.0-717.0","a782q76b","","","","","",""
"1931.964999999851","{""pre-1"":1}","[0]","survey-likert","718","2122752","0.0-718.0","a782q76b","","","","","",""
"2240.9950000001118","{""pre-2"":2}","[0]","survey-likert","719","2124994","0.0-719.0","a782q76b","","","","","",""
"1940.1299999998882","{""pre-3"":1}","[0]","survey-likert","720","2126936","0.0-720.0","a782q76b","","","","","",""
"1690.964999999851","{""post-5"":2}","[0]","survey-likert","721","2128628","0.0-721.0","a782q76b","","","","","",""
"","","","call-function","722","2128628","0.0-722.0","a782q76b","","","","","",""
"null","","","video-keyboard-response","723","2131695","0.0-723.0","a782q76b","","","","null","Agent A","STIM_SET_1_REAL/1592727.bmp_pp59_L3_V1.0_veridical_freeview_isoFalse_fps144.mp4"
"","","","call-function","724","2131695","0.0-724.0","a782q76b","","","","","",""
"2007.5200000000186","{""pre-1"":2}","[0]","survey-likert","725","2133704","0.0-725.0","a782q76b","","","","","",""
"1315.945000000298","{""pre-2"":2}","[0]","survey-likert","726","2135021","0.0-726.0","a782q76b","","","","","",""
"1217.3849999997765","{""pre-3"":2}","[0]","survey-likert","727","2136240","0.0-727.0","a782q76b","","","","","",""
"1369.8100000000559","{""post-5"":0}","[0]","survey-likert","728","2137611","0.0-728.0","a782q76b","","","","","",""
"197230.72999999998","","","instructions","729","2334843","0.0-729.0","a782q76b","[{""page_index"":0,""viewing_time"":115658.45999999996},{""page_index"":1,""viewing_time"":1215.7450000001118},{""page_index"":2,""viewing_time"":80355.94499999983}]","","","","",""
"5791.98499999987","","","instructions","730","2340636","0.0-730.0","a782q76b","[{""page_index"":0,""viewing_time"":2559.8950000000186},{""page_index"":1,""viewing_time"":1561.0799999996088},{""page_index"":2,""viewing_time"":1670.910000000149}]","","","","",""
"","","","call-function","731","2340637","0.0-731.0","a782q76b","","","","","",""
"null","","","video-keyboard-response","732","2343707","0.0-732.0","a782q76b","","","","null","Agent A","STIM_SET_1_REAL/1159829.bmp_pp91_L3_V1.0_veridical_freeview_isoFalse_fps144.mp4"
"","","","call-function","733","2343708","0.0-733.0","a782q76b","","","","","",""
"2546.5150000001304","{""pre-1"":2}","[0]","survey-likert","734","2346255","0.0-734.0","a782q76b","","","","","",""
"2115.3050000001676","{""pre-2"":2}","[0]","survey-likert","735","2348372","0.0-735.0","a782q76b","","","","","",""
"1766.8050000001676","{""pre-3"":1}","[0]","survey-likert","736","2350140","0.0-736.0","a782q76b","","","","","",""
"1867.0400000000373","{""post-5"":1}","[0]","survey-likert","737","2352008","0.0-737.0","a782q76b","","","","","",""
"","","","call-function","738","2352009","0.0-738.0","a782q76b","","","","","",""
"null","","","video-keyboard-response","739","2355070","0.0-739.0","a782q76b","","","","null","Agent A","STIM_SET_1_REAL/1159447.bmp_pp70_L2_V1.0_scrambled_freeview_isoFalse_fps144.mp4"
"","","","call-function","740","2355071","0.0-740.0","a782q76b","","","","","",""
"2977.0999999996275","{""pre-1"":3}","[0]","survey-likert","741","2358049","0.0-741.0","a782q76b","","","","","",""
"1853.1650000000373","{""pre-2"":2}","[0]","survey-likert","742","2359904","0.0-742.0","a782q76b","","","","","",""
"3262.1349999997765","{""pre-3"":1}","[0]","survey-likert","743","2363168","0.0-743.0","a782q76b","","","","","",""
"2787.3449999997392","{""post-5"":0}","[0]","survey-likert","744","2365956","0.0-744.0","a782q76b","","","","","",""
"","","","call-function","745","2365956","0.0-745.0","a782q76b","","","","","",""
"null","","","video-keyboard-response","746","2369040","0.0-746.0","a782q76b","","","","null","Agent A","STIM_SET_1_REAL/1593041.bmp_pp58_L1_V1.0_veridical_freeview_isoFalse_fps144.mp4"
"","","","call-function","747","2369041","0.0-747.0","a782q76b","","","","","",""
"3263.1699999999255","{""pre-1"":2}","[0]","survey-likert","748","2372305","0.0-748.0","a782q76b","","","","","",""
"1930.1200000001118","{""pre-2"":3}","[0]","survey-likert","749","2374236","0.0-749.0","a782q76b","","","","","",""
"1431.3950000000186","{""pre-3"":2}","[0]","survey-likert","750","2375669","0.0-750.0","a782q76b","","","","","",""
"1356.214999999851","{""post-5"":0}","[0]","survey-likert","751","2377026","0.0-751.0","a782q76b","","","","","",""
"","","","call-function","752","2377026","0.0-752.0","a782q76b","","","","","",""
"null","","","video-keyboard-response","753","2380090","0.0-753.0","a782q76b","","","","null","Agent A","STIM_SET_1_REAL/1159621.bmp_pp92_L3_V1.0_veridical_freeview_isoFalse_fps144.mp4"
"","","","call-function","754","2380090","0.0-754.0","a782q76b","","","","","",""
"2348.095000000205","{""pre-1"":2}","[0]","survey-likert","755","2382439","0.0-755.0","a782q76b","","","","","",""
"1254.2050000000745","{""pre-2"":2}","[0]","survey-likert","756","2383695","0.0-756.0","a782q76b","","","","","",""
"1641.3650000002235","{""pre-3"":2}","[0]","survey-likert","757","2385337","0.0-757.0","a782q76b","","","","","",""
"1237.7199999997392","{""post-5"":1}","[0]","survey-likert","758","2386576","0.0-758.0","a782q76b","","","","","",""
"","","","call-function","759","2386576","0.0-759.0","a782q76b","","","","","",""
"null","","","video-keyboard-response","760","2389685","0.0-760.0","a782q76b","","","","null","Agent A","STIM_SET_1_REAL/1592807.bmp_pp68_L1_V1.0_scrambled_freeview_isoFalse_fps144.mp4"
"","","","call-function","761","2389685","0.0-761.0","a782q76b","","","","","",""
"2226.6049999999814","{""pre-1"":2}","[0]","survey-likert","762","2391913","0.0-762.0","a782q76b","","","","","",""
"1281.3050000001676","{""pre-2"":1}","[0]","survey-likert","763","2393196","0.0-763.0","a782q76b","","","","","",""
"1464.5249999999069","{""pre-3"":1}","[0]","survey-likert","764","2394663","0.0-764.0","a782q76b","","","","","",""
"2847.204999999609","{""post-5"":1}","[0]","survey-likert","765","2397511","0.0-765.0","a782q76b","","","","","",""
"","","","call-function","766","2397512","0.0-766.0","a782q76b","","","","","",""
"null","","","video-keyboard-response","767","2400582","0.0-767.0","a782q76b","","","","null","Agent A","STIM_SET_1_REAL/1592362.bmp_pp95_L2_V1.0_scrambled_freeview_isoFalse_fps144.mp4"
"","","","call-function","768","2400583","0.0-768.0","a782q76b","","","","","",""
"2007.4750000000931","{""pre-1"":2}","[0]","survey-likert","769","2402592","0.0-769.0","a782q76b","","","","","",""
"1330.4750000000931","{""pre-2"":2}","[0]","survey-likert","770","2403924","0.0-770.0","a782q76b","","","","","",""
"1575.1049999999814","{""pre-3"":3}","[0]","survey-likert","771","2405500","0.0-771.0","a782q76b","","","","","",""
"1595.8799999998882","{""post-5"":0}","[0]","survey-likert","772","2407097","0.0-772.0","a782q76b","","","","","",""
"","","","call-function","773","2407098","0.0-773.0","a782q76b","","","","","",""
"null","","","video-keyboard-response","774","2410166","0.0-774.0","a782q76b","","","","null","Agent A","STIM_SET_1_REAL/713017.bmp_pp152_L2_V1.0_veridical_freeview_isoFalse_fps144.mp4"
"","","","call-function","775","2410167","0.0-775.0","a782q76b","","","","","",""
"1976.339999999851","{""pre-1"":2}","[0]","survey-likert","776","2412144","0.0-776.0","a782q76b","","","","","",""
"1676.6699999999255","{""pre-2"":2}","[0]","survey-likert","777","2413822","0.0-777.0","a782q76b","","","","","",""
"1675.7399999997579","{""pre-3"":1}","[0]","survey-likert","778","2415499","0.0-778.0","a782q76b","","","","","",""
"2211.4199999999255","{""post-5"":0}","[0]","survey-likert","779","2417712","0.0-779.0","a782q76b","","","","","",""
"","","","call-function","780","2417713","0.0-780.0","a782q76b","","","","","",""
"null","","","video-keyboard-response","781","2420789","0.0-781.0","a782q76b","","","","null","Agent A","STIM_SET_1_REAL/1591994.bmp_pp69_L3_V1.0_veridical_freeview_isoFalse_fps144.mp4"
"","","","call-function","782","2420789","0.0-782.0","a782q76b","","","","","",""
"1846.6450000000186","{""pre-1"":2}","[0]","survey-likert","783","2422637","0.0-783.0","a782q76b","","","","","",""
"1649.1800000001676","{""pre-2"":3}","[0]","survey-likert","784","2424287","0.0-784.0","a782q76b","","","","","",""
"1744.230000000447","{""pre-3"":3}","[0]","survey-likert","785","2426033","0.0-785.0","a782q76b","","","","","",""
"1438.2350000003353","{""post-5"":1}","[0]","survey-likert","786","2427472","0.0-786.0","a782q76b","","","","","",""
"","","","call-function","787","2427473","0.0-787.0","a782q76b","","","","","",""
"null","","","video-keyboard-response","788","2430538","0.0-788.0","a782q76b","","","","null","Agent A","STIM_SET_1_REAL/1592727.bmp_pp59_L3_V1.0_scrambled_freeview_isoFalse_fps144.mp4"
"","","","call-function","789","2430538","0.0-789.0","a782q76b","","","","","",""
"2635.714999999851","{""pre-1"":2}","[0]","survey-likert","790","2433175","0.0-790.0","a782q76b","","","","","",""
"1420.9749999996275","{""pre-2"":1}","[0]","survey-likert","791","2434597","0.0-791.0","a782q76b","","","","","",""
"1297.875","{""pre-3"":1}","[0]","survey-likert","792","2435896","0.0-792.0","a782q76b","","","","","",""
"2263.0300000002608","{""post-5"":1}","[0]","survey-likert","793","2438160","0.0-793.0","a782q76b","","","","","",""
"","","","call-function","794","2438161","0.0-794.0","a782q76b","","","","","",""
"null","","","video-keyboard-response","795","2441264","0.0-795.0","a782q76b","","","","null","Agent A","STIM_SET_1_REAL/1593146.bmp_pp93_L1_V1.0_veridical_freeview_isoFalse_fps144.mp4"
"","","","call-function","796","2441264","0.0-796.0","a782q76b","","","","","",""
"3539.9850000003353","{""pre-1"":3}","[0]","survey-likert","797","2444805","0.0-797.0","a782q76b","","","","","",""
"1630.470000000205","{""pre-2"":3}","[0]","survey-likert","798","2446437","0.0-798.0","a782q76b","","","","","",""
"1307.869999999646","{""pre-3"":2}","[0]","survey-likert","799","2447746","0.0-799.0","a782q76b","","","","","",""
"1461.1049999999814","{""post-5"":0}","[0]","survey-likert","800","2449208","0.0-800.0","a782q76b","","","","","",""
"","","","call-function","801","2449209","0.0-801.0","a782q76b","","","","","",""
"null","","","video-keyboard-response","802","2452321","0.0-802.0","a782q76b","","","","null","Agent A","STIM_SET_1_REAL/1592934.bmp_pp63_L1_V1.0_veridical_freeview_isoFalse_fps144.mp4"
"","","","call-function","803","2452323","0.0-803.0","a782q76b","","","","","",""
"1700.3050000001676","{""pre-1"":2}","[0]","survey-likert","804","2454025","0.0-804.0","a782q76b","","","","","",""
"1535.4950000001118","{""pre-2"":2}","[0]","survey-likert","805","2455562","0.0-805.0","a782q76b","","","","","",""
"1015.1200000001118","{""pre-3"":1}","[0]","survey-likert","806","2456578","0.0-806.0","a782q76b","","","","","",""
"2264.9099999996834","{""post-5"":1}","[0]","survey-likert","807","2458844","0.0-807.0","a782q76b","","","","","",""
"","","","call-function","808","2458845","0.0-808.0","a782q76b","","","","","",""
"null","","","video-keyboard-response","809","2461920","0.0-809.0","a782q76b","","","","null","Agent A","STIM_SET_1_REAL/61537.bmp_pp73_L3_V1.0_scrambled_freeview_isoFalse_fps144.mp4"
"","","","call-function","810","2461921","0.0-810.0","a782q76b","","","","","",""
"2120.814999999944","{""pre-1"":2}","[0]","survey-likert","811","2464043","0.0-811.0","a782q76b","","","","","",""
"1013.4700000002049","{""pre-2"":2}","[0]","survey-likert","812","2465058","0.0-812.0","a782q76b","","","","","",""
"1106.2049999996088","{""pre-3"":1}","[0]","survey-likert","813","2466165","0.0-813.0","a782q76b","","","","","",""
"2002.035000000149","{""post-5"":2}","[0]","survey-likert","814","2468169","0.0-814.0","a782q76b","","","","","",""
"","","","call-function","815","2468169","0.0-815.0","a782q76b","","","","","",""
"null","","","video-keyboard-response","816","2471237","0.0-816.0","a782q76b","","","","null","Agent A","STIM_SET_1_REAL/1592397.bmp_pp85_L3_V1.0_scrambled_freeview_isoFalse_fps144.mp4"
"","","","call-function","817","2471237","0.0-817.0","a782q76b","","","","","",""
"2279.7299999999814","{""pre-1"":3}","[0]","survey-likert","818","2473518","0.0-818.0","a782q76b","","","","","",""
"1239.8850000002421","{""pre-2"":2}","[0]","survey-likert","819","2474759","0.0-819.0","a782q76b","","","","","",""
"1479.804999999702","{""pre-3"":1}","[0]","survey-likert","820","2476240","0.0-820.0","a782q76b","","","","","",""
"1945.1349999997765","{""post-5"":1}","[0]","survey-likert","821","2478186","0.0-821.0","a782q76b","","","","","",""
"","","","call-function","822","2478187","0.0-822.0","a782q76b","","","","","",""
"null","","","video-keyboard-response","823","2481263","0.0-823.0","a782q76b","","","","null","Agent A","STIM_SET_1_REAL/1591876.bmp_pp63_L1_V1.0_scrambled_freeview_isoFalse_fps144.mp4"
"","","","call-function","824","2481263","0.0-824.0","a782q76b","","","","","",""
"2338.7450000001118","{""pre-1"":2}","[0]","survey-likert","825","2483603","0.0-825.0","a782q76b","","","","","",""
"1477.0800000000745","{""pre-2"":1}","[0]","survey-likert","826","2485081","0.0-826.0","a782q76b","","","","","",""
"1280.630000000354","{""pre-3"":0}","[0]","survey-likert","827","2486363","0.0-827.0","a782q76b","","","","","",""
"1746.875","{""post-5"":0}","[0]","survey-likert","828","2488111","0.0-828.0","a782q76b","","","","","",""
"","","","call-function","829","2488112","0.0-829.0","a782q76b","","","","","",""
"null","","","video-keyboard-response","830","2491185","0.0-830.0","a782q76b","","","","null","Agent A","STIM_SET_1_REAL/1159777.bmp_pp77_L3_V1.0_veridical_freeview_isoFalse_fps144.mp4"
"","","","call-function","831","2491186","0.0-831.0","a782q76b","","","","","",""
"2051.635000000242","{""pre-1"":2}","[0]","survey-likert","832","2493238","0.0-832.0","a782q76b","","","","","",""
"1871.3100000000559","{""pre-2"":2}","[0]","survey-likert","833","2495111","0.0-833.0","a782q76b","","","","","",""
"1653.4050000002608","{""pre-3"":1}","[0]","survey-likert","834","2496765","0.0-834.0","a782q76b","","","","","",""
"2601.929999999702","{""post-5"":1}","[0]","survey-likert","835","2499369","0.0-835.0","a782q76b","","","","","",""
"","","","call-function","836","2499370","0.0-836.0","a782q76b","","","","","",""
