"rt","responses","question_order","trial_type","trial_index","time_elapsed","internal_node_id","ID","view_history","value","stimulus","key_press","agent","image"
"83466.575","{""Experimenter"":[""Confirmed subject's identity (ID card)"",""Confirmed normal or corrected-to-normal vision"",""Obtained consent (signature and date)"",""Checked the test room lighting"",""Checked computer screen lighting"",""Checked distance from screen to chin rest (50cm)"",""Cleaned and adjusted chin rest"",""Counterbalanced the order of the tasks"",""Opened the experiment in Firefox"",""Made the experiment full screen"",""Encouraged subject to silence phone, put away distractors, etc.""]}","[0]","survey-multi-select","0","83476","0.0-0.0","a7o9l5wf","","","","","",""
"27688.434999999998","","","instructions","1","111165","0.0-1.0","a7o9l5wf","[{""page_index"":0,""viewing_time"":27688.289999999994}]","","","","",""
"7222.184999999998","{""Age"":0,""Sex"":1,""Gender"":1}","[0,1,2]","survey-likert","2","118390","0.0-2.0","a7o9l5wf","","","","","",""
"1718.949999999997","","","instructions","3","120110","0.0-3.0","a7o9l5wf","[{""page_index"":0,""viewing_time"":1718.8399999999965}]","","","","",""
"3800.050000000003","","","instructions","4","123910","0.0-4.0","a7o9l5wf","[{""page_index"":0,""viewing_time"":2481.9149999999936},{""page_index"":1,""viewing_time"":1318.0350000000035}]","","","","",""
"8169.970000000001","","","instructions","5","132081","0.0-5.0","a7o9l5wf","[{""page_index"":0,""viewing_time"":1725.5449999999983},{""page_index"":1,""viewing_time"":2070.9199999999983},{""page_index"":2,""viewing_time"":4373.380000000005}]","","","","",""
"2354.99000000002","","","instructions","6","134436","0.0-6.0","a7o9l5wf","[{""page_index"":0,""viewing_time"":2354.890000000014}]","","","","",""
"","","","call-function","7","134437","0.0-7.0","a7o9l5wf","","","","","",""
"null","","","video-keyboard-response","8","137512","0.0-8.0","a7o9l5wf","","","","null","",""
"","","","call-function","9","137512","0.0-9.0","a7o9l5wf","","","","","",""
"17016.059999999998","","","instructions","10","154529","0.0-10.0","a7o9l5wf","[{""page_index"":0,""viewing_time"":1979.8899999999849},{""page_index"":1,""viewing_time"":1171.9150000000081},{""page_index"":2,""viewing_time"":1374.2049999999872},{""page_index"":3,""viewing_time"":12489.830000000016}]","","","","",""
"3297.029999999999","","","instructions","11","157826","0.0-11.0","a7o9l5wf","[{""page_index"":0,""viewing_time"":3296.9100000000035}]","","","","",""
"","","","call-function","12","157827","0.0-12.0","a7o9l5wf","","","","","",""
"null","","","video-keyboard-response","13","160900","0.0-13.0","a7o9l5wf","","","","null","",""
"","","","call-function","14","160900","0.0-14.0","a7o9l5wf","","","","","",""
"18079.475000000006","{""pre-1"":1}","[0]","survey-likert","15","178981","0.0-15.0","a7o9l5wf","","","","","",""
"5323.040000000008","{""pre-2"":2}","[0]","survey-likert","16","184305","0.0-16.0","a7o9l5wf","","","","","",""
"4011.4500000000116","{""pre-3"":2}","[0]","survey-likert","17","188319","0.0-17.0","a7o9l5wf","","","","","",""
"3826.875","{""post-5"":1}","[0]","survey-likert","18","192147","0.0-18.0","a7o9l5wf","","","","","",""
"1053.1499999999942","","","instructions","19","193201","0.0-19.0","a7o9l5wf","[{""page_index"":0,""viewing_time"":1052.4899999999907}]","","","","",""
"3916.515000000014","","","instructions","20","197119","0.0-20.0","a7o9l5wf","[{""page_index"":0,""viewing_time"":3916.4100000000035}]","","","","",""
"","","","call-function","21","197119","0.0-21.0","a7o9l5wf","","","","","",""
"null","","","video-keyboard-response","22","200198","0.0-22.0","a7o9l5wf","","","","null","Agent A","STIM_SET_1_REAL/61537.bmp_pp73_L3_V1.0_veridical_freeview_isoFalse_fps144.mp4"
"","","","call-function","23","200199","0.0-23.0","a7o9l5wf","","","","","",""
"4321.11500000002","{""pre-1"":1}","[0]","survey-likert","24","204521","0.0-24.0","a7o9l5wf","","","","","",""
"2422.195000000007","{""pre-2"":2}","[0]","survey-likert","25","206944","0.0-25.0","a7o9l5wf","","","","","",""
"2898.2850000000035","{""pre-3"":2}","[0]","survey-likert","26","209844","0.0-26.0","a7o9l5wf","","","","","",""
"3412.4199999999837","{""post-5"":1}","[0]","survey-likert","27","213259","0.0-27.0","a7o9l5wf","","","","","",""
"","","","call-function","28","213260","0.0-28.0","a7o9l5wf","","","","","",""
"null","","","video-keyboard-response","29","216336","0.0-29.0","a7o9l5wf","","","","null","Agent A","STIM_SET_1_REAL/713666.bmp_pp97_L3_V1.0_veridical_freeview_isoFalse_fps144.mp4"
"","","","call-function","30","216337","0.0-30.0","a7o9l5wf","","","","","",""
"3050.929999999993","{""pre-1"":1}","[0]","survey-likert","31","219389","0.0-31.0","a7o9l5wf","","","","","",""
"1709.2099999999919","{""pre-2"":2}","[0]","survey-likert","32","221099","0.0-32.0","a7o9l5wf","","","","","",""
"1586.0599999999977","{""pre-3"":2}","[0]","survey-likert","33","222686","0.0-33.0","a7o9l5wf","","","","","",""
"1422.320000000007","{""post-5"":1}","[0]","survey-likert","34","224109","0.0-34.0","a7o9l5wf","","","","","",""
"","","","call-function","35","224110","0.0-35.0","a7o9l5wf","","","","","",""
"null","","","video-keyboard-response","36","227183","0.0-36.0","a7o9l5wf","","","","null","Agent A","STIM_SET_1_REAL/1160168.bmp_pp53_L2_V1.0_veridical_freeview_isoFalse_fps144.mp4"
"","","","call-function","37","227183","0.0-37.0","a7o9l5wf","","","","","",""
"3025.4649999999965","{""pre-1"":1}","[0]","survey-likert","38","230209","0.0-38.0","a7o9l5wf","","","","","",""
"2750.5050000000047","{""pre-2"":2}","[0]","survey-likert","39","232961","0.0-39.0","a7o9l5wf","","","","","",""
"1422.2399999999907","{""pre-3"":2}","[0]","survey-likert","40","234385","0.0-40.0","a7o9l5wf","","","","","",""
"4871.825000000012","{""post-5"":1}","[0]","survey-likert","41","239257","0.0-41.0","a7o9l5wf","","","","","",""
"","","","call-function","42","239258","0.0-42.0","a7o9l5wf","","","","","",""
"null","","","video-keyboard-response","43","242326","0.0-43.0","a7o9l5wf","","","","null","Agent A","STIM_SET_1_REAL/1159515.bmp_pp84_L3_V1.0_veridical_freeview_isoFalse_fps144.mp4"
"","","","call-function","44","242327","0.0-44.0","a7o9l5wf","","","","","",""
"3381.6900000000023","{""pre-1"":1}","[0]","survey-likert","45","245710","0.0-45.0","a7o9l5wf","","","","","",""
"2037","{""pre-2"":1}","[0]","survey-likert","46","247749","0.0-46.0","a7o9l5wf","","","","","",""
"2700.194999999978","{""pre-3"":1}","[0]","survey-likert","47","250450","0.0-47.0","a7o9l5wf","","","","","",""
"4269.524999999994","{""post-5"":2}","[0]","survey-likert","48","254722","0.0-48.0","a7o9l5wf","","","","","",""
"","","","call-function","49","254722","0.0-49.0","a7o9l5wf","","","","","",""
"null","","","video-keyboard-response","50","257798","0.0-50.0","a7o9l5wf","","","","null","Agent A","STIM_SET_1_REAL/712977.bmp_pp51_L1_V1.0_scrambled_freeview_isoFalse_fps144.mp4"
"","","","call-function","51","257798","0.0-51.0","a7o9l5wf","","","","","",""
"3240.654999999999","{""pre-1"":1}","[0]","survey-likert","52","261040","0.0-52.0","a7o9l5wf","","","","","",""
"2508.8099999999977","{""pre-2"":2}","[0]","survey-likert","53","263550","0.0-53.0","a7o9l5wf","","","","","",""
"2723.375","{""pre-3"":2}","[0]","survey-likert","54","266275","0.0-54.0","a7o9l5wf","","","","","",""
"2035.530000000028","{""post-5"":1}","[0]","survey-likert","55","268312","0.0-55.0","a7o9l5wf","","","","","",""
"","","","call-function","56","268312","0.0-56.0","a7o9l5wf","","","","","",""
"null","","","video-keyboard-response","57","271385","0.0-57.0","a7o9l5wf","","","","null","Agent A","STIM_SET_1_REAL/713684.bmp_pp85_L3_V1.0_scrambled_freeview_isoFalse_fps144.mp4"
"","","","call-function","58","271386","0.0-58.0","a7o9l5wf","","","","","",""
"10436.13500000001","{""pre-1"":0}","[0]","survey-likert","59","281823","0.0-59.0","a7o9l5wf","","","","","",""
"2526.420000000042","{""pre-2"":3}","[0]","survey-likert","60","284350","0.0-60.0","a7o9l5wf","","","","","",""
"4086.2249999999767","{""pre-3"":2}","[0]","survey-likert","61","288438","0.0-61.0","a7o9l5wf","","","","","",""
"4234.695000000007","{""post-5"":0}","[0]","survey-likert","62","292674","0.0-62.0","a7o9l5wf","","","","","",""
"","","","call-function","63","292675","0.0-63.0","a7o9l5wf","","","","","",""
"null","","","video-keyboard-response","64","295756","0.0-64.0","a7o9l5wf","","","","null","Agent A","STIM_SET_1_REAL/1592807.bmp_pp68_L1_V1.0_veridical_freeview_isoFalse_fps144.mp4"
"","","","call-function","65","295757","0.0-65.0","a7o9l5wf","","","","","",""
"4559.150000000023","{""pre-1"":1}","[0]","survey-likert","66","300317","0.0-66.0","a7o9l5wf","","","","","",""
"3998.2550000000047","{""pre-2"":1}","[0]","survey-likert","67","304317","0.0-67.0","a7o9l5wf","","","","","",""
"2424.0349999999744","{""pre-3"":2}","[0]","survey-likert","68","306743","0.0-68.0","a7o9l5wf","","","","","",""
"3054.2399999999907","{""post-5"":1}","[0]","survey-likert","69","309799","0.0-69.0","a7o9l5wf","","","","","",""
"","","","call-function","70","309799","0.0-70.0","a7o9l5wf","","","","","",""
"null","","","video-keyboard-response","71","312867","0.0-71.0","a7o9l5wf","","","","null","Agent A","STIM_SET_1_REAL/285933.bmp_pp81_L1_V1.0_scrambled_freeview_isoFalse_fps144.mp4"
"","","","call-function","72","312868","0.0-72.0","a7o9l5wf","","","","","",""
"6612.684999999998","{""pre-1"":1}","[0]","survey-likert","73","319482","0.0-73.0","a7o9l5wf","","","","","",""
"1582.3099999999977","{""pre-2"":2}","[0]","survey-likert","74","321065","0.0-74.0","a7o9l5wf","","","","","",""
"972.5650000000023","{""pre-3"":2}","[0]","survey-likert","75","322039","0.0-75.0","a7o9l5wf","","","","","",""
"1794.875","{""post-5"":1}","[0]","survey-likert","76","323835","0.0-76.0","a7o9l5wf","","","","","",""
"","","","call-function","77","323835","0.0-77.0","a7o9l5wf","","","","","",""
"null","","","video-keyboard-response","78","326908","0.0-78.0","a7o9l5wf","","","","null","Agent A","STIM_SET_1_REAL/1159768.bmp_pp89_L1_V1.0_scrambled_freeview_isoFalse_fps144.mp4"
"","","","call-function","79","326908","0.0-79.0","a7o9l5wf","","","","","",""
"2319.9949999999953","{""pre-1"":1}","[0]","survey-likert","80","329229","0.0-80.0","a7o9l5wf","","","","","",""
"1720.1300000000047","{""pre-2"":2}","[0]","survey-likert","81","330950","0.0-81.0","a7o9l5wf","","","","","",""
"2496.4049999999697","{""pre-3"":2}","[0]","survey-likert","82","333448","0.0-82.0","a7o9l5wf","","","","","",""
"1663.7750000000233","{""post-5"":1}","[0]","survey-likert","83","335113","0.0-83.0","a7o9l5wf","","","","","",""
"","","","call-function","84","335113","0.0-84.0","a7o9l5wf","","","","","",""
"null","","","video-keyboard-response","85","338190","0.0-85.0","a7o9l5wf","","","","null","Agent A","STIM_SET_1_REAL/713666.bmp_pp97_L3_V1.0_scrambled_freeview_isoFalse_fps144.mp4"
"","","","call-function","86","338190","0.0-86.0","a7o9l5wf","","","","","",""
"5211.735000000044","{""pre-1"":1}","[0]","survey-likert","87","343403","0.0-87.0","a7o9l5wf","","","","","",""
"1694.9100000000326","{""pre-2"":2}","[0]","survey-likert","88","345099","0.0-88.0","a7o9l5wf","","","","","",""
"2014.4949999999953","{""pre-3"":2}","[0]","survey-likert","89","347116","0.0-89.0","a7o9l5wf","","","","","",""
"1401.4199999999837","{""post-5"":1}","[0]","survey-likert","90","348519","0.0-90.0","a7o9l5wf","","","","","",""
"","","","call-function","91","348520","0.0-91.0","a7o9l5wf","","","","","",""
"null","","","video-keyboard-response","92","351597","0.0-92.0","a7o9l5wf","","","","null","Agent A","STIM_SET_1_REAL/1592807.bmp_pp68_L1_V1.0_scrambled_freeview_isoFalse_fps144.mp4"
"","","","call-function","93","351598","0.0-93.0","a7o9l5wf","","","","","",""
"4521.165000000037","{""pre-1"":2}","[0]","survey-likert","94","356120","0.0-94.0","a7o9l5wf","","","","","",""
"3029.070000000007","{""pre-2"":1}","[0]","survey-likert","95","359151","0.0-95.0","a7o9l5wf","","","","","",""
"1867.789999999979","{""pre-3"":1}","[0]","survey-likert","96","361020","0.0-96.0","a7o9l5wf","","","","","",""
"2270.2949999999837","{""post-5"":2}","[0]","survey-likert","97","363291","0.0-97.0","a7o9l5wf","","","","","",""
"","","","call-function","98","363292","0.0-98.0","a7o9l5wf","","","","","",""
"null","","","video-keyboard-response","99","366358","0.0-99.0","a7o9l5wf","","","","null","Agent A","STIM_SET_1_REAL/1592934.bmp_pp63_L1_V1.0_veridical_freeview_isoFalse_fps144.mp4"
"","","","call-function","100","366359","0.0-100.0","a7o9l5wf","","","","","",""
"5775.075000000012","{""pre-1"":2}","[0]","survey-likert","101","372135","0.0-101.0","a7o9l5wf","","","","","",""
"2903.2399999999907","{""pre-2"":1}","[0]","survey-likert","102","375039","0.0-102.0","a7o9l5wf","","","","","",""
"2932.5200000000186","{""pre-3"":1}","[0]","survey-likert","103","377973","0.0-103.0","a7o9l5wf","","","","","",""
"2230.1500000000233","{""post-5"":2}","[0]","survey-likert","104","380204","0.0-104.0","a7o9l5wf","","","","","",""
"","","","call-function","105","380205","0.0-105.0","a7o9l5wf","","","","","",""
"null","","","video-keyboard-response","106","383264","0.0-106.0","a7o9l5wf","","","","null","Agent A","STIM_SET_1_REAL/497950.bmp_pp151_L1_V1.0_scrambled_freeview_isoFalse_fps144.mp4"
"","","","call-function","107","383266","0.0-107.0","a7o9l5wf","","","","","",""
"4127.574999999953","{""pre-1"":1}","[0]","survey-likert","108","387395","0.0-108.0","a7o9l5wf","","","","","",""
"1025.1749999999884","{""pre-2"":2}","[0]","survey-likert","109","388421","0.0-109.0","a7o9l5wf","","","","","",""
"1037.5350000000326","{""pre-3"":2}","[0]","survey-likert","110","389459","0.0-110.0","a7o9l5wf","","","","","",""
"2946.179999999993","{""post-5"":1}","[0]","survey-likert","111","392407","0.0-111.0","a7o9l5wf","","","","","",""
"","","","call-function","112","392407","0.0-112.0","a7o9l5wf","","","","","",""
"null","","","video-keyboard-response","113","395466","0.0-113.0","a7o9l5wf","","","","null","Agent A","STIM_SET_1_REAL/1159446.bmp_pp60_L3_V1.0_veridical_freeview_isoFalse_fps144.mp4"
"","","","call-function","114","395468","0.0-114.0","a7o9l5wf","","","","","",""
"3785.429999999993","{""pre-1"":0}","[0]","survey-likert","115","399255","0.0-115.0","a7o9l5wf","","","","","",""
"2491.9249999999884","{""pre-2"":3}","[0]","survey-likert","116","401749","0.0-116.0","a7o9l5wf","","","","","",""
"2070.295000000042","{""pre-3"":3}","[0]","survey-likert","117","403821","0.0-117.0","a7o9l5wf","","","","","",""
"1599.3549999999814","{""post-5"":0}","[0]","survey-likert","118","405421","0.0-118.0","a7o9l5wf","","","","","",""
"","","","call-function","119","405422","0.0-119.0","a7o9l5wf","","","","","",""
"null","","","video-keyboard-response","120","408499","0.0-120.0","a7o9l5wf","","","","null","Agent A","STIM_SET_1_REAL/1592804.bmp_pp91_L3_V1.0_scrambled_freeview_isoFalse_fps144.mp4"
"","","","call-function","121","408500","0.0-121.0","a7o9l5wf","","","","","",""
"2961.405000000028","{""pre-1"":1}","[0]","survey-likert","122","411462","0.0-122.0","a7o9l5wf","","","","","",""
"2205.6500000000233","{""pre-2"":3}","[0]","survey-likert","123","413669","0.0-123.0","a7o9l5wf","","","","","",""
"1281.625","{""pre-3"":3}","[0]","survey-likert","124","414952","0.0-124.0","a7o9l5wf","","","","","",""
"3592.0349999999744","{""post-5"":1}","[0]","survey-likert","125","418545","0.0-125.0","a7o9l5wf","","","","","",""
"","","","call-function","126","418546","0.0-126.0","a7o9l5wf","","","","","",""
"null","","","video-keyboard-response","127","421622","0.0-127.0","a7o9l5wf","","","","null","Agent A","STIM_SET_1_REAL/713684.bmp_pp85_L3_V1.0_veridical_freeview_isoFalse_fps144.mp4"
"","","","call-function","128","421622","0.0-128.0","a7o9l5wf","","","","","",""
"4615.594999999972","{""pre-1"":2}","[0]","survey-likert","129","426239","0.0-129.0","a7o9l5wf","","","","","",""
"3928.6450000000186","{""pre-2"":1}","[0]","survey-likert","130","430169","0.0-130.0","a7o9l5wf","","","","","",""
"2032.8250000000116","{""pre-3"":1}","[0]","survey-likert","131","432203","0.0-131.0","a7o9l5wf","","","","","",""
"4555.195000000007","{""post-5"":2}","[0]","survey-likert","132","436759","0.0-132.0","a7o9l5wf","","","","","",""
"","","","call-function","133","436759","0.0-133.0","a7o9l5wf","","","","","",""
"null","","","video-keyboard-response","134","439823","0.0-134.0","a7o9l5wf","","","","null","Agent A","STIM_SET_1_REAL/713681.bmp_pp86_L2_V1.0_veridical_freeview_isoFalse_fps144.mp4"
"","","","call-function","135","439824","0.0-135.0","a7o9l5wf","","","","","",""
"4442.125","{""pre-1"":1}","[0]","survey-likert","136","444269","0.0-136.0","a7o9l5wf","","","","","",""
"18203.794999999984","{""pre-2"":2}","[0]","survey-likert","137","462475","0.0-137.0","a7o9l5wf","","","","","",""
"1280.774999999965","{""pre-3"":2}","[0]","survey-likert","138","463758","0.0-138.0","a7o9l5wf","","","","","",""
"2866.625","{""post-5"":0}","[0]","survey-likert","139","466626","0.0-139.0","a7o9l5wf","","","","","",""
"","","","call-function","140","466626","0.0-140.0","a7o9l5wf","","","","","",""
"null","","","video-keyboard-response","141","469689","0.0-141.0","a7o9l5wf","","","","null","Agent A","STIM_SET_1_REAL/285994.bmp_pp92_L3_V1.0_scrambled_freeview_isoFalse_fps144.mp4"
"","","","call-function","142","469689","0.0-142.0","a7o9l5wf","","","","","",""
"4596.664999999979","{""pre-1"":1}","[0]","survey-likert","143","474287","0.0-143.0","a7o9l5wf","","","","","",""
"2158.225000000035","{""pre-2"":2}","[0]","survey-likert","144","476446","0.0-144.0","a7o9l5wf","","","","","",""
"1867.5","{""pre-3"":2}","[0]","survey-likert","145","478315","0.0-145.0","a7o9l5wf","","","","","",""
"1423.9349999999977","{""post-5"":0}","[0]","survey-likert","146","479740","0.0-146.0","a7o9l5wf","","","","","",""
"","","","call-function","147","479741","0.0-147.0","a7o9l5wf","","","","","",""
"null","","","video-keyboard-response","148","482802","0.0-148.0","a7o9l5wf","","","","null","Agent A","STIM_SET_1_REAL/1592890.bmp_pp82_L2_V1.0_scrambled_freeview_isoFalse_fps144.mp4"
"","","","call-function","149","482803","0.0-149.0","a7o9l5wf","","","","","",""
"4472.265000000014","{""pre-1"":1}","[0]","survey-likert","150","487276","0.0-150.0","a7o9l5wf","","","","","",""
"2100.1749999999884","{""pre-2"":2}","[0]","survey-likert","151","489377","0.0-151.0","a7o9l5wf","","","","","",""
"992.8499999999767","{""pre-3"":2}","[0]","survey-likert","152","490371","0.0-152.0","a7o9l5wf","","","","","",""
"1800.5950000000303","{""post-5"":1}","[0]","survey-likert","153","492173","0.0-153.0","a7o9l5wf","","","","","",""
"","","","call-function","154","492173","0.0-154.0","a7o9l5wf","","","","","",""
"null","","","video-keyboard-response","155","495252","0.0-155.0","a7o9l5wf","","","","null","Agent A","STIM_SET_1_REAL/1592372.bmp_pp76_L1_V1.0_scrambled_freeview_isoFalse_fps144.mp4"
"","","","call-function","156","495253","0.0-156.0","a7o9l5wf","","","","","",""
"7010.515000000014","{""pre-1"":1}","[0]","survey-likert","157","502265","0.0-157.0","a7o9l5wf","","","","","",""
"1669.3699999999953","{""pre-2"":2}","[0]","survey-likert","158","503936","0.0-158.0","a7o9l5wf","","","","","",""
"2891.945000000007","{""pre-3"":2}","[0]","survey-likert","159","506829","0.0-159.0","a7o9l5wf","","","","","",""
"1131.7449999999953","{""post-5"":1}","[0]","survey-likert","160","507962","0.0-160.0","a7o9l5wf","","","","","",""
"40216.08999999997","","","instructions","161","548179","0.0-161.0","a7o9l5wf","[{""page_index"":0,""viewing_time"":1078.8950000000186},{""page_index"":1,""viewing_time"":1764.8649999999907},{""page_index"":2,""viewing_time"":37372.10499999998}]","","","","",""
"3503.804999999935","","","instructions","162","551683","0.0-162.0","a7o9l5wf","[{""page_index"":0,""viewing_time"":944.375},{""page_index"":1,""viewing_time"":1913.7099999999627},{""page_index"":2,""viewing_time"":645.5999999999767}]","","","","",""
"","","","call-function","163","551684","0.0-163.0","a7o9l5wf","","","","","",""
"null","","","video-keyboard-response","164","554744","0.0-164.0","a7o9l5wf","","","","null","Agent A","STIM_SET_1_REAL/1592619.bmp_pp56_L3_V1.0_scrambled_freeview_isoFalse_fps144.mp4"
"","","","call-function","165","554745","0.0-165.0","a7o9l5wf","","","","","",""
"7311.314999999944","{""pre-1"":1}","[0]","survey-likert","166","562058","0.0-166.0","a7o9l5wf","","","","","",""
"42072.54500000004","{""pre-2"":2}","[0]","survey-likert","167","604132","0.0-167.0","a7o9l5wf","","","","","",""
"1405.469999999972","{""pre-3"":2}","[0]","survey-likert","168","605539","0.0-168.0","a7o9l5wf","","","","","",""
"2089.5800000000745","{""post-5"":1}","[0]","survey-likert","169","607629","0.0-169.0","a7o9l5wf","","","","","",""
"","","","call-function","170","607630","0.0-170.0","a7o9l5wf","","","","","",""
"null","","","video-keyboard-response","171","610718","0.0-171.0","a7o9l5wf","","","","null","Agent A","STIM_SET_1_REAL/1159813.bmp_pp79_L2_V1.0_veridical_freeview_isoFalse_fps144.mp4"
"","","","call-function","172","610719","0.0-172.0","a7o9l5wf","","","","","",""
"4333.885000000009","{""pre-1"":0}","[0]","survey-likert","173","615054","0.0-173.0","a7o9l5wf","","","","","",""
"1415.5700000000652","{""pre-2"":3}","[0]","survey-likert","174","616470","0.0-174.0","a7o9l5wf","","","","","",""
"1835.1950000000652","{""pre-3"":3}","[0]","survey-likert","175","618306","0.0-175.0","a7o9l5wf","","","","","",""
"2707.1300000000047","{""post-5"":0}","[0]","survey-likert","176","621015","0.0-176.0","a7o9l5wf","","","","","",""
"","","","call-function","177","621015","0.0-177.0","a7o9l5wf","","","","","",""
"null","","","video-keyboard-response","178","624087","0.0-178.0","a7o9l5wf","","","","null","Agent A","STIM_SET_1_REAL/1592499.bmp_pp96_L2_V1.0_scrambled_freeview_isoFalse_fps144.mp4"
"","","","call-function","179","624087","0.0-179.0","a7o9l5wf","","","","","",""
"4287.979999999981","{""pre-1"":1}","[0]","survey-likert","180","628377","0.0-180.0","a7o9l5wf","","","","","",""
"2509.5449999999255","{""pre-2"":2}","[0]","survey-likert","181","630888","0.0-181.0","a7o9l5wf","","","","","",""
"1580.6800000000512","{""pre-3"":2}","[0]","survey-likert","182","632471","0.0-182.0","a7o9l5wf","","","","","",""
"1459.4300000000512","{""post-5"":1}","[0]","survey-likert","183","633932","0.0-183.0","a7o9l5wf","","","","","",""
"","","","call-function","184","633933","0.0-184.0","a7o9l5wf","","","","","",""
"null","","","video-keyboard-response","185","637005","0.0-185.0","a7o9l5wf","","","","null","Agent A","STIM_SET_1_REAL/1159440.bmp_pp98_L1_V1.0_scrambled_freeview_isoFalse_fps144.mp4"
"","","","call-function","186","637005","0.0-186.0","a7o9l5wf","","","","","",""
"4750.5449999999255","{""pre-1"":2}","[0]","survey-likert","187","641757","0.0-187.0","a7o9l5wf","","","","","",""
"1215.634999999893","{""pre-2"":1}","[0]","survey-likert","188","642974","0.0-188.0","a7o9l5wf","","","","","",""
"1356.530000000028","{""pre-3"":1}","[0]","survey-likert","189","644332","0.0-189.0","a7o9l5wf","","","","","",""
"2304.405000000028","{""post-5"":2}","[0]","survey-likert","190","646638","0.0-190.0","a7o9l5wf","","","","","",""
"","","","call-function","191","646638","0.0-191.0","a7o9l5wf","","","","","",""
"null","","","video-keyboard-response","192","649714","0.0-192.0","a7o9l5wf","","","","null","Agent A","STIM_SET_1_REAL/1593146.bmp_pp93_L1_V1.0_veridical_freeview_isoFalse_fps144.mp4"
"","","","call-function","193","649715","0.0-193.0","a7o9l5wf","","","","","",""
"2807.7600000000093","{""pre-1"":0}","[0]","survey-likert","194","652524","0.0-194.0","a7o9l5wf","","","","","",""
"2465.820000000065","{""pre-2"":2}","[0]","survey-likert","195","654991","0.0-195.0","a7o9l5wf","","","","","",""
"1140.8100000000559","{""pre-3"":2}","[0]","survey-likert","196","656133","0.0-196.0","a7o9l5wf","","","","","",""
"1185.5500000000466","{""post-5"":0}","[0]","survey-likert","197","657319","0.0-197.0","a7o9l5wf","","","","","",""
"","","","call-function","198","657320","0.0-198.0","a7o9l5wf","","","","","",""
"null","","","video-keyboard-response","199","660390","0.0-199.0","a7o9l5wf","","","","null","Agent A","STIM_SET_1_REAL/1592727.bmp_pp59_L3_V1.0_scrambled_freeview_isoFalse_fps144.mp4"
"","","","call-function","200","660390","0.0-200.0","a7o9l5wf","","","","","",""
"9686.069999999949","{""pre-1"":1}","[0]","survey-likert","201","670077","0.0-201.0","a7o9l5wf","","","","","",""
"1702.2799999999115","{""pre-2"":2}","[0]","survey-likert","202","671781","0.0-202.0","a7o9l5wf","","","","","",""
"1063.8549999999814","{""pre-3"":2}","[0]","survey-likert","203","672847","0.0-203.0","a7o9l5wf","","","","","",""
"1230.4749999999767","{""post-5"":1}","[0]","survey-likert","204","674080","0.0-204.0","a7o9l5wf","","","","","",""
"","","","call-function","205","674080","0.0-205.0","a7o9l5wf","","","","","",""
"null","","","video-keyboard-response","206","677143","0.0-206.0","a7o9l5wf","","","","null","Agent A","STIM_SET_1_REAL/1159447.bmp_pp70_L2_V1.0_scrambled_freeview_isoFalse_fps144.mp4"
"","","","call-function","207","677144","0.0-207.0","a7o9l5wf","","","","","",""
"2573.4349999999395","{""pre-1"":0}","[0]","survey-likert","208","679718","0.0-208.0","a7o9l5wf","","","","","",""
"1579.8249999999534","{""pre-2"":3}","[0]","survey-likert","209","681299","0.0-209.0","a7o9l5wf","","","","","",""
"1141.655000000028","{""pre-3"":3}","[0]","survey-likert","210","682442","0.0-210.0","a7o9l5wf","","","","","",""
"1196.0350000000326","{""post-5"":0}","[0]","survey-likert","211","683639","0.0-211.0","a7o9l5wf","","","","","",""
"","","","call-function","212","683639","0.0-212.0","a7o9l5wf","","","","","",""
"null","","","video-keyboard-response","213","686746","0.0-213.0","a7o9l5wf","","","","null","Agent A","STIM_SET_1_REAL/285905.bmp_pp57_L1_V1.0_veridical_freeview_isoFalse_fps144.mp4"
"","","","call-function","214","686747","0.0-214.0","a7o9l5wf","","","","","",""
"5760.714999999967","{""pre-1"":0}","[0]","survey-likert","215","692509","0.0-215.0","a7o9l5wf","","","","","",""
"1439.1949999999488","{""pre-2"":3}","[0]","survey-likert","216","693950","0.0-216.0","a7o9l5wf","","","","","",""
"1735.7649999998976","{""pre-3"":3}","[0]","survey-likert","217","695688","0.0-217.0","a7o9l5wf","","","","","",""
"1311.1149999999907","{""post-5"":0}","[0]","survey-likert","218","697000","0.0-218.0","a7o9l5wf","","","","","",""
"","","","call-function","219","697001","0.0-219.0","a7o9l5wf","","","","","",""
"null","","","video-keyboard-response","220","700063","0.0-220.0","a7o9l5wf","","","","null","Agent A","STIM_SET_1_REAL/1159621.bmp_pp92_L3_V1.0_scrambled_freeview_isoFalse_fps144.mp4"
"","","","call-function","221","700064","0.0-221.0","a7o9l5wf","","","","","",""
"2853.0200000000186","{""pre-1"":2}","[0]","survey-likert","222","702918","0.0-222.0","a7o9l5wf","","","","","",""
"1001.2399999999907","{""pre-2"":1}","[0]","survey-likert","223","703920","0.0-223.0","a7o9l5wf","","","","","",""
"1254.094999999972","{""pre-3"":1}","[0]","survey-likert","224","705176","0.0-224.0","a7o9l5wf","","","","","",""
"1184.0999999999767","{""post-5"":2}","[0]","survey-likert","225","706361","0.0-225.0","a7o9l5wf","","","","","",""
"","","","call-function","226","706362","0.0-226.0","a7o9l5wf","","","","","",""
"null","","","video-keyboard-response","227","709442","0.0-227.0","a7o9l5wf","","","","null","Agent A","STIM_SET_1_REAL/1591954.bmp_pp62_L2_V1.0_scrambled_freeview_isoFalse_fps144.mp4"
"","","","call-function","228","709443","0.0-228.0","a7o9l5wf","","","","","",""
"3411.6750000000466","{""pre-1"":1}","[0]","survey-likert","229","712855","0.0-229.0","a7o9l5wf","","","","","",""
"984.0500000000466","{""pre-2"":2}","[0]","survey-likert","230","713841","0.0-230.0","a7o9l5wf","","","","","",""
"971.4550000000745","{""pre-3"":2}","[0]","survey-likert","231","714813","0.0-231.0","a7o9l5wf","","","","","",""
"2037.8050000000512","{""post-5"":1}","[0]","survey-likert","232","716853","0.0-232.0","a7o9l5wf","","","","","",""
"","","","call-function","233","716853","0.0-233.0","a7o9l5wf","","","","","",""
"null","","","video-keyboard-response","234","719914","0.0-234.0","a7o9l5wf","","","","null","Agent A","STIM_SET_1_REAL/1592351.bmp_pp51_L1_V1.0_scrambled_freeview_isoFalse_fps144.mp4"
"","","","call-function","235","719915","0.0-235.0","a7o9l5wf","","","","","",""
"2424.054999999935","{""pre-1"":1}","[0]","survey-likert","236","722340","0.0-236.0","a7o9l5wf","","","","","",""
"1531.984999999986","{""pre-2"":2}","[0]","survey-likert","237","723873","0.0-237.0","a7o9l5wf","","","","","",""
"1075.6900000000605","{""pre-3"":2}","[0]","survey-likert","238","724950","0.0-238.0","a7o9l5wf","","","","","",""
"1090.905000000028","{""post-5"":1}","[0]","survey-likert","239","726042","0.0-239.0","a7o9l5wf","","","","","",""
"","","","call-function","240","726042","0.0-240.0","a7o9l5wf","","","","","",""
"null","","","video-keyboard-response","241","729116","0.0-241.0","a7o9l5wf","","","","null","Agent A","STIM_SET_1_REAL/713371.bmp_pp68_L1_V1.0_scrambled_freeview_isoFalse_fps144.mp4"
"","","","call-function","242","729116","0.0-242.0","a7o9l5wf","","","","","",""
"2655.480000000098","{""pre-1"":0}","[0]","survey-likert","243","731772","0.0-243.0","a7o9l5wf","","","","","",""
"2887.2399999999907","{""pre-2"":3}","[0]","survey-likert","244","734661","0.0-244.0","a7o9l5wf","","","","","",""
"1777.4099999999162","{""pre-3"":3}","[0]","survey-likert","245","736439","0.0-245.0","a7o9l5wf","","","","","",""
"2701.3800000000047","{""post-5"":0}","[0]","survey-likert","246","739142","0.0-246.0","a7o9l5wf","","","","","",""
"","","","call-function","247","739142","0.0-247.0","a7o9l5wf","","","","","",""
"null","","","video-keyboard-response","248","742248","0.0-248.0","a7o9l5wf","","","","null","Agent A","STIM_SET_1_REAL/1592372.bmp_pp76_L1_V1.0_veridical_freeview_isoFalse_fps144.mp4"
"","","","call-function","249","742250","0.0-249.0","a7o9l5wf","","","","","",""
"4539.829999999958","{""pre-1"":1}","[0]","survey-likert","250","746791","0.0-250.0","a7o9l5wf","","","","","",""
"4114.4400000000605","{""pre-2"":2}","[0]","survey-likert","251","750907","0.0-251.0","a7o9l5wf","","","","","",""
"1251.6500000000233","{""pre-3"":2}","[0]","survey-likert","252","752160","0.0-252.0","a7o9l5wf","","","","","",""
"1547.3000000000466","{""post-5"":1}","[0]","survey-likert","253","753709","0.0-253.0","a7o9l5wf","","","","","",""
"","","","call-function","254","753709","0.0-254.0","a7o9l5wf","","","","","",""
"null","","","video-keyboard-response","255","756771","0.0-255.0","a7o9l5wf","","","","null","Agent A","STIM_SET_1_REAL/1159882.bmp_pp61_L2_V1.0_scrambled_freeview_isoFalse_fps144.mp4"
"","","","call-function","256","756771","0.0-256.0","a7o9l5wf","","","","","",""
"2345.8249999999534","{""pre-1"":0}","[0]","survey-likert","257","759118","0.0-257.0","a7o9l5wf","","","","","",""
"1238.2100000000792","{""pre-2"":2}","[0]","survey-likert","258","760358","0.0-258.0","a7o9l5wf","","","","","",""
"3327.5200000000186","{""pre-3"":2}","[0]","survey-likert","259","763687","0.0-259.0","a7o9l5wf","","","","","",""
"1323.515000000014","{""post-5"":0}","[0]","survey-likert","260","765011","0.0-260.0","a7o9l5wf","","","","","",""
"","","","call-function","261","765012","0.0-261.0","a7o9l5wf","","","","","",""
"null","","","video-keyboard-response","262","768080","0.0-262.0","a7o9l5wf","","","","null","Agent A","STIM_SET_1_REAL/713017.bmp_pp152_L2_V1.0_scrambled_freeview_isoFalse_fps144.mp4"
"","","","call-function","263","768080","0.0-263.0","a7o9l5wf","","","","","",""
"3546.460000000079","{""pre-1"":1}","[0]","survey-likert","264","771627","0.0-264.0","a7o9l5wf","","","","","",""
"1193.4499999999534","{""pre-2"":2}","[0]","survey-likert","265","772822","0.0-265.0","a7o9l5wf","","","","","",""
"1236.515000000014","{""pre-3"":2}","[0]","survey-likert","266","774060","0.0-266.0","a7o9l5wf","","","","","",""
"1592.670000000042","{""post-5"":1}","[0]","survey-likert","267","775654","0.0-267.0","a7o9l5wf","","","","","",""
"","","","call-function","268","775654","0.0-268.0","a7o9l5wf","","","","","",""
"null","","","video-keyboard-response","269","778713","0.0-269.0","a7o9l5wf","","","","null","Agent A","STIM_SET_1_REAL/713089.bmp_pp60_L3_V1.0_veridical_freeview_isoFalse_fps144.mp4"
"","","","call-function","270","778714","0.0-270.0","a7o9l5wf","","","","","",""
"2948.9899999999907","{""pre-1"":0}","[0]","survey-likert","271","781664","0.0-271.0","a7o9l5wf","","","","","",""
"1048.094999999972","{""pre-2"":2}","[0]","survey-likert","272","782713","0.0-272.0","a7o9l5wf","","","","","",""
"1290.609999999986","{""pre-3"":2}","[0]","survey-likert","273","784005","0.0-273.0","a7o9l5wf","","","","","",""
"1540.375","{""post-5"":0}","[0]","survey-likert","274","785547","0.0-274.0","a7o9l5wf","","","","","",""
"","","","call-function","275","785547","0.0-275.0","a7o9l5wf","","","","","",""
"null","","","video-keyboard-response","276","788620","0.0-276.0","a7o9l5wf","","","","null","Agent A","STIM_SET_1_REAL/1159675.bmp_pp77_L3_V1.0_veridical_freeview_isoFalse_fps144.mp4"
"","","","call-function","277","788621","0.0-277.0","a7o9l5wf","","","","","",""
"3660.5849999999627","{""pre-1"":1}","[0]","survey-likert","278","792283","0.0-278.0","a7o9l5wf","","","","","",""
"1031.1699999999255","{""pre-2"":2}","[0]","survey-likert","279","793317","0.0-279.0","a7o9l5wf","","","","","",""
"831.890000000014","{""pre-3"":2}","[0]","survey-likert","280","794150","0.0-280.0","a7o9l5wf","","","","","",""
"1302.0399999999208","{""post-5"":1}","[0]","survey-likert","281","795454","0.0-281.0","a7o9l5wf","","","","","",""
"","","","call-function","282","795455","0.0-282.0","a7o9l5wf","","","","","",""
"null","","","video-keyboard-response","283","798527","0.0-283.0","a7o9l5wf","","","","null","Agent A","STIM_SET_1_REAL/713681.bmp_pp86_L2_V1.0_scrambled_freeview_isoFalse_fps144.mp4"
"","","","call-function","284","798527","0.0-284.0","a7o9l5wf","","","","","",""
"2419.3800000000047","{""pre-1"":1}","[0]","survey-likert","285","800948","0.0-285.0","a7o9l5wf","","","","","",""
"1115.9949999999953","{""pre-2"":2}","[0]","survey-likert","286","802065","0.0-286.0","a7o9l5wf","","","","","",""
"1029.7299999999814","{""pre-3"":2}","[0]","survey-likert","287","803096","0.0-287.0","a7o9l5wf","","","","","",""
"1139.4000000000233","{""post-5"":1}","[0]","survey-likert","288","804237","0.0-288.0","a7o9l5wf","","","","","",""
"","","","call-function","289","804238","0.0-289.0","a7o9l5wf","","","","","",""
"null","","","video-keyboard-response","290","807299","0.0-290.0","a7o9l5wf","","","","null","Agent A","STIM_SET_1_REAL/713089.bmp_pp60_L3_V1.0_scrambled_freeview_isoFalse_fps144.mp4"
"","","","call-function","291","807299","0.0-291.0","a7o9l5wf","","","","","",""
"4139.584999999963","{""pre-1"":1}","[0]","survey-likert","292","811440","0.0-292.0","a7o9l5wf","","","","","",""
"2069.4499999999534","{""pre-2"":2}","[0]","survey-likert","293","813510","0.0-293.0","a7o9l5wf","","","","","",""
"1066.3049999999348","{""pre-3"":2}","[0]","survey-likert","294","814578","0.0-294.0","a7o9l5wf","","","","","",""
"2172.7700000000186","{""post-5"":1}","[0]","survey-likert","295","816752","0.0-295.0","a7o9l5wf","","","","","",""
"","","","call-function","296","816752","0.0-296.0","a7o9l5wf","","","","","",""
"null","","","video-keyboard-response","297","819858","0.0-297.0","a7o9l5wf","","","","null","Agent A","STIM_SET_1_REAL/498253.bmp_pp67_L2_V1.0_scrambled_freeview_isoFalse_fps144.mp4"
"","","","call-function","298","819859","0.0-298.0","a7o9l5wf","","","","","",""
"3681.609999999986","{""pre-1"":0}","[0]","survey-likert","299","823542","0.0-299.0","a7o9l5wf","","","","","",""
"1377.1049999999814","{""pre-2"":2}","[0]","survey-likert","300","824920","0.0-300.0","a7o9l5wf","","","","","",""
"1922.0100000000093","{""pre-3"":3}","[0]","survey-likert","301","826843","0.0-301.0","a7o9l5wf","","","","","",""
"1963.6350000000093","{""post-5"":0}","[0]","survey-likert","302","828808","0.0-302.0","a7o9l5wf","","","","","",""
"87739.40000000002","","","instructions","303","916548","0.0-303.0","a7o9l5wf","[{""page_index"":0,""viewing_time"":13968.265000000014},{""page_index"":1,""viewing_time"":72877.97999999998},{""page_index"":2,""viewing_time"":892.9800000000978}]","","","","",""
"4005.6049999999814","","","instructions","304","920554","0.0-304.0","a7o9l5wf","[{""page_index"":0,""viewing_time"":475.4200000000419},{""page_index"":1,""viewing_time"":1281.734999999986},{""page_index"":2,""viewing_time"":2248.3499999999767}]","","","","",""
"","","","call-function","305","920554","0.0-305.0","a7o9l5wf","","","","","",""
"null","","","video-keyboard-response","306","923617","0.0-306.0","a7o9l5wf","","","","null","Agent A","STIM_SET_1_REAL/1593035.bmp_pp94_L2_V1.0_veridical_freeview_isoFalse_fps144.mp4"
"","","","call-function","307","923617","0.0-307.0","a7o9l5wf","","","","","",""
"7549.115000000107","{""pre-1"":0}","[0]","survey-likert","308","931168","0.0-308.0","a7o9l5wf","","","","","",""
"1392.8049999999348","{""pre-2"":2}","[0]","survey-likert","309","932563","0.0-309.0","a7o9l5wf","","","","","",""
"969.1550000000279","{""pre-3"":2}","[0]","survey-likert","310","933534","0.0-310.0","a7o9l5wf","","","","","",""
"1767.2099999999627","{""post-5"":1}","[0]","survey-likert","311","935303","0.0-311.0","a7o9l5wf","","","","","",""
"","","","call-function","312","935304","0.0-312.0","a7o9l5wf","","","","","",""
"null","","","video-keyboard-response","313","938382","0.0-313.0","a7o9l5wf","","","","null","Agent A","STIM_SET_1_REAL/498155.bmp_pp61_L2_V1.0_scrambled_freeview_isoFalse_fps144.mp4"
"","","","call-function","314","938384","0.0-314.0","a7o9l5wf","","","","","",""
"2410","{""pre-1"":2}","[0]","survey-likert","315","940795","0.0-315.0","a7o9l5wf","","","","","",""
"2259.829999999958","{""pre-2"":1}","[0]","survey-likert","316","943057","0.0-316.0","a7o9l5wf","","","","","",""
"1201.5599999999395","{""pre-3"":1}","[0]","survey-likert","317","944259","0.0-317.0","a7o9l5wf","","","","","",""
"3172.875","{""post-5"":2}","[0]","survey-likert","318","947434","0.0-318.0","a7o9l5wf","","","","","",""
"","","","call-function","319","947434","0.0-319.0","a7o9l5wf","","","","","",""
"null","","","video-keyboard-response","320","950495","0.0-320.0","a7o9l5wf","","","","null","Agent A","STIM_SET_1_REAL/713403.bmp_pp80_L3_V1.0_scrambled_freeview_isoFalse_fps144.mp4"
"","","","call-function","321","950495","0.0-321.0","a7o9l5wf","","","","","",""
"2501.1500000000233","{""pre-1"":2}","[0]","survey-likert","322","952998","0.0-322.0","a7o9l5wf","","","","","",""
"2886.5950000000885","{""pre-2"":1}","[0]","survey-likert","323","955886","0.0-323.0","a7o9l5wf","","","","","",""
"1009.265000000014","{""pre-3"":1}","[0]","survey-likert","324","956897","0.0-324.0","a7o9l5wf","","","","","",""
"2063.54999999993","{""post-5"":2}","[0]","survey-likert","325","958961","0.0-325.0","a7o9l5wf","","","","","",""
"","","","call-function","326","958962","0.0-326.0","a7o9l5wf","","","","","",""
"null","","","video-keyboard-response","327","962039","0.0-327.0","a7o9l5wf","","","","null","Agent A","STIM_SET_1_REAL/712977.bmp_pp51_L1_V1.0_veridical_freeview_isoFalse_fps144.mp4"
"","","","call-function","328","962040","0.0-328.0","a7o9l5wf","","","","","",""
"3714.320000000065","{""pre-1"":1}","[0]","survey-likert","329","965755","0.0-329.0","a7o9l5wf","","","","","",""
"2777.8699999999953","{""pre-2"":2}","[0]","survey-likert","330","968534","0.0-330.0","a7o9l5wf","","","","","",""
"1284.8549999999814","{""pre-3"":2}","[0]","survey-likert","331","969820","0.0-331.0","a7o9l5wf","","","","","",""
"1179.969999999972","{""post-5"":1}","[0]","survey-likert","332","971001","0.0-332.0","a7o9l5wf","","","","","",""
"","","","call-function","333","971003","0.0-333.0","a7o9l5wf","","","","","",""
"null","","","video-keyboard-response","334","974078","0.0-334.0","a7o9l5wf","","","","null","Agent A","STIM_SET_1_REAL/1592657.bmp_pp98_L1_V1.0_veridical_freeview_isoFalse_fps144.mp4"
"","","","call-function","335","974078","0.0-335.0","a7o9l5wf","","","","","",""
"3444.20000000007","{""pre-1"":1}","[0]","survey-likert","336","977523","0.0-336.0","a7o9l5wf","","","","","",""
"1182.155000000028","{""pre-2"":2}","[0]","survey-likert","337","978707","0.0-337.0","a7o9l5wf","","","","","",""
"1166.420000000042","{""pre-3"":2}","[0]","survey-likert","338","979874","0.0-338.0","a7o9l5wf","","","","","",""
"1205.8399999999674","{""post-5"":1}","[0]","survey-likert","339","981081","0.0-339.0","a7o9l5wf","","","","","",""
"","","","call-function","340","981082","0.0-340.0","a7o9l5wf","","","","","",""
"null","","","video-keyboard-response","341","984186","0.0-341.0","a7o9l5wf","","","","null","Agent A","STIM_SET_1_REAL/498175.bmp_pp154_L1_V1.0_veridical_freeview_isoFalse_fps144.mp4"
"","","","call-function","342","984187","0.0-342.0","a7o9l5wf","","","","","",""
"2462.2550000000047","{""pre-1"":0}","[0]","survey-likert","343","986652","0.0-343.0","a7o9l5wf","","","","","",""
"1832.2550000000047","{""pre-2"":3}","[0]","survey-likert","344","988486","0.0-344.0","a7o9l5wf","","","","","",""
"1376.984999999986","{""pre-3"":3}","[0]","survey-likert","345","989865","0.0-345.0","a7o9l5wf","","","","","",""
"1603.6999999999534","{""post-5"":0}","[0]","survey-likert","346","991470","0.0-346.0","a7o9l5wf","","","","","",""
"","","","call-function","347","991471","0.0-347.0","a7o9l5wf","","","","","",""
"null","","","video-keyboard-response","348","994547","0.0-348.0","a7o9l5wf","","","","null","Agent A","STIM_SET_1_REAL/1593146.bmp_pp93_L1_V1.0_scrambled_freeview_isoFalse_fps144.mp4"
"","","","call-function","349","994548","0.0-349.0","a7o9l5wf","","","","","",""
"2147.274999999907","{""pre-1"":0}","[0]","survey-likert","350","996696","0.0-350.0","a7o9l5wf","","","","","",""
"1413.734999999986","{""pre-2"":3}","[0]","survey-likert","351","998111","0.0-351.0","a7o9l5wf","","","","","",""
"2191.765000000014","{""pre-3"":3}","[0]","survey-likert","352","1000304","0.0-352.0","a7o9l5wf","","","","","",""
"2063.920000000042","{""post-5"":0}","[0]","survey-likert","353","1002370","0.0-353.0","a7o9l5wf","","","","","",""
"","","","call-function","354","1002370","0.0-354.0","a7o9l5wf","","","","","",""
"null","","","video-keyboard-response","355","1005447","0.0-355.0","a7o9l5wf","","","","null","Agent A","STIM_SET_1_REAL/1592804.bmp_pp91_L3_V1.0_veridical_freeview_isoFalse_fps144.mp4"
"","","","call-function","356","1005448","0.0-356.0","a7o9l5wf","","","","","",""
"2783.8950000000186","{""pre-1"":1}","[0]","survey-likert","357","1008232","0.0-357.0","a7o9l5wf","","","","","",""
"1452.8399999999674","{""pre-2"":2}","[0]","survey-likert","358","1009686","0.0-358.0","a7o9l5wf","","","","","",""
"1070.8500000000931","{""pre-3"":2}","[0]","survey-likert","359","1010758","0.0-359.0","a7o9l5wf","","","","","",""
"2061.685000000056","{""post-5"":1}","[0]","survey-likert","360","1012821","0.0-360.0","a7o9l5wf","","","","","",""
"","","","call-function","361","1012822","0.0-361.0","a7o9l5wf","","","","","",""
"null","","","video-keyboard-response","362","1015892","0.0-362.0","a7o9l5wf","","","","null","Agent A","STIM_SET_1_REAL/713135.bmp_pp54_L2_V1.0_veridical_freeview_isoFalse_fps144.mp4"
"","","","call-function","363","1015893","0.0-363.0","a7o9l5wf","","","","","",""
"2666.180000000051","{""pre-1"":2}","[0]","survey-likert","364","1018561","0.0-364.0","a7o9l5wf","","","","","",""
"1505.7100000000792","{""pre-2"":1}","[0]","survey-likert","365","1020067","0.0-365.0","a7o9l5wf","","","","","",""
"958.9050000000279","{""pre-3"":1}","[0]","survey-likert","366","1021027","0.0-366.0","a7o9l5wf","","","","","",""
"1299.8399999999674","{""post-5"":2}","[0]","survey-likert","367","1022329","0.0-367.0","a7o9l5wf","","","","","",""
"","","","call-function","368","1022329","0.0-368.0","a7o9l5wf","","","","","",""
"null","","","video-keyboard-response","369","1025390","0.0-369.0","a7o9l5wf","","","","null","Agent A","STIM_SET_1_REAL/498170.bmp_pp153_L3_V1.0_veridical_freeview_isoFalse_fps144.mp4"
"","","","call-function","370","1025391","0.0-370.0","a7o9l5wf","","","","","",""
"1845.1149999999907","{""pre-1"":1}","[0]","survey-likert","371","1027237","0.0-371.0","a7o9l5wf","","","","","",""
"1569.4600000000792","{""pre-2"":2}","[0]","survey-likert","372","1028809","0.0-372.0","a7o9l5wf","","","","","",""
"1258.8950000000186","{""pre-3"":2}","[0]","survey-likert","373","1030070","0.0-373.0","a7o9l5wf","","","","","",""
"1559.734999999986","{""post-5"":1}","[0]","survey-likert","374","1031631","0.0-374.0","a7o9l5wf","","","","","",""
"","","","call-function","375","1031631","0.0-375.0","a7o9l5wf","","","","","",""
"null","","","video-keyboard-response","376","1034703","0.0-376.0","a7o9l5wf","","","","null","Agent A","STIM_SET_1_REAL/1592499.bmp_pp96_L2_V1.0_veridical_freeview_isoFalse_fps144.mp4"
"","","","call-function","377","1034704","0.0-377.0","a7o9l5wf","","","","","",""
"2075.3850000000093","{""pre-1"":1}","[0]","survey-likert","378","1036780","0.0-378.0","a7o9l5wf","","","","","",""
"1066.8049999999348","{""pre-2"":2}","[0]","survey-likert","379","1037849","0.0-379.0","a7o9l5wf","","","","","",""
"911.5249999999069","{""pre-3"":2}","[0]","survey-likert","380","1038762","0.0-380.0","a7o9l5wf","","","","","",""
"1734.6199999999953","{""post-5"":1}","[0]","survey-likert","381","1040498","0.0-381.0","a7o9l5wf","","","","","",""
"","","","call-function","382","1040498","0.0-382.0","a7o9l5wf","","","","","",""
"null","","","video-keyboard-response","383","1043560","0.0-383.0","a7o9l5wf","","","","null","Agent A","STIM_SET_1_REAL/713779.bmp_pp152_L2_V1.0_veridical_freeview_isoFalse_fps144.mp4"
"","","","call-function","384","1043560","0.0-384.0","a7o9l5wf","","","","","",""
"2034.9300000000512","{""pre-1"":0}","[0]","survey-likert","385","1045596","0.0-385.0","a7o9l5wf","","","","","",""
"1375.905000000028","{""pre-2"":3}","[0]","survey-likert","386","1046973","0.0-386.0","a7o9l5wf","","","","","",""
"1348.390000000014","{""pre-3"":3}","[0]","survey-likert","387","1048323","0.0-387.0","a7o9l5wf","","","","","",""
"1224.8499999998603","{""post-5"":0}","[0]","survey-likert","388","1049549","0.0-388.0","a7o9l5wf","","","","","",""
"","","","call-function","389","1049549","0.0-389.0","a7o9l5wf","","","","","",""
"null","","","video-keyboard-response","390","1052610","0.0-390.0","a7o9l5wf","","","","null","Agent A","STIM_SET_1_REAL/497950.bmp_pp151_L1_V1.0_veridical_freeview_isoFalse_fps144.mp4"
"","","","call-function","391","1052610","0.0-391.0","a7o9l5wf","","","","","",""
"1696.2600000000093","{""pre-1"":1}","[0]","survey-likert","392","1054307","0.0-392.0","a7o9l5wf","","","","","",""
"4177.315000000177","{""pre-2"":2}","[0]","survey-likert","393","1058487","0.0-393.0","a7o9l5wf","","","","","",""
"1070.505000000121","{""pre-3"":2}","[0]","survey-likert","394","1059558","0.0-394.0","a7o9l5wf","","","","","",""
"2557.5849999999627","{""post-5"":0}","[0]","survey-likert","395","1062117","0.0-395.0","a7o9l5wf","","","","","",""
"","","","call-function","396","1062117","0.0-396.0","a7o9l5wf","","","","","",""
"null","","","video-keyboard-response","397","1065184","0.0-397.0","a7o9l5wf","","","","null","Agent A","STIM_SET_1_REAL/1592581.bmp_pp100_L3_V1.0_veridical_freeview_isoFalse_fps144.mp4"
"","","","call-function","398","1065184","0.0-398.0","a7o9l5wf","","","","","",""
"2216.6049999999814","{""pre-1"":0}","[0]","survey-likert","399","1067402","0.0-399.0","a7o9l5wf","","","","","",""
"1701.369999999879","{""pre-2"":3}","[0]","survey-likert","400","1069104","0.0-400.0","a7o9l5wf","","","","","",""
"1119.1999999999534","{""pre-3"":3}","[0]","survey-likert","401","1070225","0.0-401.0","a7o9l5wf","","","","","",""
"1775.9550000000745","{""post-5"":0}","[0]","survey-likert","402","1072002","0.0-402.0","a7o9l5wf","","","","","",""
"","","","call-function","403","1072003","0.0-403.0","a7o9l5wf","","","","","",""
"null","","","video-keyboard-response","404","1075092","0.0-404.0","a7o9l5wf","","","","null","Agent A","STIM_SET_1_REAL/1159882.bmp_pp61_L2_V1.0_veridical_freeview_isoFalse_fps144.mp4"
"","","","call-function","405","1075093","0.0-405.0","a7o9l5wf","","","","","",""
"2613.189999999944","{""pre-1"":1}","[0]","survey-likert","406","1077708","0.0-406.0","a7o9l5wf","","","","","",""
"882.7099999999627","{""pre-2"":2}","[0]","survey-likert","407","1078592","0.0-407.0","a7o9l5wf","","","","","",""
"2044.5749999999534","{""pre-3"":2}","[0]","survey-likert","408","1080639","0.0-408.0","a7o9l5wf","","","","","",""
"1503.344999999972","{""post-5"":1}","[0]","survey-likert","409","1082144","0.0-409.0","a7o9l5wf","","","","","",""
"","","","call-function","410","1082145","0.0-410.0","a7o9l5wf","","","","","",""
"null","","","video-keyboard-response","411","1085216","0.0-411.0","a7o9l5wf","","","","null","Agent A","STIM_SET_1_REAL/713017.bmp_pp152_L2_V1.0_veridical_freeview_isoFalse_fps144.mp4"
"","","","call-function","412","1085217","0.0-412.0","a7o9l5wf","","","","","",""
"2303.9550000000745","{""pre-1"":1}","[0]","survey-likert","413","1087522","0.0-413.0","a7o9l5wf","","","","","",""
"3149.5849999999627","{""pre-2"":2}","[0]","survey-likert","414","1090673","0.0-414.0","a7o9l5wf","","","","","",""
"1308.9350000000559","{""pre-3"":2}","[0]","survey-likert","415","1091983","0.0-415.0","a7o9l5wf","","","","","",""
"1672.6450000000186","{""post-5"":1}","[0]","survey-likert","416","1093657","0.0-416.0","a7o9l5wf","","","","","",""
"","","","call-function","417","1093658","0.0-417.0","a7o9l5wf","","","","","",""
"null","","","video-keyboard-response","418","1096720","0.0-418.0","a7o9l5wf","","","","null","Agent A","STIM_SET_1_REAL/1592619.bmp_pp56_L3_V1.0_veridical_freeview_isoFalse_fps144.mp4"
"","","","call-function","419","1096721","0.0-419.0","a7o9l5wf","","","","","",""
"5260.239999999991","{""pre-1"":2}","[0]","survey-likert","420","1101982","0.0-420.0","a7o9l5wf","","","","","",""
"1493.1350000000093","{""pre-2"":1}","[0]","survey-likert","421","1103477","0.0-421.0","a7o9l5wf","","","","","",""
"3137.5749999999534","{""pre-3"":1}","[0]","survey-likert","422","1106615","0.0-422.0","a7o9l5wf","","","","","",""
"2603.564999999944","{""post-5"":2}","[0]","survey-likert","423","1109220","0.0-423.0","a7o9l5wf","","","","","",""
"","","","call-function","424","1109221","0.0-424.0","a7o9l5wf","","","","","",""
"null","","","video-keyboard-response","425","1112283","0.0-425.0","a7o9l5wf","","","","null","Agent A","STIM_SET_1_REAL/286001.bmp_pp54_L2_V1.0_scrambled_freeview_isoFalse_fps144.mp4"
"","","","call-function","426","1112284","0.0-426.0","a7o9l5wf","","","","","",""
"3295.189999999944","{""pre-1"":2}","[0]","survey-likert","427","1115580","0.0-427.0","a7o9l5wf","","","","","",""
"1121.2900000000373","{""pre-2"":1}","[0]","survey-likert","428","1116702","0.0-428.0","a7o9l5wf","","","","","",""
"1546.505000000121","{""pre-3"":1}","[0]","survey-likert","429","1118250","0.0-429.0","a7o9l5wf","","","","","",""
"2150.3249999999534","{""post-5"":2}","[0]","survey-likert","430","1120402","0.0-430.0","a7o9l5wf","","","","","",""
"","","","call-function","431","1120402","0.0-431.0","a7o9l5wf","","","","","",""
"null","","","video-keyboard-response","432","1123480","0.0-432.0","a7o9l5wf","","","","null","Agent A","STIM_SET_1_REAL/498253.bmp_pp67_L2_V1.0_veridical_freeview_isoFalse_fps144.mp4"
"","","","call-function","433","1123481","0.0-433.0","a7o9l5wf","","","","","",""
"2059.4200000001583","{""pre-1"":1}","[0]","survey-likert","434","1125542","0.0-434.0","a7o9l5wf","","","","","",""
"1481.8349999999627","{""pre-2"":2}","[0]","survey-likert","435","1127025","0.0-435.0","a7o9l5wf","","","","","",""
"1281.4199999999255","{""pre-3"":2}","[0]","survey-likert","436","1128308","0.0-436.0","a7o9l5wf","","","","","",""
"1329.7050000000745","{""post-5"":1}","[0]","survey-likert","437","1129639","0.0-437.0","a7o9l5wf","","","","","",""
"","","","call-function","438","1129639","0.0-438.0","a7o9l5wf","","","","","",""
"null","","","video-keyboard-response","439","1132717","0.0-439.0","a7o9l5wf","","","","null","Agent A","STIM_SET_1_REAL/713707.bmp_pp154_L1_V1.0_scrambled_freeview_isoFalse_fps144.mp4"
"","","","call-function","440","1132717","0.0-440.0","a7o9l5wf","","","","","",""
"4568.1699999999255","{""pre-1"":2}","[0]","survey-likert","441","1137287","0.0-441.0","a7o9l5wf","","","","","",""
"1551.065000000177","{""pre-2"":1}","[0]","survey-likert","442","1138839","0.0-442.0","a7o9l5wf","","","","","",""
"1148.6850000000559","{""pre-3"":1}","[0]","survey-likert","443","1139989","0.0-443.0","a7o9l5wf","","","","","",""
"2780.8000000000466","{""post-5"":1}","[0]","survey-likert","444","1142771","0.0-444.0","a7o9l5wf","","","","","",""
"6248.65000000014","","","instructions","445","1149020","0.0-445.0","a7o9l5wf","[{""page_index"":0,""viewing_time"":5276.175000000047},{""page_index"":1,""viewing_time"":371.92500000004657},{""page_index"":2,""viewing_time"":600.3349999999627}]","","","","",""
"12461.34999999986","","","instructions","446","1161482","0.0-446.0","a7o9l5wf","[{""page_index"":0,""viewing_time"":9471.264999999898},{""page_index"":1,""viewing_time"":2097.0500000000466},{""page_index"":2,""viewing_time"":892.9199999999255}]","","","","",""
"","","","call-function","447","1161483","0.0-447.0","a7o9l5wf","","","","","",""
"null","","","video-keyboard-response","448","1164543","0.0-448.0","a7o9l5wf","","","","null","Agent A","STIM_SET_1_REAL/1592817.bmp_pp55_L3_V1.0_scrambled_freeview_isoFalse_fps144.mp4"
"","","","call-function","449","1164544","0.0-449.0","a7o9l5wf","","","","","",""
"3683.3000000000466","{""pre-1"":1}","[0]","survey-likert","450","1168229","0.0-450.0","a7o9l5wf","","","","","",""
"1123.7649999998976","{""pre-2"":2}","[0]","survey-likert","451","1169353","0.0-451.0","a7o9l5wf","","","","","",""
"899.7749999999069","{""pre-3"":2}","[0]","survey-likert","452","1170255","0.0-452.0","a7o9l5wf","","","","","",""
"1177.8999999999069","{""post-5"":1}","[0]","survey-likert","453","1171434","0.0-453.0","a7o9l5wf","","","","","",""
"","","","call-function","454","1171434","0.0-454.0","a7o9l5wf","","","","","",""
"null","","","video-keyboard-response","455","1174503","0.0-455.0","a7o9l5wf","","","","null","Agent A","STIM_SET_1_REAL/1159440.bmp_pp98_L1_V1.0_veridical_freeview_isoFalse_fps144.mp4"
"","","","call-function","456","1174503","0.0-456.0","a7o9l5wf","","","","","",""
"1365.3899999998976","{""pre-1"":1}","[0]","survey-likert","457","1175870","0.0-457.0","a7o9l5wf","","","","","",""
"1279.6299999998882","{""pre-2"":2}","[0]","survey-likert","458","1177152","0.0-458.0","a7o9l5wf","","","","","",""
"1109.1499999999069","{""pre-3"":2}","[0]","survey-likert","459","1178263","0.0-459.0","a7o9l5wf","","","","","",""
"970.714999999851","{""post-5"":1}","[0]","survey-likert","460","1179235","0.0-460.0","a7o9l5wf","","","","","",""
"","","","call-function","461","1179236","0.0-461.0","a7o9l5wf","","","","","",""
"null","","","video-keyboard-response","462","1182313","0.0-462.0","a7o9l5wf","","","","null","Agent A","STIM_SET_1_REAL/713211.bmp_pp100_L3_V1.0_veridical_freeview_isoFalse_fps144.mp4"
"","","","call-function","463","1182314","0.0-463.0","a7o9l5wf","","","","","",""
"2974.2549999998882","{""pre-1"":1}","[0]","survey-likert","464","1185290","0.0-464.0","a7o9l5wf","","","","","",""
"1071.6450000000186","{""pre-2"":2}","[0]","survey-likert","465","1186363","0.0-465.0","a7o9l5wf","","","","","",""
"1371.2600000000093","{""pre-3"":2}","[0]","survey-likert","466","1187736","0.0-466.0","a7o9l5wf","","","","","",""
"1111.1950000000652","{""post-5"":1}","[0]","survey-likert","467","1188848","0.0-467.0","a7o9l5wf","","","","","",""
"","","","call-function","468","1188849","0.0-468.0","a7o9l5wf","","","","","",""
"null","","","video-keyboard-response","469","1191910","0.0-469.0","a7o9l5wf","","","","null","Agent A","STIM_SET_1_REAL/713779.bmp_pp152_L2_V1.0_scrambled_freeview_isoFalse_fps144.mp4"
"","","","call-function","470","1191911","0.0-470.0","a7o9l5wf","","","","","",""
"1932.7849999999162","{""pre-1"":1}","[0]","survey-likert","471","1193845","0.0-471.0","a7o9l5wf","","","","","",""
"1462.875","{""pre-2"":2}","[0]","survey-likert","472","1195309","0.0-472.0","a7o9l5wf","","","","","",""
"2060.440000000177","{""pre-3"":2}","[0]","survey-likert","473","1197371","0.0-473.0","a7o9l5wf","","","","","",""
"1376.1350000000093","{""post-5"":1}","[0]","survey-likert","474","1198748","0.0-474.0","a7o9l5wf","","","","","",""
"","","","call-function","475","1198749","0.0-475.0","a7o9l5wf","","","","","",""
"null","","","video-keyboard-response","476","1201822","0.0-476.0","a7o9l5wf","","","","null","Agent A","STIM_SET_1_REAL/713135.bmp_pp54_L2_V1.0_scrambled_freeview_isoFalse_fps144.mp4"
"","","","call-function","477","1201822","0.0-477.0","a7o9l5wf","","","","","",""
"2737.905000000028","{""pre-1"":2}","[0]","survey-likert","478","1204562","0.0-478.0","a7o9l5wf","","","","","",""
"2370.0849999999627","{""pre-2"":1}","[0]","survey-likert","479","1206933","0.0-479.0","a7o9l5wf","","","","","",""
"1185.005000000121","{""pre-3"":1}","[0]","survey-likert","480","1208119","0.0-480.0","a7o9l5wf","","","","","",""
"2130.929999999935","{""post-5"":2}","[0]","survey-likert","481","1210252","0.0-481.0","a7o9l5wf","","","","","",""
"","","","call-function","482","1210252","0.0-482.0","a7o9l5wf","","","","","",""
"null","","","video-keyboard-response","483","1213326","0.0-483.0","a7o9l5wf","","","","null","Agent A","STIM_SET_1_REAL/713760.bmp_pp81_L1_V1.0_veridical_freeview_isoFalse_fps144.mp4"
"","","","call-function","484","1213327","0.0-484.0","a7o9l5wf","","","","","",""
"2270.5800000000745","{""pre-1"":0}","[0]","survey-likert","485","1215598","0.0-485.0","a7o9l5wf","","","","","",""
"1328.2050000000745","{""pre-2"":3}","[0]","survey-likert","486","1216928","0.0-486.0","a7o9l5wf","","","","","",""
"1247.464999999851","{""pre-3"":3}","[0]","survey-likert","487","1218176","0.0-487.0","a7o9l5wf","","","","","",""
"1311.9299999999348","{""post-5"":0}","[0]","survey-likert","488","1219489","0.0-488.0","a7o9l5wf","","","","","",""
"","","","call-function","489","1219490","0.0-489.0","a7o9l5wf","","","","","",""
"null","","","video-keyboard-response","490","1222594","0.0-490.0","a7o9l5wf","","","","null","Agent A","STIM_SET_1_REAL/1591876.bmp_pp63_L1_V1.0_veridical_freeview_isoFalse_fps144.mp4"
"","","","call-function","491","1222594","0.0-491.0","a7o9l5wf","","","","","",""
"1678.4200000001583","{""pre-1"":1}","[0]","survey-likert","492","1224274","0.0-492.0","a7o9l5wf","","","","","",""
"1802.25","{""pre-2"":2}","[0]","survey-likert","493","1226077","0.0-493.0","a7o9l5wf","","","","","",""
"1127.5600000000559","{""pre-3"":2}","[0]","survey-likert","494","1227206","0.0-494.0","a7o9l5wf","","","","","",""
"1238.8300000000745","{""post-5"":1}","[0]","survey-likert","495","1228446","0.0-495.0","a7o9l5wf","","","","","",""
"","","","call-function","496","1228446","0.0-496.0","a7o9l5wf","","","","","",""
"null","","","video-keyboard-response","497","1231530","0.0-497.0","a7o9l5wf","","","","null","Agent A","STIM_SET_1_REAL/713403.bmp_pp80_L3_V1.0_veridical_freeview_isoFalse_fps144.mp4"
"","","","call-function","498","1231530","0.0-498.0","a7o9l5wf","","","","","",""
"2076.505000000121","{""pre-1"":0}","[0]","survey-likert","499","1233608","0.0-499.0","a7o9l5wf","","","","","",""
"2166.3300000000745","{""pre-2"":3}","[0]","survey-likert","500","1235775","0.0-500.0","a7o9l5wf","","","","","",""
"1348.125","{""pre-3"":3}","[0]","survey-likert","501","1237125","0.0-501.0","a7o9l5wf","","","","","",""
"1456.2000000001863","{""post-5"":0}","[0]","survey-likert","502","1238584","0.0-502.0","a7o9l5wf","","","","","",""
"","","","call-function","503","1238585","0.0-503.0","a7o9l5wf","","","","","",""
"null","","","video-keyboard-response","504","1241664","0.0-504.0","a7o9l5wf","","","","null","Agent A","STIM_SET_1_REAL/713620.bmp_pp65_L3_V1.0_veridical_freeview_isoFalse_fps144.mp4"
"","","","call-function","505","1241665","0.0-505.0","a7o9l5wf","","","","","",""
"1898.0449999999255","{""pre-1"":1}","[0]","survey-likert","506","1243564","0.0-506.0","a7o9l5wf","","","","","",""
"1310.9399999999441","{""pre-2"":2}","[0]","survey-likert","507","1244876","0.0-507.0","a7o9l5wf","","","","","",""
"1985.244999999879","{""pre-3"":2}","[0]","survey-likert","508","1246863","0.0-508.0","a7o9l5wf","","","","","",""
"1531.5500000000466","{""post-5"":1}","[0]","survey-likert","509","1248396","0.0-509.0","a7o9l5wf","","","","","",""
"","","","call-function","510","1248396","0.0-510.0","a7o9l5wf","","","","","",""
"null","","","video-keyboard-response","511","1251468","0.0-511.0","a7o9l5wf","","","","null","Agent A","STIM_SET_1_REAL/285905.bmp_pp57_L1_V1.0_scrambled_freeview_isoFalse_fps144.mp4"
"","","","call-function","512","1251469","0.0-512.0","a7o9l5wf","","","","","",""
"1558.8999999999069","{""pre-1"":1}","[0]","survey-likert","513","1253028","0.0-513.0","a7o9l5wf","","","","","",""
"3202.625","{""pre-2"":3}","[0]","survey-likert","514","1256232","0.0-514.0","a7o9l5wf","","","","","",""
"1480.9749999998603","{""pre-3"":2}","[0]","survey-likert","515","1257714","0.0-515.0","a7o9l5wf","","","","","",""
"1791.969999999972","{""post-5"":0}","[0]","survey-likert","516","1259507","0.0-516.0","a7o9l5wf","","","","","",""
"","","","call-function","517","1259508","0.0-517.0","a7o9l5wf","","","","","",""
"null","","","video-keyboard-response","518","1262582","0.0-518.0","a7o9l5wf","","","","null","Agent A","STIM_SET_1_REAL/1591876.bmp_pp63_L1_V1.0_scrambled_freeview_isoFalse_fps144.mp4"
"","","","call-function","519","1262583","0.0-519.0","a7o9l5wf","","","","","",""
"2246.4550000000745","{""pre-1"":1}","[0]","survey-likert","520","1264830","0.0-520.0","a7o9l5wf","","","","","",""
"1198.7749999999069","{""pre-2"":2}","[0]","survey-likert","521","1266033","0.0-521.0","a7o9l5wf","","","","","",""
"925.8100000000559","{""pre-3"":2}","[0]","survey-likert","522","1266960","0.0-522.0","a7o9l5wf","","","","","",""
"2687.5449999999255","{""post-5"":0}","[0]","survey-likert","523","1269648","0.0-523.0","a7o9l5wf","","","","","",""
"","","","call-function","524","1269649","0.0-524.0","a7o9l5wf","","","","","",""
"null","","","video-keyboard-response","525","1272711","0.0-525.0","a7o9l5wf","","","","null","Agent A","STIM_SET_1_REAL/1159446.bmp_pp60_L3_V1.0_scrambled_freeview_isoFalse_fps144.mp4"
"","","","call-function","526","1272712","0.0-526.0","a7o9l5wf","","","","","",""
"3109.0799999998417","{""pre-1"":1}","[0]","survey-likert","527","1275822","0.0-527.0","a7o9l5wf","","","","","",""
"1977.5100000000093","{""pre-2"":2}","[0]","survey-likert","528","1277801","0.0-528.0","a7o9l5wf","","","","","",""
"1091.875","{""pre-3"":2}","[0]","survey-likert","529","1278894","0.0-529.0","a7o9l5wf","","","","","",""
"2407.3299999998417","{""post-5"":1}","[0]","survey-likert","530","1281303","0.0-530.0","a7o9l5wf","","","","","",""
"","","","call-function","531","1281303","0.0-531.0","a7o9l5wf","","","","","",""
"null","","","video-keyboard-response","532","1284410","0.0-532.0","a7o9l5wf","","","","null","Agent A","STIM_SET_1_REAL/1159855.bmp_pp99_L2_V1.0_veridical_freeview_isoFalse_fps144.mp4"
"","","","call-function","533","1284411","0.0-533.0","a7o9l5wf","","","","","",""
"2302.439999999944","{""pre-1"":0}","[0]","survey-likert","534","1286715","0.0-534.0","a7o9l5wf","","","","","",""
"1094.7150000000838","{""pre-2"":3}","[0]","survey-likert","535","1287812","0.0-535.0","a7o9l5wf","","","","","",""
"1751.994999999879","{""pre-3"":3}","[0]","survey-likert","536","1289565","0.0-536.0","a7o9l5wf","","","","","",""
"1748.8200000000652","{""post-5"":0}","[0]","survey-likert","537","1291315","0.0-537.0","a7o9l5wf","","","","","",""
"","","","call-function","538","1291316","0.0-538.0","a7o9l5wf","","","","","",""
"null","","","video-keyboard-response","539","1294385","0.0-539.0","a7o9l5wf","","","","null","Agent A","STIM_SET_1_REAL/713796.bmp_pp84_L3_V1.0_scrambled_freeview_isoFalse_fps144.mp4"
"","","","call-function","540","1294386","0.0-540.0","a7o9l5wf","","","","","",""
"5254.280000000028","{""pre-1"":0}","[0]","survey-likert","541","1299641","0.0-541.0","a7o9l5wf","","","","","",""
"1600.4899999999907","{""pre-2"":2}","[0]","survey-likert","542","1301243","0.0-542.0","a7o9l5wf","","","","","",""
"1940.630000000121","{""pre-3"":2}","[0]","survey-likert","543","1303185","0.0-543.0","a7o9l5wf","","","","","",""
"2207.6049999999814","{""post-5"":0}","[0]","survey-likert","544","1305395","0.0-544.0","a7o9l5wf","","","","","",""
"","","","call-function","545","1305395","0.0-545.0","a7o9l5wf","","","","","",""
"null","","","video-keyboard-response","546","1308455","0.0-546.0","a7o9l5wf","","","","null","Agent A","STIM_SET_1_REAL/498149.bmp_pp99_L2_V1.0_scrambled_freeview_isoFalse_fps144.mp4"
"","","","call-function","547","1308455","0.0-547.0","a7o9l5wf","","","","","",""
"3481.024999999907","{""pre-1"":0}","[0]","survey-likert","548","1311937","0.0-548.0","a7o9l5wf","","","","","",""
"1720.904999999795","{""pre-2"":3}","[0]","survey-likert","549","1313659","0.0-549.0","a7o9l5wf","","","","","",""
"1807.7400000002235","{""pre-3"":2}","[0]","survey-likert","550","1315468","0.0-550.0","a7o9l5wf","","","","","",""
"1417.9249999998137","{""post-5"":1}","[0]","survey-likert","551","1316887","0.0-551.0","a7o9l5wf","","","","","",""
"","","","call-function","552","1316888","0.0-552.0","a7o9l5wf","","","","","",""
"null","","","video-keyboard-response","553","1319947","0.0-553.0","a7o9l5wf","","","","null","Agent A","STIM_SET_1_REAL/1593035.bmp_pp94_L2_V1.0_scrambled_freeview_isoFalse_fps144.mp4"
"","","","call-function","554","1319947","0.0-554.0","a7o9l5wf","","","","","",""
"3192.279999999795","{""pre-1"":1}","[0]","survey-likert","555","1323140","0.0-555.0","a7o9l5wf","","","","","",""
"1252.2949999999255","{""pre-2"":2}","[0]","survey-likert","556","1324394","0.0-556.0","a7o9l5wf","","","","","",""
"1209.5699999998324","{""pre-3"":2}","[0]","survey-likert","557","1325605","0.0-557.0","a7o9l5wf","","","","","",""
"2250.4599999999627","{""post-5"":1}","[0]","survey-likert","558","1327856","0.0-558.0","a7o9l5wf","","","","","",""
"","","","call-function","559","1327857","0.0-559.0","a7o9l5wf","","","","","",""
"null","","","video-keyboard-response","560","1330920","0.0-560.0","a7o9l5wf","","","","null","Agent A","STIM_SET_1_REAL/1159621.bmp_pp92_L3_V1.0_veridical_freeview_isoFalse_fps144.mp4"
"","","","call-function","561","1330921","0.0-561.0","a7o9l5wf","","","","","",""
"1959.4650000000838","{""pre-1"":1}","[0]","survey-likert","562","1332881","0.0-562.0","a7o9l5wf","","","","","",""
"2928.9300000001676","{""pre-2"":2}","[0]","survey-likert","563","1335812","0.0-563.0","a7o9l5wf","","","","","",""
"2271.8700000001118","{""pre-3"":2}","[0]","survey-likert","564","1338086","0.0-564.0","a7o9l5wf","","","","","",""
"1399.405000000028","{""post-5"":1}","[0]","survey-likert","565","1339487","0.0-565.0","a7o9l5wf","","","","","",""
"","","","call-function","566","1339488","0.0-566.0","a7o9l5wf","","","","","",""
"null","","","video-keyboard-response","567","1342557","0.0-567.0","a7o9l5wf","","","","null","Agent A","STIM_SET_1_REAL/1159829.bmp_pp91_L3_V1.0_veridical_freeview_isoFalse_fps144.mp4"
"","","","call-function","568","1342558","0.0-568.0","a7o9l5wf","","","","","",""
"2970.1650000000373","{""pre-1"":1}","[0]","survey-likert","569","1345529","0.0-569.0","a7o9l5wf","","","","","",""
"1270.369999999879","{""pre-2"":2}","[0]","survey-likert","570","1346801","0.0-570.0","a7o9l5wf","","","","","",""
"1127.2349999998696","{""pre-3"":2}","[0]","survey-likert","571","1347929","0.0-571.0","a7o9l5wf","","","","","",""
"2077.844999999972","{""post-5"":1}","[0]","survey-likert","572","1350009","0.0-572.0","a7o9l5wf","","","","","",""
"","","","call-function","573","1350009","0.0-573.0","a7o9l5wf","","","","","",""
"null","","","video-keyboard-response","574","1353083","0.0-574.0","a7o9l5wf","","","","null","Agent A","STIM_SET_1_REAL/713371.bmp_pp68_L1_V1.0_veridical_freeview_isoFalse_fps144.mp4"
"","","","call-function","575","1353084","0.0-575.0","a7o9l5wf","","","","","",""
"3922.435000000056","{""pre-1"":0}","[0]","survey-likert","576","1357007","0.0-576.0","a7o9l5wf","","","","","",""
"1321.3950000000186","{""pre-2"":2}","[0]","survey-likert","577","1358330","0.0-577.0","a7o9l5wf","","","","","",""
"1330.0549999999348","{""pre-3"":3}","[0]","survey-likert","578","1359661","0.0-578.0","a7o9l5wf","","","","","",""
"3003.1350000000093","{""post-5"":0}","[0]","survey-likert","579","1362665","0.0-579.0","a7o9l5wf","","","","","",""
"","","","call-function","580","1362666","0.0-580.0","a7o9l5wf","","","","","",""
"null","","","video-keyboard-response","581","1365736","0.0-581.0","a7o9l5wf","","","","null","Agent A","STIM_SET_1_REAL/1592397.bmp_pp85_L3_V1.0_veridical_freeview_isoFalse_fps144.mp4"
"","","","call-function","582","1365737","0.0-582.0","a7o9l5wf","","","","","",""
"2577.8249999999534","{""pre-1"":0}","[0]","survey-likert","583","1368316","0.0-583.0","a7o9l5wf","","","","","",""
"1428.1299999998882","{""pre-2"":3}","[0]","survey-likert","584","1369745","0.0-584.0","a7o9l5wf","","","","","",""
"1299.8950000000186","{""pre-3"":3}","[0]","survey-likert","585","1371046","0.0-585.0","a7o9l5wf","","","","","",""
"1874.3249999999534","{""post-5"":0}","[0]","survey-likert","586","1372922","0.0-586.0","a7o9l5wf","","","","","",""
"5119.449999999953","","","instructions","587","1378042","0.0-587.0","a7o9l5wf","[{""page_index"":0,""viewing_time"":4064.2950000001583},{""page_index"":1,""viewing_time"":581.9249999998137},{""page_index"":2,""viewing_time"":473}]","","","","",""
"298208.30499999993","","","instructions","588","1676251","0.0-588.0","a7o9l5wf","[{""page_index"":0,""viewing_time"":296888.3999999999},{""page_index"":1,""viewing_time"":897.9150000000373},{""page_index"":2,""viewing_time"":421.8850000000093}]","","","","",""
"","","","call-function","589","1676251","0.0-589.0","a7o9l5wf","","","","","",""
"null","","","video-keyboard-response","590","1679330","0.0-590.0","a7o9l5wf","","","","null","Agent A","STIM_SET_1_REAL/285751.bmp_pp55_L3_V1.0_veridical_freeview_isoFalse_fps144.mp4"
"","","","call-function","591","1679330","0.0-591.0","a7o9l5wf","","","","","",""
"2233.8299999998417","{""pre-1"":1}","[0]","survey-likert","592","1681565","0.0-592.0","a7o9l5wf","","","","","",""
"968.2950000001583","{""pre-2"":2}","[0]","survey-likert","593","1682534","0.0-593.0","a7o9l5wf","","","","","",""
"1608.0500000000466","{""pre-3"":2}","[0]","survey-likert","594","1684145","0.0-594.0","a7o9l5wf","","","","","",""
"1485.8799999998882","{""post-5"":1}","[0]","survey-likert","595","1685633","0.0-595.0","a7o9l5wf","","","","","",""
"","","","call-function","596","1685634","0.0-596.0","a7o9l5wf","","","","","",""
"null","","","video-keyboard-response","597","1688713","0.0-597.0","a7o9l5wf","","","","null","Agent A","STIM_SET_1_REAL/713749.bmp_pp88_L2_V1.0_scrambled_freeview_isoFalse_fps144.mp4"
"","","","call-function","598","1688714","0.0-598.0","a7o9l5wf","","","","","",""
"3517.304999999935","{""pre-1"":2}","[0]","survey-likert","599","1692233","0.0-599.0","a7o9l5wf","","","","","",""
"888.5100000000093","{""pre-2"":1}","[0]","survey-likert","600","1693123","0.0-600.0","a7o9l5wf","","","","","",""
"1940.594999999972","{""pre-3"":1}","[0]","survey-likert","601","1695066","0.0-601.0","a7o9l5wf","","","","","",""
"1284.9750000000931","{""post-5"":2}","[0]","survey-likert","602","1696353","0.0-602.0","a7o9l5wf","","","","","",""
"","","","call-function","603","1696353","0.0-603.0","a7o9l5wf","","","","","",""
"null","","","video-keyboard-response","604","1699428","0.0-604.0","a7o9l5wf","","","","null","Agent A","STIM_SET_1_REAL/713593.bmp_pp64_L1_V1.0_veridical_freeview_isoFalse_fps144.mp4"
"","","","call-function","605","1699429","0.0-605.0","a7o9l5wf","","","","","",""
"3578.719999999972","{""pre-1"":1}","[0]","survey-likert","606","1703009","0.0-606.0","a7o9l5wf","","","","","",""
"1258.4449999998324","{""pre-2"":2}","[0]","survey-likert","607","1704268","0.0-607.0","a7o9l5wf","","","","","",""
"1907.4950000001118","{""pre-3"":2}","[0]","survey-likert","608","1706177","0.0-608.0","a7o9l5wf","","","","","",""
"1837.0500000000466","{""post-5"":1}","[0]","survey-likert","609","1708015","0.0-609.0","a7o9l5wf","","","","","",""
"","","","call-function","610","1708016","0.0-610.0","a7o9l5wf","","","","","",""
"null","","","video-keyboard-response","611","1711080","0.0-611.0","a7o9l5wf","","","","null","Agent A","STIM_SET_1_REAL/1159572.bmp_pp71_L1_V1.0_veridical_freeview_isoFalse_fps144.mp4"
"","","","call-function","612","1711081","0.0-612.0","a7o9l5wf","","","","","",""
"1958.1450000000186","{""pre-1"":1}","[0]","survey-likert","613","1713040","0.0-613.0","a7o9l5wf","","","","","",""
"1992.2050000000745","{""pre-2"":3}","[0]","survey-likert","614","1715034","0.0-614.0","a7o9l5wf","","","","","",""
"2201.1400000001304","{""pre-3"":2}","[0]","survey-likert","615","1717237","0.0-615.0","a7o9l5wf","","","","","",""
"1956.4749999998603","{""post-5"":0}","[0]","survey-likert","616","1719194","0.0-616.0","a7o9l5wf","","","","","",""
"","","","call-function","617","1719195","0.0-617.0","a7o9l5wf","","","","","",""
"null","","","video-keyboard-response","618","1722271","0.0-618.0","a7o9l5wf","","","","null","Agent A","STIM_SET_1_REAL/1159777.bmp_pp77_L3_V1.0_veridical_freeview_isoFalse_fps144.mp4"
"","","","call-function","619","1722271","0.0-619.0","a7o9l5wf","","","","","",""
"2349.064999999944","{""pre-1"":0}","[0]","survey-likert","620","1724621","0.0-620.0","a7o9l5wf","","","","","",""
"1512.5","{""pre-2"":3}","[0]","survey-likert","621","1726135","0.0-621.0","a7o9l5wf","","","","","",""
"3302.0049999998882","{""pre-3"":3}","[0]","survey-likert","622","1729439","0.0-622.0","a7o9l5wf","","","","","",""
"1263.9950000001118","{""post-5"":0}","[0]","survey-likert","623","1730704","0.0-623.0","a7o9l5wf","","","","","",""
"","","","call-function","624","1730704","0.0-624.0","a7o9l5wf","","","","","",""
"null","","","video-keyboard-response","625","1733776","0.0-625.0","a7o9l5wf","","","","null","Agent A","STIM_SET_1_REAL/1592727.bmp_pp59_L3_V1.0_veridical_freeview_isoFalse_fps144.mp4"
"","","","call-function","626","1733777","0.0-626.0","a7o9l5wf","","","","","",""
"2401.7600000000093","{""pre-1"":0}","[0]","survey-likert","627","1736180","0.0-627.0","a7o9l5wf","","","","","",""
"3138.4249999998137","{""pre-2"":3}","[0]","survey-likert","628","1739321","0.0-628.0","a7o9l5wf","","","","","",""
"2150.8249999999534","{""pre-3"":0}","[0]","survey-likert","629","1741474","0.0-629.0","a7o9l5wf","","","","","",""
"3004.6099999998696","{""post-5"":0}","[0]","survey-likert","630","1744480","0.0-630.0","a7o9l5wf","","","","","",""
"","","","call-function","631","1744480","0.0-631.0","a7o9l5wf","","","","","",""
"null","","","video-keyboard-response","632","1747558","0.0-632.0","a7o9l5wf","","","","null","Agent A","STIM_SET_1_REAL/1159777.bmp_pp77_L3_V1.0_scrambled_freeview_isoFalse_fps144.mp4"
"","","","call-function","633","1747559","0.0-633.0","a7o9l5wf","","","","","",""
"2111.059999999823","{""pre-1"":1}","[0]","survey-likert","634","1749671","0.0-634.0","a7o9l5wf","","","","","",""
"2157.469999999972","{""pre-2"":2}","[0]","survey-likert","635","1751829","0.0-635.0","a7o9l5wf","","","","","",""
"2353.659999999916","{""pre-3"":2}","[0]","survey-likert","636","1754185","0.0-636.0","a7o9l5wf","","","","","",""
"2130.0049999998882","{""post-5"":1}","[0]","survey-likert","637","1756316","0.0-637.0","a7o9l5wf","","","","","",""
"","","","call-function","638","1756317","0.0-638.0","a7o9l5wf","","","","","",""
"null","","","video-keyboard-response","639","1759383","0.0-639.0","a7o9l5wf","","","","null","Agent A","STIM_SET_1_REAL/1592397.bmp_pp85_L3_V1.0_scrambled_freeview_isoFalse_fps144.mp4"
"","","","call-function","640","1759383","0.0-640.0","a7o9l5wf","","","","","",""
"17665.23499999987","{""pre-1"":0}","[0]","survey-likert","641","1777049","0.0-641.0","a7o9l5wf","","","","","",""
"1930.155000000028","{""pre-2"":3}","[0]","survey-likert","642","1778981","0.0-642.0","a7o9l5wf","","","","","",""
"2005.844999999972","{""pre-3"":3}","[0]","survey-likert","643","1780988","0.0-643.0","a7o9l5wf","","","","","",""
"1494.5399999998044","{""post-5"":0}","[0]","survey-likert","644","1782483","0.0-644.0","a7o9l5wf","","","","","",""
"","","","call-function","645","1782484","0.0-645.0","a7o9l5wf","","","","","",""
"null","","","video-keyboard-response","646","1785564","0.0-646.0","a7o9l5wf","","","","null","Agent A","STIM_SET_1_REAL/1593041.bmp_pp58_L1_V1.0_scrambled_freeview_isoFalse_fps144.mp4"
"","","","call-function","647","1785565","0.0-647.0","a7o9l5wf","","","","","",""
"1930.9149999998044","{""pre-1"":1}","[0]","survey-likert","648","1787497","0.0-648.0","a7o9l5wf","","","","","",""
"1106.6749999998137","{""pre-2"":2}","[0]","survey-likert","649","1788605","0.0-649.0","a7o9l5wf","","","","","",""
"1457.969999999972","{""pre-3"":2}","[0]","survey-likert","650","1790064","0.0-650.0","a7o9l5wf","","","","","",""
"1397.3300000000745","{""post-5"":1}","[0]","survey-likert","651","1791462","0.0-651.0","a7o9l5wf","","","","","",""
"","","","call-function","652","1791463","0.0-652.0","a7o9l5wf","","","","","",""
"null","","","video-keyboard-response","653","1794529","0.0-653.0","a7o9l5wf","","","","null","Agent A","STIM_SET_1_REAL/1592286.bmp_pp52_L1_V1.0_scrambled_freeview_isoFalse_fps144.mp4"
"","","","call-function","654","1794530","0.0-654.0","a7o9l5wf","","","","","",""
"2318.524999999907","{""pre-1"":2}","[0]","survey-likert","655","1796850","0.0-655.0","a7o9l5wf","","","","","",""
"1169.0549999999348","{""pre-2"":1}","[0]","survey-likert","656","1798021","0.0-656.0","a7o9l5wf","","","","","",""
"1546.9950000001118","{""pre-3"":1}","[0]","survey-likert","657","1799570","0.0-657.0","a7o9l5wf","","","","","",""
"1492.5200000000186","{""post-5"":2}","[0]","survey-likert","658","1801064","0.0-658.0","a7o9l5wf","","","","","",""
"","","","call-function","659","1801065","0.0-659.0","a7o9l5wf","","","","","",""
"null","","","video-keyboard-response","660","1804134","0.0-660.0","a7o9l5wf","","","","null","Agent A","STIM_SET_1_REAL/1159829.bmp_pp91_L3_V1.0_scrambled_freeview_isoFalse_fps144.mp4"
"","","","call-function","661","1804135","0.0-661.0","a7o9l5wf","","","","","",""
"1430.8999999999069","{""pre-1"":1}","[0]","survey-likert","662","1805567","0.0-662.0","a7o9l5wf","","","","","",""
"1316.8900000001304","{""pre-2"":2}","[0]","survey-likert","663","1806885","0.0-663.0","a7o9l5wf","","","","","",""
"1208.7000000001863","{""pre-3"":2}","[0]","survey-likert","664","1808095","0.0-664.0","a7o9l5wf","","","","","",""
"1105.619999999879","{""post-5"":1}","[0]","survey-likert","665","1809202","0.0-665.0","a7o9l5wf","","","","","",""
"","","","call-function","666","1809202","0.0-666.0","a7o9l5wf","","","","","",""
"null","","","video-keyboard-response","667","1812282","0.0-667.0","a7o9l5wf","","","","null","Agent A","STIM_SET_1_REAL/1591994.bmp_pp69_L3_V1.0_veridical_freeview_isoFalse_fps144.mp4"
"","","","call-function","668","1812283","0.0-668.0","a7o9l5wf","","","","","",""
"3357.8000000000466","{""pre-1"":1}","[0]","survey-likert","669","1815642","0.0-669.0","a7o9l5wf","","","","","",""
"1610.1750000000466","{""pre-2"":2}","[0]","survey-likert","670","1817253","0.0-670.0","a7o9l5wf","","","","","",""
"1122.5100000000093","{""pre-3"":2}","[0]","survey-likert","671","1818377","0.0-671.0","a7o9l5wf","","","","","",""
"1596.8700000001118","{""post-5"":1}","[0]","survey-likert","672","1819975","0.0-672.0","a7o9l5wf","","","","","",""
"","","","call-function","673","1819975","0.0-673.0","a7o9l5wf","","","","","",""
"null","","","video-keyboard-response","674","1823045","0.0-674.0","a7o9l5wf","","","","null","Agent A","STIM_SET_1_REAL/1159515.bmp_pp84_L3_V1.0_scrambled_freeview_isoFalse_fps144.mp4"
"","","","call-function","675","1823045","0.0-675.0","a7o9l5wf","","","","","",""
"3069.445000000065","{""pre-1"":2}","[0]","survey-likert","676","1826116","0.0-676.0","a7o9l5wf","","","","","",""
"1387.190000000177","{""pre-2"":1}","[0]","survey-likert","677","1827504","0.0-677.0","a7o9l5wf","","","","","",""
"1371.0649999999441","{""pre-3"":1}","[0]","survey-likert","678","1828876","0.0-678.0","a7o9l5wf","","","","","",""
"2014.2150000000838","{""post-5"":2}","[0]","survey-likert","679","1830892","0.0-679.0","a7o9l5wf","","","","","",""
"","","","call-function","680","1830892","0.0-680.0","a7o9l5wf","","","","","",""
"null","","","video-keyboard-response","681","1833959","0.0-681.0","a7o9l5wf","","","","null","Agent A","STIM_SET_1_REAL/1591961.bmp_pp67_L2_V1.0_veridical_freeview_isoFalse_fps144.mp4"
"","","","call-function","682","1833960","0.0-682.0","a7o9l5wf","","","","","",""
"2002.7650000001304","{""pre-1"":0}","[0]","survey-likert","683","1835964","0.0-683.0","a7o9l5wf","","","","","",""
"1628.3049999999348","{""pre-2"":3}","[0]","survey-likert","684","1837594","0.0-684.0","a7o9l5wf","","","","","",""
"1558.3300000000745","{""pre-3"":3}","[0]","survey-likert","685","1839154","0.0-685.0","a7o9l5wf","","","","","",""
"1664.8249999999534","{""post-5"":0}","[0]","survey-likert","686","1840820","0.0-686.0","a7o9l5wf","","","","","",""
"","","","call-function","687","1840820","0.0-687.0","a7o9l5wf","","","","","",""
"null","","","video-keyboard-response","688","1843927","0.0-688.0","a7o9l5wf","","","","null","Agent A","STIM_SET_1_REAL/1592657.bmp_pp98_L1_V1.0_scrambled_freeview_isoFalse_fps144.mp4"
"","","","call-function","689","1843927","0.0-689.0","a7o9l5wf","","","","","",""
"1629.3900000001304","{""pre-1"":1}","[0]","survey-likert","690","1845558","0.0-690.0","a7o9l5wf","","","","","",""
"1530.3100000000559","{""pre-2"":2}","[0]","survey-likert","691","1847089","0.0-691.0","a7o9l5wf","","","","","",""
"2563.369999999879","{""pre-3"":2}","[0]","survey-likert","692","1849655","0.0-692.0","a7o9l5wf","","","","","",""
"1978.2050000000745","{""post-5"":1}","[0]","survey-likert","693","1851635","0.0-693.0","a7o9l5wf","","","","","",""
"","","","call-function","694","1851636","0.0-694.0","a7o9l5wf","","","","","",""
"null","","","video-keyboard-response","695","1854712","0.0-695.0","a7o9l5wf","","","","null","Agent A","STIM_SET_1_REAL/713707.bmp_pp154_L1_V1.0_veridical_freeview_isoFalse_fps144.mp4"
"","","","call-function","696","1854713","0.0-696.0","a7o9l5wf","","","","","",""
"2121.9250000000466","{""pre-1"":1}","[0]","survey-likert","697","1856836","0.0-697.0","a7o9l5wf","","","","","",""
"2255.7900000000373","{""pre-2"":1}","[0]","survey-likert","698","1859093","0.0-698.0","a7o9l5wf","","","","","",""
"1614.0249999999069","{""pre-3"":1}","[0]","survey-likert","699","1860709","0.0-699.0","a7o9l5wf","","","","","",""
"1955.0349999999162","{""post-5"":1}","[0]","survey-likert","700","1862665","0.0-700.0","a7o9l5wf","","","","","",""
"","","","call-function","701","1862666","0.0-701.0","a7o9l5wf","","","","","",""
"null","","","video-keyboard-response","702","1865741","0.0-702.0","a7o9l5wf","","","","null","Agent A","STIM_SET_1_REAL/285751.bmp_pp55_L3_V1.0_scrambled_freeview_isoFalse_fps144.mp4"
"","","","call-function","703","1865742","0.0-703.0","a7o9l5wf","","","","","",""
"3805.1149999999907","{""pre-1"":0}","[0]","survey-likert","704","1869548","0.0-704.0","a7o9l5wf","","","","","",""
"1544.934999999823","{""pre-2"":2}","[0]","survey-likert","705","1871094","0.0-705.0","a7o9l5wf","","","","","",""
"1268.089999999851","{""pre-3"":2}","[0]","survey-likert","706","1872364","0.0-706.0","a7o9l5wf","","","","","",""
"1277.8300000000745","{""post-5"":0}","[0]","survey-likert","707","1873643","0.0-707.0","a7o9l5wf","","","","","",""
"","","","call-function","708","1873644","0.0-708.0","a7o9l5wf","","","","","",""
"null","","","video-keyboard-response","709","1876705","0.0-709.0","a7o9l5wf","","","","null","Agent A","STIM_SET_1_REAL/1592817.bmp_pp55_L3_V1.0_veridical_freeview_isoFalse_fps144.mp4"
"","","","call-function","710","1876706","0.0-710.0","a7o9l5wf","","","","","",""
"2700.2299999999814","{""pre-1"":0}","[0]","survey-likert","711","1879407","0.0-711.0","a7o9l5wf","","","","","",""
"1738.2949999999255","{""pre-2"":3}","[0]","survey-likert","712","1881147","0.0-712.0","a7o9l5wf","","","","","",""
"1380.1650000000373","{""pre-3"":3}","[0]","survey-likert","713","1882528","0.0-713.0","a7o9l5wf","","","","","",""
"1813.75","{""post-5"":0}","[0]","survey-likert","714","1884343","0.0-714.0","a7o9l5wf","","","","","",""
"","","","call-function","715","1884343","0.0-715.0","a7o9l5wf","","","","","",""
"null","","","video-keyboard-response","716","1887405","0.0-716.0","a7o9l5wf","","","","null","Agent A","STIM_SET_1_REAL/1592133.bmp_pp75_L1_V1.0_veridical_freeview_isoFalse_fps144.mp4"
"","","","call-function","717","1887405","0.0-717.0","a7o9l5wf","","","","","",""
"2152.4849999998696","{""pre-1"":1}","[0]","survey-likert","718","1889559","0.0-718.0","a7o9l5wf","","","","","",""
"1481.505000000121","{""pre-2"":2}","[0]","survey-likert","719","1891042","0.0-719.0","a7o9l5wf","","","","","",""
"4152.75","{""pre-3"":1}","[0]","survey-likert","720","1895196","0.0-720.0","a7o9l5wf","","","","","",""
"2476.969999999972","{""post-5"":1}","[0]","survey-likert","721","1897675","0.0-721.0","a7o9l5wf","","","","","",""
"","","","call-function","722","1897676","0.0-722.0","a7o9l5wf","","","","","",""
"null","","","video-keyboard-response","723","1900751","0.0-723.0","a7o9l5wf","","","","null","Agent A","STIM_SET_1_REAL/498155.bmp_pp61_L2_V1.0_veridical_freeview_isoFalse_fps144.mp4"
"","","","call-function","724","1900751","0.0-724.0","a7o9l5wf","","","","","",""
"2051.4499999999534","{""pre-1"":0}","[0]","survey-likert","725","1902804","0.0-725.0","a7o9l5wf","","","","","",""
"2817.0999999998603","{""pre-2"":3}","[0]","survey-likert","726","1905622","0.0-726.0","a7o9l5wf","","","","","",""
"2156.195000000065","{""pre-3"":3}","[0]","survey-likert","727","1907780","0.0-727.0","a7o9l5wf","","","","","",""
"1915.8349999999627","{""post-5"":0}","[0]","survey-likert","728","1909697","0.0-728.0","a7o9l5wf","","","","","",""
"12970.089999999851","","","instructions","729","1922668","0.0-729.0","a7o9l5wf","[{""page_index"":0,""viewing_time"":11518.914999999804},{""page_index"":1,""viewing_time"":1190.660000000149},{""page_index"":2,""viewing_time"":260.34499999997206}]","","","","",""
"1587.905000000028","","","instructions","730","1924256","0.0-730.0","a7o9l5wf","[{""page_index"":0,""viewing_time"":363.4200000001583},{""page_index"":1,""viewing_time"":616.9699999999721},{""page_index"":2,""viewing_time"":607.4099999999162}]","","","","",""
"","","","call-function","731","1924257","0.0-731.0","a7o9l5wf","","","","","",""
"null","","","video-keyboard-response","732","1927326","0.0-732.0","a7o9l5wf","","","","null","Agent A","STIM_SET_1_REAL/1159768.bmp_pp89_L1_V1.0_veridical_freeview_isoFalse_fps144.mp4"
"","","","call-function","733","1927326","0.0-733.0","a7o9l5wf","","","","","",""
"2666.655000000028","{""pre-1"":0}","[0]","survey-likert","734","1929995","0.0-734.0","a7o9l5wf","","","","","",""
"1566.089999999851","{""pre-2"":2}","[0]","survey-likert","735","1931562","0.0-735.0","a7o9l5wf","","","","","",""
"1674.8799999998882","{""pre-3"":2}","[0]","survey-likert","736","1933238","0.0-736.0","a7o9l5wf","","","","","",""
"1569.5250000001397","{""post-5"":0}","[0]","survey-likert","737","1934809","0.0-737.0","a7o9l5wf","","","","","",""
"","","","call-function","738","1934809","0.0-738.0","a7o9l5wf","","","","","",""
"null","","","video-keyboard-response","739","1937871","0.0-739.0","a7o9l5wf","","","","null","Agent A","STIM_SET_1_REAL/498170.bmp_pp153_L3_V1.0_scrambled_freeview_isoFalse_fps144.mp4"
"","","","call-function","740","1937871","0.0-740.0","a7o9l5wf","","","","","",""
"2480.469999999972","{""pre-1"":0}","[0]","survey-likert","741","1940353","0.0-741.0","a7o9l5wf","","","","","",""
"1535.1749999998137","{""pre-2"":3}","[0]","survey-likert","742","1941889","0.0-742.0","a7o9l5wf","","","","","",""
"3142.5849999999627","{""pre-3"":3}","[0]","survey-likert","743","1945033","0.0-743.0","a7o9l5wf","","","","","",""
"1124.8950000000186","{""post-5"":0}","[0]","survey-likert","744","1946159","0.0-744.0","a7o9l5wf","","","","","",""
"","","","call-function","745","1946160","0.0-745.0","a7o9l5wf","","","","","",""
"null","","","video-keyboard-response","746","1949226","0.0-746.0","a7o9l5wf","","","","null","Agent A","STIM_SET_1_REAL/1592934.bmp_pp63_L1_V1.0_scrambled_freeview_isoFalse_fps144.mp4"
"","","","call-function","747","1949227","0.0-747.0","a7o9l5wf","","","","","",""
"1544.8600000001024","{""pre-1"":1}","[0]","survey-likert","748","1950773","0.0-748.0","a7o9l5wf","","","","","",""
"2188.5999999998603","{""pre-2"":1}","[0]","survey-likert","749","1952964","0.0-749.0","a7o9l5wf","","","","","",""
"840.3250000001863","{""pre-3"":1}","[0]","survey-likert","750","1953806","0.0-750.0","a7o9l5wf","","","","","",""
"1336.244999999879","{""post-5"":1}","[0]","survey-likert","751","1955144","0.0-751.0","a7o9l5wf","","","","","",""
"","","","call-function","752","1955145","0.0-752.0","a7o9l5wf","","","","","",""
"null","","","video-keyboard-response","753","1958221","0.0-753.0","a7o9l5wf","","","","null","Agent A","STIM_SET_1_REAL/713760.bmp_pp81_L1_V1.0_scrambled_freeview_isoFalse_fps144.mp4"
"","","","call-function","754","1958222","0.0-754.0","a7o9l5wf","","","","","",""
"2996.5150000001304","{""pre-1"":1}","[0]","survey-likert","755","1961219","0.0-755.0","a7o9l5wf","","","","","",""
"1493.1399999998976","{""pre-2"":2}","[0]","survey-likert","756","1962714","0.0-756.0","a7o9l5wf","","","","","",""
"1138.2549999998882","{""pre-3"":2}","[0]","survey-likert","757","1963853","0.0-757.0","a7o9l5wf","","","","","",""
"1115.5100000000093","{""post-5"":1}","[0]","survey-likert","758","1964970","0.0-758.0","a7o9l5wf","","","","","",""
"","","","call-function","759","1964971","0.0-759.0","a7o9l5wf","","","","","",""
"null","","","video-keyboard-response","760","1968032","0.0-760.0","a7o9l5wf","","","","null","Agent A","STIM_SET_1_REAL/498149.bmp_pp99_L2_V1.0_veridical_freeview_isoFalse_fps144.mp4"
"","","","call-function","761","1968033","0.0-761.0","a7o9l5wf","","","","","",""
"1841.7700000000186","{""pre-1"":0}","[0]","survey-likert","762","1969875","0.0-762.0","a7o9l5wf","","","","","",""
"1264.844999999972","{""pre-2"":3}","[0]","survey-likert","763","1971142","0.0-763.0","a7o9l5wf","","","","","",""
"1422.8300000000745","{""pre-3"":3}","[0]","survey-likert","764","1972566","0.0-764.0","a7o9l5wf","","","","","",""
"1178.4749999998603","{""post-5"":0}","[0]","survey-likert","765","1973746","0.0-765.0","a7o9l5wf","","","","","",""
"","","","call-function","766","1973746","0.0-766.0","a7o9l5wf","","","","","",""
"null","","","video-keyboard-response","767","1976819","0.0-767.0","a7o9l5wf","","","","null","Agent A","STIM_SET_1_REAL/498175.bmp_pp154_L1_V1.0_scrambled_freeview_isoFalse_fps144.mp4"
"","","","call-function","768","1976820","0.0-768.0","a7o9l5wf","","","","","",""
"1835.5100000000093","{""pre-1"":0}","[0]","survey-likert","769","1978656","0.0-769.0","a7o9l5wf","","","","","",""
"3710.244999999879","{""pre-2"":3}","[0]","survey-likert","770","1982368","0.0-770.0","a7o9l5wf","","","","","",""
"1462.255000000121","{""pre-3"":3}","[0]","survey-likert","771","1983831","0.0-771.0","a7o9l5wf","","","","","",""
"1410.4250000000466","{""post-5"":0}","[0]","survey-likert","772","1985243","0.0-772.0","a7o9l5wf","","","","","",""
"","","","call-function","773","1985243","0.0-773.0","a7o9l5wf","","","","","",""
"null","","","video-keyboard-response","774","1988309","0.0-774.0","a7o9l5wf","","","","null","Agent A","STIM_SET_1_REAL/1591961.bmp_pp67_L2_V1.0_scrambled_freeview_isoFalse_fps144.mp4"
"","","","call-function","775","1988310","0.0-775.0","a7o9l5wf","","","","","",""
"2518.159999999916","{""pre-1"":2}","[0]","survey-likert","776","1990829","0.0-776.0","a7o9l5wf","","","","","",""
"1881.375","{""pre-2"":1}","[0]","survey-likert","777","1992712","0.0-777.0","a7o9l5wf","","","","","",""
"1829.3949999997858","{""pre-3"":2}","[0]","survey-likert","778","1994542","0.0-778.0","a7o9l5wf","","","","","",""
"1308.7299999999814","{""post-5"":1}","[0]","survey-likert","779","1995852","0.0-779.0","a7o9l5wf","","","","","",""
"","","","call-function","780","1995853","0.0-780.0","a7o9l5wf","","","","","",""
"null","","","video-keyboard-response","781","1998950","0.0-781.0","a7o9l5wf","","","","null","Agent A","STIM_SET_1_REAL/1592890.bmp_pp82_L2_V1.0_veridical_freeview_isoFalse_fps144.mp4"
"","","","call-function","782","1998951","0.0-782.0","a7o9l5wf","","","","","",""
"4638.225000000093","{""pre-1"":1}","[0]","survey-likert","783","2003591","0.0-783.0","a7o9l5wf","","","","","",""
"1034.9450000000652","{""pre-2"":2}","[0]","survey-likert","784","2004628","0.0-784.0","a7o9l5wf","","","","","",""
"1738.1049999999814","{""pre-3"":2}","[0]","survey-likert","785","2006367","0.0-785.0","a7o9l5wf","","","","","",""
"1148.8250000001863","{""post-5"":1}","[0]","survey-likert","786","2007517","0.0-786.0","a7o9l5wf","","","","","",""
"","","","call-function","787","2007518","0.0-787.0","a7o9l5wf","","","","","",""
"null","","","video-keyboard-response","788","2010588","0.0-788.0","a7o9l5wf","","","","null","Agent A","STIM_SET_1_REAL/1592362.bmp_pp95_L2_V1.0_veridical_freeview_isoFalse_fps144.mp4"
"","","","call-function","789","2010588","0.0-789.0","a7o9l5wf","","","","","",""
"2934.6650000000373","{""pre-1"":0}","[0]","survey-likert","790","2013524","0.0-790.0","a7o9l5wf","","","","","",""
"2251.2700000000186","{""pre-2"":3}","[0]","survey-likert","791","2015776","0.0-791.0","a7o9l5wf","","","","","",""
"1725.7050000000745","{""pre-3"":3}","[0]","survey-likert","792","2017504","0.0-792.0","a7o9l5wf","","","","","",""
"1874.7549999998882","{""post-5"":0}","[0]","survey-likert","793","2019380","0.0-793.0","a7o9l5wf","","","","","",""
"","","","call-function","794","2019380","0.0-794.0","a7o9l5wf","","","","","",""
"null","","","video-keyboard-response","795","2022454","0.0-795.0","a7o9l5wf","","","","null","Agent A","STIM_SET_1_REAL/61537.bmp_pp73_L3_V1.0_scrambled_freeview_isoFalse_fps144.mp4"
"","","","call-function","796","2022454","0.0-796.0","a7o9l5wf","","","","","",""
"1644.0800000000745","{""pre-1"":1}","[0]","survey-likert","797","2024099","0.0-797.0","a7o9l5wf","","","","","",""
"1112.8799999998882","{""pre-2"":2}","[0]","survey-likert","798","2025213","0.0-798.0","a7o9l5wf","","","","","",""
"1844.2150000000838","{""pre-3"":2}","[0]","survey-likert","799","2027059","0.0-799.0","a7o9l5wf","","","","","",""
"1091.2450000001118","{""post-5"":1}","[0]","survey-likert","800","2028151","0.0-800.0","a7o9l5wf","","","","","",""
"","","","call-function","801","2028152","0.0-801.0","a7o9l5wf","","","","","",""
"null","","","video-keyboard-response","802","2031218","0.0-802.0","a7o9l5wf","","","","null","Agent A","STIM_SET_1_REAL/713513.bmp_pp62_L2_V1.0_veridical_freeview_isoFalse_fps144.mp4"
"","","","call-function","803","2031219","0.0-803.0","a7o9l5wf","","","","","",""
"1418.1450000000186","{""pre-1"":1}","[0]","survey-likert","804","2032638","0.0-804.0","a7o9l5wf","","","","","",""
"2110.9950000001118","{""pre-2"":2}","[0]","survey-likert","805","2034750","0.0-805.0","a7o9l5wf","","","","","",""
"1628.5250000001397","{""pre-3"":2}","[0]","survey-likert","806","2036380","0.0-806.0","a7o9l5wf","","","","","",""
"1202.9399999999441","{""post-5"":1}","[0]","survey-likert","807","2037584","0.0-807.0","a7o9l5wf","","","","","",""
"","","","call-function","808","2037585","0.0-808.0","a7o9l5wf","","","","","",""
"null","","","video-keyboard-response","809","2040654","0.0-809.0","a7o9l5wf","","","","null","Agent A","STIM_SET_1_REAL/1592362.bmp_pp95_L2_V1.0_scrambled_freeview_isoFalse_fps144.mp4"
"","","","call-function","810","2040654","0.0-810.0","a7o9l5wf","","","","","",""
"1639.0150000001304","{""pre-1"":1}","[0]","survey-likert","811","2042294","0.0-811.0","a7o9l5wf","","","","","",""
"2080.7299999999814","{""pre-2"":2}","[0]","survey-likert","812","2044376","0.0-812.0","a7o9l5wf","","","","","",""
"1397.339999999851","{""pre-3"":2}","[0]","survey-likert","813","2045775","0.0-813.0","a7o9l5wf","","","","","",""
"905.6899999999441","{""post-5"":1}","[0]","survey-likert","814","2046682","0.0-814.0","a7o9l5wf","","","","","",""
"","","","call-function","815","2046682","0.0-815.0","a7o9l5wf","","","","","",""
"null","","","video-keyboard-response","816","2049770","0.0-816.0","a7o9l5wf","","","","null","Agent A","STIM_SET_1_REAL/1159572.bmp_pp71_L1_V1.0_scrambled_freeview_isoFalse_fps144.mp4"
"","","","call-function","817","2049771","0.0-817.0","a7o9l5wf","","","","","",""
"2184.6650000000373","{""pre-1"":2}","[0]","survey-likert","818","2051958","0.0-818.0","a7o9l5wf","","","","","",""
"1117.6950000000652","{""pre-2"":1}","[0]","survey-likert","819","2053078","0.0-819.0","a7o9l5wf","","","","","",""
"987.5800000000745","{""pre-3"":1}","[0]","survey-likert","820","2054067","0.0-820.0","a7o9l5wf","","","","","",""
"1396.4500000001863","{""post-5"":2}","[0]","survey-likert","821","2055465","0.0-821.0","a7o9l5wf","","","","","",""
"","","","call-function","822","2055466","0.0-822.0","a7o9l5wf","","","","","",""
"null","","","video-keyboard-response","823","2058534","0.0-823.0","a7o9l5wf","","","","null","Agent A","STIM_SET_1_REAL/285933.bmp_pp81_L1_V1.0_veridical_freeview_isoFalse_fps144.mp4"
"","","","call-function","824","2058535","0.0-824.0","a7o9l5wf","","","","","",""
"2080.1049999999814","{""pre-1"":2}","[0]","survey-likert","825","2060616","0.0-825.0","a7o9l5wf","","","","","",""
"1333.880000000121","{""pre-2"":1}","[0]","survey-likert","826","2061952","0.0-826.0","a7o9l5wf","","","","","",""
"2565.5449999999255","{""pre-3"":1}","[0]","survey-likert","827","2064519","0.0-827.0","a7o9l5wf","","","","","",""
"1227.6350000000093","{""post-5"":2}","[0]","survey-likert","828","2065748","0.0-828.0","a7o9l5wf","","","","","",""
"","","","call-function","829","2065748","0.0-829.0","a7o9l5wf","","","","","",""
"null","","","video-keyboard-response","830","2068833","0.0-830.0","a7o9l5wf","","","","null","Agent A","STIM_SET_1_REAL/1593041.bmp_pp58_L1_V1.0_veridical_freeview_isoFalse_fps144.mp4"
"","","","call-function","831","2068834","0.0-831.0","a7o9l5wf","","","","","",""
"1795.4350000000559","{""pre-1"":1}","[0]","survey-likert","832","2070631","0.0-832.0","a7o9l5wf","","","","","",""
"959.7449999998789","{""pre-2"":2}","[0]","survey-likert","833","2071592","0.0-833.0","a7o9l5wf","","","","","",""
"2929.755000000121","{""pre-3"":3}","[0]","survey-likert","834","2074523","0.0-834.0","a7o9l5wf","","","","","",""
"1510.2950000001583","{""post-5"":0}","[0]","survey-likert","835","2076034","0.0-835.0","a7o9l5wf","","","","","",""
"","","","call-function","836","2076035","0.0-836.0","a7o9l5wf","","","","","",""
