"rt","responses","question_order","trial_type","trial_index","time_elapsed","internal_node_id","ID","view_history","value","stimulus","key_press","agent","image"
"83907.83","{""Experimenter"":[""Confirmed subject's identity (ID card)"",""Confirmed normal or corrected-to-normal vision"",""Obtained consent (signature and date)"",""Checked the test room lighting"",""Checked computer screen lighting"",""Checked distance from screen to chin rest (50cm)"",""Cleaned and adjusted chin rest"",""Counterbalanced the order of the tasks"",""Opened the experiment in Firefox"",""Made the experiment full screen"",""Encouraged subject to silence phone, put away distractors, etc.""]}","[0]","survey-multi-select","0","83916","0.0-0.0","akq14bez","","","","","",""
"23939.414999999994","","","instructions","1","107857","0.0-1.0","akq14bez","[{""page_index"":0,""viewing_time"":23939.26999999999}]","","","","",""
"16462.405","{""Age"":0,""Sex"":1,""Gender"":1}","[0,1,2]","survey-likert","2","124322","0.0-2.0","akq14bez","","","","","",""
"1859.6600000000035","","","instructions","3","126182","0.0-3.0","akq14bez","[{""page_index"":0,""viewing_time"":1859.5600000000122}]","","","","",""
"9534.179999999993","","","instructions","4","135717","0.0-4.0","akq14bez","[{""page_index"":0,""viewing_time"":6139.540000000008},{""page_index"":1,""viewing_time"":3394.0350000000035}]","","","","",""
"21807.859999999986","","","instructions","5","157526","0.0-5.0","akq14bez","[{""page_index"":0,""viewing_time"":2225.579999999987},{""page_index"":1,""viewing_time"":8849.915000000008},{""page_index"":2,""viewing_time"":10732.244999999995}]","","","","",""
"3353.9249999999884","","","instructions","6","160881","0.0-6.0","akq14bez","[{""page_index"":0,""viewing_time"":3353.8249999999825}]","","","","",""
"","","","call-function","7","160882","0.0-7.0","akq14bez","","","","","",""
"null","","","video-keyboard-response","8","163954","0.0-8.0","akq14bez","","","","null","",""
"","","","call-function","9","163955","0.0-9.0","akq14bez","","","","","",""
"21695.035000000003","","","instructions","10","185650","0.0-10.0","akq14bez","[{""page_index"":0,""viewing_time"":4256.8249999999825},{""page_index"":1,""viewing_time"":3539.1900000000023},{""page_index"":2,""viewing_time"":1937.2799999999988},{""page_index"":3,""viewing_time"":11961.63500000001}]","","","","",""
"62.88500000000931","","","instructions","11","185713","0.0-11.0","akq14bez","[{""page_index"":0,""viewing_time"":62.77500000002328}]","","","","",""
"","","","call-function","12","185714","0.0-12.0","akq14bez","","","","","",""
"null","","","video-keyboard-response","13","188786","0.0-13.0","akq14bez","","","","null","",""
"","","","call-function","14","188787","0.0-14.0","akq14bez","","","","","",""
"16026.049999999988","{""pre-1"":1}","[0]","survey-likert","15","204814","0.0-15.0","akq14bez","","","","","",""
"12550.945000000007","{""pre-2"":2}","[0]","survey-likert","16","217366","0.0-16.0","akq14bez","","","","","",""
"11585.930000000022","{""pre-3"":2}","[0]","survey-likert","17","228953","0.0-17.0","akq14bez","","","","","",""
"4936.440000000002","{""post-5"":2}","[0]","survey-likert","18","233891","0.0-18.0","akq14bez","","","","","",""
"1990.1000000000058","","","instructions","19","235881","0.0-19.0","akq14bez","[{""page_index"":0,""viewing_time"":1989.8800000000047}]","","","","",""
"6839.614999999991","","","instructions","20","242721","0.0-20.0","akq14bez","[{""page_index"":0,""viewing_time"":6839.5}]","","","","",""
"","","","call-function","21","242723","0.0-21.0","akq14bez","","","","","",""
"null","","","video-keyboard-response","22","245799","0.0-22.0","akq14bez","","","","null","Agent A","STIM_SET_1_REAL/1159855.bmp_pp99_L2_V1.0_scrambled_freeview_isoFalse_fps144.mp4"
"","","","call-function","23","245800","0.0-23.0","akq14bez","","","","","",""
"11142.539999999979","{""pre-1"":2}","[0]","survey-likert","24","256943","0.0-24.0","akq14bez","","","","","",""
"11973.494999999995","{""pre-2"":1}","[0]","survey-likert","25","268918","0.0-25.0","akq14bez","","","","","",""
"14808.770000000019","{""pre-3"":1}","[0]","survey-likert","26","283728","0.0-26.0","akq14bez","","","","","",""
"4538.614999999991","{""post-5"":2}","[0]","survey-likert","27","288269","0.0-27.0","akq14bez","","","","","",""
"","","","call-function","28","288270","0.0-28.0","akq14bez","","","","","",""
"null","","","video-keyboard-response","29","291341","0.0-29.0","akq14bez","","","","null","Agent A","STIM_SET_1_REAL/713779.bmp_pp152_L2_V1.0_scrambled_freeview_isoFalse_fps144.mp4"
"","","","call-function","30","291342","0.0-30.0","akq14bez","","","","","",""
"5485.559999999998","{""pre-1"":2}","[0]","survey-likert","31","296828","0.0-31.0","akq14bez","","","","","",""
"8590.945000000007","{""pre-2"":0}","[0]","survey-likert","32","305421","0.0-32.0","akq14bez","","","","","",""
"4748.554999999993","{""pre-3"":0}","[0]","survey-likert","33","310170","0.0-33.0","akq14bez","","","","","",""
"6657.02999999997","{""post-5"":2}","[0]","survey-likert","34","316829","0.0-34.0","akq14bez","","","","","",""
"","","","call-function","35","316830","0.0-35.0","akq14bez","","","","","",""
"null","","","video-keyboard-response","36","319940","0.0-36.0","akq14bez","","","","null","Agent A","STIM_SET_1_REAL/1593041.bmp_pp58_L1_V1.0_scrambled_freeview_isoFalse_fps144.mp4"
"","","","call-function","37","319941","0.0-37.0","akq14bez","","","","","",""
"10105.520000000019","{""pre-1"":1}","[0]","survey-likert","38","330047","0.0-38.0","akq14bez","","","","","",""
"11021.080000000016","{""pre-2"":2}","[0]","survey-likert","39","341069","0.0-39.0","akq14bez","","","","","",""
"4325.065000000002","{""pre-3"":2}","[0]","survey-likert","40","345395","0.0-40.0","akq14bez","","","","","",""
"13489.139999999956","{""post-5"":2}","[0]","survey-likert","41","358885","0.0-41.0","akq14bez","","","","","",""
"","","","call-function","42","358886","0.0-42.0","akq14bez","","","","","",""
"null","","","video-keyboard-response","43","361962","0.0-43.0","akq14bez","","","","null","Agent A","STIM_SET_1_REAL/498111.bmp_pp88_L2_V1.0_scrambled_freeview_isoFalse_fps144.mp4"
"","","","call-function","44","361962","0.0-44.0","akq14bez","","","","","",""
"10479.324999999953","{""pre-1"":1}","[0]","survey-likert","45","372443","0.0-45.0","akq14bez","","","","","",""
"11181.725000000035","{""pre-2"":2}","[0]","survey-likert","46","383627","0.0-46.0","akq14bez","","","","","",""
"6926.200000000012","{""pre-3"":2}","[0]","survey-likert","47","390555","0.0-47.0","akq14bez","","","","","",""
"4267.739999999991","{""post-5"":1}","[0]","survey-likert","48","394824","0.0-48.0","akq14bez","","","","","",""
"","","","call-function","49","394824","0.0-49.0","akq14bez","","","","","",""
"null","","","video-keyboard-response","50","397915","0.0-50.0","akq14bez","","","","null","Agent A","STIM_SET_1_REAL/1592499.bmp_pp96_L2_V1.0_veridical_freeview_isoFalse_fps144.mp4"
"","","","call-function","51","397916","0.0-51.0","akq14bez","","","","","",""
"15053.73999999999","{""pre-1"":0}","[0]","survey-likert","52","412971","0.0-52.0","akq14bez","","","","","",""
"6653.755000000005","{""pre-2"":2}","[0]","survey-likert","53","419626","0.0-53.0","akq14bez","","","","","",""
"3172.9249999999884","{""pre-3"":2}","[0]","survey-likert","54","422800","0.0-54.0","akq14bez","","","","","",""
"3769.8150000000023","{""post-5"":1}","[0]","survey-likert","55","426571","0.0-55.0","akq14bez","","","","","",""
"","","","call-function","56","426571","0.0-56.0","akq14bez","","","","","",""
"null","","","video-keyboard-response","57","429637","0.0-57.0","akq14bez","","","","null","Agent A","STIM_SET_1_REAL/713513.bmp_pp62_L2_V1.0_scrambled_freeview_isoFalse_fps144.mp4"
"","","","call-function","58","429637","0.0-58.0","akq14bez","","","","","",""
"11694.390000000014","{""pre-1"":2}","[0]","survey-likert","59","441333","0.0-59.0","akq14bez","","","","","",""
"3945.0200000000186","{""pre-2"":1}","[0]","survey-likert","60","445279","0.0-60.0","akq14bez","","","","","",""
"4571.724999999977","{""pre-3"":1}","[0]","survey-likert","61","449851","0.0-61.0","akq14bez","","","","","",""
"8677.125","{""post-5"":1}","[0]","survey-likert","62","458529","0.0-62.0","akq14bez","","","","","",""
"","","","call-function","63","458530","0.0-63.0","akq14bez","","","","","",""
"null","","","video-keyboard-response","64","461596","0.0-64.0","akq14bez","","","","null","Agent A","STIM_SET_1_REAL/1593035.bmp_pp94_L2_V1.0_scrambled_freeview_isoFalse_fps144.mp4"
"","","","call-function","65","461597","0.0-65.0","akq14bez","","","","","",""
"12757.570000000007","{""pre-1"":2}","[0]","survey-likert","66","474356","0.0-66.0","akq14bez","","","","","",""
"11592.5","{""pre-2"":1}","[0]","survey-likert","67","485950","0.0-67.0","akq14bez","","","","","",""
"6965.819999999949","{""pre-3"":1}","[0]","survey-likert","68","492917","0.0-68.0","akq14bez","","","","","",""
"5591.575000000012","{""post-5"":1}","[0]","survey-likert","69","498510","0.0-69.0","akq14bez","","","","","",""
"","","","call-function","70","498511","0.0-70.0","akq14bez","","","","","",""
"null","","","video-keyboard-response","71","501623","0.0-71.0","akq14bez","","","","null","Agent A","STIM_SET_1_REAL/498175.bmp_pp154_L1_V1.0_scrambled_freeview_isoFalse_fps144.mp4"
"","","","call-function","72","501623","0.0-72.0","akq14bez","","","","","",""
"14271.050000000047","{""pre-1"":1}","[0]","survey-likert","73","515895","0.0-73.0","akq14bez","","","","","",""
"6823.539999999979","{""pre-2"":2}","[0]","survey-likert","74","522720","0.0-74.0","akq14bez","","","","","",""
"3091.4800000000396","{""pre-3"":2}","[0]","survey-likert","75","525813","0.0-75.0","akq14bez","","","","","",""
"3329.8950000000186","{""post-5"":1}","[0]","survey-likert","76","529143","0.0-76.0","akq14bez","","","","","",""
"","","","call-function","77","529144","0.0-77.0","akq14bez","","","","","",""
"null","","","video-keyboard-response","78","532221","0.0-78.0","akq14bez","","","","null","Agent A","STIM_SET_1_REAL/498253.bmp_pp67_L2_V1.0_veridical_freeview_isoFalse_fps144.mp4"
"","","","call-function","79","532221","0.0-79.0","akq14bez","","","","","",""
"3462.7399999999907","{""pre-1"":1}","[0]","survey-likert","80","535685","0.0-80.0","akq14bez","","","","","",""
"5717.084999999963","{""pre-2"":2}","[0]","survey-likert","81","541403","0.0-81.0","akq14bez","","","","","",""
"2609.644999999902","{""pre-3"":2}","[0]","survey-likert","82","544013","0.0-82.0","akq14bez","","","","","",""
"4646.394999999902","{""post-5"":1}","[0]","survey-likert","83","548661","0.0-83.0","akq14bez","","","","","",""
"","","","call-function","84","548661","0.0-84.0","akq14bez","","","","","",""
"null","","","video-keyboard-response","85","551740","0.0-85.0","akq14bez","","","","null","Agent A","STIM_SET_1_REAL/1592804.bmp_pp91_L3_V1.0_scrambled_freeview_isoFalse_fps144.mp4"
"","","","call-function","86","551741","0.0-86.0","akq14bez","","","","","",""
"4792.0449999999255","{""pre-1"":0}","[0]","survey-likert","87","556534","0.0-87.0","akq14bez","","","","","",""
"9070.359999999986","{""pre-2"":2}","[0]","survey-likert","88","565606","0.0-88.0","akq14bez","","","","","",""
"3100.5899999999674","{""pre-3"":3}","[0]","survey-likert","89","568708","0.0-89.0","akq14bez","","","","","",""
"12936.035000000033","{""post-5"":1}","[0]","survey-likert","90","581645","0.0-90.0","akq14bez","","","","","",""
"","","","call-function","91","581645","0.0-91.0","akq14bez","","","","","",""
"null","","","video-keyboard-response","92","584719","0.0-92.0","akq14bez","","","","null","Agent A","STIM_SET_1_REAL/713620.bmp_pp65_L3_V1.0_veridical_freeview_isoFalse_fps144.mp4"
"","","","call-function","93","584719","0.0-93.0","akq14bez","","","","","",""
"9770.964999999967","{""pre-1"":1}","[0]","survey-likert","94","594491","0.0-94.0","akq14bez","","","","","",""
"5525.7949999999255","{""pre-2"":2}","[0]","survey-likert","95","600018","0.0-95.0","akq14bez","","","","","",""
"3287.2249999999767","{""pre-3"":2}","[0]","survey-likert","96","603307","0.0-96.0","akq14bez","","","","","",""
"6762.079999999958","{""post-5"":1}","[0]","survey-likert","97","610070","0.0-97.0","akq14bez","","","","","",""
"","","","call-function","98","610070","0.0-98.0","akq14bez","","","","","",""
"null","","","video-keyboard-response","99","613132","0.0-99.0","akq14bez","","","","null","Agent A","STIM_SET_1_REAL/497950.bmp_pp151_L1_V1.0_veridical_freeview_isoFalse_fps144.mp4"
"","","","call-function","100","613132","0.0-100.0","akq14bez","","","","","",""
"10701.020000000019","{""pre-1"":2}","[0]","survey-likert","101","623834","0.0-101.0","akq14bez","","","","","",""
"6284.5","{""pre-2"":2}","[0]","survey-likert","102","630120","0.0-102.0","akq14bez","","","","","",""
"4602.640000000014","{""pre-3"":2}","[0]","survey-likert","103","634723","0.0-103.0","akq14bez","","","","","",""
"7214.820000000065","{""post-5"":1}","[0]","survey-likert","104","641940","0.0-104.0","akq14bez","","","","","",""
"","","","call-function","105","641941","0.0-105.0","akq14bez","","","","","",""
"null","","","video-keyboard-response","106","645004","0.0-106.0","akq14bez","","","","null","Agent A","STIM_SET_1_REAL/498170.bmp_pp153_L3_V1.0_scrambled_freeview_isoFalse_fps144.mp4"
"","","","call-function","107","645005","0.0-107.0","akq14bez","","","","","",""
"5039.954999999958","{""pre-1"":2}","[0]","survey-likert","108","650046","0.0-108.0","akq14bez","","","","","",""
"10292.359999999986","{""pre-2"":2}","[0]","survey-likert","109","660340","0.0-109.0","akq14bez","","","","","",""
"7748.760000000009","{""pre-3"":2}","[0]","survey-likert","110","668090","0.0-110.0","akq14bez","","","","","",""
"6598.109999999986","{""post-5"":1}","[0]","survey-likert","111","674689","0.0-111.0","akq14bez","","","","","",""
"","","","call-function","112","674690","0.0-112.0","akq14bez","","","","","",""
"null","","","video-keyboard-response","113","677770","0.0-113.0","akq14bez","","","","null","Agent A","STIM_SET_1_REAL/1592133.bmp_pp75_L1_V1.0_veridical_freeview_isoFalse_fps144.mp4"
"","","","call-function","114","677770","0.0-114.0","akq14bez","","","","","",""
"24773.590000000084","{""pre-1"":2}","[0]","survey-likert","115","702545","0.0-115.0","akq14bez","","","","","",""
"9272.369999999995","{""pre-2"":2}","[0]","survey-likert","116","711819","0.0-116.0","akq14bez","","","","","",""
"3887.9949999999953","{""pre-3"":2}","[0]","survey-likert","117","715708","0.0-117.0","akq14bez","","","","","",""
"5357.050000000047","{""post-5"":1}","[0]","survey-likert","118","721066","0.0-118.0","akq14bez","","","","","",""
"","","","call-function","119","721066","0.0-119.0","akq14bez","","","","","",""
"null","","","video-keyboard-response","120","724160","0.0-120.0","akq14bez","","","","null","Agent A","STIM_SET_1_REAL/498155.bmp_pp61_L2_V1.0_scrambled_freeview_isoFalse_fps144.mp4"
"","","","call-function","121","724160","0.0-121.0","akq14bez","","","","","",""
"7906.949999999953","{""pre-1"":2}","[0]","survey-likert","122","732068","0.0-122.0","akq14bez","","","","","",""
"3526.8499999999767","{""pre-2"":3}","[0]","survey-likert","123","735596","0.0-123.0","akq14bez","","","","","",""
"10552.16499999992","{""pre-3"":2}","[0]","survey-likert","124","746151","0.0-124.0","akq14bez","","","","","",""
"4594.405000000028","{""post-5"":1}","[0]","survey-likert","125","750747","0.0-125.0","akq14bez","","","","","",""
"","","","call-function","126","750748","0.0-126.0","akq14bez","","","","","",""
"null","","","video-keyboard-response","127","753824","0.0-127.0","akq14bez","","","","null","Agent A","STIM_SET_1_REAL/1593146.bmp_pp93_L1_V1.0_scrambled_freeview_isoFalse_fps144.mp4"
"","","","call-function","128","753825","0.0-128.0","akq14bez","","","","","",""
"6994.005000000005","{""pre-1"":2}","[0]","survey-likert","129","760820","0.0-129.0","akq14bez","","","","","",""
"2393.0250000000233","{""pre-2"":3}","[0]","survey-likert","130","763214","0.0-130.0","akq14bez","","","","","",""
"13098.88500000001","{""pre-3"":2}","[0]","survey-likert","131","776314","0.0-131.0","akq14bez","","","","","",""
"2498.0849999999627","{""post-5"":0}","[0]","survey-likert","132","778813","0.0-132.0","akq14bez","","","","","",""
"","","","call-function","133","778814","0.0-133.0","akq14bez","","","","","",""
"null","","","video-keyboard-response","134","781884","0.0-134.0","akq14bez","","","","null","Agent A","STIM_SET_1_REAL/1160168.bmp_pp53_L2_V1.0_veridical_freeview_isoFalse_fps144.mp4"
"","","","call-function","135","781884","0.0-135.0","akq14bez","","","","","",""
"9640.570000000065","{""pre-1"":1}","[0]","survey-likert","136","791526","0.0-136.0","akq14bez","","","","","",""
"5685.099999999977","{""pre-2"":2}","[0]","survey-likert","137","797213","0.0-137.0","akq14bez","","","","","",""
"4677.275000000023","{""pre-3"":2}","[0]","survey-likert","138","801891","0.0-138.0","akq14bez","","","","","",""
"3213.1199999999953","{""post-5"":0}","[0]","survey-likert","139","805105","0.0-139.0","akq14bez","","","","","",""
"","","","call-function","140","805105","0.0-140.0","akq14bez","","","","","",""
"null","","","video-keyboard-response","141","808166","0.0-141.0","akq14bez","","","","null","Agent A","STIM_SET_1_REAL/498149.bmp_pp99_L2_V1.0_scrambled_freeview_isoFalse_fps144.mp4"
"","","","call-function","142","808167","0.0-142.0","akq14bez","","","","","",""
"4449.170000000042","{""pre-1"":2}","[0]","survey-likert","143","812617","0.0-143.0","akq14bez","","","","","",""
"4155.074999999953","{""pre-2"":3}","[0]","survey-likert","144","816774","0.0-144.0","akq14bez","","","","","",""
"4045.5849999999627","{""pre-3"":3}","[0]","survey-likert","145","820821","0.0-145.0","akq14bez","","","","","",""
"5189.244999999995","{""post-5"":0}","[0]","survey-likert","146","826013","0.0-146.0","akq14bez","","","","","",""
"","","","call-function","147","826014","0.0-147.0","akq14bez","","","","","",""
"null","","","video-keyboard-response","148","829169","0.0-148.0","akq14bez","","","","null","Agent A","STIM_SET_1_REAL/285994.bmp_pp92_L3_V1.0_scrambled_freeview_isoFalse_fps144.mp4"
"","","","call-function","149","829169","0.0-149.0","akq14bez","","","","","",""
"4296.574999999953","{""pre-1"":1}","[0]","survey-likert","150","833467","0.0-150.0","akq14bez","","","","","",""
"9193.76000000001","{""pre-2"":3}","[0]","survey-likert","151","842662","0.0-151.0","akq14bez","","","","","",""
"5351.425000000047","{""pre-3"":3}","[0]","survey-likert","152","848015","0.0-152.0","akq14bez","","","","","",""
"3822.305000000051","{""post-5"":0}","[0]","survey-likert","153","851838","0.0-153.0","akq14bez","","","","","",""
"","","","call-function","154","851839","0.0-154.0","akq14bez","","","","","",""
"null","","","video-keyboard-response","155","854898","0.0-155.0","akq14bez","","","","null","Agent A","STIM_SET_1_REAL/713779.bmp_pp152_L2_V1.0_veridical_freeview_isoFalse_fps144.mp4"
"","","","call-function","156","854899","0.0-156.0","akq14bez","","","","","",""
"4397.334999999963","{""pre-1"":2}","[0]","survey-likert","157","859297","0.0-157.0","akq14bez","","","","","",""
"4204.089999999967","{""pre-2"":2}","[0]","survey-likert","158","863502","0.0-158.0","akq14bez","","","","","",""
"1891.7000000000698","{""pre-3"":2}","[0]","survey-likert","159","865395","0.0-159.0","akq14bez","","","","","",""
"3771.1549999999115","{""post-5"":0}","[0]","survey-likert","160","869167","0.0-160.0","akq14bez","","","","","",""
"56935.96999999997","","","instructions","161","926104","0.0-161.0","akq14bez","[{""page_index"":0,""viewing_time"":2328.6149999999907},{""page_index"":1,""viewing_time"":51139.755000000005},{""page_index"":2,""viewing_time"":3467.3699999999953}]","","","","",""
"12226.04999999993","","","instructions","162","938330","0.0-162.0","akq14bez","[{""page_index"":0,""viewing_time"":1450.8850000000093},{""page_index"":1,""viewing_time"":9723.014999999898},{""page_index"":2,""viewing_time"":1052.045000000042}]","","","","",""
"","","","call-function","163","938330","0.0-163.0","akq14bez","","","","","",""
"null","","","video-keyboard-response","164","941392","0.0-164.0","akq14bez","","","","null","Agent A","STIM_SET_1_REAL/1159882.bmp_pp61_L2_V1.0_veridical_freeview_isoFalse_fps144.mp4"
"","","","call-function","165","941393","0.0-165.0","akq14bez","","","","","",""
"8560.76000000001","{""pre-1"":2}","[0]","survey-likert","166","949955","0.0-166.0","akq14bez","","","","","",""
"2523.454999999958","{""pre-2"":2}","[0]","survey-likert","167","952479","0.0-167.0","akq14bez","","","","","",""
"6245.074999999953","{""pre-3"":2}","[0]","survey-likert","168","958726","0.0-168.0","akq14bez","","","","","",""
"7060.834999999963","{""post-5"":0}","[0]","survey-likert","169","965789","0.0-169.0","akq14bez","","","","","",""
"","","","call-function","170","965790","0.0-170.0","akq14bez","","","","","",""
"null","","","video-keyboard-response","171","968866","0.0-171.0","akq14bez","","","","null","Agent A","STIM_SET_1_REAL/713403.bmp_pp80_L3_V1.0_scrambled_freeview_isoFalse_fps144.mp4"
"","","","call-function","172","968866","0.0-172.0","akq14bez","","","","","",""
"7395.085000000079","{""pre-1"":1}","[0]","survey-likert","173","976262","0.0-173.0","akq14bez","","","","","",""
"7350.695000000065","{""pre-2"":1}","[0]","survey-likert","174","983614","0.0-174.0","akq14bez","","","","","",""
"2449.6750000000466","{""pre-3"":1}","[0]","survey-likert","175","986065","0.0-175.0","akq14bez","","","","","",""
"3181.2450000001118","{""post-5"":2}","[0]","survey-likert","176","989248","0.0-176.0","akq14bez","","","","","",""
"","","","call-function","177","989248","0.0-177.0","akq14bez","","","","","",""
"null","","","video-keyboard-response","178","992341","0.0-178.0","akq14bez","","","","null","Agent A","STIM_SET_1_REAL/1591954.bmp_pp62_L2_V1.0_veridical_freeview_isoFalse_fps144.mp4"
"","","","call-function","179","992341","0.0-179.0","akq14bez","","","","","",""
"12270.780000000028","{""pre-1"":0}","[0]","survey-likert","180","1004613","0.0-180.0","akq14bez","","","","","",""
"9513.474999999977","{""pre-2"":0}","[0]","survey-likert","181","1014128","0.0-181.0","akq14bez","","","","","",""
"2345.9799999999814","{""pre-3"":0}","[0]","survey-likert","182","1016475","0.0-182.0","akq14bez","","","","","",""
"4818.854999999981","{""post-5"":2}","[0]","survey-likert","183","1021295","0.0-183.0","akq14bez","","","","","",""
"","","","call-function","184","1021296","0.0-184.0","akq14bez","","","","","",""
"null","","","video-keyboard-response","185","1024363","0.0-185.0","akq14bez","","","","null","Agent A","STIM_SET_1_REAL/1592581.bmp_pp100_L3_V1.0_scrambled_freeview_isoFalse_fps144.mp4"
"","","","call-function","186","1024363","0.0-186.0","akq14bez","","","","","",""
"8451.504999999888","{""pre-1"":2}","[0]","survey-likert","187","1032816","0.0-187.0","akq14bez","","","","","",""
"8514.019999999902","{""pre-2"":2}","[0]","survey-likert","188","1041332","0.0-188.0","akq14bez","","","","","",""
"3168.810000000056","{""pre-3"":2}","[0]","survey-likert","189","1044503","0.0-189.0","akq14bez","","","","","",""
"2518.5100000000093","{""post-5"":1}","[0]","survey-likert","190","1047023","0.0-190.0","akq14bez","","","","","",""
"","","","call-function","191","1047023","0.0-191.0","akq14bez","","","","","",""
"null","","","video-keyboard-response","192","1050088","0.0-192.0","akq14bez","","","","null","Agent A","STIM_SET_1_REAL/1592619.bmp_pp56_L3_V1.0_veridical_freeview_isoFalse_fps144.mp4"
"","","","call-function","193","1050088","0.0-193.0","akq14bez","","","","","",""
"3114.9849999998696","{""pre-1"":2}","[0]","survey-likert","194","1053204","0.0-194.0","akq14bez","","","","","",""
"2595.6049999999814","{""pre-2"":2}","[0]","survey-likert","195","1055801","0.0-195.0","akq14bez","","","","","",""
"2157.3600000001024","{""pre-3"":2}","[0]","survey-likert","196","1057959","0.0-196.0","akq14bez","","","","","",""
"2327.8300000000745","{""post-5"":1}","[0]","survey-likert","197","1060288","0.0-197.0","akq14bez","","","","","",""
"","","","call-function","198","1060289","0.0-198.0","akq14bez","","","","","",""
"null","","","video-keyboard-response","199","1063367","0.0-199.0","akq14bez","","","","null","Agent A","STIM_SET_1_REAL/713017.bmp_pp152_L2_V1.0_veridical_freeview_isoFalse_fps144.mp4"
"","","","call-function","200","1063367","0.0-200.0","akq14bez","","","","","",""
"2931.3950000000186","{""pre-1"":2}","[0]","survey-likert","201","1066299","0.0-201.0","akq14bez","","","","","",""
"1872.8700000001118","{""pre-2"":2}","[0]","survey-likert","202","1068173","0.0-202.0","akq14bez","","","","","",""
"1540.6499999999069","{""pre-3"":2}","[0]","survey-likert","203","1069715","0.0-203.0","akq14bez","","","","","",""
"2919.1350000000093","{""post-5"":1}","[0]","survey-likert","204","1072636","0.0-204.0","akq14bez","","","","","",""
"","","","call-function","205","1072636","0.0-205.0","akq14bez","","","","","",""
"null","","","video-keyboard-response","206","1075710","0.0-206.0","akq14bez","","","","null","Agent A","STIM_SET_1_REAL/1591876.bmp_pp63_L1_V1.0_veridical_freeview_isoFalse_fps144.mp4"
"","","","call-function","207","1075711","0.0-207.0","akq14bez","","","","","",""
"7021.910000000149","{""pre-1"":2}","[0]","survey-likert","208","1082734","0.0-208.0","akq14bez","","","","","",""
"2141.6999999999534","{""pre-2"":2}","[0]","survey-likert","209","1084878","0.0-209.0","akq14bez","","","","","",""
"1460.1049999999814","{""pre-3"":2}","[0]","survey-likert","210","1086340","0.0-210.0","akq14bez","","","","","",""
"3352.8700000001118","{""post-5"":1}","[0]","survey-likert","211","1089694","0.0-211.0","akq14bez","","","","","",""
"","","","call-function","212","1089694","0.0-212.0","akq14bez","","","","","",""
"null","","","video-keyboard-response","213","1092771","0.0-213.0","akq14bez","","","","null","Agent A","STIM_SET_1_REAL/713760.bmp_pp81_L1_V1.0_veridical_freeview_isoFalse_fps144.mp4"
"","","","call-function","214","1092771","0.0-214.0","akq14bez","","","","","",""
"6886.185000000056","{""pre-1"":1}","[0]","survey-likert","215","1099658","0.0-215.0","akq14bez","","","","","",""
"4368.074999999953","{""pre-2"":1}","[0]","survey-likert","216","1104028","0.0-216.0","akq14bez","","","","","",""
"2460.685000000056","{""pre-3"":1}","[0]","survey-likert","217","1106489","0.0-217.0","akq14bez","","","","","",""
"3458.945000000065","{""post-5"":2}","[0]","survey-likert","218","1109950","0.0-218.0","akq14bez","","","","","",""
"","","","call-function","219","1109950","0.0-219.0","akq14bez","","","","","",""
"null","","","video-keyboard-response","220","1113025","0.0-220.0","akq14bez","","","","null","Agent A","STIM_SET_1_REAL/713684.bmp_pp85_L3_V1.0_veridical_freeview_isoFalse_fps144.mp4"
"","","","call-function","221","1113025","0.0-221.0","akq14bez","","","","","",""
"10510.405000000028","{""pre-1"":1}","[0]","survey-likert","222","1123537","0.0-222.0","akq14bez","","","","","",""
"4372.834999999963","{""pre-2"":1}","[0]","survey-likert","223","1127910","0.0-223.0","akq14bez","","","","","",""
"4291.625","{""pre-3"":1}","[0]","survey-likert","224","1132203","0.0-224.0","akq14bez","","","","","",""
"2880.4300000001676","{""post-5"":2}","[0]","survey-likert","225","1135085","0.0-225.0","akq14bez","","","","","",""
"","","","call-function","226","1135085","0.0-226.0","akq14bez","","","","","",""
"null","","","video-keyboard-response","227","1138192","0.0-227.0","akq14bez","","","","null","Agent A","STIM_SET_1_REAL/713211.bmp_pp100_L3_V1.0_scrambled_freeview_isoFalse_fps144.mp4"
"","","","call-function","228","1138193","0.0-228.0","akq14bez","","","","","",""
"12718.630000000121","{""pre-1"":2}","[0]","survey-likert","229","1150912","0.0-229.0","akq14bez","","","","","",""
"12788.36499999999","{""pre-2"":2}","[0]","survey-likert","230","1163703","0.0-230.0","akq14bez","","","","","",""
"13930.919999999925","{""pre-3"":2}","[0]","survey-likert","231","1177636","0.0-231.0","akq14bez","","","","","",""
"2822.3600000001024","{""post-5"":1}","[0]","survey-likert","232","1180460","0.0-232.0","akq14bez","","","","","",""
"","","","call-function","233","1180461","0.0-233.0","akq14bez","","","","","",""
"null","","","video-keyboard-response","234","1183537","0.0-234.0","akq14bez","","","","null","Agent A","STIM_SET_1_REAL/713593.bmp_pp64_L1_V1.0_scrambled_freeview_isoFalse_fps144.mp4"
"","","","call-function","235","1183537","0.0-235.0","akq14bez","","","","","",""
"3069.320000000065","{""pre-1"":1}","[0]","survey-likert","236","1186608","0.0-236.0","akq14bez","","","","","",""
"4820.504999999888","{""pre-2"":1}","[0]","survey-likert","237","1191430","0.0-237.0","akq14bez","","","","","",""
"2085.4250000000466","{""pre-3"":1}","[0]","survey-likert","238","1193516","0.0-238.0","akq14bez","","","","","",""
"2908.25","{""post-5"":2}","[0]","survey-likert","239","1196425","0.0-239.0","akq14bez","","","","","",""
"","","","call-function","240","1196426","0.0-240.0","akq14bez","","","","","",""
"null","","","video-keyboard-response","241","1199487","0.0-241.0","akq14bez","","","","null","Agent A","STIM_SET_1_REAL/1159446.bmp_pp60_L3_V1.0_scrambled_freeview_isoFalse_fps144.mp4"
"","","","call-function","242","1199487","0.0-242.0","akq14bez","","","","","",""
"8744.269999999786","{""pre-1"":2}","[0]","survey-likert","243","1208232","0.0-243.0","akq14bez","","","","","",""
"3570.024999999907","{""pre-2"":2}","[0]","survey-likert","244","1211803","0.0-244.0","akq14bez","","","","","",""
"1887.9850000001024","{""pre-3"":2}","[0]","survey-likert","245","1213693","0.0-245.0","akq14bez","","","","","",""
"2276.6049999999814","{""post-5"":1}","[0]","survey-likert","246","1215970","0.0-246.0","akq14bez","","","","","",""
"","","","call-function","247","1215971","0.0-247.0","akq14bez","","","","","",""
"null","","","video-keyboard-response","248","1219045","0.0-248.0","akq14bez","","","","null","Agent A","STIM_SET_1_REAL/1591876.bmp_pp63_L1_V1.0_scrambled_freeview_isoFalse_fps144.mp4"
"","","","call-function","249","1219047","0.0-249.0","akq14bez","","","","","",""
"18320.459999999963","{""pre-1"":2}","[0]","survey-likert","250","1237369","0.0-250.0","akq14bez","","","","","",""
"3802.9250000000466","{""pre-2"":2}","[0]","survey-likert","251","1241172","0.0-251.0","akq14bez","","","","","",""
"4716.895000000019","{""pre-3"":2}","[0]","survey-likert","252","1245890","0.0-252.0","akq14bez","","","","","",""
"7583.594999999972","{""post-5"":1}","[0]","survey-likert","253","1253476","0.0-253.0","akq14bez","","","","","",""
"","","","call-function","254","1253477","0.0-254.0","akq14bez","","","","","",""
"null","","","video-keyboard-response","255","1256551","0.0-255.0","akq14bez","","","","null","Agent A","STIM_SET_1_REAL/713371.bmp_pp68_L1_V1.0_scrambled_freeview_isoFalse_fps144.mp4"
"","","","call-function","256","1256551","0.0-256.0","akq14bez","","","","","",""
"4253.820000000065","{""pre-1"":2}","[0]","survey-likert","257","1260807","0.0-257.0","akq14bez","","","","","",""
"1585.1200000001118","{""pre-2"":2}","[0]","survey-likert","258","1262393","0.0-258.0","akq14bez","","","","","",""
"1646.7950000001583","{""pre-3"":2}","[0]","survey-likert","259","1264041","0.0-259.0","akq14bez","","","","","",""
"4904.435000000056","{""post-5"":1}","[0]","survey-likert","260","1268947","0.0-260.0","akq14bez","","","","","",""
"","","","call-function","261","1268947","0.0-261.0","akq14bez","","","","","",""
"null","","","video-keyboard-response","262","1272034","0.0-262.0","akq14bez","","","","null","Agent A","STIM_SET_1_REAL/1159777.bmp_pp77_L3_V1.0_veridical_freeview_isoFalse_fps144.mp4"
"","","","call-function","263","1272035","0.0-263.0","akq14bez","","","","","",""
"2326.7900000000373","{""pre-1"":2}","[0]","survey-likert","264","1274363","0.0-264.0","akq14bez","","","","","",""
"1804.6950000000652","{""pre-2"":2}","[0]","survey-likert","265","1276169","0.0-265.0","akq14bez","","","","","",""
"4726.050000000047","{""pre-3"":2}","[0]","survey-likert","266","1280896","0.0-266.0","akq14bez","","","","","",""
"3356.554999999935","{""post-5"":1}","[0]","survey-likert","267","1284254","0.0-267.0","akq14bez","","","","","",""
"","","","call-function","268","1284254","0.0-268.0","akq14bez","","","","","",""
"null","","","video-keyboard-response","269","1287314","0.0-269.0","akq14bez","","","","null","Agent A","STIM_SET_1_REAL/713089.bmp_pp60_L3_V1.0_scrambled_freeview_isoFalse_fps144.mp4"
"","","","call-function","270","1287314","0.0-270.0","akq14bez","","","","","",""
"2574.6100000001024","{""pre-1"":2}","[0]","survey-likert","271","1289890","0.0-271.0","akq14bez","","","","","",""
"10757.594999999972","{""pre-2"":3}","[0]","survey-likert","272","1300648","0.0-272.0","akq14bez","","","","","",""
"2291.189999999944","{""pre-3"":2}","[0]","survey-likert","273","1302941","0.0-273.0","akq14bez","","","","","",""
"3414.435000000056","{""post-5"":0}","[0]","survey-likert","274","1306357","0.0-274.0","akq14bez","","","","","",""
"","","","call-function","275","1306357","0.0-275.0","akq14bez","","","","","",""
"null","","","video-keyboard-response","276","1309434","0.0-276.0","akq14bez","","","","null","Agent A","STIM_SET_1_REAL/1592807.bmp_pp68_L1_V1.0_scrambled_freeview_isoFalse_fps144.mp4"
"","","","call-function","277","1309434","0.0-277.0","akq14bez","","","","","",""
"11617.354999999981","{""pre-1"":2}","[0]","survey-likert","278","1321053","0.0-278.0","akq14bez","","","","","",""
"9199.429999999935","{""pre-2"":1}","[0]","survey-likert","279","1330254","0.0-279.0","akq14bez","","","","","",""
"4664.820000000065","{""pre-3"":1}","[0]","survey-likert","280","1334921","0.0-280.0","akq14bez","","","","","",""
"5992.26500000013","{""post-5"":1}","[0]","survey-likert","281","1340915","0.0-281.0","akq14bez","","","","","",""
"","","","call-function","282","1340916","0.0-282.0","akq14bez","","","","","",""
"null","","","video-keyboard-response","283","1343978","0.0-283.0","akq14bez","","","","null","Agent A","STIM_SET_1_REAL/497950.bmp_pp151_L1_V1.0_scrambled_freeview_isoFalse_fps144.mp4"
"","","","call-function","284","1343978","0.0-284.0","akq14bez","","","","","",""
"6964.3300000000745","{""pre-1"":2}","[0]","survey-likert","285","1350944","0.0-285.0","akq14bez","","","","","",""
"6556.834999999963","{""pre-2"":2}","[0]","survey-likert","286","1357502","0.0-286.0","akq14bez","","","","","",""
"1748.8149999999441","{""pre-3"":2}","[0]","survey-likert","287","1359252","0.0-287.0","akq14bez","","","","","",""
"2108.7099999999627","{""post-5"":1}","[0]","survey-likert","288","1361362","0.0-288.0","akq14bez","","","","","",""
"","","","call-function","289","1361362","0.0-289.0","akq14bez","","","","","",""
"null","","","video-keyboard-response","290","1364435","0.0-290.0","akq14bez","","","","null","Agent A","STIM_SET_1_REAL/713135.bmp_pp54_L2_V1.0_scrambled_freeview_isoFalse_fps144.mp4"
"","","","call-function","291","1364435","0.0-291.0","akq14bez","","","","","",""
"3993.560000000056","{""pre-1"":1}","[0]","survey-likert","292","1368430","0.0-292.0","akq14bez","","","","","",""
"2592.9200000001583","{""pre-2"":1}","[0]","survey-likert","293","1371024","0.0-293.0","akq14bez","","","","","",""
"8233.074999999953","{""pre-3"":1}","[0]","survey-likert","294","1379258","0.0-294.0","akq14bez","","","","","",""
"2203.439999999944","{""post-5"":2}","[0]","survey-likert","295","1381462","0.0-295.0","akq14bez","","","","","",""
"","","","call-function","296","1381463","0.0-296.0","akq14bez","","","","","",""
"null","","","video-keyboard-response","297","1384541","0.0-297.0","akq14bez","","","","null","Agent A","STIM_SET_1_REAL/1159447.bmp_pp70_L2_V1.0_veridical_freeview_isoFalse_fps144.mp4"
"","","","call-function","298","1384541","0.0-298.0","akq14bez","","","","","",""
"2655.469999999972","{""pre-1"":2}","[0]","survey-likert","299","1387198","0.0-299.0","akq14bez","","","","","",""
"2076.9799999999814","{""pre-2"":2}","[0]","survey-likert","300","1389276","0.0-300.0","akq14bez","","","","","",""
"2890.9899999999907","{""pre-3"":2}","[0]","survey-likert","301","1392168","0.0-301.0","akq14bez","","","","","",""
"2335.9599999999627","{""post-5"":1}","[0]","survey-likert","302","1394505","0.0-302.0","akq14bez","","","","","",""
"26188.405000000028","","","instructions","303","1420694","0.0-303.0","akq14bez","[{""page_index"":0,""viewing_time"":4231.380000000121},{""page_index"":1,""viewing_time"":20744.189999999944},{""page_index"":2,""viewing_time"":1212.125}]","","","","",""
"4484.885000000009","","","instructions","304","1425180","0.0-304.0","akq14bez","[{""page_index"":0,""viewing_time"":1701.3149999999441},{""page_index"":1,""viewing_time"":1831.969999999972},{""page_index"":2,""viewing_time"":951.4799999999814}]","","","","",""
"","","","call-function","305","1425181","0.0-305.0","akq14bez","","","","","",""
"null","","","video-keyboard-response","306","1428271","0.0-306.0","akq14bez","","","","null","Agent A","STIM_SET_1_REAL/1159440.bmp_pp98_L1_V1.0_veridical_freeview_isoFalse_fps144.mp4"
"","","","call-function","307","1428271","0.0-307.0","akq14bez","","","","","",""
"6701.030000000028","{""pre-1"":2}","[0]","survey-likert","308","1434973","0.0-308.0","akq14bez","","","","","",""
"3038.475000000093","{""pre-2"":2}","[0]","survey-likert","309","1438013","0.0-309.0","akq14bez","","","","","",""
"2101.9000000001397","{""pre-3"":2}","[0]","survey-likert","310","1440116","0.0-310.0","akq14bez","","","","","",""
"2124.9200000001583","{""post-5"":1}","[0]","survey-likert","311","1442242","0.0-311.0","akq14bez","","","","","",""
"","","","call-function","312","1442243","0.0-312.0","akq14bez","","","","","",""
"null","","","video-keyboard-response","313","1445303","0.0-313.0","akq14bez","","","","null","Agent A","STIM_SET_1_REAL/1593035.bmp_pp94_L2_V1.0_veridical_freeview_isoFalse_fps144.mp4"
"","","","call-function","314","1445304","0.0-314.0","akq14bez","","","","","",""
"12786.695000000065","{""pre-1"":2}","[0]","survey-likert","315","1458092","0.0-315.0","akq14bez","","","","","",""
"17758.20499999984","{""pre-2"":1}","[0]","survey-likert","316","1475851","0.0-316.0","akq14bez","","","","","",""
"2976.7349999998696","{""pre-3"":1}","[0]","survey-likert","317","1478829","0.0-317.0","akq14bez","","","","","",""
"10379.98499999987","{""post-5"":2}","[0]","survey-likert","318","1489210","0.0-318.0","akq14bez","","","","","",""
"","","","call-function","319","1489210","0.0-319.0","akq14bez","","","","","",""
"null","","","video-keyboard-response","320","1492273","0.0-320.0","akq14bez","","","","null","Agent A","STIM_SET_1_REAL/1159882.bmp_pp61_L2_V1.0_scrambled_freeview_isoFalse_fps144.mp4"
"","","","call-function","321","1492274","0.0-321.0","akq14bez","","","","","",""
"4813.315000000177","{""pre-1"":2}","[0]","survey-likert","322","1497088","0.0-322.0","akq14bez","","","","","",""
"1634.7900000000373","{""pre-2"":2}","[0]","survey-likert","323","1498724","0.0-323.0","akq14bez","","","","","",""
"6192.820000000065","{""pre-3"":2}","[0]","survey-likert","324","1504918","0.0-324.0","akq14bez","","","","","",""
"2942.094999999972","{""post-5"":1}","[0]","survey-likert","325","1507861","0.0-325.0","akq14bez","","","","","",""
"","","","call-function","326","1507861","0.0-326.0","akq14bez","","","","","",""
"null","","","video-keyboard-response","327","1510922","0.0-327.0","akq14bez","","","","null","Agent A","STIM_SET_1_REAL/713681.bmp_pp86_L2_V1.0_veridical_freeview_isoFalse_fps144.mp4"
"","","","call-function","328","1510922","0.0-328.0","akq14bez","","","","","",""
"6939.969999999972","{""pre-1"":0}","[0]","survey-likert","329","1517864","0.0-329.0","akq14bez","","","","","",""
"7816.745000000112","{""pre-2"":0}","[0]","survey-likert","330","1525683","0.0-330.0","akq14bez","","","","","",""
"3955.3299999998417","{""pre-3"":0}","[0]","survey-likert","331","1529641","0.0-331.0","akq14bez","","","","","",""
"4375.925000000047","{""post-5"":2}","[0]","survey-likert","332","1534018","0.0-332.0","akq14bez","","","","","",""
"","","","call-function","333","1534019","0.0-333.0","akq14bez","","","","","",""
"null","","","video-keyboard-response","334","1537096","0.0-334.0","akq14bez","","","","null","Agent A","STIM_SET_1_REAL/498155.bmp_pp61_L2_V1.0_veridical_freeview_isoFalse_fps144.mp4"
"","","","call-function","335","1537097","0.0-335.0","akq14bez","","","","","",""
"7040.530000000028","{""pre-1"":2}","[0]","survey-likert","336","1544138","0.0-336.0","akq14bez","","","","","",""
"2342.9550000000745","{""pre-2"":2}","[0]","survey-likert","337","1546483","0.0-337.0","akq14bez","","","","","",""
"1751.7649999998976","{""pre-3"":2}","[0]","survey-likert","338","1548236","0.0-338.0","akq14bez","","","","","",""
"3126.344999999972","{""post-5"":0}","[0]","survey-likert","339","1551364","0.0-339.0","akq14bez","","","","","",""
"","","","call-function","340","1551364","0.0-340.0","akq14bez","","","","","",""
"null","","","video-keyboard-response","341","1554427","0.0-341.0","akq14bez","","","","null","Agent A","STIM_SET_1_REAL/1592133.bmp_pp75_L1_V1.0_scrambled_freeview_isoFalse_fps144.mp4"
"","","","call-function","342","1554427","0.0-342.0","akq14bez","","","","","",""
"9181.584999999963","{""pre-1"":1}","[0]","survey-likert","343","1563610","0.0-343.0","akq14bez","","","","","",""
"4669.360000000102","{""pre-2"":1}","[0]","survey-likert","344","1568281","0.0-344.0","akq14bez","","","","","",""
"1635.6450000000186","{""pre-3"":1}","[0]","survey-likert","345","1569918","0.0-345.0","akq14bez","","","","","",""
"2020.9199999999255","{""post-5"":2}","[0]","survey-likert","346","1571940","0.0-346.0","akq14bez","","","","","",""
"","","","call-function","347","1571940","0.0-347.0","akq14bez","","","","","",""
"null","","","video-keyboard-response","348","1575015","0.0-348.0","akq14bez","","","","null","Agent A","STIM_SET_1_REAL/713749.bmp_pp88_L2_V1.0_scrambled_freeview_isoFalse_fps144.mp4"
"","","","call-function","349","1575016","0.0-349.0","akq14bez","","","","","",""
"3795","{""pre-1"":2}","[0]","survey-likert","350","1578812","0.0-350.0","akq14bez","","","","","",""
"2980.8899999998976","{""pre-2"":2}","[0]","survey-likert","351","1581794","0.0-351.0","akq14bez","","","","","",""
"2069.9000000001397","{""pre-3"":2}","[0]","survey-likert","352","1583865","0.0-352.0","akq14bez","","","","","",""
"14200.439999999944","{""post-5"":0}","[0]","survey-likert","353","1598067","0.0-353.0","akq14bez","","","","","",""
"","","","call-function","354","1598068","0.0-354.0","akq14bez","","","","","",""
"null","","","video-keyboard-response","355","1601146","0.0-355.0","akq14bez","","","","null","Agent A","STIM_SET_1_REAL/713666.bmp_pp97_L3_V1.0_scrambled_freeview_isoFalse_fps144.mp4"
"","","","call-function","356","1601147","0.0-356.0","akq14bez","","","","","",""
"4388.26500000013","{""pre-1"":2}","[0]","survey-likert","357","1605536","0.0-357.0","akq14bez","","","","","",""
"3557.6149999999907","{""pre-2"":2}","[0]","survey-likert","358","1609095","0.0-358.0","akq14bez","","","","","",""
"2358.3799999998882","{""pre-3"":2}","[0]","survey-likert","359","1611455","0.0-359.0","akq14bez","","","","","",""
"2721.4300000001676","{""post-5"":1}","[0]","survey-likert","360","1614177","0.0-360.0","akq14bez","","","","","",""
"","","","call-function","361","1614178","0.0-361.0","akq14bez","","","","","",""
"null","","","video-keyboard-response","362","1617244","0.0-362.0","akq14bez","","","","null","Agent A","STIM_SET_1_REAL/1159829.bmp_pp91_L3_V1.0_veridical_freeview_isoFalse_fps144.mp4"
"","","","call-function","363","1617245","0.0-363.0","akq14bez","","","","","",""
"7476.155000000028","{""pre-1"":2}","[0]","survey-likert","364","1624722","0.0-364.0","akq14bez","","","","","",""
"1827.4650000000838","{""pre-2"":2}","[0]","survey-likert","365","1626551","0.0-365.0","akq14bez","","","","","",""
"1717.0400000000373","{""pre-3"":2}","[0]","survey-likert","366","1628269","0.0-366.0","akq14bez","","","","","",""
"2256.940000000177","{""post-5"":1}","[0]","survey-likert","367","1630527","0.0-367.0","akq14bez","","","","","",""
"","","","call-function","368","1630527","0.0-368.0","akq14bez","","","","","",""
"null","","","video-keyboard-response","369","1633596","0.0-369.0","akq14bez","","","","null","Agent A","STIM_SET_1_REAL/1159768.bmp_pp89_L1_V1.0_veridical_freeview_isoFalse_fps144.mp4"
"","","","call-function","370","1633597","0.0-370.0","akq14bez","","","","","",""
"3501.685000000056","{""pre-1"":2}","[0]","survey-likert","371","1637099","0.0-371.0","akq14bez","","","","","",""
"1528.7749999999069","{""pre-2"":2}","[0]","survey-likert","372","1638629","0.0-372.0","akq14bez","","","","","",""
"1537.8199999998324","{""pre-3"":2}","[0]","survey-likert","373","1640168","0.0-373.0","akq14bez","","","","","",""
"3087.024999999907","{""post-5"":1}","[0]","survey-likert","374","1643256","0.0-374.0","akq14bez","","","","","",""
"","","","call-function","375","1643257","0.0-375.0","akq14bez","","","","","",""
"null","","","video-keyboard-response","376","1646344","0.0-376.0","akq14bez","","","","null","Agent A","STIM_SET_1_REAL/1159813.bmp_pp79_L2_V1.0_veridical_freeview_isoFalse_fps144.mp4"
"","","","call-function","377","1646344","0.0-377.0","akq14bez","","","","","",""
"5604.104999999981","{""pre-1"":2}","[0]","survey-likert","378","1651949","0.0-378.0","akq14bez","","","","","",""
"2652.7299999999814","{""pre-2"":2}","[0]","survey-likert","379","1654603","0.0-379.0","akq14bez","","","","","",""
"2194.005000000121","{""pre-3"":2}","[0]","survey-likert","380","1656798","0.0-380.0","akq14bez","","","","","",""
"5164.73499999987","{""post-5"":0}","[0]","survey-likert","381","1661964","0.0-381.0","akq14bez","","","","","",""
"","","","call-function","382","1661966","0.0-382.0","akq14bez","","","","","",""
"null","","","video-keyboard-response","383","1665037","0.0-383.0","akq14bez","","","","null","Agent A","STIM_SET_1_REAL/713681.bmp_pp86_L2_V1.0_scrambled_freeview_isoFalse_fps144.mp4"
"","","","call-function","384","1665038","0.0-384.0","akq14bez","","","","","",""
"6009.204999999842","{""pre-1"":0}","[0]","survey-likert","385","1671049","0.0-385.0","akq14bez","","","","","",""
"11139.584999999963","{""pre-2"":0}","[0]","survey-likert","386","1682189","0.0-386.0","akq14bez","","","","","",""
"2299.409999999916","{""pre-3"":0}","[0]","survey-likert","387","1684490","0.0-387.0","akq14bez","","","","","",""
"2006.8850000000093","{""post-5"":2}","[0]","survey-likert","388","1686498","0.0-388.0","akq14bez","","","","","",""
"","","","call-function","389","1686499","0.0-389.0","akq14bez","","","","","",""
"null","","","video-keyboard-response","390","1689560","0.0-390.0","akq14bez","","","","null","Agent A","STIM_SET_1_REAL/285994.bmp_pp92_L3_V1.0_veridical_freeview_isoFalse_fps144.mp4"
"","","","call-function","391","1689560","0.0-391.0","akq14bez","","","","","",""
"9148.665000000037","{""pre-1"":2}","[0]","survey-likert","392","1698710","0.0-392.0","akq14bez","","","","","",""
"1925.755000000121","{""pre-2"":2}","[0]","survey-likert","393","1700637","0.0-393.0","akq14bez","","","","","",""
"1663.719999999972","{""pre-3"":2}","[0]","survey-likert","394","1702302","0.0-394.0","akq14bez","","","","","",""
"6655.964999999851","{""post-5"":1}","[0]","survey-likert","395","1708959","0.0-395.0","akq14bez","","","","","",""
"","","","call-function","396","1708960","0.0-396.0","akq14bez","","","","","",""
"null","","","video-keyboard-response","397","1712034","0.0-397.0","akq14bez","","","","null","Agent A","STIM_SET_1_REAL/498253.bmp_pp67_L2_V1.0_scrambled_freeview_isoFalse_fps144.mp4"
"","","","call-function","398","1712035","0.0-398.0","akq14bez","","","","","",""
"5987.540000000037","{""pre-1"":2}","[0]","survey-likert","399","1718023","0.0-399.0","akq14bez","","","","","",""
"3242.6049999999814","{""pre-2"":2}","[0]","survey-likert","400","1721267","0.0-400.0","akq14bez","","","","","",""
"1892.219999999972","{""pre-3"":2}","[0]","survey-likert","401","1723160","0.0-401.0","akq14bez","","","","","",""
"1607.8799999998882","{""post-5"":1}","[0]","survey-likert","402","1724769","0.0-402.0","akq14bez","","","","","",""
"","","","call-function","403","1724770","0.0-403.0","akq14bez","","","","","",""
"null","","","video-keyboard-response","404","1727836","0.0-404.0","akq14bez","","","","null","Agent A","STIM_SET_1_REAL/1592286.bmp_pp52_L1_V1.0_scrambled_freeview_isoFalse_fps144.mp4"
"","","","call-function","405","1727837","0.0-405.0","akq14bez","","","","","",""
"4839.469999999972","{""pre-1"":2}","[0]","survey-likert","406","1732678","0.0-406.0","akq14bez","","","","","",""
"3970.4150000000373","{""pre-2"":1}","[0]","survey-likert","407","1736650","0.0-407.0","akq14bez","","","","","",""
"1524.4950000001118","{""pre-3"":1}","[0]","survey-likert","408","1738176","0.0-408.0","akq14bez","","","","","",""
"5533.40000000014","{""post-5"":1}","[0]","survey-likert","409","1743710","0.0-409.0","akq14bez","","","","","",""
"","","","call-function","410","1743711","0.0-410.0","akq14bez","","","","","",""
"null","","","video-keyboard-response","411","1746790","0.0-411.0","akq14bez","","","","null","Agent A","STIM_SET_1_REAL/1159675.bmp_pp77_L3_V1.0_scrambled_freeview_isoFalse_fps144.mp4"
"","","","call-function","412","1746791","0.0-412.0","akq14bez","","","","","",""
"4560.610000000102","{""pre-1"":2}","[0]","survey-likert","413","1751352","0.0-413.0","akq14bez","","","","","",""
"2576.1400000001304","{""pre-2"":1}","[0]","survey-likert","414","1753930","0.0-414.0","akq14bez","","","","","",""
"1817.1750000000466","{""pre-3"":1}","[0]","survey-likert","415","1755748","0.0-415.0","akq14bez","","","","","",""
"4468.27500000014","{""post-5"":1}","[0]","survey-likert","416","1760218","0.0-416.0","akq14bez","","","","","",""
"","","","call-function","417","1760218","0.0-417.0","akq14bez","","","","","",""
"null","","","video-keyboard-response","418","1763293","0.0-418.0","akq14bez","","","","null","Agent A","STIM_SET_1_REAL/1592804.bmp_pp91_L3_V1.0_veridical_freeview_isoFalse_fps144.mp4"
"","","","call-function","419","1763294","0.0-419.0","akq14bez","","","","","",""
"3382.554999999935","{""pre-1"":2}","[0]","survey-likert","420","1766677","0.0-420.0","akq14bez","","","","","",""
"5770.969999999972","{""pre-2"":2}","[0]","survey-likert","421","1772449","0.0-421.0","akq14bez","","","","","",""
"3668.4499999999534","{""pre-3"":2}","[0]","survey-likert","422","1776119","0.0-422.0","akq14bez","","","","","",""
"2187.4449999998324","{""post-5"":1}","[0]","survey-likert","423","1778307","0.0-423.0","akq14bez","","","","","",""
"","","","call-function","424","1778308","0.0-424.0","akq14bez","","","","","",""
"null","","","video-keyboard-response","425","1781386","0.0-425.0","akq14bez","","","","null","Agent A","STIM_SET_1_REAL/1592372.bmp_pp76_L1_V1.0_scrambled_freeview_isoFalse_fps144.mp4"
"","","","call-function","426","1781386","0.0-426.0","akq14bez","","","","","",""
"5802.470000000205","{""pre-1"":2}","[0]","survey-likert","427","1787190","0.0-427.0","akq14bez","","","","","",""
"2170.5999999998603","{""pre-2"":0}","[0]","survey-likert","428","1789361","0.0-428.0","akq14bez","","","","","",""
"1368.9650000000838","{""pre-3"":0}","[0]","survey-likert","429","1790731","0.0-429.0","akq14bez","","","","","",""
"2382.9300000001676","{""post-5"":1}","[0]","survey-likert","430","1793115","0.0-430.0","akq14bez","","","","","",""
"","","","call-function","431","1793116","0.0-431.0","akq14bez","","","","","",""
"null","","","video-keyboard-response","432","1796183","0.0-432.0","akq14bez","","","","null","Agent A","STIM_SET_1_REAL/1592362.bmp_pp95_L2_V1.0_scrambled_freeview_isoFalse_fps144.mp4"
"","","","call-function","433","1796184","0.0-433.0","akq14bez","","","","","",""
"3068.054999999935","{""pre-1"":2}","[0]","survey-likert","434","1799253","0.0-434.0","akq14bez","","","","","",""
"2419.304999999935","{""pre-2"":2}","[0]","survey-likert","435","1801675","0.0-435.0","akq14bez","","","","","",""
"1148.9899999999907","{""pre-3"":2}","[0]","survey-likert","436","1802825","0.0-436.0","akq14bez","","","","","",""
"4479.324999999953","{""post-5"":0}","[0]","survey-likert","437","1807307","0.0-437.0","akq14bez","","","","","",""
"","","","call-function","438","1807308","0.0-438.0","akq14bez","","","","","",""
"null","","","video-keyboard-response","439","1810405","0.0-439.0","akq14bez","","","","null","Agent A","STIM_SET_1_REAL/713684.bmp_pp85_L3_V1.0_scrambled_freeview_isoFalse_fps144.mp4"
"","","","call-function","440","1810406","0.0-440.0","akq14bez","","","","","",""
"5181.315000000177","{""pre-1"":1}","[0]","survey-likert","441","1815588","0.0-441.0","akq14bez","","","","","",""
"7904.185000000056","{""pre-2"":1}","[0]","survey-likert","442","1823494","0.0-442.0","akq14bez","","","","","",""
"2680.8799999998882","{""pre-3"":1}","[0]","survey-likert","443","1826176","0.0-443.0","akq14bez","","","","","",""
"3752.4199999999255","{""post-5"":2}","[0]","survey-likert","444","1829929","0.0-444.0","akq14bez","","","","","",""
"50612.304999999935","","","instructions","445","1880542","0.0-445.0","akq14bez","[{""page_index"":0,""viewing_time"":4458.199999999953},{""page_index"":1,""viewing_time"":44132.955000000075},{""page_index"":2,""viewing_time"":2020.9749999998603}]","","","","",""
"6725.414999999804","","","instructions","446","1887268","0.0-446.0","akq14bez","[{""page_index"":0,""viewing_time"":1168.5499999998137},{""page_index"":1,""viewing_time"":4691.910000000149},{""page_index"":2,""viewing_time"":864.8549999999814}]","","","","",""
"","","","call-function","447","1887269","0.0-447.0","akq14bez","","","","","",""
"null","","","video-keyboard-response","448","1890331","0.0-448.0","akq14bez","","","","null","Agent A","STIM_SET_1_REAL/1592817.bmp_pp55_L3_V1.0_veridical_freeview_isoFalse_fps144.mp4"
"","","","call-function","449","1890332","0.0-449.0","akq14bez","","","","","",""
"2912.9899999999907","{""pre-1"":2}","[0]","survey-likert","450","1893246","0.0-450.0","akq14bez","","","","","",""
"1792.4749999998603","{""pre-2"":2}","[0]","survey-likert","451","1895039","0.0-451.0","akq14bez","","","","","",""
"1509.8649999999907","{""pre-3"":2}","[0]","survey-likert","452","1896550","0.0-452.0","akq14bez","","","","","",""
"2649.3599999998696","{""post-5"":1}","[0]","survey-likert","453","1899201","0.0-453.0","akq14bez","","","","","",""
"","","","call-function","454","1899201","0.0-454.0","akq14bez","","","","","",""
"null","","","video-keyboard-response","455","1902289","0.0-455.0","akq14bez","","","","null","Agent A","STIM_SET_1_REAL/1159813.bmp_pp79_L2_V1.0_scrambled_freeview_isoFalse_fps144.mp4"
"","","","call-function","456","1902290","0.0-456.0","akq14bez","","","","","",""
"5530.060000000056","{""pre-1"":3}","[0]","survey-likert","457","1907821","0.0-457.0","akq14bez","","","","","",""
"2045.4250000000466","{""pre-2"":2}","[0]","survey-likert","458","1909867","0.0-458.0","akq14bez","","","","","",""
"1356.1350000000093","{""pre-3"":2}","[0]","survey-likert","459","1911224","0.0-459.0","akq14bez","","","","","",""
"2038.9350000000559","{""post-5"":0}","[0]","survey-likert","460","1913265","0.0-460.0","akq14bez","","","","","",""
"","","","call-function","461","1913265","0.0-461.0","akq14bez","","","","","",""
"null","","","video-keyboard-response","462","1916364","0.0-462.0","akq14bez","","","","null","Agent A","STIM_SET_1_REAL/1592934.bmp_pp63_L1_V1.0_scrambled_freeview_isoFalse_fps144.mp4"
"","","","call-function","463","1916365","0.0-463.0","akq14bez","","","","","",""
"3869.6400000001304","{""pre-1"":2}","[0]","survey-likert","464","1920235","0.0-464.0","akq14bez","","","","","",""
"5005.715000000084","{""pre-2"":2}","[0]","survey-likert","465","1925243","0.0-465.0","akq14bez","","","","","",""
"2034.3349999999627","{""pre-3"":2}","[0]","survey-likert","466","1927279","0.0-466.0","akq14bez","","","","","",""
"4418.985000000102","{""post-5"":0}","[0]","survey-likert","467","1931700","0.0-467.0","akq14bez","","","","","",""
"","","","call-function","468","1931700","0.0-468.0","akq14bez","","","","","",""
"null","","","video-keyboard-response","469","1934766","0.0-469.0","akq14bez","","","","null","Agent A","STIM_SET_1_REAL/1159621.bmp_pp92_L3_V1.0_scrambled_freeview_isoFalse_fps144.mp4"
"","","","call-function","470","1934766","0.0-470.0","akq14bez","","","","","",""
"3711.695000000065","{""pre-1"":1}","[0]","survey-likert","471","1938479","0.0-471.0","akq14bez","","","","","",""
"4181.135000000009","{""pre-2"":1}","[0]","survey-likert","472","1942661","0.0-472.0","akq14bez","","","","","",""
"1940.0999999998603","{""pre-3"":1}","[0]","survey-likert","473","1944603","0.0-473.0","akq14bez","","","","","",""
"5184.735000000102","{""post-5"":2}","[0]","survey-likert","474","1949789","0.0-474.0","akq14bez","","","","","",""
"","","","call-function","475","1949789","0.0-475.0","akq14bez","","","","","",""
"null","","","video-keyboard-response","476","1952865","0.0-476.0","akq14bez","","","","null","Agent A","STIM_SET_1_REAL/713620.bmp_pp65_L3_V1.0_scrambled_freeview_isoFalse_fps144.mp4"
"","","","call-function","477","1952865","0.0-477.0","akq14bez","","","","","",""
"2665.654999999795","{""pre-1"":2}","[0]","survey-likert","478","1955532","0.0-478.0","akq14bez","","","","","",""
"2934.810000000056","{""pre-2"":2}","[0]","survey-likert","479","1958468","0.0-479.0","akq14bez","","","","","",""
"2154.350000000093","{""pre-3"":2}","[0]","survey-likert","480","1960623","0.0-480.0","akq14bez","","","","","",""
"1855.8249999999534","{""post-5"":1}","[0]","survey-likert","481","1962480","0.0-481.0","akq14bez","","","","","",""
"","","","call-function","482","1962481","0.0-482.0","akq14bez","","","","","",""
"null","","","video-keyboard-response","483","1965560","0.0-483.0","akq14bez","","","","null","Agent A","STIM_SET_1_REAL/713403.bmp_pp80_L3_V1.0_veridical_freeview_isoFalse_fps144.mp4"
"","","","call-function","484","1965560","0.0-484.0","akq14bez","","","","","",""
"2447.309999999823","{""pre-1"":2}","[0]","survey-likert","485","1968009","0.0-485.0","akq14bez","","","","","",""
"1600.315000000177","{""pre-2"":2}","[0]","survey-likert","486","1969610","0.0-486.0","akq14bez","","","","","",""
"2301.7399999999907","{""pre-3"":2}","[0]","survey-likert","487","1971913","0.0-487.0","akq14bez","","","","","",""
"5785.939999999944","{""post-5"":0}","[0]","survey-likert","488","1977700","0.0-488.0","akq14bez","","","","","",""
"","","","call-function","489","1977700","0.0-489.0","akq14bez","","","","","",""
"null","","","video-keyboard-response","490","1980769","0.0-490.0","akq14bez","","","","null","Agent A","STIM_SET_1_REAL/713017.bmp_pp152_L2_V1.0_scrambled_freeview_isoFalse_fps144.mp4"
"","","","call-function","491","1980769","0.0-491.0","akq14bez","","","","","",""
"2340.5400000000373","{""pre-1"":2}","[0]","survey-likert","492","1983110","0.0-492.0","akq14bez","","","","","",""
"1771.380000000121","{""pre-2"":2}","[0]","survey-likert","493","1984884","0.0-493.0","akq14bez","","","","","",""
"1618.625","{""pre-3"":2}","[0]","survey-likert","494","1986504","0.0-494.0","akq14bez","","","","","",""
"7352.910000000149","{""post-5"":0}","[0]","survey-likert","495","1993859","0.0-495.0","akq14bez","","","","","",""
"","","","call-function","496","1993860","0.0-496.0","akq14bez","","","","","",""
"null","","","video-keyboard-response","497","1996936","0.0-497.0","akq14bez","","","","null","Agent A","STIM_SET_1_REAL/1159855.bmp_pp99_L2_V1.0_veridical_freeview_isoFalse_fps144.mp4"
"","","","call-function","498","1996936","0.0-498.0","akq14bez","","","","","",""
"4108.98499999987","{""pre-1"":3}","[0]","survey-likert","499","2001046","0.0-499.0","akq14bez","","","","","",""
"3305.3599999998696","{""pre-2"":2}","[0]","survey-likert","500","2004353","0.0-500.0","akq14bez","","","","","",""
"2044.8700000001118","{""pre-3"":2}","[0]","survey-likert","501","2006399","0.0-501.0","akq14bez","","","","","",""
"4535.594999999972","{""post-5"":0}","[0]","survey-likert","502","2010935","0.0-502.0","akq14bez","","","","","",""
"","","","call-function","503","2010936","0.0-503.0","akq14bez","","","","","",""
"null","","","video-keyboard-response","504","2014013","0.0-504.0","akq14bez","","","","null","Agent A","STIM_SET_1_REAL/1159675.bmp_pp77_L3_V1.0_veridical_freeview_isoFalse_fps144.mp4"
"","","","call-function","505","2014013","0.0-505.0","akq14bez","","","","","",""
"5082.89000000013","{""pre-1"":2}","[0]","survey-likert","506","2019097","0.0-506.0","akq14bez","","","","","",""
"3217.714999999851","{""pre-2"":2}","[0]","survey-likert","507","2022316","0.0-507.0","akq14bez","","","","","",""
"4255.425000000047","{""pre-3"":2}","[0]","survey-likert","508","2026572","0.0-508.0","akq14bez","","","","","",""
"10015.514999999898","{""post-5"":1}","[0]","survey-likert","509","2036589","0.0-509.0","akq14bez","","","","","",""
"","","","call-function","510","2036589","0.0-510.0","akq14bez","","","","","",""
"null","","","video-keyboard-response","511","2039698","0.0-511.0","akq14bez","","","","null","Agent A","STIM_SET_1_REAL/498170.bmp_pp153_L3_V1.0_veridical_freeview_isoFalse_fps144.mp4"
"","","","call-function","512","2039699","0.0-512.0","akq14bez","","","","","",""
"2391.840000000084","{""pre-1"":2}","[0]","survey-likert","513","2042092","0.0-513.0","akq14bez","","","","","",""
"1973.8500000000931","{""pre-2"":2}","[0]","survey-likert","514","2044067","0.0-514.0","akq14bez","","","","","",""
"1246.0149999998976","{""pre-3"":2}","[0]","survey-likert","515","2045314","0.0-515.0","akq14bez","","","","","",""
"1940.8499999998603","{""post-5"":1}","[0]","survey-likert","516","2047256","0.0-516.0","akq14bez","","","","","",""
"","","","call-function","517","2047256","0.0-517.0","akq14bez","","","","","",""
"null","","","video-keyboard-response","518","2050332","0.0-518.0","akq14bez","","","","null","Agent A","STIM_SET_1_REAL/1159784.bmp_pp73_L3_V1.0_veridical_freeview_isoFalse_fps144.mp4"
"","","","call-function","519","2050333","0.0-519.0","akq14bez","","","","","",""
"2443.5","{""pre-1"":2}","[0]","survey-likert","520","2052778","0.0-520.0","akq14bez","","","","","",""
"1611.6450000000186","{""pre-2"":2}","[0]","survey-likert","521","2054391","0.0-521.0","akq14bez","","","","","",""
"4116.179999999935","{""pre-3"":2}","[0]","survey-likert","522","2058509","0.0-522.0","akq14bez","","","","","",""
"3621.6350000000093","{""post-5"":0}","[0]","survey-likert","523","2062132","0.0-523.0","akq14bez","","","","","",""
"","","","call-function","524","2062133","0.0-524.0","akq14bez","","","","","",""
"null","","","video-keyboard-response","525","2065222","0.0-525.0","akq14bez","","","","null","Agent A","STIM_SET_1_REAL/61537.bmp_pp73_L3_V1.0_scrambled_freeview_isoFalse_fps144.mp4"
"","","","call-function","526","2065223","0.0-526.0","akq14bez","","","","","",""
"4501.889999999898","{""pre-1"":2}","[0]","survey-likert","527","2069726","0.0-527.0","akq14bez","","","","","",""
"1390.9200000001583","{""pre-2"":2}","[0]","survey-likert","528","2071118","0.0-528.0","akq14bez","","","","","",""
"1739.839999999851","{""pre-3"":2}","[0]","survey-likert","529","2072859","0.0-529.0","akq14bez","","","","","",""
"2693.8600000001024","{""post-5"":1}","[0]","survey-likert","530","2075554","0.0-530.0","akq14bez","","","","","",""
"","","","call-function","531","2075555","0.0-531.0","akq14bez","","","","","",""
"null","","","video-keyboard-response","532","2078626","0.0-532.0","akq14bez","","","","null","Agent A","STIM_SET_1_REAL/1159515.bmp_pp84_L3_V1.0_scrambled_freeview_isoFalse_fps144.mp4"
"","","","call-function","533","2078626","0.0-533.0","akq14bez","","","","","",""
"8662.645000000019","{""pre-1"":2}","[0]","survey-likert","534","2087290","0.0-534.0","akq14bez","","","","","",""
"4541.905000000028","{""pre-2"":2}","[0]","survey-likert","535","2091833","0.0-535.0","akq14bez","","","","","",""
"1451.5100000000093","{""pre-3"":2}","[0]","survey-likert","536","2093285","0.0-536.0","akq14bez","","","","","",""
"2459.405000000028","{""post-5"":1}","[0]","survey-likert","537","2095746","0.0-537.0","akq14bez","","","","","",""
"","","","call-function","538","2095746","0.0-538.0","akq14bez","","","","","",""
"null","","","video-keyboard-response","539","2098816","0.0-539.0","akq14bez","","","","null","Agent A","STIM_SET_1_REAL/1591961.bmp_pp67_L2_V1.0_veridical_freeview_isoFalse_fps144.mp4"
"","","","call-function","540","2098816","0.0-540.0","akq14bez","","","","","",""
"4077.3349999999627","{""pre-1"":1}","[0]","survey-likert","541","2102895","0.0-541.0","akq14bez","","","","","",""
"3168.9650000003166","{""pre-2"":1}","[0]","survey-likert","542","2106065","0.0-542.0","akq14bez","","","","","",""
"2634.8199999998324","{""pre-3"":1}","[0]","survey-likert","543","2108701","0.0-543.0","akq14bez","","","","","",""
"3057.9199999999255","{""post-5"":2}","[0]","survey-likert","544","2111760","0.0-544.0","akq14bez","","","","","",""
"","","","call-function","545","2111761","0.0-545.0","akq14bez","","","","","",""
"null","","","video-keyboard-response","546","2114823","0.0-546.0","akq14bez","","","","null","Agent A","STIM_SET_1_REAL/1159572.bmp_pp71_L1_V1.0_veridical_freeview_isoFalse_fps144.mp4"
"","","","call-function","547","2114824","0.0-547.0","akq14bez","","","","","",""
"7823.779999999795","{""pre-1"":2}","[0]","survey-likert","548","2122649","0.0-548.0","akq14bez","","","","","",""
"2087.0150000001304","{""pre-2"":3}","[0]","survey-likert","549","2124738","0.0-549.0","akq14bez","","","","","",""
"2115.8799999998882","{""pre-3"":3}","[0]","survey-likert","550","2126856","0.0-550.0","akq14bez","","","","","",""
"4389.979999999981","{""post-5"":0}","[0]","survey-likert","551","2131247","0.0-551.0","akq14bez","","","","","",""
"","","","call-function","552","2131248","0.0-552.0","akq14bez","","","","","",""
"null","","","video-keyboard-response","553","2134316","0.0-553.0","akq14bez","","","","null","Agent A","STIM_SET_1_REAL/1159829.bmp_pp91_L3_V1.0_scrambled_freeview_isoFalse_fps144.mp4"
"","","","call-function","554","2134317","0.0-554.0","akq14bez","","","","","",""
"2729.1200000001118","{""pre-1"":2}","[0]","survey-likert","555","2137047","0.0-555.0","akq14bez","","","","","",""
"2069.125","{""pre-2"":2}","[0]","survey-likert","556","2139117","0.0-556.0","akq14bez","","","","","",""
"1573.6200000001118","{""pre-3"":2}","[0]","survey-likert","557","2140692","0.0-557.0","akq14bez","","","","","",""
"5911.785000000149","{""post-5"":0}","[0]","survey-likert","558","2146605","0.0-558.0","akq14bez","","","","","",""
"","","","call-function","559","2146606","0.0-559.0","akq14bez","","","","","",""
"null","","","video-keyboard-response","560","2149699","0.0-560.0","akq14bez","","","","null","Agent A","STIM_SET_1_REAL/1593041.bmp_pp58_L1_V1.0_veridical_freeview_isoFalse_fps144.mp4"
"","","","call-function","561","2149699","0.0-561.0","akq14bez","","","","","",""
"4037.3900000001304","{""pre-1"":1}","[0]","survey-likert","562","2153738","0.0-562.0","akq14bez","","","","","",""
"12426.445000000298","{""pre-2"":1}","[0]","survey-likert","563","2166165","0.0-563.0","akq14bez","","","","","",""
"2071.1650000000373","{""pre-3"":1}","[0]","survey-likert","564","2168237","0.0-564.0","akq14bez","","","","","",""
"2810.1699999999255","{""post-5"":2}","[0]","survey-likert","565","2171049","0.0-565.0","akq14bez","","","","","",""
"","","","call-function","566","2171049","0.0-566.0","akq14bez","","","","","",""
"null","","","video-keyboard-response","567","2174141","0.0-567.0","akq14bez","","","","null","Agent A","STIM_SET_1_REAL/285751.bmp_pp55_L3_V1.0_veridical_freeview_isoFalse_fps144.mp4"
"","","","call-function","568","2174141","0.0-568.0","akq14bez","","","","","",""
"2585.910000000149","{""pre-1"":2}","[0]","survey-likert","569","2176729","0.0-569.0","akq14bez","","","","","",""
"1522.3849999997765","{""pre-2"":2}","[0]","survey-likert","570","2178253","0.0-570.0","akq14bez","","","","","",""
"1604.9150000000373","{""pre-3"":2}","[0]","survey-likert","571","2179860","0.0-571.0","akq14bez","","","","","",""
"8615.01500000013","{""post-5"":1}","[0]","survey-likert","572","2188477","0.0-572.0","akq14bez","","","","","",""
"","","","call-function","573","2188478","0.0-573.0","akq14bez","","","","","",""
"null","","","video-keyboard-response","574","2191554","0.0-574.0","akq14bez","","","","null","Agent A","STIM_SET_1_REAL/713666.bmp_pp97_L3_V1.0_veridical_freeview_isoFalse_fps144.mp4"
"","","","call-function","575","2191555","0.0-575.0","akq14bez","","","","","",""
"2848.2000000001863","{""pre-1"":2}","[0]","survey-likert","576","2194404","0.0-576.0","akq14bez","","","","","",""
"4179.320000000298","{""pre-2"":2}","[0]","survey-likert","577","2198584","0.0-577.0","akq14bez","","","","","",""
"1376.6200000001118","{""pre-3"":2}","[0]","survey-likert","578","2199962","0.0-578.0","akq14bez","","","","","",""
"4015.3300000000745","{""post-5"":1}","[0]","survey-likert","579","2203979","0.0-579.0","akq14bez","","","","","",""
"","","","call-function","580","2203980","0.0-580.0","akq14bez","","","","","",""
"null","","","video-keyboard-response","581","2207048","0.0-581.0","akq14bez","","","","null","Agent A","STIM_SET_1_REAL/713796.bmp_pp84_L3_V1.0_scrambled_freeview_isoFalse_fps144.mp4"
"","","","call-function","582","2207049","0.0-582.0","akq14bez","","","","","",""
"2297.6450000000186","{""pre-1"":2}","[0]","survey-likert","583","2209347","0.0-583.0","akq14bez","","","","","",""
"2088.135000000242","{""pre-2"":2}","[0]","survey-likert","584","2211436","0.0-584.0","akq14bez","","","","","",""
"2616.2199999997392","{""pre-3"":2}","[0]","survey-likert","585","2214054","0.0-585.0","akq14bez","","","","","",""
"2237.0849999999627","{""post-5"":1}","[0]","survey-likert","586","2216292","0.0-586.0","akq14bez","","","","","",""
"67701.25999999978","","","instructions","587","2283994","0.0-587.0","akq14bez","[{""page_index"":0,""viewing_time"":5498.674999999814},{""page_index"":1,""viewing_time"":58558.544999999925},{""page_index"":2,""viewing_time"":3643.8650000002235}]","","","","",""
"4022.5","","","instructions","588","2288018","0.0-588.0","akq14bez","[{""page_index"":0,""viewing_time"":1855.5150000001304},{""page_index"":1,""viewing_time"":1282.720000000205},{""page_index"":2,""viewing_time"":884.1649999995716}]","","","","",""
"","","","call-function","589","2288018","0.0-589.0","akq14bez","","","","","",""
"null","","","video-keyboard-response","590","2291114","0.0-590.0","akq14bez","","","","null","Agent A","STIM_SET_1_REAL/713760.bmp_pp81_L1_V1.0_scrambled_freeview_isoFalse_fps144.mp4"
"","","","call-function","591","2291114","0.0-591.0","akq14bez","","","","","",""
"5148.655000000261","{""pre-1"":1}","[0]","survey-likert","592","2296264","0.0-592.0","akq14bez","","","","","",""
"2102.1650000000373","{""pre-2"":1}","[0]","survey-likert","593","2298369","0.0-593.0","akq14bez","","","","","",""
"2646.8300000000745","{""pre-3"":1}","[0]","survey-likert","594","2301017","0.0-594.0","akq14bez","","","","","",""
"2657.899999999907","{""post-5"":2}","[0]","survey-likert","595","2303677","0.0-595.0","akq14bez","","","","","",""
"","","","call-function","596","2303677","0.0-596.0","akq14bez","","","","","",""
"null","","","video-keyboard-response","597","2306837","0.0-597.0","akq14bez","","","","null","Agent A","STIM_SET_1_REAL/1593146.bmp_pp93_L1_V1.0_veridical_freeview_isoFalse_fps144.mp4"
"","","","call-function","598","2306838","0.0-598.0","akq14bez","","","","","",""
"2564.1699999999255","{""pre-1"":2}","[0]","survey-likert","599","2309403","0.0-599.0","akq14bez","","","","","",""
"1591.1099999998696","{""pre-2"":2}","[0]","survey-likert","600","2310995","0.0-600.0","akq14bez","","","","","",""
"1686.595000000205","{""pre-3"":2}","[0]","survey-likert","601","2312683","0.0-601.0","akq14bez","","","","","",""
"2205.7000000001863","{""post-5"":0}","[0]","survey-likert","602","2314890","0.0-602.0","akq14bez","","","","","",""
"","","","call-function","603","2314891","0.0-603.0","akq14bez","","","","","",""
"null","","","video-keyboard-response","604","2317962","0.0-604.0","akq14bez","","","","null","Agent A","STIM_SET_1_REAL/1592351.bmp_pp51_L1_V1.0_scrambled_freeview_isoFalse_fps144.mp4"
"","","","call-function","605","2317962","0.0-605.0","akq14bez","","","","","",""
"10527.645000000019","{""pre-1"":0}","[0]","survey-likert","606","2328491","0.0-606.0","akq14bez","","","","","",""
"3271.4449999998324","{""pre-2"":0}","[0]","survey-likert","607","2331764","0.0-607.0","akq14bez","","","","","",""
"2335.7800000002608","{""pre-3"":0}","[0]","survey-likert","608","2334101","0.0-608.0","akq14bez","","","","","",""
"4162.195000000298","{""post-5"":2}","[0]","survey-likert","609","2338264","0.0-609.0","akq14bez","","","","","",""
"","","","call-function","610","2338265","0.0-610.0","akq14bez","","","","","",""
"null","","","video-keyboard-response","611","2341343","0.0-611.0","akq14bez","","","","null","Agent A","STIM_SET_1_REAL/285751.bmp_pp55_L3_V1.0_scrambled_freeview_isoFalse_fps144.mp4"
"","","","call-function","612","2341343","0.0-612.0","akq14bez","","","","","",""
"7216.145000000019","{""pre-1"":2}","[0]","survey-likert","613","2348561","0.0-613.0","akq14bez","","","","","",""
"1338.339999999851","{""pre-2"":2}","[0]","survey-likert","614","2349900","0.0-614.0","akq14bez","","","","","",""
"1272.5400000000373","{""pre-3"":2}","[0]","survey-likert","615","2351174","0.0-615.0","akq14bez","","","","","",""
"8156.494999999646","{""post-5"":1}","[0]","survey-likert","616","2359332","0.0-616.0","akq14bez","","","","","",""
"","","","call-function","617","2359334","0.0-617.0","akq14bez","","","","","",""
"null","","","video-keyboard-response","618","2362416","0.0-618.0","akq14bez","","","","null","Agent A","STIM_SET_1_REAL/1592397.bmp_pp85_L3_V1.0_scrambled_freeview_isoFalse_fps144.mp4"
"","","","call-function","619","2362417","0.0-619.0","akq14bez","","","","","",""
"3584.689999999944","{""pre-1"":2}","[0]","survey-likert","620","2366002","0.0-620.0","akq14bez","","","","","",""
"2208.4150000000373","{""pre-2"":2}","[0]","survey-likert","621","2368212","0.0-621.0","akq14bez","","","","","",""
"1953.9199999999255","{""pre-3"":2}","[0]","survey-likert","622","2370167","0.0-622.0","akq14bez","","","","","",""
"2673.535000000149","{""post-5"":0}","[0]","survey-likert","623","2372842","0.0-623.0","akq14bez","","","","","",""
"","","","call-function","624","2372843","0.0-624.0","akq14bez","","","","","",""
"null","","","video-keyboard-response","625","2375909","0.0-625.0","akq14bez","","","","null","Agent A","STIM_SET_1_REAL/1592499.bmp_pp96_L2_V1.0_scrambled_freeview_isoFalse_fps144.mp4"
"","","","call-function","626","2375910","0.0-626.0","akq14bez","","","","","",""
"4196.854999999981","{""pre-1"":2}","[0]","survey-likert","627","2380109","0.0-627.0","akq14bez","","","","","",""
"2569.149999999907","{""pre-2"":2}","[0]","survey-likert","628","2382679","0.0-628.0","akq14bez","","","","","",""
"1698.8249999997206","{""pre-3"":2}","[0]","survey-likert","629","2384379","0.0-629.0","akq14bez","","","","","",""
"3046.314999999944","{""post-5"":1}","[0]","survey-likert","630","2387426","0.0-630.0","akq14bez","","","","","",""
"","","","call-function","631","2387427","0.0-631.0","akq14bez","","","","","",""
"null","","","video-keyboard-response","632","2390496","0.0-632.0","akq14bez","","","","null","Agent A","STIM_SET_1_REAL/285905.bmp_pp57_L1_V1.0_veridical_freeview_isoFalse_fps144.mp4"
"","","","call-function","633","2390497","0.0-633.0","akq14bez","","","","","",""
"4783.555000000168","{""pre-1"":2}","[0]","survey-likert","634","2395281","0.0-634.0","akq14bez","","","","","",""
"1567.595000000205","{""pre-2"":2}","[0]","survey-likert","635","2396850","0.0-635.0","akq14bez","","","","","",""
"1543.5750000001863","{""pre-3"":2}","[0]","survey-likert","636","2398395","0.0-636.0","akq14bez","","","","","",""
"2938.3300000000745","{""post-5"":1}","[0]","survey-likert","637","2401334","0.0-637.0","akq14bez","","","","","",""
"","","","call-function","638","2401334","0.0-638.0","akq14bez","","","","","",""
"null","","","video-keyboard-response","639","2404396","0.0-639.0","akq14bez","","","","null","Agent A","STIM_SET_1_REAL/498149.bmp_pp99_L2_V1.0_veridical_freeview_isoFalse_fps144.mp4"
"","","","call-function","640","2404396","0.0-640.0","akq14bez","","","","","",""
"4250.2949999999255","{""pre-1"":3}","[0]","survey-likert","641","2408648","0.0-641.0","akq14bez","","","","","",""
"1578.6749999998137","{""pre-2"":2}","[0]","survey-likert","642","2410227","0.0-642.0","akq14bez","","","","","",""
"5893.1349999997765","{""pre-3"":2}","[0]","survey-likert","643","2416122","0.0-643.0","akq14bez","","","","","",""
"7278.89000000013","{""post-5"":0}","[0]","survey-likert","644","2423402","0.0-644.0","akq14bez","","","","","",""
"","","","call-function","645","2423404","0.0-645.0","akq14bez","","","","","",""
"null","","","video-keyboard-response","646","2426496","0.0-646.0","akq14bez","","","","null","Agent A","STIM_SET_1_REAL/1592362.bmp_pp95_L2_V1.0_veridical_freeview_isoFalse_fps144.mp4"
"","","","call-function","647","2426496","0.0-647.0","akq14bez","","","","","",""
"3184.4799999999814","{""pre-1"":2}","[0]","survey-likert","648","2429682","0.0-648.0","akq14bez","","","","","",""
"1536.8500000000931","{""pre-2"":2}","[0]","survey-likert","649","2431220","0.0-649.0","akq14bez","","","","","",""
"1124.4950000001118","{""pre-3"":2}","[0]","survey-likert","650","2432346","0.0-650.0","akq14bez","","","","","",""
"2267.7050000000745","{""post-5"":0}","[0]","survey-likert","651","2434615","0.0-651.0","akq14bez","","","","","",""
"","","","call-function","652","2434615","0.0-652.0","akq14bez","","","","","",""
"null","","","video-keyboard-response","653","2437676","0.0-653.0","akq14bez","","","","null","Agent A","STIM_SET_1_REAL/1159447.bmp_pp70_L2_V1.0_scrambled_freeview_isoFalse_fps144.mp4"
"","","","call-function","654","2437676","0.0-654.0","akq14bez","","","","","",""
"3670.119999999646","{""pre-1"":2}","[0]","survey-likert","655","2441348","0.0-655.0","akq14bez","","","","","",""
"1338.8999999999069","{""pre-2"":2}","[0]","survey-likert","656","2442688","0.0-656.0","akq14bez","","","","","",""
"1717.589999999851","{""pre-3"":2}","[0]","survey-likert","657","2444406","0.0-657.0","akq14bez","","","","","",""
"6577.790000000037","{""post-5"":0}","[0]","survey-likert","658","2450985","0.0-658.0","akq14bez","","","","","",""
"","","","call-function","659","2450986","0.0-659.0","akq14bez","","","","","",""
"null","","","video-keyboard-response","660","2454045","0.0-660.0","akq14bez","","","","null","Agent A","STIM_SET_1_REAL/1592351.bmp_pp51_L1_V1.0_veridical_freeview_isoFalse_fps144.mp4"
"","","","call-function","661","2454046","0.0-661.0","akq14bez","","","","","",""
"6868.219999999739","{""pre-1"":2}","[0]","survey-likert","662","2460915","0.0-662.0","akq14bez","","","","","",""
"2693.660000000149","{""pre-2"":2}","[0]","survey-likert","663","2463610","0.0-663.0","akq14bez","","","","","",""
"2033.0949999997392","{""pre-3"":2}","[0]","survey-likert","664","2465644","0.0-664.0","akq14bez","","","","","",""
"2385.9249999998137","{""post-5"":1}","[0]","survey-likert","665","2468031","0.0-665.0","akq14bez","","","","","",""
"","","","call-function","666","2468032","0.0-666.0","akq14bez","","","","","",""
"null","","","video-keyboard-response","667","2471100","0.0-667.0","akq14bez","","","","null","Agent A","STIM_SET_1_REAL/713796.bmp_pp84_L3_V1.0_veridical_freeview_isoFalse_fps144.mp4"
"","","","call-function","668","2471100","0.0-668.0","akq14bez","","","","","",""
"3334.8799999998882","{""pre-1"":1}","[0]","survey-likert","669","2474436","0.0-669.0","akq14bez","","","","","",""
"2269.8899999996647","{""pre-2"":1}","[0]","survey-likert","670","2476707","0.0-670.0","akq14bez","","","","","",""
"1411.0600000000559","{""pre-3"":1}","[0]","survey-likert","671","2478119","0.0-671.0","akq14bez","","","","","",""
"1930.910000000149","{""post-5"":2}","[0]","survey-likert","672","2480051","0.0-672.0","akq14bez","","","","","",""
"","","","call-function","673","2480052","0.0-673.0","akq14bez","","","","","",""
"null","","","video-keyboard-response","674","2483187","0.0-674.0","akq14bez","","","","null","Agent A","STIM_SET_1_REAL/498111.bmp_pp88_L2_V1.0_veridical_freeview_isoFalse_fps144.mp4"
"","","","call-function","675","2483189","0.0-675.0","akq14bez","","","","","",""
"3931.2800000002608","{""pre-1"":1}","[0]","survey-likert","676","2487122","0.0-676.0","akq14bez","","","","","",""
"3378.5749999997206","{""pre-2"":1}","[0]","survey-likert","677","2490502","0.0-677.0","akq14bez","","","","","",""
"3862.5049999998882","{""pre-3"":0}","[0]","survey-likert","678","2494366","0.0-678.0","akq14bez","","","","","",""
"7265.790000000037","{""post-5"":2}","[0]","survey-likert","679","2501633","0.0-679.0","akq14bez","","","","","",""
"","","","call-function","680","2501634","0.0-680.0","akq14bez","","","","","",""
"null","","","video-keyboard-response","681","2504718","0.0-681.0","akq14bez","","","","null","Agent A","STIM_SET_1_REAL/1592727.bmp_pp59_L3_V1.0_scrambled_freeview_isoFalse_fps144.mp4"
"","","","call-function","682","2504718","0.0-682.0","akq14bez","","","","","",""
"13519.555000000168","{""pre-1"":2}","[0]","survey-likert","683","2518239","0.0-683.0","akq14bez","","","","","",""
"4257.819999999832","{""pre-2"":1}","[0]","survey-likert","684","2522498","0.0-684.0","akq14bez","","","","","",""
"2439.975000000093","{""pre-3"":1}","[0]","survey-likert","685","2524939","0.0-685.0","akq14bez","","","","","",""
"4721.225000000093","{""post-5"":2}","[0]","survey-likert","686","2529662","0.0-686.0","akq14bez","","","","","",""
"","","","call-function","687","2529662","0.0-687.0","akq14bez","","","","","",""
"null","","","video-keyboard-response","688","2532732","0.0-688.0","akq14bez","","","","null","Agent A","STIM_SET_1_REAL/285933.bmp_pp81_L1_V1.0_veridical_freeview_isoFalse_fps144.mp4"
"","","","call-function","689","2532732","0.0-689.0","akq14bez","","","","","",""
"1907.8300000000745","{""pre-1"":2}","[0]","survey-likert","690","2534641","0.0-690.0","akq14bez","","","","","",""
"5359.220000000205","{""pre-2"":2}","[0]","survey-likert","691","2540002","0.0-691.0","akq14bez","","","","","",""
"3543.0049999998882","{""pre-3"":2}","[0]","survey-likert","692","2543546","0.0-692.0","akq14bez","","","","","",""
"2330.135000000242","{""post-5"":1}","[0]","survey-likert","693","2545877","0.0-693.0","akq14bez","","","","","",""
"","","","call-function","694","2545878","0.0-694.0","akq14bez","","","","","",""
"null","","","video-keyboard-response","695","2548936","0.0-695.0","akq14bez","","","","null","Agent A","STIM_SET_1_REAL/286001.bmp_pp54_L2_V1.0_veridical_freeview_isoFalse_fps144.mp4"
"","","","call-function","696","2548936","0.0-696.0","akq14bez","","","","","",""
"2566.614999999758","{""pre-1"":1}","[0]","survey-likert","697","2551504","0.0-697.0","akq14bez","","","","","",""
"4801.304999999702","{""pre-2"":0}","[0]","survey-likert","698","2556308","0.0-698.0","akq14bez","","","","","",""
"3560.189999999944","{""pre-3"":0}","[0]","survey-likert","699","2559870","0.0-699.0","akq14bez","","","","","",""
"3009.9799999999814","{""post-5"":2}","[0]","survey-likert","700","2562881","0.0-700.0","akq14bez","","","","","",""
"","","","call-function","701","2562882","0.0-701.0","akq14bez","","","","","",""
"null","","","video-keyboard-response","702","2565961","0.0-702.0","akq14bez","","","","null","Agent A","STIM_SET_1_REAL/1160127.bmp_pp90_L2_V1.0_veridical_freeview_isoFalse_fps144.mp4"
"","","","call-function","703","2565961","0.0-703.0","akq14bez","","","","","",""
"2350.225000000093","{""pre-1"":2}","[0]","survey-likert","704","2568313","0.0-704.0","akq14bez","","","","","",""
"1903.6550000002608","{""pre-2"":2}","[0]","survey-likert","705","2570217","0.0-705.0","akq14bez","","","","","",""
"1803.7299999999814","{""pre-3"":2}","[0]","survey-likert","706","2572023","0.0-706.0","akq14bez","","","","","",""
"9779.589999999851","{""post-5"":1}","[0]","survey-likert","707","2581803","0.0-707.0","akq14bez","","","","","",""
"","","","call-function","708","2581804","0.0-708.0","akq14bez","","","","","",""
"null","","","video-keyboard-response","709","2584878","0.0-709.0","akq14bez","","","","null","Agent A","STIM_SET_1_REAL/713371.bmp_pp68_L1_V1.0_veridical_freeview_isoFalse_fps144.mp4"
"","","","call-function","710","2584879","0.0-710.0","akq14bez","","","","","",""
"2234.4150000000373","{""pre-1"":2}","[0]","survey-likert","711","2587114","0.0-711.0","akq14bez","","","","","",""
"1123.9250000002794","{""pre-2"":2}","[0]","survey-likert","712","2588239","0.0-712.0","akq14bez","","","","","",""
"1424.6550000002608","{""pre-3"":2}","[0]","survey-likert","713","2589665","0.0-713.0","akq14bez","","","","","",""
"2607.1699999999255","{""post-5"":1}","[0]","survey-likert","714","2592273","0.0-714.0","akq14bez","","","","","",""
"","","","call-function","715","2592274","0.0-715.0","akq14bez","","","","","",""
"null","","","video-keyboard-response","716","2595345","0.0-716.0","akq14bez","","","","null","Agent A","STIM_SET_1_REAL/1159446.bmp_pp60_L3_V1.0_veridical_freeview_isoFalse_fps144.mp4"
"","","","call-function","717","2595345","0.0-717.0","akq14bez","","","","","",""
"2125.4599999999627","{""pre-1"":2}","[0]","survey-likert","718","2597472","0.0-718.0","akq14bez","","","","","",""
"1520.9449999998324","{""pre-2"":2}","[0]","survey-likert","719","2598994","0.0-719.0","akq14bez","","","","","",""
"1393.4500000001863","{""pre-3"":2}","[0]","survey-likert","720","2600388","0.0-720.0","akq14bez","","","","","",""
"5068.899999999907","{""post-5"":1}","[0]","survey-likert","721","2605458","0.0-721.0","akq14bez","","","","","",""
"","","","call-function","722","2605459","0.0-722.0","akq14bez","","","","","",""
"null","","","video-keyboard-response","723","2608521","0.0-723.0","akq14bez","","","","null","Agent A","STIM_SET_1_REAL/1159572.bmp_pp71_L1_V1.0_scrambled_freeview_isoFalse_fps144.mp4"
"","","","call-function","724","2608522","0.0-724.0","akq14bez","","","","","",""
"5280.950000000186","{""pre-1"":1}","[0]","survey-likert","725","2613805","0.0-725.0","akq14bez","","","","","",""
"1930.5499999998137","{""pre-2"":1}","[0]","survey-likert","726","2615737","0.0-726.0","akq14bez","","","","","",""
"1715.4599999999627","{""pre-3"":1}","[0]","survey-likert","727","2617454","0.0-727.0","akq14bez","","","","","",""
"2260.8950000000186","{""post-5"":2}","[0]","survey-likert","728","2619716","0.0-728.0","akq14bez","","","","","",""
"45003.95999999996","","","instructions","729","2664721","0.0-729.0","akq14bez","[{""page_index"":0,""viewing_time"":4518.654999999795},{""page_index"":1,""viewing_time"":39144.13500000024},{""page_index"":2,""viewing_time"":1340.9399999999441}]","","","","",""
"34311.21999999974","","","instructions","730","2699032","0.0-730.0","akq14bez","[{""page_index"":0,""viewing_time"":28087.189999999944},{""page_index"":1,""viewing_time"":5162},{""page_index"":2,""viewing_time"":1061.9300000001676}]","","","","",""
"","","","call-function","731","2699033","0.0-731.0","akq14bez","","","","","",""
"null","","","video-keyboard-response","732","2702102","0.0-732.0","akq14bez","","","","null","Agent A","STIM_SET_1_REAL/713513.bmp_pp62_L2_V1.0_veridical_freeview_isoFalse_fps144.mp4"
"","","","call-function","733","2702102","0.0-733.0","akq14bez","","","","","",""
"5559.814999999944","{""pre-1"":2}","[0]","survey-likert","734","2707664","0.0-734.0","akq14bez","","","","","",""
"3402.935000000056","{""pre-2"":2}","[0]","survey-likert","735","2711068","0.0-735.0","akq14bez","","","","","",""
"2576.095000000205","{""pre-3"":2}","[0]","survey-likert","736","2713645","0.0-736.0","akq14bez","","","","","",""
"2365.814999999944","{""post-5"":1}","[0]","survey-likert","737","2716012","0.0-737.0","akq14bez","","","","","",""
"","","","call-function","738","2716012","0.0-738.0","akq14bez","","","","","",""
"null","","","video-keyboard-response","739","2719085","0.0-739.0","akq14bez","","","","null","Agent A","STIM_SET_1_REAL/1592890.bmp_pp82_L2_V1.0_veridical_freeview_isoFalse_fps144.mp4"
"","","","call-function","740","2719086","0.0-740.0","akq14bez","","","","","",""
"4355.844999999739","{""pre-1"":2}","[0]","survey-likert","741","2723443","0.0-741.0","akq14bez","","","","","",""
"1494.8249999997206","{""pre-2"":2}","[0]","survey-likert","742","2724939","0.0-742.0","akq14bez","","","","","",""
"1557.785000000149","{""pre-3"":2}","[0]","survey-likert","743","2726497","0.0-743.0","akq14bez","","","","","",""
"5078.914999999572","{""post-5"":1}","[0]","survey-likert","744","2731578","0.0-744.0","akq14bez","","","","","",""
"","","","call-function","745","2731578","0.0-745.0","akq14bez","","","","","",""
"null","","","video-keyboard-response","746","2734638","0.0-746.0","akq14bez","","","","null","Agent A","STIM_SET_1_REAL/713089.bmp_pp60_L3_V1.0_veridical_freeview_isoFalse_fps144.mp4"
"","","","call-function","747","2734639","0.0-747.0","akq14bez","","","","","",""
"4860.875","{""pre-1"":2}","[0]","survey-likert","748","2739501","0.0-748.0","akq14bez","","","","","",""
"2194.3250000001863","{""pre-2"":2}","[0]","survey-likert","749","2741697","0.0-749.0","akq14bez","","","","","",""
"1476.845000000205","{""pre-3"":2}","[0]","survey-likert","750","2743175","0.0-750.0","akq14bez","","","","","",""
"8434.395000000019","{""post-5"":0}","[0]","survey-likert","751","2751611","0.0-751.0","akq14bez","","","","","",""
"","","","call-function","752","2751612","0.0-752.0","akq14bez","","","","","",""
"null","","","video-keyboard-response","753","2754690","0.0-753.0","akq14bez","","","","null","Agent A","STIM_SET_1_REAL/1592807.bmp_pp68_L1_V1.0_veridical_freeview_isoFalse_fps144.mp4"
"","","","call-function","754","2754691","0.0-754.0","akq14bez","","","","","",""
"4797.549999999814","{""pre-1"":1}","[0]","survey-likert","755","2759490","0.0-755.0","akq14bez","","","","","",""
"2646.3250000001863","{""pre-2"":1}","[0]","survey-likert","756","2762138","0.0-756.0","akq14bez","","","","","",""
"1826.095000000205","{""pre-3"":1}","[0]","survey-likert","757","2763965","0.0-757.0","akq14bez","","","","","",""
"6224.410000000149","{""post-5"":2}","[0]","survey-likert","758","2770191","0.0-758.0","akq14bez","","","","","",""
"","","","call-function","759","2770192","0.0-759.0","akq14bez","","","","","",""
"null","","","video-keyboard-response","760","2773259","0.0-760.0","akq14bez","","","","null","Agent A","STIM_SET_1_REAL/1592934.bmp_pp63_L1_V1.0_veridical_freeview_isoFalse_fps144.mp4"
"","","","call-function","761","2773260","0.0-761.0","akq14bez","","","","","",""
"4449.679999999702","{""pre-1"":2}","[0]","survey-likert","762","2777711","0.0-762.0","akq14bez","","","","","",""
"1564.0749999997206","{""pre-2"":2}","[0]","survey-likert","763","2779276","0.0-763.0","akq14bez","","","","","",""
"2228.114999999758","{""pre-3"":2}","[0]","survey-likert","764","2781506","0.0-764.0","akq14bez","","","","","",""
"13667.729999999981","{""post-5"":1}","[0]","survey-likert","765","2795174","0.0-765.0","akq14bez","","","","","",""
"","","","call-function","766","2795175","0.0-766.0","akq14bez","","","","","",""
"null","","","video-keyboard-response","767","2798249","0.0-767.0","akq14bez","","","","null","Agent A","STIM_SET_1_REAL/713707.bmp_pp154_L1_V1.0_veridical_freeview_isoFalse_fps144.mp4"
"","","","call-function","768","2798250","0.0-768.0","akq14bez","","","","","",""
"8937.649999999907","{""pre-1"":2}","[0]","survey-likert","769","2807189","0.0-769.0","akq14bez","","","","","",""
"2678.8300000000745","{""pre-2"":1}","[0]","survey-likert","770","2809869","0.0-770.0","akq14bez","","","","","",""
"1322.6299999998882","{""pre-3"":1}","[0]","survey-likert","771","2811192","0.0-771.0","akq14bez","","","","","",""
"10087.385000000242","{""post-5"":1}","[0]","survey-likert","772","2821281","0.0-772.0","akq14bez","","","","","",""
"","","","call-function","773","2821282","0.0-773.0","akq14bez","","","","","",""
"null","","","video-keyboard-response","774","2824343","0.0-774.0","akq14bez","","","","null","Agent A","STIM_SET_1_REAL/1592817.bmp_pp55_L3_V1.0_scrambled_freeview_isoFalse_fps144.mp4"
"","","","call-function","775","2824344","0.0-775.0","akq14bez","","","","","",""
"2361.005000000354","{""pre-1"":2}","[0]","survey-likert","776","2826706","0.0-776.0","akq14bez","","","","","",""
"1787.070000000298","{""pre-2"":2}","[0]","survey-likert","777","2828495","0.0-777.0","akq14bez","","","","","",""
"2687.7650000001304","{""pre-3"":2}","[0]","survey-likert","778","2831185","0.0-778.0","akq14bez","","","","","",""
"5498.879999999888","{""post-5"":1}","[0]","survey-likert","779","2836685","0.0-779.0","akq14bez","","","","","",""
"","","","call-function","780","2836686","0.0-780.0","akq14bez","","","","","",""
"null","","","video-keyboard-response","781","2839757","0.0-781.0","akq14bez","","","","null","Agent A","STIM_SET_1_REAL/1592581.bmp_pp100_L3_V1.0_veridical_freeview_isoFalse_fps144.mp4"
"","","","call-function","782","2839757","0.0-782.0","akq14bez","","","","","",""
"4079.725000000093","{""pre-1"":2}","[0]","survey-likert","783","2843838","0.0-783.0","akq14bez","","","","","",""
"3012.3349999999627","{""pre-2"":2}","[0]","survey-likert","784","2846852","0.0-784.0","akq14bez","","","","","",""
"2155.8400000003166","{""pre-3"":2}","[0]","survey-likert","785","2849009","0.0-785.0","akq14bez","","","","","",""
"6409.714999999851","{""post-5"":1}","[0]","survey-likert","786","2855420","0.0-786.0","akq14bez","","","","","",""
"","","","call-function","787","2855420","0.0-787.0","akq14bez","","","","","",""
"null","","","video-keyboard-response","788","2858496","0.0-788.0","akq14bez","","","","null","Agent A","STIM_SET_1_REAL/713749.bmp_pp88_L2_V1.0_veridical_freeview_isoFalse_fps144.mp4"
"","","","call-function","789","2858496","0.0-789.0","akq14bez","","","","","",""
"5726.564999999944","{""pre-1"":3}","[0]","survey-likert","790","2864224","0.0-790.0","akq14bez","","","","","",""
"2255.9149999995716","{""pre-2"":2}","[0]","survey-likert","791","2866481","0.0-791.0","akq14bez","","","","","",""
"1912.0200000000186","{""pre-3"":2}","[0]","survey-likert","792","2868394","0.0-792.0","akq14bez","","","","","",""
"9764.424999999814","{""post-5"":0}","[0]","survey-likert","793","2878160","0.0-793.0","akq14bez","","","","","",""
"","","","call-function","794","2878160","0.0-794.0","akq14bez","","","","","",""
"null","","","video-keyboard-response","795","2881228","0.0-795.0","akq14bez","","","","null","Agent A","STIM_SET_1_REAL/1159515.bmp_pp84_L3_V1.0_veridical_freeview_isoFalse_fps144.mp4"
"","","","call-function","796","2881229","0.0-796.0","akq14bez","","","","","",""
"2930.8849999997765","{""pre-1"":2}","[0]","survey-likert","797","2884161","0.0-797.0","akq14bez","","","","","",""
"11037.84499999974","{""pre-2"":2}","[0]","survey-likert","798","2895200","0.0-798.0","akq14bez","","","","","",""
"2880.2199999997392","{""pre-3"":2}","[0]","survey-likert","799","2898081","0.0-799.0","akq14bez","","","","","",""
"5318.504999999888","{""post-5"":1}","[0]","survey-likert","800","2903401","0.0-800.0","akq14bez","","","","","",""
"","","","call-function","801","2903403","0.0-801.0","akq14bez","","","","","",""
"null","","","video-keyboard-response","802","2906479","0.0-802.0","akq14bez","","","","null","Agent A","STIM_SET_1_REAL/1591994.bmp_pp69_L3_V1.0_scrambled_freeview_isoFalse_fps144.mp4"
"","","","call-function","803","2906480","0.0-803.0","akq14bez","","","","","",""
"7255.560000000056","{""pre-1"":1}","[0]","survey-likert","804","2913736","0.0-804.0","akq14bez","","","","","",""
"3772.2999999998137","{""pre-2"":1}","[0]","survey-likert","805","2917510","0.0-805.0","akq14bez","","","","","",""
"3749.6650000000373","{""pre-3"":1}","[0]","survey-likert","806","2921261","0.0-806.0","akq14bez","","","","","",""
"2706.6349999997765","{""post-5"":2}","[0]","survey-likert","807","2923969","0.0-807.0","akq14bez","","","","","",""
"","","","call-function","808","2923969","0.0-808.0","akq14bez","","","","","",""
"null","","","video-keyboard-response","809","2927076","0.0-809.0","akq14bez","","","","null","Agent A","STIM_SET_1_REAL/1592657.bmp_pp98_L1_V1.0_scrambled_freeview_isoFalse_fps144.mp4"
"","","","call-function","810","2927077","0.0-810.0","akq14bez","","","","","",""
"2944.2999999998137","{""pre-1"":1}","[0]","survey-likert","811","2930022","0.0-811.0","akq14bez","","","","","",""
"3619.4449999998324","{""pre-2"":1}","[0]","survey-likert","812","2933643","0.0-812.0","akq14bez","","","","","",""
"1874.7250000000931","{""pre-3"":1}","[0]","survey-likert","813","2935519","0.0-813.0","akq14bez","","","","","",""
"2571.189999999944","{""post-5"":2}","[0]","survey-likert","814","2938092","0.0-814.0","akq14bez","","","","","",""
"","","","call-function","815","2938092","0.0-815.0","akq14bez","","","","","",""
"null","","","video-keyboard-response","816","2941182","0.0-816.0","akq14bez","","","","null","Agent A","STIM_SET_1_REAL/61537.bmp_pp73_L3_V1.0_veridical_freeview_isoFalse_fps144.mp4"
"","","","call-function","817","2941182","0.0-817.0","akq14bez","","","","","",""
"2691.714999999851","{""pre-1"":2}","[0]","survey-likert","818","2943875","0.0-818.0","akq14bez","","","","","",""
"1712.6349999997765","{""pre-2"":2}","[0]","survey-likert","819","2945589","0.0-819.0","akq14bez","","","","","",""
"2405.9849999998696","{""pre-3"":2}","[0]","survey-likert","820","2947996","0.0-820.0","akq14bez","","","","","",""
"3398.079999999609","{""post-5"":0}","[0]","survey-likert","821","2951395","0.0-821.0","akq14bez","","","","","",""
"","","","call-function","822","2951396","0.0-822.0","akq14bez","","","","","",""
"null","","","video-keyboard-response","823","2954467","0.0-823.0","akq14bez","","","","null","Agent A","STIM_SET_1_REAL/1159440.bmp_pp98_L1_V1.0_scrambled_freeview_isoFalse_fps144.mp4"
"","","","call-function","824","2954468","0.0-824.0","akq14bez","","","","","",""
"2212.064999999944","{""pre-1"":2}","[0]","survey-likert","825","2956681","0.0-825.0","akq14bez","","","","","",""
"3320.614999999758","{""pre-2"":2}","[0]","survey-likert","826","2960003","0.0-826.0","akq14bez","","","","","",""
"1926.9050000002608","{""pre-3"":2}","[0]","survey-likert","827","2961931","0.0-827.0","akq14bez","","","","","",""
"3458.989999999758","{""post-5"":1}","[0]","survey-likert","828","2965391","0.0-828.0","akq14bez","","","","","",""
"","","","call-function","829","2965392","0.0-829.0","akq14bez","","","","","",""
"null","","","video-keyboard-response","830","2968489","0.0-830.0","akq14bez","","","","null","Agent A","STIM_SET_1_REAL/1592397.bmp_pp85_L3_V1.0_veridical_freeview_isoFalse_fps144.mp4"
"","","","call-function","831","2968490","0.0-831.0","akq14bez","","","","","",""
"5488.425000000279","{""pre-1"":3}","[0]","survey-likert","832","2973980","0.0-832.0","akq14bez","","","","","",""
"2320.1099999998696","{""pre-2"":2}","[0]","survey-likert","833","2976302","0.0-833.0","akq14bez","","","","","",""
"1447.8400000003166","{""pre-3"":2}","[0]","survey-likert","834","2977751","0.0-834.0","akq14bez","","","","","",""
"2021.035000000149","{""post-5"":0}","[0]","survey-likert","835","2979773","0.0-835.0","akq14bez","","","","","",""
