"rt","responses","question_order","trial_type","trial_index","time_elapsed","internal_node_id","ID","view_history","value","stimulus","key_press","agent","image"
"13801.175000000001","{""Experimenter"":[""Confirmed subject's identity (ID card)"",""Confirmed normal or corrected-to-normal vision"",""Obtained consent (signature and date)"",""Checked the test room lighting"",""Checked computer screen lighting"",""Checked distance from screen to chin rest (50cm)"",""Cleaned and adjusted chin rest"",""Counterbalanced the order of the tasks"",""Opened the experiment in Firefox"",""Made the experiment full screen"",""Encouraged subject to silence phone, put away distractors, etc.""]}","[0]","survey-multi-select","0","13810","0.0-0.0","cct0hmdr","","","","","",""
"227862.52","","","instructions","1","241675","0.0-1.0","cct0hmdr","[{""page_index"":0,""viewing_time"":227862.38}]","","","","",""
"14166.449999999983","{""Age"":1,""Sex"":0,""Gender"":0}","[0,1,2]","survey-likert","2","255843","0.0-2.0","cct0hmdr","","","","","",""
"1586.7250000000058","","","instructions","3","257431","0.0-3.0","cct0hmdr","[{""page_index"":0,""viewing_time"":1586.625}]","","","","",""
"8041.494999999995","","","instructions","4","265473","0.0-4.0","cct0hmdr","[{""page_index"":0,""viewing_time"":5357.339999999967},{""page_index"":1,""viewing_time"":2684.0250000000233}]","","","","",""
"11996.390000000014","","","instructions","5","277469","0.0-5.0","cct0hmdr","[{""page_index"":0,""viewing_time"":2107.2300000000396},{""page_index"":1,""viewing_time"":2773.1599999999744},{""page_index"":2,""viewing_time"":7115.880000000005}]","","","","",""
"2543.4799999999814","","","instructions","6","280013","0.0-6.0","cct0hmdr","[{""page_index"":0,""viewing_time"":2543.3800000000047}]","","","","",""
"","","","call-function","7","280014","0.0-7.0","cct0hmdr","","","","","",""
"null","","","video-keyboard-response","8","283087","0.0-8.0","cct0hmdr","","","","null","",""
"","","","call-function","9","283087","0.0-9.0","cct0hmdr","","","","","",""
"11194.300000000047","","","instructions","10","294282","0.0-10.0","cct0hmdr","[{""page_index"":0,""viewing_time"":3247.3550000000396},{""page_index"":1,""viewing_time"":2125.75},{""page_index"":2,""viewing_time"":1591.2149999999674},{""page_index"":3,""viewing_time"":4229.755000000005}]","","","","",""
"1339.109999999986","","","instructions","11","295621","0.0-11.0","cct0hmdr","[{""page_index"":0,""viewing_time"":1339.0050000000047}]","","","","",""
"","","","call-function","12","295622","0.0-12.0","cct0hmdr","","","","","",""
"null","","","video-keyboard-response","13","298697","0.0-13.0","cct0hmdr","","","","null","",""
"","","","call-function","14","298697","0.0-14.0","cct0hmdr","","","","","",""
"10240.640000000014","{""pre-1"":1}","[0]","survey-likert","15","308939","0.0-15.0","cct0hmdr","","","","","",""
"7969.369999999995","{""pre-2"":1}","[0]","survey-likert","16","316909","0.0-16.0","cct0hmdr","","","","","",""
"5463.774999999965","{""pre-3"":0}","[0]","survey-likert","17","322375","0.0-17.0","cct0hmdr","","","","","",""
"4265.005000000005","{""post-5"":2}","[0]","survey-likert","18","326641","0.0-18.0","cct0hmdr","","","","","",""
"2888.0650000000023","","","instructions","19","329530","0.0-19.0","cct0hmdr","[{""page_index"":0,""viewing_time"":2887.4499999999534}]","","","","",""
"9505.924999999988","","","instructions","20","339036","0.0-20.0","cct0hmdr","[{""page_index"":0,""viewing_time"":9505.815000000002}]","","","","",""
"","","","call-function","21","339037","0.0-21.0","cct0hmdr","","","","","",""
"null","","","video-keyboard-response","22","342112","0.0-22.0","cct0hmdr","","","","null","Agent A","STIM_SET_1_REAL/498175.bmp_pp154_L1_V1.0_scrambled_freeview_isoFalse_fps144.mp4"
"","","","call-function","23","342113","0.0-23.0","cct0hmdr","","","","","",""
"11141.190000000002","{""pre-1"":1}","[0]","survey-likert","24","353255","0.0-24.0","cct0hmdr","","","","","",""
"2573.0500000000466","{""pre-2"":1}","[0]","survey-likert","25","355829","0.0-25.0","cct0hmdr","","","","","",""
"2794.6749999999884","{""pre-3"":0}","[0]","survey-likert","26","358625","0.0-26.0","cct0hmdr","","","","","",""
"2010.4199999999837","{""post-5"":2}","[0]","survey-likert","27","360638","0.0-27.0","cct0hmdr","","","","","",""
"","","","call-function","28","360639","0.0-28.0","cct0hmdr","","","","","",""
"null","","","video-keyboard-response","29","363711","0.0-29.0","cct0hmdr","","","","null","Agent A","STIM_SET_1_REAL/713371.bmp_pp68_L1_V1.0_veridical_freeview_isoFalse_fps144.mp4"
"","","","call-function","30","363711","0.0-30.0","cct0hmdr","","","","","",""
"5660.945000000007","{""pre-1"":1}","[0]","survey-likert","31","369373","0.0-31.0","cct0hmdr","","","","","",""
"2690.9700000000303","{""pre-2"":2}","[0]","survey-likert","32","372065","0.0-32.0","cct0hmdr","","","","","",""
"6412.940000000002","{""pre-3"":2}","[0]","survey-likert","33","378479","0.0-33.0","cct0hmdr","","","","","",""
"4139.400000000023","{""post-5"":1}","[0]","survey-likert","34","382619","0.0-34.0","cct0hmdr","","","","","",""
"","","","call-function","35","382620","0.0-35.0","cct0hmdr","","","","","",""
"null","","","video-keyboard-response","36","385696","0.0-36.0","cct0hmdr","","","","null","Agent A","STIM_SET_1_REAL/1592657.bmp_pp98_L1_V1.0_veridical_freeview_isoFalse_fps144.mp4"
"","","","call-function","37","385696","0.0-37.0","cct0hmdr","","","","","",""
"10127.294999999984","{""pre-1"":1}","[0]","survey-likert","38","395825","0.0-38.0","cct0hmdr","","","","","",""
"11535.869999999995","{""pre-2"":1}","[0]","survey-likert","39","407362","0.0-39.0","cct0hmdr","","","","","",""
"3044.695000000007","{""pre-3"":2}","[0]","survey-likert","40","410409","0.0-40.0","cct0hmdr","","","","","",""
"2300.304999999993","{""post-5"":1}","[0]","survey-likert","41","412710","0.0-41.0","cct0hmdr","","","","","",""
"","","","call-function","42","412711","0.0-42.0","cct0hmdr","","","","","",""
"null","","","video-keyboard-response","43","415778","0.0-43.0","cct0hmdr","","","","null","Agent A","STIM_SET_1_REAL/713017.bmp_pp152_L2_V1.0_scrambled_freeview_isoFalse_fps144.mp4"
"","","","call-function","44","415780","0.0-44.0","cct0hmdr","","","","","",""
"3026.475000000035","{""pre-1"":1}","[0]","survey-likert","45","418807","0.0-45.0","cct0hmdr","","","","","",""
"2690.554999999993","{""pre-2"":2}","[0]","survey-likert","46","421499","0.0-46.0","cct0hmdr","","","","","",""
"6426.205000000016","{""pre-3"":2}","[0]","survey-likert","47","427926","0.0-47.0","cct0hmdr","","","","","",""
"9384.215000000026","{""post-5"":1}","[0]","survey-likert","48","437312","0.0-48.0","cct0hmdr","","","","","",""
"","","","call-function","49","437312","0.0-49.0","cct0hmdr","","","","","",""
"null","","","video-keyboard-response","50","440391","0.0-50.0","cct0hmdr","","","","null","Agent A","STIM_SET_1_REAL/713666.bmp_pp97_L3_V1.0_scrambled_freeview_isoFalse_fps144.mp4"
"","","","call-function","51","440391","0.0-51.0","cct0hmdr","","","","","",""
"8528.165000000037","{""pre-1"":0}","[0]","survey-likert","52","448920","0.0-52.0","cct0hmdr","","","","","",""
"2121.804999999993","{""pre-2"":0}","[0]","survey-likert","53","451043","0.0-53.0","cct0hmdr","","","","","",""
"3543.1999999999534","{""pre-3"":0}","[0]","survey-likert","54","454588","0.0-54.0","cct0hmdr","","","","","",""
"9459.809999999998","{""post-5"":3}","[0]","survey-likert","55","464050","0.0-55.0","cct0hmdr","","","","","",""
"","","","call-function","56","464050","0.0-56.0","cct0hmdr","","","","","",""
"null","","","video-keyboard-response","57","467125","0.0-57.0","cct0hmdr","","","","null","Agent A","STIM_SET_1_REAL/498253.bmp_pp67_L2_V1.0_veridical_freeview_isoFalse_fps144.mp4"
"","","","call-function","58","467126","0.0-58.0","cct0hmdr","","","","","",""
"12112.90499999997","{""pre-1"":1}","[0]","survey-likert","59","479240","0.0-59.0","cct0hmdr","","","","","",""
"2743.524999999965","{""pre-2"":1}","[0]","survey-likert","60","481985","0.0-60.0","cct0hmdr","","","","","",""
"5013.25","{""pre-3"":2}","[0]","survey-likert","61","486999","0.0-61.0","cct0hmdr","","","","","",""
"2489.359999999986","{""post-5"":1}","[0]","survey-likert","62","489490","0.0-62.0","cct0hmdr","","","","","",""
"","","","call-function","63","489490","0.0-63.0","cct0hmdr","","","","","",""
"null","","","video-keyboard-response","64","492560","0.0-64.0","cct0hmdr","","","","null","Agent A","STIM_SET_1_REAL/1592397.bmp_pp85_L3_V1.0_veridical_freeview_isoFalse_fps144.mp4"
"","","","call-function","65","492561","0.0-65.0","cct0hmdr","","","","","",""
"3754.335000000021","{""pre-1"":1}","[0]","survey-likert","66","496316","0.0-66.0","cct0hmdr","","","","","",""
"3320.7849999999744","{""pre-2"":2}","[0]","survey-likert","67","499638","0.0-67.0","cct0hmdr","","","","","",""
"2410.2550000000047","{""pre-3"":2}","[0]","survey-likert","68","502049","0.0-68.0","cct0hmdr","","","","","",""
"1534.6450000000186","{""post-5"":1}","[0]","survey-likert","69","503586","0.0-69.0","cct0hmdr","","","","","",""
"","","","call-function","70","503586","0.0-70.0","cct0hmdr","","","","","",""
"null","","","video-keyboard-response","71","506674","0.0-71.0","cct0hmdr","","","","null","Agent A","STIM_SET_1_REAL/285751.bmp_pp55_L3_V1.0_veridical_freeview_isoFalse_fps144.mp4"
"","","","call-function","72","506674","0.0-72.0","cct0hmdr","","","","","",""
"22178.224999999977","{""pre-1"":3}","[0]","survey-likert","73","528853","0.0-73.0","cct0hmdr","","","","","",""
"10236.025000000023","{""pre-2"":0}","[0]","survey-likert","74","539092","0.0-74.0","cct0hmdr","","","","","",""
"2756.2700000000186","{""pre-3"":0}","[0]","survey-likert","75","541850","0.0-75.0","cct0hmdr","","","","","",""
"8395.584999999963","{""post-5"":2}","[0]","survey-likert","76","550248","0.0-76.0","cct0hmdr","","","","","",""
"","","","call-function","77","550249","0.0-77.0","cct0hmdr","","","","","",""
"null","","","video-keyboard-response","78","553324","0.0-78.0","cct0hmdr","","","","null","Agent A","STIM_SET_1_REAL/498175.bmp_pp154_L1_V1.0_veridical_freeview_isoFalse_fps144.mp4"
"","","","call-function","79","553325","0.0-79.0","cct0hmdr","","","","","",""
"19671.53999999992","{""pre-1"":2}","[0]","survey-likert","80","572997","0.0-80.0","cct0hmdr","","","","","",""
"3296.0350000000326","{""pre-2"":1}","[0]","survey-likert","81","576295","0.0-81.0","cct0hmdr","","","","","",""
"9098.979999999981","{""pre-3"":2}","[0]","survey-likert","82","585395","0.0-82.0","cct0hmdr","","","","","",""
"3581.7550000000047","{""post-5"":1}","[0]","survey-likert","83","588977","0.0-83.0","cct0hmdr","","","","","",""
"","","","call-function","84","588978","0.0-84.0","cct0hmdr","","","","","",""
"null","","","video-keyboard-response","85","592040","0.0-85.0","cct0hmdr","","","","null","Agent A","STIM_SET_1_REAL/1592133.bmp_pp75_L1_V1.0_veridical_freeview_isoFalse_fps144.mp4"
"","","","call-function","86","592040","0.0-86.0","cct0hmdr","","","","","",""
"5092.789999999921","{""pre-1"":2}","[0]","survey-likert","87","597134","0.0-87.0","cct0hmdr","","","","","",""
"2058.3649999999907","{""pre-2"":2}","[0]","survey-likert","88","599193","0.0-88.0","cct0hmdr","","","","","",""
"3494.314999999944","{""pre-3"":1}","[0]","survey-likert","89","602689","0.0-89.0","cct0hmdr","","","","","",""
"2277.0200000000186","{""post-5"":1}","[0]","survey-likert","90","604968","0.0-90.0","cct0hmdr","","","","","",""
"","","","call-function","91","604969","0.0-91.0","cct0hmdr","","","","","",""
"null","","","video-keyboard-response","92","608029","0.0-92.0","cct0hmdr","","","","null","Agent A","STIM_SET_1_REAL/497950.bmp_pp151_L1_V1.0_veridical_freeview_isoFalse_fps144.mp4"
"","","","call-function","93","608029","0.0-93.0","cct0hmdr","","","","","",""
"8852.064999999944","{""pre-1"":2}","[0]","survey-likert","94","616882","0.0-94.0","cct0hmdr","","","","","",""
"4413.359999999986","{""pre-2"":2}","[0]","survey-likert","95","621297","0.0-95.0","cct0hmdr","","","","","",""
"2310.390000000014","{""pre-3"":1}","[0]","survey-likert","96","623609","0.0-96.0","cct0hmdr","","","","","",""
"2719.484999999986","{""post-5"":1}","[0]","survey-likert","97","626329","0.0-97.0","cct0hmdr","","","","","",""
"","","","call-function","98","626330","0.0-98.0","cct0hmdr","","","","","",""
"null","","","video-keyboard-response","99","629400","0.0-99.0","cct0hmdr","","","","null","Agent A","STIM_SET_1_REAL/1160168.bmp_pp53_L2_V1.0_veridical_freeview_isoFalse_fps144.mp4"
"","","","call-function","100","629401","0.0-100.0","cct0hmdr","","","","","",""
"7515.739999999991","{""pre-1"":1}","[0]","survey-likert","101","636918","0.0-101.0","cct0hmdr","","","","","",""
"3055.5350000000326","{""pre-2"":1}","[0]","survey-likert","102","639974","0.0-102.0","cct0hmdr","","","","","",""
"3282.179999999935","{""pre-3"":0}","[0]","survey-likert","103","643257","0.0-103.0","cct0hmdr","","","","","",""
"3764.329999999958","{""post-5"":2}","[0]","survey-likert","104","647023","0.0-104.0","cct0hmdr","","","","","",""
"","","","call-function","105","647024","0.0-105.0","cct0hmdr","","","","","",""
"null","","","video-keyboard-response","106","650085","0.0-106.0","cct0hmdr","","","","null","Agent A","STIM_SET_1_REAL/498149.bmp_pp99_L2_V1.0_veridical_freeview_isoFalse_fps144.mp4"
"","","","call-function","107","650085","0.0-107.0","cct0hmdr","","","","","",""
"11430.19000000006","{""pre-1"":1}","[0]","survey-likert","108","661517","0.0-108.0","cct0hmdr","","","","","",""
"3024.055000000051","{""pre-2"":1}","[0]","survey-likert","109","664543","0.0-109.0","cct0hmdr","","","","","",""
"11249.23999999999","{""pre-3"":1}","[0]","survey-likert","110","675794","0.0-110.0","cct0hmdr","","","","","",""
"1526.344999999972","{""post-5"":2}","[0]","survey-likert","111","677321","0.0-111.0","cct0hmdr","","","","","",""
"","","","call-function","112","677322","0.0-112.0","cct0hmdr","","","","","",""
"null","","","video-keyboard-response","113","680400","0.0-113.0","cct0hmdr","","","","null","Agent A","STIM_SET_1_REAL/1593146.bmp_pp93_L1_V1.0_scrambled_freeview_isoFalse_fps144.mp4"
"","","","call-function","114","680400","0.0-114.0","cct0hmdr","","","","","",""
"11961.33500000008","{""pre-1"":2}","[0]","survey-likert","115","692363","0.0-115.0","cct0hmdr","","","","","",""
"6979.5650000000605","{""pre-2"":2}","[0]","survey-likert","116","699343","0.0-116.0","cct0hmdr","","","","","",""
"23725.214999999967","{""pre-3"":2}","[0]","survey-likert","117","723070","0.0-117.0","cct0hmdr","","","","","",""
"4099.040000000037","{""post-5"":1}","[0]","survey-likert","118","727170","0.0-118.0","cct0hmdr","","","","","",""
"","","","call-function","119","727171","0.0-119.0","cct0hmdr","","","","","",""
"null","","","video-keyboard-response","120","730233","0.0-120.0","cct0hmdr","","","","null","Agent A","STIM_SET_1_REAL/713681.bmp_pp86_L2_V1.0_scrambled_freeview_isoFalse_fps144.mp4"
"","","","call-function","121","730233","0.0-121.0","cct0hmdr","","","","","",""
"3441.0250000000233","{""pre-1"":1}","[0]","survey-likert","122","733676","0.0-122.0","cct0hmdr","","","","","",""
"1758.8050000000512","{""pre-2"":1}","[0]","survey-likert","123","735436","0.0-123.0","cct0hmdr","","","","","",""
"17195.025000000023","{""pre-3"":0}","[0]","survey-likert","124","752633","0.0-124.0","cct0hmdr","","","","","",""
"2179.329999999958","{""post-5"":3}","[0]","survey-likert","125","754814","0.0-125.0","cct0hmdr","","","","","",""
"","","","call-function","126","754814","0.0-126.0","cct0hmdr","","","","","",""
"null","","","video-keyboard-response","127","757877","0.0-127.0","cct0hmdr","","","","null","Agent A","STIM_SET_1_REAL/713089.bmp_pp60_L3_V1.0_scrambled_freeview_isoFalse_fps144.mp4"
"","","","call-function","128","757877","0.0-128.0","cct0hmdr","","","","","",""
"6302.959999999963","{""pre-1"":2}","[0]","survey-likert","129","764181","0.0-129.0","cct0hmdr","","","","","",""
"1904.1899999999441","{""pre-2"":2}","[0]","survey-likert","130","766086","0.0-130.0","cct0hmdr","","","","","",""
"5893.260000000009","{""pre-3"":1}","[0]","survey-likert","131","771981","0.0-131.0","cct0hmdr","","","","","",""
"3131.8800000000047","{""post-5"":1}","[0]","survey-likert","132","775114","0.0-132.0","cct0hmdr","","","","","",""
"","","","call-function","133","775115","0.0-133.0","cct0hmdr","","","","","",""
"null","","","video-keyboard-response","134","778198","0.0-134.0","cct0hmdr","","","","null","Agent A","STIM_SET_1_REAL/1593041.bmp_pp58_L1_V1.0_scrambled_freeview_isoFalse_fps144.mp4"
"","","","call-function","135","778198","0.0-135.0","cct0hmdr","","","","","",""
"4941.015000000014","{""pre-1"":0}","[0]","survey-likert","136","783140","0.0-136.0","cct0hmdr","","","","","",""
"3995.3850000000093","{""pre-2"":0}","[0]","survey-likert","137","787137","0.0-137.0","cct0hmdr","","","","","",""
"19345.52000000002","{""pre-3"":0}","[0]","survey-likert","138","806484","0.0-138.0","cct0hmdr","","","","","",""
"8783.244999999995","{""post-5"":3}","[0]","survey-likert","139","815269","0.0-139.0","cct0hmdr","","","","","",""
"","","","call-function","140","815270","0.0-140.0","cct0hmdr","","","","","",""
"null","","","video-keyboard-response","141","818345","0.0-141.0","cct0hmdr","","","","null","Agent A","STIM_SET_1_REAL/498111.bmp_pp88_L2_V1.0_veridical_freeview_isoFalse_fps144.mp4"
"","","","call-function","142","818346","0.0-142.0","cct0hmdr","","","","","",""
"5831.030000000028","{""pre-1"":1}","[0]","survey-likert","143","824178","0.0-143.0","cct0hmdr","","","","","",""
"3253.6500000000233","{""pre-2"":1}","[0]","survey-likert","144","827433","0.0-144.0","cct0hmdr","","","","","",""
"10907.679999999935","{""pre-3"":1}","[0]","survey-likert","145","838342","0.0-145.0","cct0hmdr","","","","","",""
"1847.3850000000093","{""post-5"":2}","[0]","survey-likert","146","840190","0.0-146.0","cct0hmdr","","","","","",""
"","","","call-function","147","840191","0.0-147.0","cct0hmdr","","","","","",""
"null","","","video-keyboard-response","148","843264","0.0-148.0","cct0hmdr","","","","null","Agent A","STIM_SET_1_REAL/713760.bmp_pp81_L1_V1.0_scrambled_freeview_isoFalse_fps144.mp4"
"","","","call-function","149","843265","0.0-149.0","cct0hmdr","","","","","",""
"3924.2550000000047","{""pre-1"":1}","[0]","survey-likert","150","847190","0.0-150.0","cct0hmdr","","","","","",""
"1591.8850000000093","{""pre-2"":1}","[0]","survey-likert","151","848783","0.0-151.0","cct0hmdr","","","","","",""
"3380.0250000000233","{""pre-3"":1}","[0]","survey-likert","152","852164","0.0-152.0","cct0hmdr","","","","","",""
"1547.9650000000838","{""post-5"":2}","[0]","survey-likert","153","853714","0.0-153.0","cct0hmdr","","","","","",""
"","","","call-function","154","853714","0.0-154.0","cct0hmdr","","","","","",""
"null","","","video-keyboard-response","155","856793","0.0-155.0","cct0hmdr","","","","null","Agent A","STIM_SET_1_REAL/1159675.bmp_pp77_L3_V1.0_scrambled_freeview_isoFalse_fps144.mp4"
"","","","call-function","156","856793","0.0-156.0","cct0hmdr","","","","","",""
"3924.935000000056","{""pre-1"":2}","[0]","survey-likert","157","860719","0.0-157.0","cct0hmdr","","","","","",""
"22949.15499999991","{""pre-2"":1}","[0]","survey-likert","158","883670","0.0-158.0","cct0hmdr","","","","","",""
"1914.5200000000186","{""pre-3"":1}","[0]","survey-likert","159","885586","0.0-159.0","cct0hmdr","","","","","",""
"10867.219999999972","{""post-5"":1}","[0]","survey-likert","160","896455","0.0-160.0","cct0hmdr","","","","","",""
"13041.675000000047","","","instructions","161","909497","0.0-161.0","cct0hmdr","[{""page_index"":0,""viewing_time"":2679.240000000107},{""page_index"":1,""viewing_time"":6832.67499999993},{""page_index"":2,""viewing_time"":3529.0849999999627}]","","","","",""
"4881.875","","","instructions","162","914380","0.0-162.0","cct0hmdr","[{""page_index"":0,""viewing_time"":1381.7699999999022},{""page_index"":1,""viewing_time"":2384.9899999999907},{""page_index"":2,""viewing_time"":1114.9949999999953}]","","","","",""
"","","","call-function","163","914380","0.0-163.0","cct0hmdr","","","","","",""
"null","","","video-keyboard-response","164","917464","0.0-164.0","cct0hmdr","","","","null","Agent A","STIM_SET_1_REAL/1160168.bmp_pp53_L2_V1.0_scrambled_freeview_isoFalse_fps144.mp4"
"","","","call-function","165","917465","0.0-165.0","cct0hmdr","","","","","",""
"6561.489999999991","{""pre-1"":2}","[0]","survey-likert","166","924027","0.0-166.0","cct0hmdr","","","","","",""
"4238.844999999972","{""pre-2"":1}","[0]","survey-likert","167","928267","0.0-167.0","cct0hmdr","","","","","",""
"2728.0500000000466","{""pre-3"":0}","[0]","survey-likert","168","930996","0.0-168.0","cct0hmdr","","","","","",""
"2568.1500000000233","{""post-5"":1}","[0]","survey-likert","169","933566","0.0-169.0","cct0hmdr","","","","","",""
"","","","call-function","170","933566","0.0-170.0","cct0hmdr","","","","","",""
"null","","","video-keyboard-response","171","936628","0.0-171.0","cct0hmdr","","","","null","Agent A","STIM_SET_1_REAL/285994.bmp_pp92_L3_V1.0_scrambled_freeview_isoFalse_fps144.mp4"
"","","","call-function","172","936629","0.0-172.0","cct0hmdr","","","","","",""
"4305.609999999986","{""pre-1"":1}","[0]","survey-likert","173","940935","0.0-173.0","cct0hmdr","","","","","",""
"2855.0899999999674","{""pre-2"":1}","[0]","survey-likert","174","943792","0.0-174.0","cct0hmdr","","","","","",""
"1627.5899999999674","{""pre-3"":1}","[0]","survey-likert","175","945421","0.0-175.0","cct0hmdr","","","","","",""
"2591.975000000093","{""post-5"":1}","[0]","survey-likert","176","948015","0.0-176.0","cct0hmdr","","","","","",""
"","","","call-function","177","948016","0.0-177.0","cct0hmdr","","","","","",""
"null","","","video-keyboard-response","178","951075","0.0-178.0","cct0hmdr","","","","null","Agent A","STIM_SET_1_REAL/1592619.bmp_pp56_L3_V1.0_veridical_freeview_isoFalse_fps144.mp4"
"","","","call-function","179","951076","0.0-179.0","cct0hmdr","","","","","",""
"8113.114999999991","{""pre-1"":3}","[0]","survey-likert","180","959190","0.0-180.0","cct0hmdr","","","","","",""
"7385.570000000065","{""pre-2"":2}","[0]","survey-likert","181","966577","0.0-181.0","cct0hmdr","","","","","",""
"12377.050000000047","{""pre-3"":1}","[0]","survey-likert","182","978955","0.0-182.0","cct0hmdr","","","","","",""
"2420.1199999999953","{""post-5"":1}","[0]","survey-likert","183","981376","0.0-183.0","cct0hmdr","","","","","",""
"","","","call-function","184","981377","0.0-184.0","cct0hmdr","","","","","",""
"null","","","video-keyboard-response","185","984454","0.0-185.0","cct0hmdr","","","","null","Agent A","STIM_SET_1_REAL/713620.bmp_pp65_L3_V1.0_veridical_freeview_isoFalse_fps144.mp4"
"","","","call-function","186","984454","0.0-186.0","cct0hmdr","","","","","",""
"17739.609999999986","{""pre-1"":2}","[0]","survey-likert","187","1002195","0.0-187.0","cct0hmdr","","","","","",""
"2794.234999999986","{""pre-2"":1}","[0]","survey-likert","188","1004990","0.0-188.0","cct0hmdr","","","","","",""
"1146.8549999999814","{""pre-3"":2}","[0]","survey-likert","189","1006138","0.0-189.0","cct0hmdr","","","","","",""
"5109.780000000028","{""post-5"":2}","[0]","survey-likert","190","1011249","0.0-190.0","cct0hmdr","","","","","",""
"","","","call-function","191","1011249","0.0-191.0","cct0hmdr","","","","","",""
"null","","","video-keyboard-response","192","1014327","0.0-192.0","cct0hmdr","","","","null","Agent A","STIM_SET_1_REAL/1591954.bmp_pp62_L2_V1.0_scrambled_freeview_isoFalse_fps144.mp4"
"","","","call-function","193","1014328","0.0-193.0","cct0hmdr","","","","","",""
"20539.140000000014","{""pre-1"":2}","[0]","survey-likert","194","1034868","0.0-194.0","cct0hmdr","","","","","",""
"1815.0349999999162","{""pre-2"":1}","[0]","survey-likert","195","1036685","0.0-195.0","cct0hmdr","","","","","",""
"2963.3150000000605","{""pre-3"":1}","[0]","survey-likert","196","1039650","0.0-196.0","cct0hmdr","","","","","",""
"2061.7550000000047","{""post-5"":1}","[0]","survey-likert","197","1041713","0.0-197.0","cct0hmdr","","","","","",""
"","","","call-function","198","1041714","0.0-198.0","cct0hmdr","","","","","",""
"null","","","video-keyboard-response","199","1044780","0.0-199.0","cct0hmdr","","","","null","Agent A","STIM_SET_1_REAL/713513.bmp_pp62_L2_V1.0_veridical_freeview_isoFalse_fps144.mp4"
"","","","call-function","200","1044781","0.0-200.0","cct0hmdr","","","","","",""
"4960.485000000102","{""pre-1"":2}","[0]","survey-likert","201","1049742","0.0-201.0","cct0hmdr","","","","","",""
"3027.195000000065","{""pre-2"":1}","[0]","survey-likert","202","1052770","0.0-202.0","cct0hmdr","","","","","",""
"4882.879999999888","{""pre-3"":0}","[0]","survey-likert","203","1057654","0.0-203.0","cct0hmdr","","","","","",""
"2488.1699999999255","{""post-5"":2}","[0]","survey-likert","204","1060144","0.0-204.0","cct0hmdr","","","","","",""
"","","","call-function","205","1060144","0.0-205.0","cct0hmdr","","","","","",""
"null","","","video-keyboard-response","206","1063210","0.0-206.0","cct0hmdr","","","","null","Agent A","STIM_SET_1_REAL/1592286.bmp_pp52_L1_V1.0_veridical_freeview_isoFalse_fps144.mp4"
"","","","call-function","207","1063211","0.0-207.0","cct0hmdr","","","","","",""
"2915.5100000000093","{""pre-1"":2}","[0]","survey-likert","208","1066129","0.0-208.0","cct0hmdr","","","","","",""
"2596.570000000065","{""pre-2"":2}","[0]","survey-likert","209","1068727","0.0-209.0","cct0hmdr","","","","","",""
"1846.5749999999534","{""pre-3"":1}","[0]","survey-likert","210","1070574","0.0-210.0","cct0hmdr","","","","","",""
"2284.6200000001118","{""post-5"":0}","[0]","survey-likert","211","1072860","0.0-211.0","cct0hmdr","","","","","",""
"","","","call-function","212","1072860","0.0-212.0","cct0hmdr","","","","","",""
"null","","","video-keyboard-response","213","1075922","0.0-213.0","cct0hmdr","","","","null","Agent A","STIM_SET_1_REAL/1159572.bmp_pp71_L1_V1.0_scrambled_freeview_isoFalse_fps144.mp4"
"","","","call-function","214","1075923","0.0-214.0","cct0hmdr","","","","","",""
"11592.300000000047","{""pre-1"":1}","[0]","survey-likert","215","1087517","0.0-215.0","cct0hmdr","","","","","",""
"5920.864999999991","{""pre-2"":1}","[0]","survey-likert","216","1093439","0.0-216.0","cct0hmdr","","","","","",""
"3751.094999999972","{""pre-3"":1}","[0]","survey-likert","217","1097191","0.0-217.0","cct0hmdr","","","","","",""
"2690.934999999823","{""post-5"":2}","[0]","survey-likert","218","1099884","0.0-218.0","cct0hmdr","","","","","",""
"","","","call-function","219","1099884","0.0-219.0","cct0hmdr","","","","","",""
"null","","","video-keyboard-response","220","1102960","0.0-220.0","cct0hmdr","","","","null","Agent A","STIM_SET_1_REAL/1160127.bmp_pp90_L2_V1.0_veridical_freeview_isoFalse_fps144.mp4"
"","","","call-function","221","1102960","0.0-221.0","cct0hmdr","","","","","",""
"4827.939999999944","{""pre-1"":1}","[0]","survey-likert","222","1107789","0.0-222.0","cct0hmdr","","","","","",""
"3927.1949999998324","{""pre-2"":1}","[0]","survey-likert","223","1111718","0.0-223.0","cct0hmdr","","","","","",""
"2176.2600000000093","{""pre-3"":0}","[0]","survey-likert","224","1113895","0.0-224.0","cct0hmdr","","","","","",""
"5378.889999999898","{""post-5"":3}","[0]","survey-likert","225","1119275","0.0-225.0","cct0hmdr","","","","","",""
"","","","call-function","226","1119276","0.0-226.0","cct0hmdr","","","","","",""
"null","","","video-keyboard-response","227","1122349","0.0-227.0","cct0hmdr","","","","null","Agent A","STIM_SET_1_REAL/713684.bmp_pp85_L3_V1.0_scrambled_freeview_isoFalse_fps144.mp4"
"","","","call-function","228","1122350","0.0-228.0","cct0hmdr","","","","","",""
"31379.655000000028","{""pre-1"":1}","[0]","survey-likert","229","1153732","0.0-229.0","cct0hmdr","","","","","",""
"2994.840000000084","{""pre-2"":1}","[0]","survey-likert","230","1156728","0.0-230.0","cct0hmdr","","","","","",""
"4163.720000000205","{""pre-3"":0}","[0]","survey-likert","231","1160893","0.0-231.0","cct0hmdr","","","","","",""
"2699.4500000001863","{""post-5"":1}","[0]","survey-likert","232","1163594","0.0-232.0","cct0hmdr","","","","","",""
"","","","call-function","233","1163595","0.0-233.0","cct0hmdr","","","","","",""
"null","","","video-keyboard-response","234","1166671","0.0-234.0","cct0hmdr","","","","null","Agent A","STIM_SET_1_REAL/498155.bmp_pp61_L2_V1.0_veridical_freeview_isoFalse_fps144.mp4"
"","","","call-function","235","1166671","0.0-235.0","cct0hmdr","","","","","",""
"10676.485000000102","{""pre-1"":2}","[0]","survey-likert","236","1177349","0.0-236.0","cct0hmdr","","","","","",""
"2093.655000000028","{""pre-2"":2}","[0]","survey-likert","237","1179444","0.0-237.0","cct0hmdr","","","","","",""
"2440","{""pre-3"":1}","[0]","survey-likert","238","1181885","0.0-238.0","cct0hmdr","","","","","",""
"2080.6700000001583","{""post-5"":1}","[0]","survey-likert","239","1183967","0.0-239.0","cct0hmdr","","","","","",""
"","","","call-function","240","1183967","0.0-240.0","cct0hmdr","","","","","",""
"null","","","video-keyboard-response","241","1187036","0.0-241.0","cct0hmdr","","","","null","Agent A","STIM_SET_1_REAL/713135.bmp_pp54_L2_V1.0_veridical_freeview_isoFalse_fps144.mp4"
"","","","call-function","242","1187037","0.0-242.0","cct0hmdr","","","","","",""
"2361.3900000001304","{""pre-1"":2}","[0]","survey-likert","243","1189400","0.0-243.0","cct0hmdr","","","","","",""
"6614.5800000000745","{""pre-2"":2}","[0]","survey-likert","244","1196016","0.0-244.0","cct0hmdr","","","","","",""
"1967.0249999999069","{""pre-3"":2}","[0]","survey-likert","245","1197985","0.0-245.0","cct0hmdr","","","","","",""
"3342.844999999972","{""post-5"":0}","[0]","survey-likert","246","1201330","0.0-246.0","cct0hmdr","","","","","",""
"","","","call-function","247","1201331","0.0-247.0","cct0hmdr","","","","","",""
"null","","","video-keyboard-response","248","1204407","0.0-248.0","cct0hmdr","","","","null","Agent A","STIM_SET_1_REAL/1593146.bmp_pp93_L1_V1.0_veridical_freeview_isoFalse_fps144.mp4"
"","","","call-function","249","1204408","0.0-249.0","cct0hmdr","","","","","",""
"4726.810000000056","{""pre-1"":2}","[0]","survey-likert","250","1209136","0.0-250.0","cct0hmdr","","","","","",""
"2172.2700000000186","{""pre-2"":1}","[0]","survey-likert","251","1211309","0.0-251.0","cct0hmdr","","","","","",""
"2422.409999999916","{""pre-3"":0}","[0]","survey-likert","252","1213733","0.0-252.0","cct0hmdr","","","","","",""
"2455.6149999999907","{""post-5"":1}","[0]","survey-likert","253","1216189","0.0-253.0","cct0hmdr","","","","","",""
"","","","call-function","254","1216190","0.0-254.0","cct0hmdr","","","","","",""
"null","","","video-keyboard-response","255","1219261","0.0-255.0","cct0hmdr","","","","null","Agent A","STIM_SET_1_REAL/1159768.bmp_pp89_L1_V1.0_scrambled_freeview_isoFalse_fps144.mp4"
"","","","call-function","256","1219261","0.0-256.0","cct0hmdr","","","","","",""
"3513.25","{""pre-1"":1}","[0]","survey-likert","257","1222776","0.0-257.0","cct0hmdr","","","","","",""
"8083.655000000028","{""pre-2"":0}","[0]","survey-likert","258","1230860","0.0-258.0","cct0hmdr","","","","","",""
"1621.3799999998882","{""pre-3"":0}","[0]","survey-likert","259","1232483","0.0-259.0","cct0hmdr","","","","","",""
"1773.5700000000652","{""post-5"":2}","[0]","survey-likert","260","1234258","0.0-260.0","cct0hmdr","","","","","",""
"","","","call-function","261","1234258","0.0-261.0","cct0hmdr","","","","","",""
"null","","","video-keyboard-response","262","1237316","0.0-262.0","cct0hmdr","","","","null","Agent A","STIM_SET_1_REAL/1159446.bmp_pp60_L3_V1.0_scrambled_freeview_isoFalse_fps144.mp4"
"","","","call-function","263","1237317","0.0-263.0","cct0hmdr","","","","","",""
"14854.094999999972","{""pre-1"":1}","[0]","survey-likert","264","1252173","0.0-264.0","cct0hmdr","","","","","",""
"2124.5400000000373","{""pre-2"":2}","[0]","survey-likert","265","1254300","0.0-265.0","cct0hmdr","","","","","",""
"2083.1650000000373","{""pre-3"":1}","[0]","survey-likert","266","1256384","0.0-266.0","cct0hmdr","","","","","",""
"1717.3899999998976","{""post-5"":1}","[0]","survey-likert","267","1258103","0.0-267.0","cct0hmdr","","","","","",""
"","","","call-function","268","1258104","0.0-268.0","cct0hmdr","","","","","",""
"null","","","video-keyboard-response","269","1261166","0.0-269.0","cct0hmdr","","","","null","Agent A","STIM_SET_1_REAL/1593035.bmp_pp94_L2_V1.0_scrambled_freeview_isoFalse_fps144.mp4"
"","","","call-function","270","1261167","0.0-270.0","cct0hmdr","","","","","",""
"4096.879999999888","{""pre-1"":0}","[0]","survey-likert","271","1265265","0.0-271.0","cct0hmdr","","","","","",""
"2418.7999999998137","{""pre-2"":0}","[0]","survey-likert","272","1267685","0.0-272.0","cct0hmdr","","","","","",""
"1438.9399999999441","{""pre-3"":0}","[0]","survey-likert","273","1269125","0.0-273.0","cct0hmdr","","","","","",""
"3414.225000000093","{""post-5"":3}","[0]","survey-likert","274","1272541","0.0-274.0","cct0hmdr","","","","","",""
"","","","call-function","275","1272542","0.0-275.0","cct0hmdr","","","","","",""
"null","","","video-keyboard-response","276","1275612","0.0-276.0","cct0hmdr","","","","null","Agent A","STIM_SET_1_REAL/713017.bmp_pp152_L2_V1.0_veridical_freeview_isoFalse_fps144.mp4"
"","","","call-function","277","1275612","0.0-277.0","cct0hmdr","","","","","",""
"5033.449999999953","{""pre-1"":2}","[0]","survey-likert","278","1280647","0.0-278.0","cct0hmdr","","","","","",""
"2277.7600000000093","{""pre-2"":1}","[0]","survey-likert","279","1282925","0.0-279.0","cct0hmdr","","","","","",""
"1190.4899999999907","{""pre-3"":1}","[0]","survey-likert","280","1284117","0.0-280.0","cct0hmdr","","","","","",""
"2701.034999999916","{""post-5"":2}","[0]","survey-likert","281","1286819","0.0-281.0","cct0hmdr","","","","","",""
"","","","call-function","282","1286819","0.0-282.0","cct0hmdr","","","","","",""
"null","","","video-keyboard-response","283","1289881","0.0-283.0","cct0hmdr","","","","null","Agent A","STIM_SET_1_REAL/713779.bmp_pp152_L2_V1.0_scrambled_freeview_isoFalse_fps144.mp4"
"","","","call-function","284","1289881","0.0-284.0","cct0hmdr","","","","","",""
"9787.804999999935","{""pre-1"":1}","[0]","survey-likert","285","1299671","0.0-285.0","cct0hmdr","","","","","",""
"5922.329999999842","{""pre-2"":0}","[0]","survey-likert","286","1305595","0.0-286.0","cct0hmdr","","","","","",""
"1216.7250000000931","{""pre-3"":0}","[0]","survey-likert","287","1306813","0.0-287.0","cct0hmdr","","","","","",""
"1593.530000000028","{""post-5"":3}","[0]","survey-likert","288","1308408","0.0-288.0","cct0hmdr","","","","","",""
"","","","call-function","289","1308408","0.0-289.0","cct0hmdr","","","","","",""
"null","","","video-keyboard-response","290","1311486","0.0-290.0","cct0hmdr","","","","null","Agent A","STIM_SET_1_REAL/712977.bmp_pp51_L1_V1.0_veridical_freeview_isoFalse_fps144.mp4"
"","","","call-function","291","1311486","0.0-291.0","cct0hmdr","","","","","",""
"5783.700000000186","{""pre-1"":1}","[0]","survey-likert","292","1317271","0.0-292.0","cct0hmdr","","","","","",""
"1766.5600000000559","{""pre-2"":0}","[0]","survey-likert","293","1319039","0.0-293.0","cct0hmdr","","","","","",""
"1621.7950000001583","{""pre-3"":0}","[0]","survey-likert","294","1320662","0.0-294.0","cct0hmdr","","","","","",""
"1615.9950000001118","{""post-5"":3}","[0]","survey-likert","295","1322279","0.0-295.0","cct0hmdr","","","","","",""
"","","","call-function","296","1322279","0.0-296.0","cct0hmdr","","","","","",""
"null","","","video-keyboard-response","297","1325355","0.0-297.0","cct0hmdr","","","","null","Agent A","STIM_SET_1_REAL/713707.bmp_pp154_L1_V1.0_scrambled_freeview_isoFalse_fps144.mp4"
"","","","call-function","298","1325355","0.0-298.0","cct0hmdr","","","","","",""
"6212.505000000121","{""pre-1"":1}","[0]","survey-likert","299","1331569","0.0-299.0","cct0hmdr","","","","","",""
"2135.2600000000093","{""pre-2"":0}","[0]","survey-likert","300","1333705","0.0-300.0","cct0hmdr","","","","","",""
"2259.25","{""pre-3"":0}","[0]","survey-likert","301","1335965","0.0-301.0","cct0hmdr","","","","","",""
"1408.8500000000931","{""post-5"":3}","[0]","survey-likert","302","1337375","0.0-302.0","cct0hmdr","","","","","",""
"85652.06499999994","","","instructions","303","1423028","0.0-303.0","cct0hmdr","[{""page_index"":0,""viewing_time"":83589.03499999992},{""page_index"":1,""viewing_time"":1155.8149999999441},{""page_index"":2,""viewing_time"":907.0450000001583}]","","","","",""
"2797.7900000000373","","","instructions","304","1425826","0.0-304.0","cct0hmdr","[{""page_index"":0,""viewing_time"":639.3500000000931},{""page_index"":1,""viewing_time"":1352.119999999879},{""page_index"":2,""viewing_time"":806.2099999999627}]","","","","",""
"","","","call-function","305","1425826","0.0-305.0","cct0hmdr","","","","","",""
"null","","","video-keyboard-response","306","1428903","0.0-306.0","cct0hmdr","","","","null","Agent A","STIM_SET_1_REAL/1591954.bmp_pp62_L2_V1.0_veridical_freeview_isoFalse_fps144.mp4"
"","","","call-function","307","1428904","0.0-307.0","cct0hmdr","","","","","",""
"5942.364999999991","{""pre-1"":2}","[0]","survey-likert","308","1434847","0.0-308.0","cct0hmdr","","","","","",""
"2411.7299999999814","{""pre-2"":1}","[0]","survey-likert","309","1437260","0.0-309.0","cct0hmdr","","","","","",""
"1399.4250000000466","{""pre-3"":1}","[0]","survey-likert","310","1438662","0.0-310.0","cct0hmdr","","","","","",""
"3248.534999999916","{""post-5"":1}","[0]","survey-likert","311","1441912","0.0-311.0","cct0hmdr","","","","","",""
"","","","call-function","312","1441913","0.0-312.0","cct0hmdr","","","","","",""
"null","","","video-keyboard-response","313","1444992","0.0-313.0","cct0hmdr","","","","null","Agent A","STIM_SET_1_REAL/498155.bmp_pp61_L2_V1.0_scrambled_freeview_isoFalse_fps144.mp4"
"","","","call-function","314","1444992","0.0-314.0","cct0hmdr","","","","","",""
"3597.534999999916","{""pre-1"":2}","[0]","survey-likert","315","1448591","0.0-315.0","cct0hmdr","","","","","",""
"1665.785000000149","{""pre-2"":2}","[0]","survey-likert","316","1450258","0.0-316.0","cct0hmdr","","","","","",""
"2482.9899999999907","{""pre-3"":2}","[0]","survey-likert","317","1452743","0.0-317.0","cct0hmdr","","","","","",""
"3305.0799999998417","{""post-5"":1}","[0]","survey-likert","318","1456049","0.0-318.0","cct0hmdr","","","","","",""
"","","","call-function","319","1456049","0.0-319.0","cct0hmdr","","","","","",""
"null","","","video-keyboard-response","320","1459124","0.0-320.0","cct0hmdr","","","","null","Agent A","STIM_SET_1_REAL/1159784.bmp_pp73_L3_V1.0_scrambled_freeview_isoFalse_fps144.mp4"
"","","","call-function","321","1459124","0.0-321.0","cct0hmdr","","","","","",""
"6847.915000000037","{""pre-1"":1}","[0]","survey-likert","322","1465973","0.0-322.0","cct0hmdr","","","","","",""
"4509.030000000028","{""pre-2"":1}","[0]","survey-likert","323","1470483","0.0-323.0","cct0hmdr","","","","","",""
"1645.4499999999534","{""pre-3"":1}","[0]","survey-likert","324","1472130","0.0-324.0","cct0hmdr","","","","","",""
"4929.40000000014","{""post-5"":2}","[0]","survey-likert","325","1477060","0.0-325.0","cct0hmdr","","","","","",""
"","","","call-function","326","1477061","0.0-326.0","cct0hmdr","","","","","",""
"null","","","video-keyboard-response","327","1480130","0.0-327.0","cct0hmdr","","","","null","Agent A","STIM_SET_1_REAL/1592581.bmp_pp100_L3_V1.0_veridical_freeview_isoFalse_fps144.mp4"
"","","","call-function","328","1480130","0.0-328.0","cct0hmdr","","","","","",""
"4460.719999999972","{""pre-1"":2}","[0]","survey-likert","329","1484592","0.0-329.0","cct0hmdr","","","","","",""
"4159.920000000158","{""pre-2"":2}","[0]","survey-likert","330","1488753","0.0-330.0","cct0hmdr","","","","","",""
"2977.4799999999814","{""pre-3"":2}","[0]","survey-likert","331","1491732","0.0-331.0","cct0hmdr","","","","","",""
"2505.0800000000745","{""post-5"":0}","[0]","survey-likert","332","1494240","0.0-332.0","cct0hmdr","","","","","",""
"","","","call-function","333","1494240","0.0-333.0","cct0hmdr","","","","","",""
"null","","","video-keyboard-response","334","1497316","0.0-334.0","cct0hmdr","","","","null","Agent A","STIM_SET_1_REAL/1159855.bmp_pp99_L2_V1.0_veridical_freeview_isoFalse_fps144.mp4"
"","","","call-function","335","1497317","0.0-335.0","cct0hmdr","","","","","",""
"3539.1650000000373","{""pre-1"":2}","[0]","survey-likert","336","1500857","0.0-336.0","cct0hmdr","","","","","",""
"5522.475000000093","{""pre-2"":2}","[0]","survey-likert","337","1506381","0.0-337.0","cct0hmdr","","","","","",""
"5517.129999999888","{""pre-3"":1}","[0]","survey-likert","338","1511899","0.0-338.0","cct0hmdr","","","","","",""
"3866.5400000000373","{""post-5"":1}","[0]","survey-likert","339","1515767","0.0-339.0","cct0hmdr","","","","","",""
"","","","call-function","340","1515767","0.0-340.0","cct0hmdr","","","","","",""
"null","","","video-keyboard-response","341","1518852","0.0-341.0","cct0hmdr","","","","null","Agent A","STIM_SET_1_REAL/1592499.bmp_pp96_L2_V1.0_veridical_freeview_isoFalse_fps144.mp4"
"","","","call-function","342","1518853","0.0-342.0","cct0hmdr","","","","","",""
"8305.304999999935","{""pre-1"":1}","[0]","survey-likert","343","1527160","0.0-343.0","cct0hmdr","","","","","",""
"2340.3549999999814","{""pre-2"":0}","[0]","survey-likert","344","1529501","0.0-344.0","cct0hmdr","","","","","",""
"1272.3000000000466","{""pre-3"":0}","[0]","survey-likert","345","1530774","0.0-345.0","cct0hmdr","","","","","",""
"1685.6399999998976","{""post-5"":3}","[0]","survey-likert","346","1532461","0.0-346.0","cct0hmdr","","","","","",""
"","","","call-function","347","1532461","0.0-347.0","cct0hmdr","","","","","",""
"null","","","video-keyboard-response","348","1535537","0.0-348.0","cct0hmdr","","","","null","Agent A","STIM_SET_1_REAL/1159675.bmp_pp77_L3_V1.0_veridical_freeview_isoFalse_fps144.mp4"
"","","","call-function","349","1535537","0.0-349.0","cct0hmdr","","","","","",""
"9557.024999999907","{""pre-1"":2}","[0]","survey-likert","350","1545095","0.0-350.0","cct0hmdr","","","","","",""
"62504.919999999925","{""pre-2"":2}","[0]","survey-likert","351","1607601","0.0-351.0","cct0hmdr","","","","","",""
"2429.8700000001118","{""pre-3"":2}","[0]","survey-likert","352","1610032","0.0-352.0","cct0hmdr","","","","","",""
"1090.9299999999348","{""post-5"":1}","[0]","survey-likert","353","1611124","0.0-353.0","cct0hmdr","","","","","",""
"","","","call-function","354","1611125","0.0-354.0","cct0hmdr","","","","","",""
"null","","","video-keyboard-response","355","1614187","0.0-355.0","cct0hmdr","","","","null","Agent A","STIM_SET_1_REAL/1592890.bmp_pp82_L2_V1.0_veridical_freeview_isoFalse_fps144.mp4"
"","","","call-function","356","1614188","0.0-356.0","cct0hmdr","","","","","",""
"3215.25","{""pre-1"":1}","[0]","survey-likert","357","1617405","0.0-357.0","cct0hmdr","","","","","",""
"3079.7399999999907","{""pre-2"":1}","[0]","survey-likert","358","1620486","0.0-358.0","cct0hmdr","","","","","",""
"1618.5100000000093","{""pre-3"":1}","[0]","survey-likert","359","1622106","0.0-359.0","cct0hmdr","","","","","",""
"1468.1299999998882","{""post-5"":2}","[0]","survey-likert","360","1623575","0.0-360.0","cct0hmdr","","","","","",""
"","","","call-function","361","1623575","0.0-361.0","cct0hmdr","","","","","",""
"null","","","video-keyboard-response","362","1626648","0.0-362.0","cct0hmdr","","","","null","Agent A","STIM_SET_1_REAL/1159768.bmp_pp89_L1_V1.0_veridical_freeview_isoFalse_fps144.mp4"
"","","","call-function","363","1626648","0.0-363.0","cct0hmdr","","","","","",""
"7654.214999999851","{""pre-1"":1}","[0]","survey-likert","364","1634304","0.0-364.0","cct0hmdr","","","","","",""
"1803.2950000001583","{""pre-2"":1}","[0]","survey-likert","365","1636108","0.0-365.0","cct0hmdr","","","","","",""
"1234.2399999999907","{""pre-3"":1}","[0]","survey-likert","366","1637344","0.0-366.0","cct0hmdr","","","","","",""
"3756.130000000121","{""post-5"":1}","[0]","survey-likert","367","1641101","0.0-367.0","cct0hmdr","","","","","",""
"","","","call-function","368","1641101","0.0-368.0","cct0hmdr","","","","","",""
"null","","","video-keyboard-response","369","1644163","0.0-369.0","cct0hmdr","","","","null","Agent A","STIM_SET_1_REAL/1159447.bmp_pp70_L2_V1.0_veridical_freeview_isoFalse_fps144.mp4"
"","","","call-function","370","1644163","0.0-370.0","cct0hmdr","","","","","",""
"5414.745000000112","{""pre-1"":2}","[0]","survey-likert","371","1649579","0.0-371.0","cct0hmdr","","","","","",""
"11115.455000000075","{""pre-2"":2}","[0]","survey-likert","372","1660695","0.0-372.0","cct0hmdr","","","","","",""
"1774.0049999998882","{""pre-3"":2}","[0]","survey-likert","373","1662470","0.0-373.0","cct0hmdr","","","","","",""
"2817.4150000000373","{""post-5"":0}","[0]","survey-likert","374","1665289","0.0-374.0","cct0hmdr","","","","","",""
"","","","call-function","375","1665289","0.0-375.0","cct0hmdr","","","","","",""
"null","","","video-keyboard-response","376","1668377","0.0-376.0","cct0hmdr","","","","null","Agent A","STIM_SET_1_REAL/61537.bmp_pp73_L3_V1.0_scrambled_freeview_isoFalse_fps144.mp4"
"","","","call-function","377","1668378","0.0-377.0","cct0hmdr","","","","","",""
"3436.320000000065","{""pre-1"":0}","[0]","survey-likert","378","1671815","0.0-378.0","cct0hmdr","","","","","",""
"1882.4650000000838","{""pre-2"":0}","[0]","survey-likert","379","1673698","0.0-379.0","cct0hmdr","","","","","",""
"1460","{""pre-3"":0}","[0]","survey-likert","380","1675159","0.0-380.0","cct0hmdr","","","","","",""
"1914.9899999999907","{""post-5"":3}","[0]","survey-likert","381","1677075","0.0-381.0","cct0hmdr","","","","","",""
"","","","call-function","382","1677076","0.0-382.0","cct0hmdr","","","","","",""
"null","","","video-keyboard-response","383","1680149","0.0-383.0","cct0hmdr","","","","null","Agent A","STIM_SET_1_REAL/712977.bmp_pp51_L1_V1.0_scrambled_freeview_isoFalse_fps144.mp4"
"","","","call-function","384","1680150","0.0-384.0","cct0hmdr","","","","","",""
"4062.6200000001118","{""pre-1"":1}","[0]","survey-likert","385","1684214","0.0-385.0","cct0hmdr","","","","","",""
"3421.4499999999534","{""pre-2"":1}","[0]","survey-likert","386","1687637","0.0-386.0","cct0hmdr","","","","","",""
"3656.679999999935","{""pre-3"":0}","[0]","survey-likert","387","1691295","0.0-387.0","cct0hmdr","","","","","",""
"1597.5849999999627","{""post-5"":2}","[0]","survey-likert","388","1692893","0.0-388.0","cct0hmdr","","","","","",""
"","","","call-function","389","1692894","0.0-389.0","cct0hmdr","","","","","",""
"null","","","video-keyboard-response","390","1695966","0.0-390.0","cct0hmdr","","","","null","Agent A","STIM_SET_1_REAL/1159777.bmp_pp77_L3_V1.0_veridical_freeview_isoFalse_fps144.mp4"
"","","","call-function","391","1695967","0.0-391.0","cct0hmdr","","","","","",""
"2676.4599999999627","{""pre-1"":2}","[0]","survey-likert","392","1698644","0.0-392.0","cct0hmdr","","","","","",""
"1804.4550000000745","{""pre-2"":2}","[0]","survey-likert","393","1700450","0.0-393.0","cct0hmdr","","","","","",""
"5252.244999999879","{""pre-3"":2}","[0]","survey-likert","394","1705703","0.0-394.0","cct0hmdr","","","","","",""
"7625.100000000093","{""post-5"":1}","[0]","survey-likert","395","1713329","0.0-395.0","cct0hmdr","","","","","",""
"","","","call-function","396","1713330","0.0-396.0","cct0hmdr","","","","","",""
"null","","","video-keyboard-response","397","1716403","0.0-397.0","cct0hmdr","","","","null","Agent A","STIM_SET_1_REAL/61537.bmp_pp73_L3_V1.0_veridical_freeview_isoFalse_fps144.mp4"
"","","","call-function","398","1716403","0.0-398.0","cct0hmdr","","","","","",""
"10735.630000000121","{""pre-1"":1}","[0]","survey-likert","399","1727140","0.0-399.0","cct0hmdr","","","","","",""
"1412.655000000028","{""pre-2"":1}","[0]","survey-likert","400","1728554","0.0-400.0","cct0hmdr","","","","","",""
"1369.8700000001118","{""pre-3"":1}","[0]","survey-likert","401","1729924","0.0-401.0","cct0hmdr","","","","","",""
"1339.8249999999534","{""post-5"":1}","[0]","survey-likert","402","1731265","0.0-402.0","cct0hmdr","","","","","",""
"","","","call-function","403","1731266","0.0-403.0","cct0hmdr","","","","","",""
"null","","","video-keyboard-response","404","1734327","0.0-404.0","cct0hmdr","","","","null","Agent A","STIM_SET_1_REAL/713403.bmp_pp80_L3_V1.0_veridical_freeview_isoFalse_fps144.mp4"
"","","","call-function","405","1734328","0.0-405.0","cct0hmdr","","","","","",""
"3319.0149999998976","{""pre-1"":1}","[0]","survey-likert","406","1737648","0.0-406.0","cct0hmdr","","","","","",""
"3693.1400000001304","{""pre-2"":0}","[0]","survey-likert","407","1741343","0.0-407.0","cct0hmdr","","","","","",""
"1373.9449999998324","{""pre-3"":0}","[0]","survey-likert","408","1742718","0.0-408.0","cct0hmdr","","","","","",""
"1584.839999999851","{""post-5"":1}","[0]","survey-likert","409","1744305","0.0-409.0","cct0hmdr","","","","","",""
"","","","call-function","410","1744306","0.0-410.0","cct0hmdr","","","","","",""
"null","","","video-keyboard-response","411","1747380","0.0-411.0","cct0hmdr","","","","null","Agent A","STIM_SET_1_REAL/713620.bmp_pp65_L3_V1.0_scrambled_freeview_isoFalse_fps144.mp4"
"","","","call-function","412","1747381","0.0-412.0","cct0hmdr","","","","","",""
"4212.675000000047","{""pre-1"":1}","[0]","survey-likert","413","1751595","0.0-413.0","cct0hmdr","","","","","",""
"2993.6049999999814","{""pre-2"":1}","[0]","survey-likert","414","1754590","0.0-414.0","cct0hmdr","","","","","",""
"6734.450000000186","{""pre-3"":0}","[0]","survey-likert","415","1761325","0.0-415.0","cct0hmdr","","","","","",""
"4807.729999999981","{""post-5"":2}","[0]","survey-likert","416","1766134","0.0-416.0","cct0hmdr","","","","","",""
"","","","call-function","417","1766135","0.0-417.0","cct0hmdr","","","","","",""
"null","","","video-keyboard-response","418","1769201","0.0-418.0","cct0hmdr","","","","null","Agent A","STIM_SET_1_REAL/1159829.bmp_pp91_L3_V1.0_scrambled_freeview_isoFalse_fps144.mp4"
"","","","call-function","419","1769202","0.0-419.0","cct0hmdr","","","","","",""
"2780.024999999907","{""pre-1"":1}","[0]","survey-likert","420","1771983","0.0-420.0","cct0hmdr","","","","","",""
"1646.1450000000186","{""pre-2"":0}","[0]","survey-likert","421","1773630","0.0-421.0","cct0hmdr","","","","","",""
"1313.4849999998696","{""pre-3"":0}","[0]","survey-likert","422","1774944","0.0-422.0","cct0hmdr","","","","","",""
"2861.2049999998417","{""post-5"":2}","[0]","survey-likert","423","1777807","0.0-423.0","cct0hmdr","","","","","",""
"","","","call-function","424","1777807","0.0-424.0","cct0hmdr","","","","","",""
"null","","","video-keyboard-response","425","1780869","0.0-425.0","cct0hmdr","","","","null","Agent A","STIM_SET_1_REAL/1593035.bmp_pp94_L2_V1.0_veridical_freeview_isoFalse_fps144.mp4"
"","","","call-function","426","1780869","0.0-426.0","cct0hmdr","","","","","",""
"6621.715000000084","{""pre-1"":1}","[0]","survey-likert","427","1787492","0.0-427.0","cct0hmdr","","","","","",""
"1506.5800000000745","{""pre-2"":0}","[0]","survey-likert","428","1789000","0.0-428.0","cct0hmdr","","","","","",""
"1328.875","{""pre-3"":0}","[0]","survey-likert","429","1790330","0.0-429.0","cct0hmdr","","","","","",""
"1227.8349999999627","{""post-5"":2}","[0]","survey-likert","430","1791559","0.0-430.0","cct0hmdr","","","","","",""
"","","","call-function","431","1791559","0.0-431.0","cct0hmdr","","","","","",""
"null","","","video-keyboard-response","432","1794621","0.0-432.0","cct0hmdr","","","","null","Agent A","STIM_SET_1_REAL/498170.bmp_pp153_L3_V1.0_veridical_freeview_isoFalse_fps144.mp4"
"","","","call-function","433","1794622","0.0-433.0","cct0hmdr","","","","","",""
"5328.135000000009","{""pre-1"":0}","[0]","survey-likert","434","1799952","0.0-434.0","cct0hmdr","","","","","",""
"1550.1699999999255","{""pre-2"":0}","[0]","survey-likert","435","1801504","0.0-435.0","cct0hmdr","","","","","",""
"1597.190000000177","{""pre-3"":0}","[0]","survey-likert","436","1803102","0.0-436.0","cct0hmdr","","","","","",""
"6238.8300000000745","{""post-5"":3}","[0]","survey-likert","437","1809342","0.0-437.0","cct0hmdr","","","","","",""
"","","","call-function","438","1809343","0.0-438.0","cct0hmdr","","","","","",""
"null","","","video-keyboard-response","439","1812418","0.0-439.0","cct0hmdr","","","","null","Agent A","STIM_SET_1_REAL/498253.bmp_pp67_L2_V1.0_scrambled_freeview_isoFalse_fps144.mp4"
"","","","call-function","440","1812418","0.0-440.0","cct0hmdr","","","","","",""
"30662.844999999972","{""pre-1"":1}","[0]","survey-likert","441","1843082","0.0-441.0","cct0hmdr","","","","","",""
"1481.4249999998137","{""pre-2"":1}","[0]","survey-likert","442","1844565","0.0-442.0","cct0hmdr","","","","","",""
"1941.4399999999441","{""pre-3"":0}","[0]","survey-likert","443","1846508","0.0-443.0","cct0hmdr","","","","","",""
"1466.1899999999441","{""post-5"":2}","[0]","survey-likert","444","1847975","0.0-444.0","cct0hmdr","","","","","",""
"15223.790000000037","","","instructions","445","1863199","0.0-445.0","cct0hmdr","[{""page_index"":0,""viewing_time"":13063.344999999972},{""page_index"":1,""viewing_time"":1048.5250000001397},{""page_index"":2,""viewing_time"":1111.7549999998882}]","","","","",""
"2311.605000000214","","","instructions","446","1865511","0.0-446.0","cct0hmdr","[{""page_index"":0,""viewing_time"":776.5400000000373},{""page_index"":1,""viewing_time"":888.9650000000838},{""page_index"":2,""viewing_time"":646}]","","","","",""
"","","","call-function","447","1865512","0.0-447.0","cct0hmdr","","","","","",""
"null","","","video-keyboard-response","448","1868581","0.0-448.0","cct0hmdr","","","","null","Agent A","STIM_SET_1_REAL/1591961.bmp_pp67_L2_V1.0_veridical_freeview_isoFalse_fps144.mp4"
"","","","call-function","449","1868581","0.0-449.0","cct0hmdr","","","","","",""
"2883.9850000001024","{""pre-1"":1}","[0]","survey-likert","450","1871466","0.0-450.0","cct0hmdr","","","","","",""
"1428.630000000121","{""pre-2"":0}","[0]","survey-likert","451","1872896","0.0-451.0","cct0hmdr","","","","","",""
"1773.469999999972","{""pre-3"":0}","[0]","survey-likert","452","1874670","0.0-452.0","cct0hmdr","","","","","",""
"2255.779999999795","{""post-5"":2}","[0]","survey-likert","453","1876928","0.0-453.0","cct0hmdr","","","","","",""
"","","","call-function","454","1876929","0.0-454.0","cct0hmdr","","","","","",""
"null","","","video-keyboard-response","455","1879997","0.0-455.0","cct0hmdr","","","","null","Agent A","STIM_SET_1_REAL/1592397.bmp_pp85_L3_V1.0_scrambled_freeview_isoFalse_fps144.mp4"
"","","","call-function","456","1879997","0.0-456.0","cct0hmdr","","","","","",""
"3703.9799999999814","{""pre-1"":1}","[0]","survey-likert","457","1883702","0.0-457.0","cct0hmdr","","","","","",""
"5154.125","{""pre-2"":1}","[0]","survey-likert","458","1888858","0.0-458.0","cct0hmdr","","","","","",""
"1423.594999999972","{""pre-3"":1}","[0]","survey-likert","459","1890282","0.0-459.0","cct0hmdr","","","","","",""
"2051.570000000065","{""post-5"":1}","[0]","survey-likert","460","1892335","0.0-460.0","cct0hmdr","","","","","",""
"","","","call-function","461","1892336","0.0-461.0","cct0hmdr","","","","","",""
"null","","","video-keyboard-response","462","1895405","0.0-462.0","cct0hmdr","","","","null","Agent A","STIM_SET_1_REAL/713796.bmp_pp84_L3_V1.0_scrambled_freeview_isoFalse_fps144.mp4"
"","","","call-function","463","1895406","0.0-463.0","cct0hmdr","","","","","",""
"2434.155000000028","{""pre-1"":2}","[0]","survey-likert","464","1897841","0.0-464.0","cct0hmdr","","","","","",""
"1798.160000000149","{""pre-2"":2}","[0]","survey-likert","465","1899640","0.0-465.0","cct0hmdr","","","","","",""
"6295.789999999804","{""pre-3"":3}","[0]","survey-likert","466","1905937","0.0-466.0","cct0hmdr","","","","","",""
"7785.560000000056","{""post-5"":1}","[0]","survey-likert","467","1913724","0.0-467.0","cct0hmdr","","","","","",""
"","","","call-function","468","1913724","0.0-468.0","cct0hmdr","","","","","",""
"null","","","video-keyboard-response","469","1916793","0.0-469.0","cct0hmdr","","","","null","Agent A","STIM_SET_1_REAL/285933.bmp_pp81_L1_V1.0_scrambled_freeview_isoFalse_fps144.mp4"
"","","","call-function","470","1916794","0.0-470.0","cct0hmdr","","","","","",""
"6339.64000000013","{""pre-1"":2}","[0]","survey-likert","471","1923134","0.0-471.0","cct0hmdr","","","","","",""
"2227.7099999999627","{""pre-2"":1}","[0]","survey-likert","472","1925363","0.0-472.0","cct0hmdr","","","","","",""
"1322.6100000001024","{""pre-3"":1}","[0]","survey-likert","473","1926687","0.0-473.0","cct0hmdr","","","","","",""
"6654.520000000019","{""post-5"":1}","[0]","survey-likert","474","1933343","0.0-474.0","cct0hmdr","","","","","",""
"","","","call-function","475","1933345","0.0-475.0","cct0hmdr","","","","","",""
"null","","","video-keyboard-response","476","1936407","0.0-476.0","cct0hmdr","","","","null","Agent A","STIM_SET_1_REAL/1159447.bmp_pp70_L2_V1.0_scrambled_freeview_isoFalse_fps144.mp4"
"","","","call-function","477","1936408","0.0-477.0","cct0hmdr","","","","","",""
"6432.204999999842","{""pre-1"":1}","[0]","survey-likert","478","1942841","0.0-478.0","cct0hmdr","","","","","",""
"1514.469999999972","{""pre-2"":1}","[0]","survey-likert","479","1944358","0.0-479.0","cct0hmdr","","","","","",""
"1913.3200000000652","{""pre-3"":1}","[0]","survey-likert","480","1946272","0.0-480.0","cct0hmdr","","","","","",""
"1573.0800000000745","{""post-5"":2}","[0]","survey-likert","481","1947846","0.0-481.0","cct0hmdr","","","","","",""
"","","","call-function","482","1947847","0.0-482.0","cct0hmdr","","","","","",""
"null","","","video-keyboard-response","483","1950905","0.0-483.0","cct0hmdr","","","","null","Agent A","STIM_SET_1_REAL/1592351.bmp_pp51_L1_V1.0_veridical_freeview_isoFalse_fps144.mp4"
"","","","call-function","484","1950905","0.0-484.0","cct0hmdr","","","","","",""
"2494.4849999998696","{""pre-1"":2}","[0]","survey-likert","485","1953401","0.0-485.0","cct0hmdr","","","","","",""
"1928.714999999851","{""pre-2"":1}","[0]","survey-likert","486","1955331","0.0-486.0","cct0hmdr","","","","","",""
"1196.7299999999814","{""pre-3"":1}","[0]","survey-likert","487","1956529","0.0-487.0","cct0hmdr","","","","","",""
"1318.3950000000186","{""post-5"":1}","[0]","survey-likert","488","1957848","0.0-488.0","cct0hmdr","","","","","",""
"","","","call-function","489","1957849","0.0-489.0","cct0hmdr","","","","","",""
"null","","","video-keyboard-response","490","1960922","0.0-490.0","cct0hmdr","","","","null","Agent A","STIM_SET_1_REAL/1159784.bmp_pp73_L3_V1.0_veridical_freeview_isoFalse_fps144.mp4"
"","","","call-function","491","1960923","0.0-491.0","cct0hmdr","","","","","",""
"4475.720000000205","{""pre-1"":2}","[0]","survey-likert","492","1965399","0.0-492.0","cct0hmdr","","","","","",""
"1890.464999999851","{""pre-2"":1}","[0]","survey-likert","493","1967291","0.0-493.0","cct0hmdr","","","","","",""
"1484.9000000001397","{""pre-3"":1}","[0]","survey-likert","494","1968777","0.0-494.0","cct0hmdr","","","","","",""
"1285.7700000000186","{""post-5"":1}","[0]","survey-likert","495","1970064","0.0-495.0","cct0hmdr","","","","","",""
"","","","call-function","496","1970064","0.0-496.0","cct0hmdr","","","","","",""
"null","","","video-keyboard-response","497","1973155","0.0-497.0","cct0hmdr","","","","null","Agent A","STIM_SET_1_REAL/1592657.bmp_pp98_L1_V1.0_scrambled_freeview_isoFalse_fps144.mp4"
"","","","call-function","498","1973156","0.0-498.0","cct0hmdr","","","","","",""
"4699.854999999981","{""pre-1"":1}","[0]","survey-likert","499","1977856","0.0-499.0","cct0hmdr","","","","","",""
"2552.715000000084","{""pre-2"":0}","[0]","survey-likert","500","1980410","0.0-500.0","cct0hmdr","","","","","",""
"1350.7399999999907","{""pre-3"":0}","[0]","survey-likert","501","1981762","0.0-501.0","cct0hmdr","","","","","",""
"3313.154999999795","{""post-5"":2}","[0]","survey-likert","502","1985076","0.0-502.0","cct0hmdr","","","","","",""
"","","","call-function","503","1985077","0.0-503.0","cct0hmdr","","","","","",""
"null","","","video-keyboard-response","504","1988172","0.0-504.0","cct0hmdr","","","","null","Agent A","STIM_SET_1_REAL/713796.bmp_pp84_L3_V1.0_veridical_freeview_isoFalse_fps144.mp4"
"","","","call-function","505","1988173","0.0-505.0","cct0hmdr","","","","","",""
"7065.925000000047","{""pre-1"":2}","[0]","survey-likert","506","1995240","0.0-506.0","cct0hmdr","","","","","",""
"6723.254999999888","{""pre-2"":2}","[0]","survey-likert","507","2001966","0.0-507.0","cct0hmdr","","","","","",""
"2040.3900000001304","{""pre-3"":2}","[0]","survey-likert","508","2004008","0.0-508.0","cct0hmdr","","","","","",""
"5430.270000000019","{""post-5"":0}","[0]","survey-likert","509","2009440","0.0-509.0","cct0hmdr","","","","","",""
"","","","call-function","510","2009440","0.0-510.0","cct0hmdr","","","","","",""
"null","","","video-keyboard-response","511","2012520","0.0-511.0","cct0hmdr","","","","null","Agent A","STIM_SET_1_REAL/713593.bmp_pp64_L1_V1.0_veridical_freeview_isoFalse_fps144.mp4"
"","","","call-function","512","2012520","0.0-512.0","cct0hmdr","","","","","",""
"5748.600000000093","{""pre-1"":2}","[0]","survey-likert","513","2018270","0.0-513.0","cct0hmdr","","","","","",""
"1369.6049999999814","{""pre-2"":1}","[0]","survey-likert","514","2019641","0.0-514.0","cct0hmdr","","","","","",""
"3930.2099999999627","{""pre-3"":1}","[0]","survey-likert","515","2023572","0.0-515.0","cct0hmdr","","","","","",""
"3014.2399999999907","{""post-5"":1}","[0]","survey-likert","516","2026588","0.0-516.0","cct0hmdr","","","","","",""
"","","","call-function","517","2026588","0.0-517.0","cct0hmdr","","","","","",""
"null","","","video-keyboard-response","518","2029663","0.0-518.0","cct0hmdr","","","","null","Agent A","STIM_SET_1_REAL/1592807.bmp_pp68_L1_V1.0_veridical_freeview_isoFalse_fps144.mp4"
"","","","call-function","519","2029664","0.0-519.0","cct0hmdr","","","","","",""
"8065.485000000102","{""pre-1"":2}","[0]","survey-likert","520","2037730","0.0-520.0","cct0hmdr","","","","","",""
"3659.5849999999627","{""pre-2"":1}","[0]","survey-likert","521","2041391","0.0-521.0","cct0hmdr","","","","","",""
"2387.439999999944","{""pre-3"":0}","[0]","survey-likert","522","2043780","0.0-522.0","cct0hmdr","","","","","",""
"2193.8199999998324","{""post-5"":1}","[0]","survey-likert","523","2045975","0.0-523.0","cct0hmdr","","","","","",""
"","","","call-function","524","2045975","0.0-524.0","cct0hmdr","","","","","",""
"null","","","video-keyboard-response","525","2049044","0.0-525.0","cct0hmdr","","","","null","Agent A","STIM_SET_1_REAL/1592581.bmp_pp100_L3_V1.0_scrambled_freeview_isoFalse_fps144.mp4"
"","","","call-function","526","2049045","0.0-526.0","cct0hmdr","","","","","",""
"13546.65000000014","{""pre-1"":1}","[0]","survey-likert","527","2062593","0.0-527.0","cct0hmdr","","","","","",""
"5359.389999999898","{""pre-2"":1}","[0]","survey-likert","528","2067955","0.0-528.0","cct0hmdr","","","","","",""
"3128.655000000028","{""pre-3"":1}","[0]","survey-likert","529","2071085","0.0-529.0","cct0hmdr","","","","","",""
"1941.505000000121","{""post-5"":1}","[0]","survey-likert","530","2073028","0.0-530.0","cct0hmdr","","","","","",""
"","","","call-function","531","2073029","0.0-531.0","cct0hmdr","","","","","",""
"null","","","video-keyboard-response","532","2076114","0.0-532.0","cct0hmdr","","","","null","Agent A","STIM_SET_1_REAL/1593041.bmp_pp58_L1_V1.0_veridical_freeview_isoFalse_fps144.mp4"
"","","","call-function","533","2076114","0.0-533.0","cct0hmdr","","","","","",""
"9885.65000000014","{""pre-1"":1}","[0]","survey-likert","534","2086001","0.0-534.0","cct0hmdr","","","","","",""
"1720.2350000001024","{""pre-2"":1}","[0]","survey-likert","535","2087722","0.0-535.0","cct0hmdr","","","","","",""
"1537.9300000001676","{""pre-3"":1}","[0]","survey-likert","536","2089262","0.0-536.0","cct0hmdr","","","","","",""
"2033.8200000000652","{""post-5"":2}","[0]","survey-likert","537","2091297","0.0-537.0","cct0hmdr","","","","","",""
"","","","call-function","538","2091298","0.0-538.0","cct0hmdr","","","","","",""
"null","","","video-keyboard-response","539","2094375","0.0-539.0","cct0hmdr","","","","null","Agent A","STIM_SET_1_REAL/498111.bmp_pp88_L2_V1.0_scrambled_freeview_isoFalse_fps144.mp4"
"","","","call-function","540","2094375","0.0-540.0","cct0hmdr","","","","","",""
"3895.3249999999534","{""pre-1"":1}","[0]","survey-likert","541","2098272","0.0-541.0","cct0hmdr","","","","","",""
"1879.3549999999814","{""pre-2"":0}","[0]","survey-likert","542","2100152","0.0-542.0","cct0hmdr","","","","","",""
"1737.5149999996647","{""pre-3"":0}","[0]","survey-likert","543","2101891","0.0-543.0","cct0hmdr","","","","","",""
"1975.4549999996088","{""post-5"":2}","[0]","survey-likert","544","2103867","0.0-544.0","cct0hmdr","","","","","",""
"","","","call-function","545","2103868","0.0-545.0","cct0hmdr","","","","","",""
"null","","","video-keyboard-response","546","2106932","0.0-546.0","cct0hmdr","","","","null","Agent A","STIM_SET_1_REAL/713681.bmp_pp86_L2_V1.0_veridical_freeview_isoFalse_fps144.mp4"
"","","","call-function","547","2106932","0.0-547.0","cct0hmdr","","","","","",""
"6578.85999999987","{""pre-1"":1}","[0]","survey-likert","548","2113513","0.0-548.0","cct0hmdr","","","","","",""
"61161.00999999978","{""pre-2"":0}","[0]","survey-likert","549","2174676","0.0-549.0","cct0hmdr","","","","","",""
"1792.7250000000931","{""pre-3"":0}","[0]","survey-likert","550","2176470","0.0-550.0","cct0hmdr","","","","","",""
"1853.279999999795","{""post-5"":2}","[0]","survey-likert","551","2178325","0.0-551.0","cct0hmdr","","","","","",""
"","","","call-function","552","2178326","0.0-552.0","cct0hmdr","","","","","",""
"null","","","video-keyboard-response","553","2181394","0.0-553.0","cct0hmdr","","","","null","Agent A","STIM_SET_1_REAL/1592934.bmp_pp63_L1_V1.0_scrambled_freeview_isoFalse_fps144.mp4"
"","","","call-function","554","2181395","0.0-554.0","cct0hmdr","","","","","",""
"2154.260000000242","{""pre-1"":1}","[0]","survey-likert","555","2183550","0.0-555.0","cct0hmdr","","","","","",""
"1956.3799999998882","{""pre-2"":1}","[0]","survey-likert","556","2185508","0.0-556.0","cct0hmdr","","","","","",""
"1819.8050000001676","{""pre-3"":0}","[0]","survey-likert","557","2187329","0.0-557.0","cct0hmdr","","","","","",""
"1553.625","{""post-5"":2}","[0]","survey-likert","558","2188884","0.0-558.0","cct0hmdr","","","","","",""
"","","","call-function","559","2188885","0.0-559.0","cct0hmdr","","","","","",""
"null","","","video-keyboard-response","560","2191956","0.0-560.0","cct0hmdr","","","","null","Agent A","STIM_SET_1_REAL/1159440.bmp_pp98_L1_V1.0_veridical_freeview_isoFalse_fps144.mp4"
"","","","call-function","561","2191956","0.0-561.0","cct0hmdr","","","","","",""
"2892.7700000000186","{""pre-1"":2}","[0]","survey-likert","562","2194850","0.0-562.0","cct0hmdr","","","","","",""
"1153.3050000001676","{""pre-2"":1}","[0]","survey-likert","563","2196005","0.0-563.0","cct0hmdr","","","","","",""
"1427.3300000000745","{""pre-3"":0}","[0]","survey-likert","564","2197433","0.0-564.0","cct0hmdr","","","","","",""
"3742.269999999553","{""post-5"":1}","[0]","survey-likert","565","2201176","0.0-565.0","cct0hmdr","","","","","",""
"","","","call-function","566","2201177","0.0-566.0","cct0hmdr","","","","","",""
"null","","","video-keyboard-response","567","2204253","0.0-567.0","cct0hmdr","","","","null","Agent A","STIM_SET_1_REAL/713211.bmp_pp100_L3_V1.0_veridical_freeview_isoFalse_fps144.mp4"
"","","","call-function","568","2204253","0.0-568.0","cct0hmdr","","","","","",""
"4812.4550000000745","{""pre-1"":2}","[0]","survey-likert","569","2209067","0.0-569.0","cct0hmdr","","","","","",""
"958.1849999995902","{""pre-2"":1}","[0]","survey-likert","570","2210026","0.0-570.0","cct0hmdr","","","","","",""
"1164.2099999999627","{""pre-3"":0}","[0]","survey-likert","571","2211191","0.0-571.0","cct0hmdr","","","","","",""
"1557.1650000000373","{""post-5"":1}","[0]","survey-likert","572","2212750","0.0-572.0","cct0hmdr","","","","","",""
"","","","call-function","573","2212750","0.0-573.0","cct0hmdr","","","","","",""
"null","","","video-keyboard-response","574","2215819","0.0-574.0","cct0hmdr","","","","null","Agent A","STIM_SET_1_REAL/1592727.bmp_pp59_L3_V1.0_scrambled_freeview_isoFalse_fps144.mp4"
"","","","call-function","575","2215819","0.0-575.0","cct0hmdr","","","","","",""
"2702.1049999999814","{""pre-1"":2}","[0]","survey-likert","576","2218522","0.0-576.0","cct0hmdr","","","","","",""
"1517","{""pre-2"":1}","[0]","survey-likert","577","2220041","0.0-577.0","cct0hmdr","","","","","",""
"1851.3700000001118","{""pre-3"":0}","[0]","survey-likert","578","2221894","0.0-578.0","cct0hmdr","","","","","",""
"1330.6700000003912","{""post-5"":1}","[0]","survey-likert","579","2223227","0.0-579.0","cct0hmdr","","","","","",""
"","","","call-function","580","2223228","0.0-580.0","cct0hmdr","","","","","",""
"null","","","video-keyboard-response","581","2226332","0.0-581.0","cct0hmdr","","","","null","Agent A","STIM_SET_1_REAL/285905.bmp_pp57_L1_V1.0_veridical_freeview_isoFalse_fps144.mp4"
"","","","call-function","582","2226332","0.0-582.0","cct0hmdr","","","","","",""
"2394.0749999997206","{""pre-1"":2}","[0]","survey-likert","583","2228728","0.0-583.0","cct0hmdr","","","","","",""
"2261.1400000001304","{""pre-2"":1}","[0]","survey-likert","584","2230990","0.0-584.0","cct0hmdr","","","","","",""
"2020.0300000002608","{""pre-3"":0}","[0]","survey-likert","585","2233011","0.0-585.0","cct0hmdr","","","","","",""
"1592.3199999998324","{""post-5"":1}","[0]","survey-likert","586","2234605","0.0-586.0","cct0hmdr","","","","","",""
"11254.995000000112","","","instructions","587","2245860","0.0-587.0","cct0hmdr","[{""page_index"":0,""viewing_time"":7916.825000000186},{""page_index"":1,""viewing_time"":2652.0800000000745},{""page_index"":2,""viewing_time"":685.8649999997579}]","","","","",""
"1647.3400000003166","","","instructions","588","2247508","0.0-588.0","cct0hmdr","[{""page_index"":0,""viewing_time"":545.2600000002421},{""page_index"":1,""viewing_time"":553.9899999997579},{""page_index"":2,""viewing_time"":547.9900000002235}]","","","","",""
"","","","call-function","589","2247509","0.0-589.0","cct0hmdr","","","","","",""
"null","","","video-keyboard-response","590","2250575","0.0-590.0","cct0hmdr","","","","null","Agent A","STIM_SET_1_REAL/1159829.bmp_pp91_L3_V1.0_veridical_freeview_isoFalse_fps144.mp4"
"","","","call-function","591","2250576","0.0-591.0","cct0hmdr","","","","","",""
"1605.095000000205","{""pre-1"":2}","[0]","survey-likert","592","2252182","0.0-592.0","cct0hmdr","","","","","",""
"1360.2949999999255","{""pre-2"":1}","[0]","survey-likert","593","2253543","0.0-593.0","cct0hmdr","","","","","",""
"2293.9199999999255","{""pre-3"":0}","[0]","survey-likert","594","2255838","0.0-594.0","cct0hmdr","","","","","",""
"1100.5550000001676","{""post-5"":1}","[0]","survey-likert","595","2256940","0.0-595.0","cct0hmdr","","","","","",""
"","","","call-function","596","2256940","0.0-596.0","cct0hmdr","","","","","",""
"null","","","video-keyboard-response","597","2260007","0.0-597.0","cct0hmdr","","","","null","Agent A","STIM_SET_1_REAL/1592499.bmp_pp96_L2_V1.0_scrambled_freeview_isoFalse_fps144.mp4"
"","","","call-function","598","2260008","0.0-598.0","cct0hmdr","","","","","",""
"1850.5550000001676","{""pre-1"":2}","[0]","survey-likert","599","2261859","0.0-599.0","cct0hmdr","","","","","",""
"2692.6400000001304","{""pre-2"":1}","[0]","survey-likert","600","2264553","0.0-600.0","cct0hmdr","","","","","",""
"1813.3700000001118","{""pre-3"":0}","[0]","survey-likert","601","2266368","0.0-601.0","cct0hmdr","","","","","",""
"1299.8650000002235","{""post-5"":1}","[0]","survey-likert","602","2267668","0.0-602.0","cct0hmdr","","","","","",""
"","","","call-function","603","2267669","0.0-603.0","cct0hmdr","","","","","",""
"null","","","video-keyboard-response","604","2270748","0.0-604.0","cct0hmdr","","","","null","Agent A","STIM_SET_1_REAL/713211.bmp_pp100_L3_V1.0_scrambled_freeview_isoFalse_fps144.mp4"
"","","","call-function","605","2270748","0.0-605.0","cct0hmdr","","","","","",""
"13907.51500000013","{""pre-1"":1}","[0]","survey-likert","606","2284657","0.0-606.0","cct0hmdr","","","","","",""
"1782.6850000000559","{""pre-2"":1}","[0]","survey-likert","607","2286441","0.0-607.0","cct0hmdr","","","","","",""
"2015.9250000002794","{""pre-3"":0}","[0]","survey-likert","608","2288458","0.0-608.0","cct0hmdr","","","","","",""
"1489.0849999999627","{""post-5"":2}","[0]","survey-likert","609","2289948","0.0-609.0","cct0hmdr","","","","","",""
"","","","call-function","610","2289948","0.0-610.0","cct0hmdr","","","","","",""
"null","","","video-keyboard-response","611","2293012","0.0-611.0","cct0hmdr","","","","null","Agent A","STIM_SET_1_REAL/1159621.bmp_pp92_L3_V1.0_veridical_freeview_isoFalse_fps144.mp4"
"","","","call-function","612","2293013","0.0-612.0","cct0hmdr","","","","","",""
"2090.2949999999255","{""pre-1"":1}","[0]","survey-likert","613","2295105","0.0-613.0","cct0hmdr","","","","","",""
"1688.660000000149","{""pre-2"":1}","[0]","survey-likert","614","2296796","0.0-614.0","cct0hmdr","","","","","",""
"1483.2800000002608","{""pre-3"":0}","[0]","survey-likert","615","2298280","0.0-615.0","cct0hmdr","","","","","",""
"1484.6650000000373","{""post-5"":2}","[0]","survey-likert","616","2299766","0.0-616.0","cct0hmdr","","","","","",""
"","","","call-function","617","2299767","0.0-617.0","cct0hmdr","","","","","",""
"null","","","video-keyboard-response","618","2302834","0.0-618.0","cct0hmdr","","","","null","Agent A","STIM_SET_1_REAL/1591961.bmp_pp67_L2_V1.0_scrambled_freeview_isoFalse_fps144.mp4"
"","","","call-function","619","2302834","0.0-619.0","cct0hmdr","","","","","",""
"2193.1399999996647","{""pre-1"":1}","[0]","survey-likert","620","2305029","0.0-620.0","cct0hmdr","","","","","",""
"1321.1400000001304","{""pre-2"":1}","[0]","survey-likert","621","2306351","0.0-621.0","cct0hmdr","","","","","",""
"1415.2899999995716","{""pre-3"":0}","[0]","survey-likert","622","2307768","0.0-622.0","cct0hmdr","","","","","",""
"1233.8250000001863","{""post-5"":2}","[0]","survey-likert","623","2309003","0.0-623.0","cct0hmdr","","","","","",""
"","","","call-function","624","2309003","0.0-624.0","cct0hmdr","","","","","",""
"null","","","video-keyboard-response","625","2312066","0.0-625.0","cct0hmdr","","","","null","Agent A","STIM_SET_1_REAL/1592890.bmp_pp82_L2_V1.0_scrambled_freeview_isoFalse_fps144.mp4"
"","","","call-function","626","2312066","0.0-626.0","cct0hmdr","","","","","",""
"2965.660000000149","{""pre-1"":2}","[0]","survey-likert","627","2315033","0.0-627.0","cct0hmdr","","","","","",""
"4260.709999999963","{""pre-2"":1}","[0]","survey-likert","628","2319295","0.0-628.0","cct0hmdr","","","","","",""
"1994.0550000001676","{""pre-3"":0}","[0]","survey-likert","629","2321290","0.0-629.0","cct0hmdr","","","","","",""
"1513.7450000001118","{""post-5"":1}","[0]","survey-likert","630","2322805","0.0-630.0","cct0hmdr","","","","","",""
"","","","call-function","631","2322805","0.0-631.0","cct0hmdr","","","","","",""
"null","","","video-keyboard-response","632","2325873","0.0-632.0","cct0hmdr","","","","null","Agent A","STIM_SET_1_REAL/1592362.bmp_pp95_L2_V1.0_scrambled_freeview_isoFalse_fps144.mp4"
"","","","call-function","633","2325873","0.0-633.0","cct0hmdr","","","","","",""
"2449.3050000001676","{""pre-1"":2}","[0]","survey-likert","634","2328324","0.0-634.0","cct0hmdr","","","","","",""
"1292.3850000002421","{""pre-2"":1}","[0]","survey-likert","635","2329617","0.0-635.0","cct0hmdr","","","","","",""
"1174.7700000000186","{""pre-3"":2}","[0]","survey-likert","636","2330793","0.0-636.0","cct0hmdr","","","","","",""
"3894.6349999997765","{""post-5"":0}","[0]","survey-likert","637","2334689","0.0-637.0","cct0hmdr","","","","","",""
"","","","call-function","638","2334689","0.0-638.0","cct0hmdr","","","","","",""
"null","","","video-keyboard-response","639","2337772","0.0-639.0","cct0hmdr","","","","null","Agent A","STIM_SET_1_REAL/498149.bmp_pp99_L2_V1.0_scrambled_freeview_isoFalse_fps144.mp4"
"","","","call-function","640","2337772","0.0-640.0","cct0hmdr","","","","","",""
"5315.5","{""pre-1"":1}","[0]","survey-likert","641","2343089","0.0-641.0","cct0hmdr","","","","","",""
"3704.274999999907","{""pre-2"":1}","[0]","survey-likert","642","2346794","0.0-642.0","cct0hmdr","","","","","",""
"1634.8600000003353","{""pre-3"":1}","[0]","survey-likert","643","2348430","0.0-643.0","cct0hmdr","","","","","",""
"3125.4599999999627","{""post-5"":1}","[0]","survey-likert","644","2351557","0.0-644.0","cct0hmdr","","","","","",""
"","","","call-function","645","2351558","0.0-645.0","cct0hmdr","","","","","",""
"null","","","video-keyboard-response","646","2354623","0.0-646.0","cct0hmdr","","","","null","Agent A","STIM_SET_1_REAL/1592619.bmp_pp56_L3_V1.0_scrambled_freeview_isoFalse_fps144.mp4"
"","","","call-function","647","2354623","0.0-647.0","cct0hmdr","","","","","",""
"7242.910000000149","{""pre-1"":1}","[0]","survey-likert","648","2361867","0.0-648.0","cct0hmdr","","","","","",""
"5025.629999999888","{""pre-2"":1}","[0]","survey-likert","649","2366894","0.0-649.0","cct0hmdr","","","","","",""
"1531.7549999998882","{""pre-3"":1}","[0]","survey-likert","650","2368427","0.0-650.0","cct0hmdr","","","","","",""
"1561.9099999996834","{""post-5"":1}","[0]","survey-likert","651","2369990","0.0-651.0","cct0hmdr","","","","","",""
"","","","call-function","652","2369991","0.0-652.0","cct0hmdr","","","","","",""
"null","","","video-keyboard-response","653","2373052","0.0-653.0","cct0hmdr","","","","null","Agent A","STIM_SET_1_REAL/498170.bmp_pp153_L3_V1.0_scrambled_freeview_isoFalse_fps144.mp4"
"","","","call-function","654","2373053","0.0-654.0","cct0hmdr","","","","","",""
"4511.8300000000745","{""pre-1"":1}","[0]","survey-likert","655","2377566","0.0-655.0","cct0hmdr","","","","","",""
"1941.035000000149","{""pre-2"":0}","[0]","survey-likert","656","2379508","0.0-656.0","cct0hmdr","","","","","",""
"1586.589999999851","{""pre-3"":0}","[0]","survey-likert","657","2381096","0.0-657.0","cct0hmdr","","","","","",""
"1629.5049999998882","{""post-5"":2}","[0]","survey-likert","658","2382727","0.0-658.0","cct0hmdr","","","","","",""
"","","","call-function","659","2382727","0.0-659.0","cct0hmdr","","","","","",""
"null","","","video-keyboard-response","660","2385789","0.0-660.0","cct0hmdr","","","","null","Agent A","STIM_SET_1_REAL/1159621.bmp_pp92_L3_V1.0_scrambled_freeview_isoFalse_fps144.mp4"
"","","","call-function","661","2385789","0.0-661.0","cct0hmdr","","","","","",""
"3936.2649999996647","{""pre-1"":1}","[0]","survey-likert","662","2389727","0.0-662.0","cct0hmdr","","","","","",""
"1870.0499999998137","{""pre-2"":0}","[0]","survey-likert","663","2391598","0.0-663.0","cct0hmdr","","","","","",""
"1257.279999999795","{""pre-3"":0}","[0]","survey-likert","664","2392856","0.0-664.0","cct0hmdr","","","","","",""
"1133.3100000000559","{""post-5"":2}","[0]","survey-likert","665","2393991","0.0-665.0","cct0hmdr","","","","","",""
"","","","call-function","666","2393991","0.0-666.0","cct0hmdr","","","","","",""
"null","","","video-keyboard-response","667","2397059","0.0-667.0","cct0hmdr","","","","null","Agent A","STIM_SET_1_REAL/1592362.bmp_pp95_L2_V1.0_veridical_freeview_isoFalse_fps144.mp4"
"","","","call-function","668","2397060","0.0-668.0","cct0hmdr","","","","","",""
"4174.395000000019","{""pre-1"":2}","[0]","survey-likert","669","2401235","0.0-669.0","cct0hmdr","","","","","",""
"3678.320000000298","{""pre-2"":2}","[0]","survey-likert","670","2404915","0.0-670.0","cct0hmdr","","","","","",""
"1548.929999999702","{""pre-3"":1}","[0]","survey-likert","671","2406465","0.0-671.0","cct0hmdr","","","","","",""
"2379.4300000001676","{""post-5"":0}","[0]","survey-likert","672","2408845","0.0-672.0","cct0hmdr","","","","","",""
"","","","call-function","673","2408846","0.0-673.0","cct0hmdr","","","","","",""
"null","","","video-keyboard-response","674","2411936","0.0-674.0","cct0hmdr","","","","null","Agent A","STIM_SET_1_REAL/285994.bmp_pp92_L3_V1.0_veridical_freeview_isoFalse_fps144.mp4"
"","","","call-function","675","2411937","0.0-675.0","cct0hmdr","","","","","",""
"6031.825000000186","{""pre-1"":2}","[0]","survey-likert","676","2417971","0.0-676.0","cct0hmdr","","","","","",""
"4562.334999999963","{""pre-2"":1}","[0]","survey-likert","677","2422534","0.0-677.0","cct0hmdr","","","","","",""
"6234.810000000056","{""pre-3"":1}","[0]","survey-likert","678","2428770","0.0-678.0","cct0hmdr","","","","","",""
"1392.6599999996834","{""post-5"":1}","[0]","survey-likert","679","2430164","0.0-679.0","cct0hmdr","","","","","",""
"","","","call-function","680","2430165","0.0-680.0","cct0hmdr","","","","","",""
"null","","","video-keyboard-response","681","2433227","0.0-681.0","cct0hmdr","","","","null","Agent A","STIM_SET_1_REAL/497950.bmp_pp151_L1_V1.0_scrambled_freeview_isoFalse_fps144.mp4"
"","","","call-function","682","2433228","0.0-682.0","cct0hmdr","","","","","",""
"3369.685000000056","{""pre-1"":1}","[0]","survey-likert","683","2436599","0.0-683.0","cct0hmdr","","","","","",""
"1606.7299999999814","{""pre-2"":0}","[0]","survey-likert","684","2438207","0.0-684.0","cct0hmdr","","","","","",""
"1634.2650000001304","{""pre-3"":0}","[0]","survey-likert","685","2439843","0.0-685.0","cct0hmdr","","","","","",""
"1942.3249999997206","{""post-5"":2}","[0]","survey-likert","686","2441786","0.0-686.0","cct0hmdr","","","","","",""
"","","","call-function","687","2441787","0.0-687.0","cct0hmdr","","","","","",""
"null","","","video-keyboard-response","688","2444848","0.0-688.0","cct0hmdr","","","","null","Agent A","STIM_SET_1_REAL/713089.bmp_pp60_L3_V1.0_veridical_freeview_isoFalse_fps144.mp4"
"","","","call-function","689","2444849","0.0-689.0","cct0hmdr","","","","","",""
"4247.3300000000745","{""pre-1"":2}","[0]","survey-likert","690","2449097","0.0-690.0","cct0hmdr","","","","","",""
"1329.0799999996088","{""pre-2"":2}","[0]","survey-likert","691","2450427","0.0-691.0","cct0hmdr","","","","","",""
"1069.5099999997765","{""pre-3"":1}","[0]","survey-likert","692","2451498","0.0-692.0","cct0hmdr","","","","","",""
"2227.4550000000745","{""post-5"":1}","[0]","survey-likert","693","2453727","0.0-693.0","cct0hmdr","","","","","",""
"","","","call-function","694","2453727","0.0-694.0","cct0hmdr","","","","","",""
"null","","","video-keyboard-response","695","2456803","0.0-695.0","cct0hmdr","","","","null","Agent A","STIM_SET_1_REAL/1159855.bmp_pp99_L2_V1.0_scrambled_freeview_isoFalse_fps144.mp4"
"","","","call-function","696","2456803","0.0-696.0","cct0hmdr","","","","","",""
"3381.8249999997206","{""pre-1"":2}","[0]","survey-likert","697","2460186","0.0-697.0","cct0hmdr","","","","","",""
"1528.8799999998882","{""pre-2"":2}","[0]","survey-likert","698","2461716","0.0-698.0","cct0hmdr","","","","","",""
"1663.9699999997392","{""pre-3"":1}","[0]","survey-likert","699","2463381","0.0-699.0","cct0hmdr","","","","","",""
"2886.875","{""post-5"":1}","[0]","survey-likert","700","2466269","0.0-700.0","cct0hmdr","","","","","",""
"","","","call-function","701","2466269","0.0-701.0","cct0hmdr","","","","","",""
"null","","","video-keyboard-response","702","2469330","0.0-702.0","cct0hmdr","","","","null","Agent A","STIM_SET_1_REAL/1159882.bmp_pp61_L2_V1.0_veridical_freeview_isoFalse_fps144.mp4"
"","","","call-function","703","2469330","0.0-703.0","cct0hmdr","","","","","",""
"25419.32499999972","{""pre-1"":2}","[0]","survey-likert","704","2494751","0.0-704.0","cct0hmdr","","","","","",""
"1995.9099999996834","{""pre-2"":2}","[0]","survey-likert","705","2496749","0.0-705.0","cct0hmdr","","","","","",""
"1430.2749999999069","{""pre-3"":1}","[0]","survey-likert","706","2498181","0.0-706.0","cct0hmdr","","","","","",""
"3245.614999999758","{""post-5"":1}","[0]","survey-likert","707","2501428","0.0-707.0","cct0hmdr","","","","","",""
"","","","call-function","708","2501429","0.0-708.0","cct0hmdr","","","","","",""
"null","","","video-keyboard-response","709","2504505","0.0-709.0","cct0hmdr","","","","null","Agent A","STIM_SET_1_REAL/1592372.bmp_pp76_L1_V1.0_veridical_freeview_isoFalse_fps144.mp4"
"","","","call-function","710","2504506","0.0-710.0","cct0hmdr","","","","","",""
"4319.4199999999255","{""pre-1"":1}","[0]","survey-likert","711","2508826","0.0-711.0","cct0hmdr","","","","","",""
"1761.5249999999069","{""pre-2"":1}","[0]","survey-likert","712","2510589","0.0-712.0","cct0hmdr","","","","","",""
"1737.9399999999441","{""pre-3"":0}","[0]","survey-likert","713","2512328","0.0-713.0","cct0hmdr","","","","","",""
"4447.020000000019","{""post-5"":2}","[0]","survey-likert","714","2516776","0.0-714.0","cct0hmdr","","","","","",""
"","","","call-function","715","2516777","0.0-715.0","cct0hmdr","","","","","",""
"null","","","video-keyboard-response","716","2519841","0.0-716.0","cct0hmdr","","","","null","Agent A","STIM_SET_1_REAL/1159572.bmp_pp71_L1_V1.0_veridical_freeview_isoFalse_fps144.mp4"
"","","","call-function","717","2519841","0.0-717.0","cct0hmdr","","","","","",""
"9325.665000000037","{""pre-1"":1}","[0]","survey-likert","718","2529168","0.0-718.0","cct0hmdr","","","","","",""
"1887.7399999997579","{""pre-2"":1}","[0]","survey-likert","719","2531057","0.0-719.0","cct0hmdr","","","","","",""
"5381.850000000093","{""pre-3"":0}","[0]","survey-likert","720","2536440","0.0-720.0","cct0hmdr","","","","","",""
"2270.2900000000373","{""post-5"":2}","[0]","survey-likert","721","2538712","0.0-721.0","cct0hmdr","","","","","",""
"","","","call-function","722","2538712","0.0-722.0","cct0hmdr","","","","","",""
"null","","","video-keyboard-response","723","2541802","0.0-723.0","cct0hmdr","","","","null","Agent A","STIM_SET_1_REAL/713684.bmp_pp85_L3_V1.0_veridical_freeview_isoFalse_fps144.mp4"
"","","","call-function","724","2541802","0.0-724.0","cct0hmdr","","","","","",""
"5214.539999999572","{""pre-1"":1}","[0]","survey-likert","725","2547018","0.0-725.0","cct0hmdr","","","","","",""
"2242.0900000003166","{""pre-2"":0}","[0]","survey-likert","726","2549261","0.0-726.0","cct0hmdr","","","","","",""
"1496.894999999553","{""pre-3"":0}","[0]","survey-likert","727","2550759","0.0-727.0","cct0hmdr","","","","","",""
"1582.714999999851","{""post-5"":3}","[0]","survey-likert","728","2552344","0.0-728.0","cct0hmdr","","","","","",""
"82960.625","","","instructions","729","2635306","0.0-729.0","cct0hmdr","[{""page_index"":0,""viewing_time"":81376.11499999976},{""page_index"":1,""viewing_time"":872.9050000002608},{""page_index"":2,""viewing_time"":711.0249999999069}]","","","","",""
"1662.535000000149","","","instructions","730","2636969","0.0-730.0","cct0hmdr","[{""page_index"":0,""viewing_time"":603.589999999851},{""page_index"":1,""viewing_time"":525.6450000000186},{""page_index"":2,""viewing_time"":533.2000000001863}]","","","","",""
"","","","call-function","731","2636970","0.0-731.0","cct0hmdr","","","","","",""
"null","","","video-keyboard-response","732","2640046","0.0-732.0","cct0hmdr","","","","null","Agent A","STIM_SET_1_REAL/1592804.bmp_pp91_L3_V1.0_scrambled_freeview_isoFalse_fps144.mp4"
"","","","call-function","733","2640047","0.0-733.0","cct0hmdr","","","","","",""
"3534.8650000002235","{""pre-1"":1}","[0]","survey-likert","734","2643583","0.0-734.0","cct0hmdr","","","","","",""
"1130.7050000000745","{""pre-2"":1}","[0]","survey-likert","735","2644715","0.0-735.0","cct0hmdr","","","","","",""
"1654.339999999851","{""pre-3"":0}","[0]","survey-likert","736","2646370","0.0-736.0","cct0hmdr","","","","","",""
"1162","{""post-5"":2}","[0]","survey-likert","737","2647534","0.0-737.0","cct0hmdr","","","","","",""
"","","","call-function","738","2647534","0.0-738.0","cct0hmdr","","","","","",""
"null","","","video-keyboard-response","739","2650602","0.0-739.0","cct0hmdr","","","","null","Agent A","STIM_SET_1_REAL/713513.bmp_pp62_L2_V1.0_scrambled_freeview_isoFalse_fps144.mp4"
"","","","call-function","740","2650603","0.0-740.0","cct0hmdr","","","","","",""
"5796.64000000013","{""pre-1"":1}","[0]","survey-likert","741","2656400","0.0-741.0","cct0hmdr","","","","","",""
"1406.0500000002794","{""pre-2"":1}","[0]","survey-likert","742","2657808","0.0-742.0","cct0hmdr","","","","","",""
"1244.410000000149","{""pre-3"":0}","[0]","survey-likert","743","2659053","0.0-743.0","cct0hmdr","","","","","",""
"1110.8249999997206","{""post-5"":2}","[0]","survey-likert","744","2660165","0.0-744.0","cct0hmdr","","","","","",""
"","","","call-function","745","2660166","0.0-745.0","cct0hmdr","","","","","",""
"null","","","video-keyboard-response","746","2663243","0.0-746.0","cct0hmdr","","","","null","Agent A","STIM_SET_1_REAL/713593.bmp_pp64_L1_V1.0_scrambled_freeview_isoFalse_fps144.mp4"
"","","","call-function","747","2663243","0.0-747.0","cct0hmdr","","","","","",""
"2137.5849999999627","{""pre-1"":2}","[0]","survey-likert","748","2665382","0.0-748.0","cct0hmdr","","","","","",""
"1113.529999999795","{""pre-2"":1}","[0]","survey-likert","749","2666497","0.0-749.0","cct0hmdr","","","","","",""
"2647.2800000002608","{""pre-3"":1}","[0]","survey-likert","750","2669145","0.0-750.0","cct0hmdr","","","","","",""
"1359.779999999795","{""post-5"":1}","[0]","survey-likert","751","2670506","0.0-751.0","cct0hmdr","","","","","",""
"","","","call-function","752","2670507","0.0-752.0","cct0hmdr","","","","","",""
"null","","","video-keyboard-response","753","2673580","0.0-753.0","cct0hmdr","","","","null","Agent A","STIM_SET_1_REAL/713749.bmp_pp88_L2_V1.0_scrambled_freeview_isoFalse_fps144.mp4"
"","","","call-function","754","2673581","0.0-754.0","cct0hmdr","","","","","",""
"1816.8249999997206","{""pre-1"":2}","[0]","survey-likert","755","2675399","0.0-755.0","cct0hmdr","","","","","",""
"1212.9899999997579","{""pre-2"":1}","[0]","survey-likert","756","2676613","0.0-756.0","cct0hmdr","","","","","",""
"1074.470000000205","{""pre-3"":1}","[0]","survey-likert","757","2677689","0.0-757.0","cct0hmdr","","","","","",""
"1326.75","{""post-5"":1}","[0]","survey-likert","758","2679016","0.0-758.0","cct0hmdr","","","","","",""
"","","","call-function","759","2679017","0.0-759.0","cct0hmdr","","","","","",""
"null","","","video-keyboard-response","760","2682113","0.0-760.0","cct0hmdr","","","","null","Agent A","STIM_SET_1_REAL/285751.bmp_pp55_L3_V1.0_scrambled_freeview_isoFalse_fps144.mp4"
"","","","call-function","761","2682113","0.0-761.0","cct0hmdr","","","","","",""
"6368.8849999997765","{""pre-1"":1}","[0]","survey-likert","762","2688484","0.0-762.0","cct0hmdr","","","","","",""
"1000.375","{""pre-2"":1}","[0]","survey-likert","763","2689486","0.0-763.0","cct0hmdr","","","","","",""
"1401.1200000001118","{""pre-3"":0}","[0]","survey-likert","764","2690889","0.0-764.0","cct0hmdr","","","","","",""
"1650.195000000298","{""post-5"":2}","[0]","survey-likert","765","2692542","0.0-765.0","cct0hmdr","","","","","",""
"","","","call-function","766","2692543","0.0-766.0","cct0hmdr","","","","","",""
"null","","","video-keyboard-response","767","2695603","0.0-767.0","cct0hmdr","","","","null","Agent A","STIM_SET_1_REAL/1592817.bmp_pp55_L3_V1.0_scrambled_freeview_isoFalse_fps144.mp4"
"","","","call-function","768","2695604","0.0-768.0","cct0hmdr","","","","","",""
"4014.4150000000373","{""pre-1"":1}","[0]","survey-likert","769","2699619","0.0-769.0","cct0hmdr","","","","","",""
"2917.3599999998696","{""pre-2"":1}","[0]","survey-likert","770","2702538","0.0-770.0","cct0hmdr","","","","","",""
"4374.350000000093","{""pre-3"":1}","[0]","survey-likert","771","2706914","0.0-771.0","cct0hmdr","","","","","",""
"1374.0599999995902","{""post-5"":1}","[0]","survey-likert","772","2708289","0.0-772.0","cct0hmdr","","","","","",""
"","","","call-function","773","2708290","0.0-773.0","cct0hmdr","","","","","",""
"null","","","video-keyboard-response","774","2711357","0.0-774.0","cct0hmdr","","","","null","Agent A","STIM_SET_1_REAL/285933.bmp_pp81_L1_V1.0_veridical_freeview_isoFalse_fps144.mp4"
"","","","call-function","775","2711358","0.0-775.0","cct0hmdr","","","","","",""
"2848.980000000447","{""pre-1"":1}","[0]","survey-likert","776","2714208","0.0-776.0","cct0hmdr","","","","","",""
"1576.5699999998324","{""pre-2"":1}","[0]","survey-likert","777","2715786","0.0-777.0","cct0hmdr","","","","","",""
"1189.9799999999814","{""pre-3"":0}","[0]","survey-likert","778","2716977","0.0-778.0","cct0hmdr","","","","","",""
"1216.9350000000559","{""post-5"":2}","[0]","survey-likert","779","2718195","0.0-779.0","cct0hmdr","","","","","",""
"","","","call-function","780","2718195","0.0-780.0","cct0hmdr","","","","","",""
"null","","","video-keyboard-response","781","2721257","0.0-781.0","cct0hmdr","","","","null","Agent A","STIM_SET_1_REAL/1592351.bmp_pp51_L1_V1.0_scrambled_freeview_isoFalse_fps144.mp4"
"","","","call-function","782","2721257","0.0-782.0","cct0hmdr","","","","","",""
"4270.424999999814","{""pre-1"":1}","[0]","survey-likert","783","2725529","0.0-783.0","cct0hmdr","","","","","",""
"1757.3799999998882","{""pre-2"":0}","[0]","survey-likert","784","2727287","0.0-784.0","cct0hmdr","","","","","",""
"1465.8899999996647","{""pre-3"":0}","[0]","survey-likert","785","2728754","0.0-785.0","cct0hmdr","","","","","",""
"2425.3599999998696","{""post-5"":2}","[0]","survey-likert","786","2731181","0.0-786.0","cct0hmdr","","","","","",""
"","","","call-function","787","2731181","0.0-787.0","cct0hmdr","","","","","",""
"null","","","video-keyboard-response","788","2734249","0.0-788.0","cct0hmdr","","","","null","Agent A","STIM_SET_1_REAL/1159515.bmp_pp84_L3_V1.0_veridical_freeview_isoFalse_fps144.mp4"
"","","","call-function","789","2734250","0.0-789.0","cct0hmdr","","","","","",""
"4027.4499999997206","{""pre-1"":0}","[0]","survey-likert","790","2738278","0.0-790.0","cct0hmdr","","","","","",""
"4873.959999999963","{""pre-2"":0}","[0]","survey-likert","791","2743154","0.0-791.0","cct0hmdr","","","","","",""
"1406.4349999995902","{""pre-3"":0}","[0]","survey-likert","792","2744563","0.0-792.0","cct0hmdr","","","","","",""
"2250.339999999851","{""post-5"":3}","[0]","survey-likert","793","2746815","0.0-793.0","cct0hmdr","","","","","",""
"","","","call-function","794","2746816","0.0-794.0","cct0hmdr","","","","","",""
"null","","","video-keyboard-response","795","2749878","0.0-795.0","cct0hmdr","","","","null","Agent A","STIM_SET_1_REAL/1159446.bmp_pp60_L3_V1.0_veridical_freeview_isoFalse_fps144.mp4"
"","","","call-function","796","2749879","0.0-796.0","cct0hmdr","","","","","",""
"2813.095000000205","{""pre-1"":1}","[0]","survey-likert","797","2752693","0.0-797.0","cct0hmdr","","","","","",""
"1337.3549999999814","{""pre-2"":1}","[0]","survey-likert","798","2754032","0.0-798.0","cct0hmdr","","","","","",""
"1067.7349999998696","{""pre-3"":1}","[0]","survey-likert","799","2755101","0.0-799.0","cct0hmdr","","","","","",""
"1224.5999999996275","{""post-5"":1}","[0]","survey-likert","800","2756327","0.0-800.0","cct0hmdr","","","","","",""
"","","","call-function","801","2756327","0.0-801.0","cct0hmdr","","","","","",""
"null","","","video-keyboard-response","802","2759386","0.0-802.0","cct0hmdr","","","","null","Agent A","STIM_SET_1_REAL/1592133.bmp_pp75_L1_V1.0_scrambled_freeview_isoFalse_fps144.mp4"
"","","","call-function","803","2759387","0.0-803.0","cct0hmdr","","","","","",""
"6751.415000000037","{""pre-1"":2}","[0]","survey-likert","804","2766140","0.0-804.0","cct0hmdr","","","","","",""
"1547.470000000205","{""pre-2"":1}","[0]","survey-likert","805","2767688","0.0-805.0","cct0hmdr","","","","","",""
"2898.9250000002794","{""pre-3"":1}","[0]","survey-likert","806","2770588","0.0-806.0","cct0hmdr","","","","","",""
"1970.464999999851","{""post-5"":0}","[0]","survey-likert","807","2772560","0.0-807.0","cct0hmdr","","","","","",""
"","","","call-function","808","2772560","0.0-808.0","cct0hmdr","","","","","",""
"null","","","video-keyboard-response","809","2775637","0.0-809.0","cct0hmdr","","","","null","Agent A","STIM_SET_1_REAL/1592804.bmp_pp91_L3_V1.0_veridical_freeview_isoFalse_fps144.mp4"
"","","","call-function","810","2775637","0.0-810.0","cct0hmdr","","","","","",""
"4174.645000000019","{""pre-1"":2}","[0]","survey-likert","811","2779813","0.0-811.0","cct0hmdr","","","","","",""
"1234.464999999851","{""pre-2"":1}","[0]","survey-likert","812","2781049","0.0-812.0","cct0hmdr","","","","","",""
"1079.1800000001676","{""pre-3"":1}","[0]","survey-likert","813","2782129","0.0-813.0","cct0hmdr","","","","","",""
"2541.869999999646","{""post-5"":1}","[0]","survey-likert","814","2784672","0.0-814.0","cct0hmdr","","","","","",""
"","","","call-function","815","2784673","0.0-815.0","cct0hmdr","","","","","",""
"null","","","video-keyboard-response","816","2787749","0.0-816.0","cct0hmdr","","","","null","Agent A","STIM_SET_1_REAL/1592817.bmp_pp55_L3_V1.0_veridical_freeview_isoFalse_fps144.mp4"
"","","","call-function","817","2787749","0.0-817.0","cct0hmdr","","","","","",""
"2014.6699999999255","{""pre-1"":2}","[0]","survey-likert","818","2789765","0.0-818.0","cct0hmdr","","","","","",""
"1502.0099999997765","{""pre-2"":1}","[0]","survey-likert","819","2791269","0.0-819.0","cct0hmdr","","","","","",""
"2787.5800000000745","{""pre-3"":1}","[0]","survey-likert","820","2794058","0.0-820.0","cct0hmdr","","","","","",""
"3854.689999999944","{""post-5"":2}","[0]","survey-likert","821","2797913","0.0-821.0","cct0hmdr","","","","","",""
"","","","call-function","822","2797914","0.0-822.0","cct0hmdr","","","","","",""
"null","","","video-keyboard-response","823","2801002","0.0-823.0","cct0hmdr","","","","null","Agent A","STIM_SET_1_REAL/713403.bmp_pp80_L3_V1.0_scrambled_freeview_isoFalse_fps144.mp4"
"","","","call-function","824","2801003","0.0-824.0","cct0hmdr","","","","","",""
"3430.8599999998696","{""pre-1"":2}","[0]","survey-likert","825","2804435","0.0-825.0","cct0hmdr","","","","","",""
"1270.7250000000931","{""pre-2"":1}","[0]","survey-likert","826","2805708","0.0-826.0","cct0hmdr","","","","","",""
"1290.5550000001676","{""pre-3"":1}","[0]","survey-likert","827","2807000","0.0-827.0","cct0hmdr","","","","","",""
"3254.239999999758","{""post-5"":1}","[0]","survey-likert","828","2810256","0.0-828.0","cct0hmdr","","","","","",""
"","","","call-function","829","2810257","0.0-829.0","cct0hmdr","","","","","",""
"null","","","video-keyboard-response","830","2813330","0.0-830.0","cct0hmdr","","","","null","Agent A","STIM_SET_1_REAL/1592934.bmp_pp63_L1_V1.0_veridical_freeview_isoFalse_fps144.mp4"
"","","","call-function","831","2813331","0.0-831.0","cct0hmdr","","","","","",""
"2606.5150000001304","{""pre-1"":2}","[0]","survey-likert","832","2815939","0.0-832.0","cct0hmdr","","","","","",""
"1828.9050000002608","{""pre-2"":1}","[0]","survey-likert","833","2817769","0.0-833.0","cct0hmdr","","","","","",""
"1179.1049999999814","{""pre-3"":1}","[0]","survey-likert","834","2818949","0.0-834.0","cct0hmdr","","","","","",""
"4160.5449999999255","{""post-5"":1}","[0]","survey-likert","835","2823111","0.0-835.0","cct0hmdr","","","","","",""
