"rt","responses","question_order","trial_type","trial_index","time_elapsed","internal_node_id","ID","view_history","value","stimulus","key_press","agent","image"
"21380.8","{""Experimenter"":[""Confirmed subject's identity (ID card)"",""Confirmed normal or corrected-to-normal vision"",""Obtained consent (signature and date)"",""Checked the test room lighting"",""Checked computer screen lighting"",""Checked distance from screen to chin rest (50cm)"",""Cleaned and adjusted chin rest"",""Counterbalanced the order of the tasks"",""Opened the experiment in Firefox"",""Made the experiment full screen"",""Encouraged subject to silence phone, put away distractors, etc.""]}","[0]","survey-multi-select","0","21389","0.0-0.0","eo6ufupv","","","","","",""
"285755.49500000005","","","instructions","1","307146","0.0-1.0","eo6ufupv","[{""page_index"":0,""viewing_time"":285755.35000000003}]","","","","",""
"10902.335000000021","{""Age"":1,""Sex"":1,""Gender"":1}","[0,1,2]","survey-likert","2","318051","0.0-2.0","eo6ufupv","","","","","",""
"1498.625","","","instructions","3","319550","0.0-3.0","eo6ufupv","[{""page_index"":0,""viewing_time"":1498.5250000000233}]","","","","",""
"3638.4349999999977","","","instructions","4","323189","0.0-4.0","eo6ufupv","[{""page_index"":0,""viewing_time"":2264.4199999999837},{""page_index"":1,""viewing_time"":1373.9150000000373}]","","","","",""
"6648.590000000026","","","instructions","5","329838","0.0-5.0","eo6ufupv","[{""page_index"":0,""viewing_time"":985.4150000000373},{""page_index"":1,""viewing_time"":1817.1399999999558},{""page_index"":2,""viewing_time"":3845.920000000042}]","","","","",""
"2140.5100000000093","","","instructions","6","331979","0.0-6.0","eo6ufupv","[{""page_index"":0,""viewing_time"":2140.4100000000326}]","","","","",""
"","","","call-function","7","331980","0.0-7.0","eo6ufupv","","","","","",""
"null","","","video-keyboard-response","8","335073","0.0-8.0","eo6ufupv","","","","null","",""
"","","","call-function","9","335073","0.0-9.0","eo6ufupv","","","","","",""
"8698.334999999963","","","instructions","10","343772","0.0-10.0","eo6ufupv","[{""page_index"":0,""viewing_time"":3376.0749999999534},{""page_index"":1,""viewing_time"":1871.1600000000326},{""page_index"":2,""viewing_time"":1143.929999999993},{""page_index"":3,""viewing_time"":2306.929999999993}]","","","","",""
"930.0099999999511","","","instructions","11","344703","0.0-11.0","eo6ufupv","[{""page_index"":0,""viewing_time"":929.9099999999744}]","","","","",""
"","","","call-function","12","344703","0.0-12.0","eo6ufupv","","","","","",""
"null","","","video-keyboard-response","13","347779","0.0-13.0","eo6ufupv","","","","null","",""
"","","","call-function","14","347779","0.0-14.0","eo6ufupv","","","","","",""
"8971.125","{""pre-1"":0}","[0]","survey-likert","15","356751","0.0-15.0","eo6ufupv","","","","","",""
"4809.26999999996","{""pre-2"":0}","[0]","survey-likert","16","361562","0.0-16.0","eo6ufupv","","","","","",""
"3966.6199999999953","{""pre-3"":0}","[0]","survey-likert","17","365529","0.0-17.0","eo6ufupv","","","","","",""
"4459.14499999996","{""post-5"":3}","[0]","survey-likert","18","369989","0.0-18.0","eo6ufupv","","","","","",""
"1081.1450000000186","","","instructions","19","371071","0.0-19.0","eo6ufupv","[{""page_index"":0,""viewing_time"":1081.0350000000326}]","","","","",""
"5121.659999999974","","","instructions","20","376193","0.0-20.0","eo6ufupv","[{""page_index"":0,""viewing_time"":5121.544999999984}]","","","","",""
"","","","call-function","21","376195","0.0-21.0","eo6ufupv","","","","","",""
"null","","","video-keyboard-response","22","379284","0.0-22.0","eo6ufupv","","","","null","Agent A","STIM_SET_1_REAL/498155.bmp_pp61_L2_V1.0_scrambled_freeview_isoFalse_fps144.mp4"
"","","","call-function","23","379284","0.0-23.0","eo6ufupv","","","","","",""
"14380.969999999972","{""pre-1"":0}","[0]","survey-likert","24","393666","0.0-24.0","eo6ufupv","","","","","",""
"4097.114999999991","{""pre-2"":0}","[0]","survey-likert","25","397764","0.0-25.0","eo6ufupv","","","","","",""
"3539.570000000007","{""pre-3"":0}","[0]","survey-likert","26","401305","0.0-26.0","eo6ufupv","","","","","",""
"4068.164999999979","{""post-5"":3}","[0]","survey-likert","27","405375","0.0-27.0","eo6ufupv","","","","","",""
"","","","call-function","28","405376","0.0-28.0","eo6ufupv","","","","","",""
"null","","","video-keyboard-response","29","408446","0.0-29.0","eo6ufupv","","","","null","Agent A","STIM_SET_1_REAL/713796.bmp_pp84_L3_V1.0_veridical_freeview_isoFalse_fps144.mp4"
"","","","call-function","30","408447","0.0-30.0","eo6ufupv","","","","","",""
"6917.004999999946","{""pre-1"":0}","[0]","survey-likert","31","415365","0.0-31.0","eo6ufupv","","","","","",""
"4816.484999999986","{""pre-2"":1}","[0]","survey-likert","32","420183","0.0-32.0","eo6ufupv","","","","","",""
"3294.030000000028","{""pre-3"":0}","[0]","survey-likert","33","423478","0.0-33.0","eo6ufupv","","","","","",""
"5342.099999999977","{""post-5"":2}","[0]","survey-likert","34","428821","0.0-34.0","eo6ufupv","","","","","",""
"","","","call-function","35","428822","0.0-35.0","eo6ufupv","","","","","",""
"null","","","video-keyboard-response","36","431891","0.0-36.0","eo6ufupv","","","","null","Agent A","STIM_SET_1_REAL/1592362.bmp_pp95_L2_V1.0_scrambled_freeview_isoFalse_fps144.mp4"
"","","","call-function","37","431891","0.0-37.0","eo6ufupv","","","","","",""
"9978.994999999995","{""pre-1"":0}","[0]","survey-likert","38","441871","0.0-38.0","eo6ufupv","","","","","",""
"3495.320000000007","{""pre-2"":0}","[0]","survey-likert","39","445368","0.0-39.0","eo6ufupv","","","","","",""
"2551.304999999993","{""pre-3"":0}","[0]","survey-likert","40","447920","0.0-40.0","eo6ufupv","","","","","",""
"2027.155000000028","{""post-5"":3}","[0]","survey-likert","41","449949","0.0-41.0","eo6ufupv","","","","","",""
"","","","call-function","42","449949","0.0-42.0","eo6ufupv","","","","","",""
"null","","","video-keyboard-response","43","453026","0.0-43.0","eo6ufupv","","","","null","Agent A","STIM_SET_1_REAL/713211.bmp_pp100_L3_V1.0_veridical_freeview_isoFalse_fps144.mp4"
"","","","call-function","44","453027","0.0-44.0","eo6ufupv","","","","","",""
"6373.955000000016","{""pre-1"":0}","[0]","survey-likert","45","459401","0.0-45.0","eo6ufupv","","","","","",""
"4770.869999999995","{""pre-2"":2}","[0]","survey-likert","46","464173","0.0-46.0","eo6ufupv","","","","","",""
"2738.125","{""pre-3"":0}","[0]","survey-likert","47","466912","0.0-47.0","eo6ufupv","","","","","",""
"6218.004999999946","{""post-5"":2}","[0]","survey-likert","48","473131","0.0-48.0","eo6ufupv","","","","","",""
"","","","call-function","49","473132","0.0-49.0","eo6ufupv","","","","","",""
"null","","","video-keyboard-response","50","476193","0.0-50.0","eo6ufupv","","","","null","Agent A","STIM_SET_1_REAL/1159572.bmp_pp71_L1_V1.0_veridical_freeview_isoFalse_fps144.mp4"
"","","","call-function","51","476193","0.0-51.0","eo6ufupv","","","","","",""
"8143.554999999993","{""pre-1"":2}","[0]","survey-likert","52","484337","0.0-52.0","eo6ufupv","","","","","",""
"4330.954999999958","{""pre-2"":1}","[0]","survey-likert","53","488669","0.0-53.0","eo6ufupv","","","","","",""
"3393.655000000028","{""pre-3"":0}","[0]","survey-likert","54","492065","0.0-54.0","eo6ufupv","","","","","",""
"6007.015000000014","{""post-5"":1}","[0]","survey-likert","55","498074","0.0-55.0","eo6ufupv","","","","","",""
"","","","call-function","56","498075","0.0-56.0","eo6ufupv","","","","","",""
"null","","","video-keyboard-response","57","501137","0.0-57.0","eo6ufupv","","","","null","Agent A","STIM_SET_1_REAL/497950.bmp_pp151_L1_V1.0_veridical_freeview_isoFalse_fps144.mp4"
"","","","call-function","58","501138","0.0-58.0","eo6ufupv","","","","","",""
"4951.830000000016","{""pre-1"":0}","[0]","survey-likert","59","506091","0.0-59.0","eo6ufupv","","","","","",""
"4945.494999999995","{""pre-2"":2}","[0]","survey-likert","60","511038","0.0-60.0","eo6ufupv","","","","","",""
"4771.265000000014","{""pre-3"":1}","[0]","survey-likert","61","515810","0.0-61.0","eo6ufupv","","","","","",""
"6072.554999999993","{""post-5"":0}","[0]","survey-likert","62","521884","0.0-62.0","eo6ufupv","","","","","",""
"","","","call-function","63","521884","0.0-63.0","eo6ufupv","","","","","",""
"null","","","video-keyboard-response","64","524954","0.0-64.0","eo6ufupv","","","","null","Agent A","STIM_SET_1_REAL/285905.bmp_pp57_L1_V1.0_scrambled_freeview_isoFalse_fps144.mp4"
"","","","call-function","65","524955","0.0-65.0","eo6ufupv","","","","","",""
"3219.7550000000047","{""pre-1"":0}","[0]","survey-likert","66","528176","0.0-66.0","eo6ufupv","","","","","",""
"2659.9899999999907","{""pre-2"":0}","[0]","survey-likert","67","530837","0.0-67.0","eo6ufupv","","","","","",""
"2398.4799999999814","{""pre-3"":0}","[0]","survey-likert","68","533236","0.0-68.0","eo6ufupv","","","","","",""
"1952.2250000000931","{""post-5"":3}","[0]","survey-likert","69","535190","0.0-69.0","eo6ufupv","","","","","",""
"","","","call-function","70","535191","0.0-70.0","eo6ufupv","","","","","",""
"null","","","video-keyboard-response","71","538251","0.0-71.0","eo6ufupv","","","","null","Agent A","STIM_SET_1_REAL/1592133.bmp_pp75_L1_V1.0_veridical_freeview_isoFalse_fps144.mp4"
"","","","call-function","72","538251","0.0-72.0","eo6ufupv","","","","","",""
"3737.4499999999534","{""pre-1"":0}","[0]","survey-likert","73","541990","0.0-73.0","eo6ufupv","","","","","",""
"2449.305000000051","{""pre-2"":0}","[0]","survey-likert","74","544440","0.0-74.0","eo6ufupv","","","","","",""
"2773.805000000051","{""pre-3"":0}","[0]","survey-likert","75","547215","0.0-75.0","eo6ufupv","","","","","",""
"3014.9199999999255","{""post-5"":2}","[0]","survey-likert","76","550231","0.0-76.0","eo6ufupv","","","","","",""
"","","","call-function","77","550231","0.0-77.0","eo6ufupv","","","","","",""
"null","","","video-keyboard-response","78","553295","0.0-78.0","eo6ufupv","","","","null","Agent A","STIM_SET_1_REAL/713403.bmp_pp80_L3_V1.0_scrambled_freeview_isoFalse_fps144.mp4"
"","","","call-function","79","553295","0.0-79.0","eo6ufupv","","","","","",""
"10224.415000000037","{""pre-1"":1}","[0]","survey-likert","80","563521","0.0-80.0","eo6ufupv","","","","","",""
"5101.069999999949","{""pre-2"":0}","[0]","survey-likert","81","568623","0.0-81.0","eo6ufupv","","","","","",""
"1731.365000000107","{""pre-3"":0}","[0]","survey-likert","82","570356","0.0-82.0","eo6ufupv","","","","","",""
"9535.265000000014","{""post-5"":0}","[0]","survey-likert","83","579893","0.0-83.0","eo6ufupv","","","","","",""
"","","","call-function","84","579893","0.0-84.0","eo6ufupv","","","","","",""
"null","","","video-keyboard-response","85","582986","0.0-85.0","eo6ufupv","","","","null","Agent A","STIM_SET_1_REAL/1159813.bmp_pp79_L2_V1.0_veridical_freeview_isoFalse_fps144.mp4"
"","","","call-function","86","582986","0.0-86.0","eo6ufupv","","","","","",""
"6731.5599999999395","{""pre-1"":2}","[0]","survey-likert","87","589719","0.0-87.0","eo6ufupv","","","","","",""
"3038.344999999972","{""pre-2"":0}","[0]","survey-likert","88","592758","0.0-88.0","eo6ufupv","","","","","",""
"1459.280000000028","{""pre-3"":0}","[0]","survey-likert","89","594219","0.0-89.0","eo6ufupv","","","","","",""
"3780.20000000007","{""post-5"":1}","[0]","survey-likert","90","598000","0.0-90.0","eo6ufupv","","","","","",""
"","","","call-function","91","598000","0.0-91.0","eo6ufupv","","","","","",""
"null","","","video-keyboard-response","92","601070","0.0-92.0","eo6ufupv","","","","null","Agent A","STIM_SET_1_REAL/1159768.bmp_pp89_L1_V1.0_scrambled_freeview_isoFalse_fps144.mp4"
"","","","call-function","93","601070","0.0-93.0","eo6ufupv","","","","","",""
"4746.349999999977","{""pre-1"":1}","[0]","survey-likert","94","605818","0.0-94.0","eo6ufupv","","","","","",""
"3063.8499999999767","{""pre-2"":0}","[0]","survey-likert","95","608882","0.0-95.0","eo6ufupv","","","","","",""
"4644.155000000028","{""pre-3"":0}","[0]","survey-likert","96","613528","0.0-96.0","eo6ufupv","","","","","",""
"12076.06500000006","{""post-5"":0}","[0]","survey-likert","97","625605","0.0-97.0","eo6ufupv","","","","","",""
"","","","call-function","98","625605","0.0-98.0","eo6ufupv","","","","","",""
"null","","","video-keyboard-response","99","628680","0.0-99.0","eo6ufupv","","","","null","Agent A","STIM_SET_1_REAL/1159777.bmp_pp77_L3_V1.0_veridical_freeview_isoFalse_fps144.mp4"
"","","","call-function","100","628680","0.0-100.0","eo6ufupv","","","","","",""
"4230.885000000009","{""pre-1"":2}","[0]","survey-likert","101","632912","0.0-101.0","eo6ufupv","","","","","",""
"3557.515000000014","{""pre-2"":2}","[0]","survey-likert","102","636472","0.0-102.0","eo6ufupv","","","","","",""
"7619.1849999999395","{""pre-3"":1}","[0]","survey-likert","103","644092","0.0-103.0","eo6ufupv","","","","","",""
"5028.9700000000885","{""post-5"":1}","[0]","survey-likert","104","649123","0.0-104.0","eo6ufupv","","","","","",""
"","","","call-function","105","649124","0.0-105.0","eo6ufupv","","","","","",""
"null","","","video-keyboard-response","106","652202","0.0-106.0","eo6ufupv","","","","null","Agent A","STIM_SET_1_REAL/1591994.bmp_pp69_L3_V1.0_scrambled_freeview_isoFalse_fps144.mp4"
"","","","call-function","107","652203","0.0-107.0","eo6ufupv","","","","","",""
"3885.820000000065","{""pre-1"":0}","[0]","survey-likert","108","656090","0.0-108.0","eo6ufupv","","","","","",""
"11150.93499999994","{""pre-2"":0}","[0]","survey-likert","109","667242","0.0-109.0","eo6ufupv","","","","","",""
"3268.905000000028","{""pre-3"":0}","[0]","survey-likert","110","670512","0.0-110.0","eo6ufupv","","","","","",""
"5460.619999999995","{""post-5"":2}","[0]","survey-likert","111","675974","0.0-111.0","eo6ufupv","","","","","",""
"","","","call-function","112","675974","0.0-112.0","eo6ufupv","","","","","",""
"null","","","video-keyboard-response","113","679042","0.0-113.0","eo6ufupv","","","","null","Agent A","STIM_SET_1_REAL/1159440.bmp_pp98_L1_V1.0_veridical_freeview_isoFalse_fps144.mp4"
"","","","call-function","114","679043","0.0-114.0","eo6ufupv","","","","","",""
"3768.0599999999395","{""pre-1"":0}","[0]","survey-likert","115","682812","0.0-115.0","eo6ufupv","","","","","",""
"5147.640000000014","{""pre-2"":0}","[0]","survey-likert","116","687961","0.0-116.0","eo6ufupv","","","","","",""
"1733.8399999999674","{""pre-3"":0}","[0]","survey-likert","117","689696","0.0-117.0","eo6ufupv","","","","","",""
"4142.409999999916","{""post-5"":1}","[0]","survey-likert","118","693839","0.0-118.0","eo6ufupv","","","","","",""
"","","","call-function","119","693839","0.0-119.0","eo6ufupv","","","","","",""
"null","","","video-keyboard-response","120","696915","0.0-120.0","eo6ufupv","","","","null","Agent A","STIM_SET_1_REAL/498155.bmp_pp61_L2_V1.0_veridical_freeview_isoFalse_fps144.mp4"
"","","","call-function","121","696916","0.0-121.0","eo6ufupv","","","","","",""
"5317.474999999977","{""pre-1"":2}","[0]","survey-likert","122","702234","0.0-122.0","eo6ufupv","","","","","",""
"3326.314999999944","{""pre-2"":1}","[0]","survey-likert","123","705561","0.0-123.0","eo6ufupv","","","","","",""
"4410.489999999991","{""pre-3"":0}","[0]","survey-likert","124","709974","0.0-124.0","eo6ufupv","","","","","",""
"4991.179999999935","{""post-5"":0}","[0]","survey-likert","125","714966","0.0-125.0","eo6ufupv","","","","","",""
"","","","call-function","126","714966","0.0-126.0","eo6ufupv","","","","","",""
"null","","","video-keyboard-response","127","718045","0.0-127.0","eo6ufupv","","","","null","Agent A","STIM_SET_1_REAL/713666.bmp_pp97_L3_V1.0_veridical_freeview_isoFalse_fps144.mp4"
"","","","call-function","128","718046","0.0-128.0","eo6ufupv","","","","","",""
"7137.775000000023","{""pre-1"":2}","[0]","survey-likert","129","725186","0.0-129.0","eo6ufupv","","","","","",""
"5866.199999999953","{""pre-2"":0}","[0]","survey-likert","130","731053","0.0-130.0","eo6ufupv","","","","","",""
"1729.9599999999627","{""pre-3"":0}","[0]","survey-likert","131","732784","0.0-131.0","eo6ufupv","","","","","",""
"5258.785000000033","{""post-5"":2}","[0]","survey-likert","132","738044","0.0-132.0","eo6ufupv","","","","","",""
"","","","call-function","133","738045","0.0-133.0","eo6ufupv","","","","","",""
"null","","","video-keyboard-response","134","741122","0.0-134.0","eo6ufupv","","","","null","Agent A","STIM_SET_1_REAL/1592804.bmp_pp91_L3_V1.0_veridical_freeview_isoFalse_fps144.mp4"
"","","","call-function","135","741122","0.0-135.0","eo6ufupv","","","","","",""
"2749.344999999972","{""pre-1"":0}","[0]","survey-likert","136","743873","0.0-136.0","eo6ufupv","","","","","",""
"4702.329999999958","{""pre-2"":0}","[0]","survey-likert","137","748577","0.0-137.0","eo6ufupv","","","","","",""
"2200.2299999999814","{""pre-3"":0}","[0]","survey-likert","138","750779","0.0-138.0","eo6ufupv","","","","","",""
"2156.1849999999395","{""post-5"":3}","[0]","survey-likert","139","752936","0.0-139.0","eo6ufupv","","","","","",""
"","","","call-function","140","752937","0.0-140.0","eo6ufupv","","","","","",""
"null","","","video-keyboard-response","141","756000","0.0-141.0","eo6ufupv","","","","null","Agent A","STIM_SET_1_REAL/713403.bmp_pp80_L3_V1.0_veridical_freeview_isoFalse_fps144.mp4"
"","","","call-function","142","756000","0.0-142.0","eo6ufupv","","","","","",""
"3709.774999999907","{""pre-1"":3}","[0]","survey-likert","143","759711","0.0-143.0","eo6ufupv","","","","","",""
"3490.070000000065","{""pre-2"":2}","[0]","survey-likert","144","763202","0.0-144.0","eo6ufupv","","","","","",""
"2957.0350000000326","{""pre-3"":1}","[0]","survey-likert","145","766160","0.0-145.0","eo6ufupv","","","","","",""
"2541.0449999999255","{""post-5"":0}","[0]","survey-likert","146","768702","0.0-146.0","eo6ufupv","","","","","",""
"","","","call-function","147","768703","0.0-147.0","eo6ufupv","","","","","",""
"null","","","video-keyboard-response","148","771764","0.0-148.0","eo6ufupv","","","","null","Agent A","STIM_SET_1_REAL/1592619.bmp_pp56_L3_V1.0_scrambled_freeview_isoFalse_fps144.mp4"
"","","","call-function","149","771764","0.0-149.0","eo6ufupv","","","","","",""
"4796.185000000056","{""pre-1"":0}","[0]","survey-likert","150","776562","0.0-150.0","eo6ufupv","","","","","",""
"3716.905000000028","{""pre-2"":1}","[0]","survey-likert","151","780281","0.0-151.0","eo6ufupv","","","","","",""
"7550.585000000079","{""pre-3"":0}","[0]","survey-likert","152","787833","0.0-152.0","eo6ufupv","","","","","",""
"5047.089999999967","{""post-5"":1}","[0]","survey-likert","153","792882","0.0-153.0","eo6ufupv","","","","","",""
"","","","call-function","154","792882","0.0-154.0","eo6ufupv","","","","","",""
"null","","","video-keyboard-response","155","795951","0.0-155.0","eo6ufupv","","","","null","Agent A","STIM_SET_1_REAL/713017.bmp_pp152_L2_V1.0_scrambled_freeview_isoFalse_fps144.mp4"
"","","","call-function","156","795951","0.0-156.0","eo6ufupv","","","","","",""
"2593.909999999916","{""pre-1"":0}","[0]","survey-likert","157","798546","0.0-157.0","eo6ufupv","","","","","",""
"2048.1500000000233","{""pre-2"":0}","[0]","survey-likert","158","800595","0.0-158.0","eo6ufupv","","","","","",""
"2208.079999999958","{""pre-3"":0}","[0]","survey-likert","159","802804","0.0-159.0","eo6ufupv","","","","","",""
"2463.344999999972","{""post-5"":3}","[0]","survey-likert","160","805269","0.0-160.0","eo6ufupv","","","","","",""
"3377.935000000056","","","instructions","161","808648","0.0-161.0","eo6ufupv","[{""page_index"":0,""viewing_time"":1549.8850000000093},{""page_index"":1,""viewing_time"":963.2049999999581},{""page_index"":2,""viewing_time"":864.6199999999953}]","","","","",""
"3382.555000000051","","","instructions","162","812031","0.0-162.0","eo6ufupv","[{""page_index"":0,""viewing_time"":749.375},{""page_index"":1,""viewing_time"":1124.015000000014},{""page_index"":2,""viewing_time"":1509.030000000028}]","","","","",""
"","","","call-function","163","812031","0.0-163.0","eo6ufupv","","","","","",""
"null","","","video-keyboard-response","164","815101","0.0-164.0","eo6ufupv","","","","null","Agent A","STIM_SET_1_REAL/713796.bmp_pp84_L3_V1.0_scrambled_freeview_isoFalse_fps144.mp4"
"","","","call-function","165","815102","0.0-165.0","eo6ufupv","","","","","",""
"5624.314999999944","{""pre-1"":0}","[0]","survey-likert","166","820727","0.0-166.0","eo6ufupv","","","","","",""
"4208.160000000033","{""pre-2"":0}","[0]","survey-likert","167","824936","0.0-167.0","eo6ufupv","","","","","",""
"2990.015000000014","{""pre-3"":0}","[0]","survey-likert","168","827927","0.0-168.0","eo6ufupv","","","","","",""
"4375.930000000051","{""post-5"":1}","[0]","survey-likert","169","832304","0.0-169.0","eo6ufupv","","","","","",""
"","","","call-function","170","832305","0.0-170.0","eo6ufupv","","","","","",""
"null","","","video-keyboard-response","171","835365","0.0-171.0","eo6ufupv","","","","null","Agent A","STIM_SET_1_REAL/1592133.bmp_pp75_L1_V1.0_scrambled_freeview_isoFalse_fps144.mp4"
"","","","call-function","172","835365","0.0-172.0","eo6ufupv","","","","","",""
"8605.20000000007","{""pre-1"":1}","[0]","survey-likert","173","843971","0.0-173.0","eo6ufupv","","","","","",""
"8841.255000000005","{""pre-2"":0}","[0]","survey-likert","174","852814","0.0-174.0","eo6ufupv","","","","","",""
"2737.7449999999953","{""pre-3"":0}","[0]","survey-likert","175","855554","0.0-175.0","eo6ufupv","","","","","",""
"11990.314999999944","{""post-5"":1}","[0]","survey-likert","176","867546","0.0-176.0","eo6ufupv","","","","","",""
"","","","call-function","177","867546","0.0-177.0","eo6ufupv","","","","","",""
"null","","","video-keyboard-response","178","870609","0.0-178.0","eo6ufupv","","","","null","Agent A","STIM_SET_1_REAL/1592817.bmp_pp55_L3_V1.0_veridical_freeview_isoFalse_fps144.mp4"
"","","","call-function","179","870609","0.0-179.0","eo6ufupv","","","","","",""
"3672.140000000014","{""pre-1"":2}","[0]","survey-likert","180","874282","0.0-180.0","eo6ufupv","","","","","",""
"13722.535000000033","{""pre-2"":2}","[0]","survey-likert","181","888006","0.0-181.0","eo6ufupv","","","","","",""
"4621.164999999921","{""pre-3"":0}","[0]","survey-likert","182","892628","0.0-182.0","eo6ufupv","","","","","",""
"3647.8950000000186","{""post-5"":0}","[0]","survey-likert","183","896277","0.0-183.0","eo6ufupv","","","","","",""
"","","","call-function","184","896278","0.0-184.0","eo6ufupv","","","","","",""
"null","","","video-keyboard-response","185","899340","0.0-185.0","eo6ufupv","","","","null","Agent A","STIM_SET_1_REAL/1592817.bmp_pp55_L3_V1.0_scrambled_freeview_isoFalse_fps144.mp4"
"","","","call-function","186","899341","0.0-186.0","eo6ufupv","","","","","",""
"4432.535000000033","{""pre-1"":0}","[0]","survey-likert","187","903774","0.0-187.0","eo6ufupv","","","","","",""
"5188.0599999999395","{""pre-2"":0}","[0]","survey-likert","188","908963","0.0-188.0","eo6ufupv","","","","","",""
"2138.0999999999767","{""pre-3"":0}","[0]","survey-likert","189","911102","0.0-189.0","eo6ufupv","","","","","",""
"3522.9649999999674","{""post-5"":2}","[0]","survey-likert","190","914626","0.0-190.0","eo6ufupv","","","","","",""
"","","","call-function","191","914627","0.0-191.0","eo6ufupv","","","","","",""
"null","","","video-keyboard-response","192","917720","0.0-192.0","eo6ufupv","","","","null","Agent A","STIM_SET_1_REAL/1159813.bmp_pp79_L2_V1.0_scrambled_freeview_isoFalse_fps144.mp4"
"","","","call-function","193","917720","0.0-193.0","eo6ufupv","","","","","",""
"5222.599999999977","{""pre-1"":3}","[0]","survey-likert","194","922943","0.0-194.0","eo6ufupv","","","","","",""
"3366.694999999949","{""pre-2"":0}","[0]","survey-likert","195","926311","0.0-195.0","eo6ufupv","","","","","",""
"1830.9149999999208","{""pre-3"":0}","[0]","survey-likert","196","928143","0.0-196.0","eo6ufupv","","","","","",""
"2681.480000000098","{""post-5"":0}","[0]","survey-likert","197","930826","0.0-197.0","eo6ufupv","","","","","",""
"","","","call-function","198","930827","0.0-198.0","eo6ufupv","","","","","",""
"null","","","video-keyboard-response","199","933888","0.0-199.0","eo6ufupv","","","","null","Agent A","STIM_SET_1_REAL/713089.bmp_pp60_L3_V1.0_veridical_freeview_isoFalse_fps144.mp4"
"","","","call-function","200","933889","0.0-200.0","eo6ufupv","","","","","",""
"7383.224999999977","{""pre-1"":1}","[0]","survey-likert","201","941273","0.0-201.0","eo6ufupv","","","","","",""
"4742.5","{""pre-2"":0}","[0]","survey-likert","202","946016","0.0-202.0","eo6ufupv","","","","","",""
"1950.9449999999488","{""pre-3"":0}","[0]","survey-likert","203","947969","0.0-203.0","eo6ufupv","","","","","",""
"2780.0200000000186","{""post-5"":1}","[0]","survey-likert","204","950750","0.0-204.0","eo6ufupv","","","","","",""
"","","","call-function","205","950751","0.0-205.0","eo6ufupv","","","","","",""
"null","","","video-keyboard-response","206","953826","0.0-206.0","eo6ufupv","","","","null","Agent A","STIM_SET_1_REAL/1160127.bmp_pp90_L2_V1.0_veridical_freeview_isoFalse_fps144.mp4"
"","","","call-function","207","953827","0.0-207.0","eo6ufupv","","","","","",""
"5977.670000000042","{""pre-1"":0}","[0]","survey-likert","208","959805","0.0-208.0","eo6ufupv","","","","","",""
"1946.8000000000466","{""pre-2"":0}","[0]","survey-likert","209","961753","0.0-209.0","eo6ufupv","","","","","",""
"1719.0649999999441","{""pre-3"":0}","[0]","survey-likert","210","963473","0.0-210.0","eo6ufupv","","","","","",""
"2494.3950000000186","{""post-5"":1}","[0]","survey-likert","211","965969","0.0-211.0","eo6ufupv","","","","","",""
"","","","call-function","212","965969","0.0-212.0","eo6ufupv","","","","","",""
"null","","","video-keyboard-response","213","969040","0.0-213.0","eo6ufupv","","","","null","Agent A","STIM_SET_1_REAL/1592397.bmp_pp85_L3_V1.0_scrambled_freeview_isoFalse_fps144.mp4"
"","","","call-function","214","969040","0.0-214.0","eo6ufupv","","","","","",""
"6568.054999999935","{""pre-1"":2}","[0]","survey-likert","215","975609","0.0-215.0","eo6ufupv","","","","","",""
"2865.2299999999814","{""pre-2"":2}","[0]","survey-likert","216","978476","0.0-216.0","eo6ufupv","","","","","",""
"3116.784999999916","{""pre-3"":2}","[0]","survey-likert","217","981594","0.0-217.0","eo6ufupv","","","","","",""
"8880.925000000047","{""post-5"":0}","[0]","survey-likert","218","990476","0.0-218.0","eo6ufupv","","","","","",""
"","","","call-function","219","990477","0.0-219.0","eo6ufupv","","","","","",""
"null","","","video-keyboard-response","220","993539","0.0-220.0","eo6ufupv","","","","null","Agent A","STIM_SET_1_REAL/713681.bmp_pp86_L2_V1.0_scrambled_freeview_isoFalse_fps144.mp4"
"","","","call-function","221","993540","0.0-221.0","eo6ufupv","","","","","",""
"2587.045000000042","{""pre-1"":0}","[0]","survey-likert","222","996128","0.0-222.0","eo6ufupv","","","","","",""
"1766.7050000000745","{""pre-2"":0}","[0]","survey-likert","223","997895","0.0-223.0","eo6ufupv","","","","","",""
"2993.570000000065","{""pre-3"":0}","[0]","survey-likert","224","1000891","0.0-224.0","eo6ufupv","","","","","",""
"2712.234999999986","{""post-5"":3}","[0]","survey-likert","225","1003605","0.0-225.0","eo6ufupv","","","","","",""
"","","","call-function","226","1003606","0.0-226.0","eo6ufupv","","","","","",""
"null","","","video-keyboard-response","227","1006683","0.0-227.0","eo6ufupv","","","","null","Agent A","STIM_SET_1_REAL/713593.bmp_pp64_L1_V1.0_veridical_freeview_isoFalse_fps144.mp4"
"","","","call-function","228","1006684","0.0-228.0","eo6ufupv","","","","","",""
"4080.664999999921","{""pre-1"":2}","[0]","survey-likert","229","1010765","0.0-229.0","eo6ufupv","","","","","",""
"1788.3099999999395","{""pre-2"":0}","[0]","survey-likert","230","1012555","0.0-230.0","eo6ufupv","","","","","",""
"1720.3499999999767","{""pre-3"":0}","[0]","survey-likert","231","1014276","0.0-231.0","eo6ufupv","","","","","",""
"3382.969999999972","{""post-5"":0}","[0]","survey-likert","232","1017661","0.0-232.0","eo6ufupv","","","","","",""
"","","","call-function","233","1017661","0.0-233.0","eo6ufupv","","","","","",""
"null","","","video-keyboard-response","234","1020738","0.0-234.0","eo6ufupv","","","","null","Agent A","STIM_SET_1_REAL/713666.bmp_pp97_L3_V1.0_scrambled_freeview_isoFalse_fps144.mp4"
"","","","call-function","235","1020738","0.0-235.0","eo6ufupv","","","","","",""
"6467.265000000014","{""pre-1"":2}","[0]","survey-likert","236","1027206","0.0-236.0","eo6ufupv","","","","","",""
"4713.969999999972","{""pre-2"":0}","[0]","survey-likert","237","1031921","0.0-237.0","eo6ufupv","","","","","",""
"2091.9599999999627","{""pre-3"":0}","[0]","survey-likert","238","1034014","0.0-238.0","eo6ufupv","","","","","",""
"3209.1600000000326","{""post-5"":0}","[0]","survey-likert","239","1037225","0.0-239.0","eo6ufupv","","","","","",""
"","","","call-function","240","1037225","0.0-240.0","eo6ufupv","","","","","",""
"null","","","video-keyboard-response","241","1040285","0.0-241.0","eo6ufupv","","","","null","Agent A","STIM_SET_1_REAL/498149.bmp_pp99_L2_V1.0_scrambled_freeview_isoFalse_fps144.mp4"
"","","","call-function","242","1040286","0.0-242.0","eo6ufupv","","","","","",""
"4675.984999999986","{""pre-1"":0}","[0]","survey-likert","243","1044963","0.0-243.0","eo6ufupv","","","","","",""
"1860.265000000014","{""pre-2"":2}","[0]","survey-likert","244","1046824","0.0-244.0","eo6ufupv","","","","","",""
"3376.800000000163","{""pre-3"":1}","[0]","survey-likert","245","1050202","0.0-245.0","eo6ufupv","","","","","",""
"3200.7600000000093","{""post-5"":0}","[0]","survey-likert","246","1053404","0.0-246.0","eo6ufupv","","","","","",""
"","","","call-function","247","1053404","0.0-247.0","eo6ufupv","","","","","",""
"null","","","video-keyboard-response","248","1056464","0.0-248.0","eo6ufupv","","","","null","Agent A","STIM_SET_1_REAL/498170.bmp_pp153_L3_V1.0_veridical_freeview_isoFalse_fps144.mp4"
"","","","call-function","249","1056464","0.0-249.0","eo6ufupv","","","","","",""
"12930.76000000001","{""pre-1"":0}","[0]","survey-likert","250","1069397","0.0-250.0","eo6ufupv","","","","","",""
"1826.4899999999907","{""pre-2"":0}","[0]","survey-likert","251","1071225","0.0-251.0","eo6ufupv","","","","","",""
"1762.3149999999441","{""pre-3"":0}","[0]","survey-likert","252","1072989","0.0-252.0","eo6ufupv","","","","","",""
"5033.324999999953","{""post-5"":2}","[0]","survey-likert","253","1078024","0.0-253.0","eo6ufupv","","","","","",""
"","","","call-function","254","1078024","0.0-254.0","eo6ufupv","","","","","",""
"null","","","video-keyboard-response","255","1081105","0.0-255.0","eo6ufupv","","","","null","Agent A","STIM_SET_1_REAL/1159882.bmp_pp61_L2_V1.0_veridical_freeview_isoFalse_fps144.mp4"
"","","","call-function","256","1081105","0.0-256.0","eo6ufupv","","","","","",""
"1799.2899999998044","{""pre-1"":0}","[0]","survey-likert","257","1082906","0.0-257.0","eo6ufupv","","","","","",""
"1751.3049999999348","{""pre-2"":0}","[0]","survey-likert","258","1084658","0.0-258.0","eo6ufupv","","","","","",""
"1652.339999999851","{""pre-3"":0}","[0]","survey-likert","259","1086311","0.0-259.0","eo6ufupv","","","","","",""
"2238.945000000065","{""post-5"":3}","[0]","survey-likert","260","1088552","0.0-260.0","eo6ufupv","","","","","",""
"","","","call-function","261","1088552","0.0-261.0","eo6ufupv","","","","","",""
"null","","","video-keyboard-response","262","1091626","0.0-262.0","eo6ufupv","","","","null","Agent A","STIM_SET_1_REAL/1593146.bmp_pp93_L1_V1.0_veridical_freeview_isoFalse_fps144.mp4"
"","","","call-function","263","1091627","0.0-263.0","eo6ufupv","","","","","",""
"3022.0400000000373","{""pre-1"":0}","[0]","survey-likert","264","1094650","0.0-264.0","eo6ufupv","","","","","",""
"2384.3599999998696","{""pre-2"":0}","[0]","survey-likert","265","1097035","0.0-265.0","eo6ufupv","","","","","",""
"2512.0400000000373","{""pre-3"":0}","[0]","survey-likert","266","1099549","0.0-266.0","eo6ufupv","","","","","",""
"2881.535000000149","{""post-5"":3}","[0]","survey-likert","267","1102431","0.0-267.0","eo6ufupv","","","","","",""
"","","","call-function","268","1102432","0.0-268.0","eo6ufupv","","","","","",""
"null","","","video-keyboard-response","269","1105491","0.0-269.0","eo6ufupv","","","","null","Agent A","STIM_SET_1_REAL/1592351.bmp_pp51_L1_V1.0_scrambled_freeview_isoFalse_fps144.mp4"
"","","","call-function","270","1105492","0.0-270.0","eo6ufupv","","","","","",""
"3036.9199999999255","{""pre-1"":0}","[0]","survey-likert","271","1108530","0.0-271.0","eo6ufupv","","","","","",""
"1750.9950000001118","{""pre-2"":0}","[0]","survey-likert","272","1110282","0.0-272.0","eo6ufupv","","","","","",""
"1420.75","{""pre-3"":0}","[0]","survey-likert","273","1111704","0.0-273.0","eo6ufupv","","","","","",""
"2261.4850000001024","{""post-5"":3}","[0]","survey-likert","274","1113967","0.0-274.0","eo6ufupv","","","","","",""
"","","","call-function","275","1113967","0.0-275.0","eo6ufupv","","","","","",""
"null","","","video-keyboard-response","276","1117033","0.0-276.0","eo6ufupv","","","","null","Agent A","STIM_SET_1_REAL/713513.bmp_pp62_L2_V1.0_veridical_freeview_isoFalse_fps144.mp4"
"","","","call-function","277","1117033","0.0-277.0","eo6ufupv","","","","","",""
"2406.2600000000093","{""pre-1"":2}","[0]","survey-likert","278","1119441","0.0-278.0","eo6ufupv","","","","","",""
"2365.3899999998976","{""pre-2"":1}","[0]","survey-likert","279","1121808","0.0-279.0","eo6ufupv","","","","","",""
"2714.195000000065","{""pre-3"":0}","[0]","survey-likert","280","1124524","0.0-280.0","eo6ufupv","","","","","",""
"3089.4799999999814","{""post-5"":1}","[0]","survey-likert","281","1127615","0.0-281.0","eo6ufupv","","","","","",""
"","","","call-function","282","1127615","0.0-282.0","eo6ufupv","","","","","",""
"null","","","video-keyboard-response","283","1130772","0.0-283.0","eo6ufupv","","","","null","Agent A","STIM_SET_1_REAL/1592499.bmp_pp96_L2_V1.0_scrambled_freeview_isoFalse_fps144.mp4"
"","","","call-function","284","1130773","0.0-284.0","eo6ufupv","","","","","",""
"3149.1049999999814","{""pre-1"":0}","[0]","survey-likert","285","1133923","0.0-285.0","eo6ufupv","","","","","",""
"1516.0549999999348","{""pre-2"":0}","[0]","survey-likert","286","1135440","0.0-286.0","eo6ufupv","","","","","",""
"2171.689999999944","{""pre-3"":0}","[0]","survey-likert","287","1137613","0.0-287.0","eo6ufupv","","","","","",""
"1613.8950000000186","{""post-5"":1}","[0]","survey-likert","288","1139228","0.0-288.0","eo6ufupv","","","","","",""
"","","","call-function","289","1139228","0.0-289.0","eo6ufupv","","","","","",""
"null","","","video-keyboard-response","290","1142302","0.0-290.0","eo6ufupv","","","","null","Agent A","STIM_SET_1_REAL/713371.bmp_pp68_L1_V1.0_veridical_freeview_isoFalse_fps144.mp4"
"","","","call-function","291","1142303","0.0-291.0","eo6ufupv","","","","","",""
"3572.185000000056","{""pre-1"":0}","[0]","survey-likert","292","1145876","0.0-292.0","eo6ufupv","","","","","",""
"1923.9399999999441","{""pre-2"":2}","[0]","survey-likert","293","1147801","0.0-293.0","eo6ufupv","","","","","",""
"2060.2050000000745","{""pre-3"":2}","[0]","survey-likert","294","1149862","0.0-294.0","eo6ufupv","","","","","",""
"7223.699999999953","{""post-5"":0}","[0]","survey-likert","295","1157087","0.0-295.0","eo6ufupv","","","","","",""
"","","","call-function","296","1157087","0.0-296.0","eo6ufupv","","","","","",""
"null","","","video-keyboard-response","297","1160161","0.0-297.0","eo6ufupv","","","","null","Agent A","STIM_SET_1_REAL/1592372.bmp_pp76_L1_V1.0_veridical_freeview_isoFalse_fps144.mp4"
"","","","call-function","298","1160162","0.0-298.0","eo6ufupv","","","","","",""
"4063.9000000001397","{""pre-1"":2}","[0]","survey-likert","299","1164227","0.0-299.0","eo6ufupv","","","","","",""
"2897.980000000214","{""pre-2"":0}","[0]","survey-likert","300","1167126","0.0-300.0","eo6ufupv","","","","","",""
"2083.9899999999907","{""pre-3"":0}","[0]","survey-likert","301","1169211","0.0-301.0","eo6ufupv","","","","","",""
"3197.0749999999534","{""post-5"":1}","[0]","survey-likert","302","1172409","0.0-302.0","eo6ufupv","","","","","",""
"3419.780000000028","","","instructions","303","1175830","0.0-303.0","eo6ufupv","[{""page_index"":0,""viewing_time"":1152.1599999999162},{""page_index"":1,""viewing_time"":976.9150000000373},{""page_index"":2,""viewing_time"":1290.0150000001304}]","","","","",""
"5241.85999999987","","","instructions","304","1181073","0.0-304.0","eo6ufupv","[{""page_index"":0,""viewing_time"":985.8049999999348},{""page_index"":1,""viewing_time"":2706.9950000001118},{""page_index"":2,""viewing_time"":1548.964999999851}]","","","","",""
"","","","call-function","305","1181073","0.0-305.0","eo6ufupv","","","","","",""
"null","","","video-keyboard-response","306","1184158","0.0-306.0","eo6ufupv","","","","null","Agent A","STIM_SET_1_REAL/1593041.bmp_pp58_L1_V1.0_veridical_freeview_isoFalse_fps144.mp4"
"","","","call-function","307","1184159","0.0-307.0","eo6ufupv","","","","","",""
"3101.975000000093","{""pre-1"":0}","[0]","survey-likert","308","1187262","0.0-308.0","eo6ufupv","","","","","",""
"5146.060000000056","{""pre-2"":0}","[0]","survey-likert","309","1192409","0.0-309.0","eo6ufupv","","","","","",""
"2151.4150000000373","{""pre-3"":0}","[0]","survey-likert","310","1194562","0.0-310.0","eo6ufupv","","","","","",""
"4840.760000000009","{""post-5"":2}","[0]","survey-likert","311","1199404","0.0-311.0","eo6ufupv","","","","","",""
"","","","call-function","312","1199404","0.0-312.0","eo6ufupv","","","","","",""
"null","","","video-keyboard-response","313","1202490","0.0-313.0","eo6ufupv","","","","null","Agent A","STIM_SET_1_REAL/1593041.bmp_pp58_L1_V1.0_scrambled_freeview_isoFalse_fps144.mp4"
"","","","call-function","314","1202491","0.0-314.0","eo6ufupv","","","","","",""
"4469.194999999832","{""pre-1"":2}","[0]","survey-likert","315","1206961","0.0-315.0","eo6ufupv","","","","","",""
"3118.1099999998696","{""pre-2"":0}","[0]","survey-likert","316","1210080","0.0-316.0","eo6ufupv","","","","","",""
"1848.654999999795","{""pre-3"":0}","[0]","survey-likert","317","1211930","0.0-317.0","eo6ufupv","","","","","",""
"3227.8300000000745","{""post-5"":0}","[0]","survey-likert","318","1215159","0.0-318.0","eo6ufupv","","","","","",""
"","","","call-function","319","1215159","0.0-319.0","eo6ufupv","","","","","",""
"null","","","video-keyboard-response","320","1218218","0.0-320.0","eo6ufupv","","","","null","Agent A","STIM_SET_1_REAL/1159572.bmp_pp71_L1_V1.0_scrambled_freeview_isoFalse_fps144.mp4"
"","","","call-function","321","1218218","0.0-321.0","eo6ufupv","","","","","",""
"2792.255000000121","{""pre-1"":0}","[0]","survey-likert","322","1221011","0.0-322.0","eo6ufupv","","","","","",""
"1400.9599999999627","{""pre-2"":0}","[0]","survey-likert","323","1222413","0.0-323.0","eo6ufupv","","","","","",""
"1611.5649999999441","{""pre-3"":0}","[0]","survey-likert","324","1224026","0.0-324.0","eo6ufupv","","","","","",""
"2267.530000000028","{""post-5"":3}","[0]","survey-likert","325","1226294","0.0-325.0","eo6ufupv","","","","","",""
"","","","call-function","326","1226295","0.0-326.0","eo6ufupv","","","","","",""
"null","","","video-keyboard-response","327","1229371","0.0-327.0","eo6ufupv","","","","null","Agent A","STIM_SET_1_REAL/712977.bmp_pp51_L1_V1.0_veridical_freeview_isoFalse_fps144.mp4"
"","","","call-function","328","1229371","0.0-328.0","eo6ufupv","","","","","",""
"5108.395000000019","{""pre-1"":2}","[0]","survey-likert","329","1234481","0.0-329.0","eo6ufupv","","","","","",""
"1638.0149999998976","{""pre-2"":1}","[0]","survey-likert","330","1236120","0.0-330.0","eo6ufupv","","","","","",""
"2586.0749999999534","{""pre-3"":1}","[0]","survey-likert","331","1238707","0.0-331.0","eo6ufupv","","","","","",""
"3051.25","{""post-5"":0}","[0]","survey-likert","332","1241760","0.0-332.0","eo6ufupv","","","","","",""
"","","","call-function","333","1241761","0.0-333.0","eo6ufupv","","","","","",""
"null","","","video-keyboard-response","334","1244856","0.0-334.0","eo6ufupv","","","","null","Agent A","STIM_SET_1_REAL/1592286.bmp_pp52_L1_V1.0_veridical_freeview_isoFalse_fps144.mp4"
"","","","call-function","335","1244857","0.0-335.0","eo6ufupv","","","","","",""
"3831.9850000001024","{""pre-1"":3}","[0]","survey-likert","336","1248690","0.0-336.0","eo6ufupv","","","","","",""
"2640.0800000000745","{""pre-2"":3}","[0]","survey-likert","337","1251331","0.0-337.0","eo6ufupv","","","","","",""
"2324.964999999851","{""pre-3"":3}","[0]","survey-likert","338","1253657","0.0-338.0","eo6ufupv","","","","","",""
"2110.564999999944","{""post-5"":0}","[0]","survey-likert","339","1255769","0.0-339.0","eo6ufupv","","","","","",""
"","","","call-function","340","1255769","0.0-340.0","eo6ufupv","","","","","",""
"null","","","video-keyboard-response","341","1258836","0.0-341.0","eo6ufupv","","","","null","Agent A","STIM_SET_1_REAL/1592727.bmp_pp59_L3_V1.0_scrambled_freeview_isoFalse_fps144.mp4"
"","","","call-function","342","1258837","0.0-342.0","eo6ufupv","","","","","",""
"3876.4950000001118","{""pre-1"":3}","[0]","survey-likert","343","1262715","0.0-343.0","eo6ufupv","","","","","",""
"2114.8850000000093","{""pre-2"":2}","[0]","survey-likert","344","1264831","0.0-344.0","eo6ufupv","","","","","",""
"1718.0100000000093","{""pre-3"":2}","[0]","survey-likert","345","1266550","0.0-345.0","eo6ufupv","","","","","",""
"3763.899999999907","{""post-5"":0}","[0]","survey-likert","346","1270315","0.0-346.0","eo6ufupv","","","","","",""
"","","","call-function","347","1270315","0.0-347.0","eo6ufupv","","","","","",""
"null","","","video-keyboard-response","348","1273383","0.0-348.0","eo6ufupv","","","","null","Agent A","STIM_SET_1_REAL/1592581.bmp_pp100_L3_V1.0_veridical_freeview_isoFalse_fps144.mp4"
"","","","call-function","349","1273383","0.0-349.0","eo6ufupv","","","","","",""
"3815.905000000028","{""pre-1"":1}","[0]","survey-likert","350","1277200","0.0-350.0","eo6ufupv","","","","","",""
"2075.1999999999534","{""pre-2"":0}","[0]","survey-likert","351","1279276","0.0-351.0","eo6ufupv","","","","","",""
"1735.155000000028","{""pre-3"":0}","[0]","survey-likert","352","1281012","0.0-352.0","eo6ufupv","","","","","",""
"5900.534999999916","{""post-5"":1}","[0]","survey-likert","353","1286914","0.0-353.0","eo6ufupv","","","","","",""
"","","","call-function","354","1286915","0.0-354.0","eo6ufupv","","","","","",""
"null","","","video-keyboard-response","355","1289995","0.0-355.0","eo6ufupv","","","","null","Agent A","STIM_SET_1_REAL/713620.bmp_pp65_L3_V1.0_veridical_freeview_isoFalse_fps144.mp4"
"","","","call-function","356","1289995","0.0-356.0","eo6ufupv","","","","","",""
"3153.909999999916","{""pre-1"":0}","[0]","survey-likert","357","1293150","0.0-357.0","eo6ufupv","","","","","",""
"1465.9500000001863","{""pre-2"":0}","[0]","survey-likert","358","1294617","0.0-358.0","eo6ufupv","","","","","",""
"2105.7350000001024","{""pre-3"":0}","[0]","survey-likert","359","1296724","0.0-359.0","eo6ufupv","","","","","",""
"5062.969999999972","{""post-5"":2}","[0]","survey-likert","360","1301788","0.0-360.0","eo6ufupv","","","","","",""
"","","","call-function","361","1301788","0.0-361.0","eo6ufupv","","","","","",""
"null","","","video-keyboard-response","362","1304862","0.0-362.0","eo6ufupv","","","","null","Agent A","STIM_SET_1_REAL/498253.bmp_pp67_L2_V1.0_scrambled_freeview_isoFalse_fps144.mp4"
"","","","call-function","363","1304864","0.0-363.0","eo6ufupv","","","","","",""
"3228.1399999998976","{""pre-1"":0}","[0]","survey-likert","364","1308094","0.0-364.0","eo6ufupv","","","","","",""
"3574.1450000000186","{""pre-2"":0}","[0]","survey-likert","365","1311669","0.0-365.0","eo6ufupv","","","","","",""
"1784.875","{""pre-3"":0}","[0]","survey-likert","366","1313455","0.0-366.0","eo6ufupv","","","","","",""
"2434.3700000001118","{""post-5"":3}","[0]","survey-likert","367","1315891","0.0-367.0","eo6ufupv","","","","","",""
"","","","call-function","368","1315891","0.0-368.0","eo6ufupv","","","","","",""
"null","","","video-keyboard-response","369","1318965","0.0-369.0","eo6ufupv","","","","null","Agent A","STIM_SET_1_REAL/713749.bmp_pp88_L2_V1.0_veridical_freeview_isoFalse_fps144.mp4"
"","","","call-function","370","1318966","0.0-370.0","eo6ufupv","","","","","",""
"4576.2050000000745","{""pre-1"":2}","[0]","survey-likert","371","1323543","0.0-371.0","eo6ufupv","","","","","",""
"3973.3649999999907","{""pre-2"":1}","[0]","survey-likert","372","1327518","0.0-372.0","eo6ufupv","","","","","",""
"4548.435000000056","{""pre-3"":1}","[0]","survey-likert","373","1332068","0.0-373.0","eo6ufupv","","","","","",""
"11758.059999999823","{""post-5"":0}","[0]","survey-likert","374","1343827","0.0-374.0","eo6ufupv","","","","","",""
"","","","call-function","375","1343827","0.0-375.0","eo6ufupv","","","","","",""
"null","","","video-keyboard-response","376","1346889","0.0-376.0","eo6ufupv","","","","null","Agent A","STIM_SET_1_REAL/1159446.bmp_pp60_L3_V1.0_scrambled_freeview_isoFalse_fps144.mp4"
"","","","call-function","377","1346889","0.0-377.0","eo6ufupv","","","","","",""
"4404.184999999823","{""pre-1"":2}","[0]","survey-likert","378","1351294","0.0-378.0","eo6ufupv","","","","","",""
"3994.2900000000373","{""pre-2"":2}","[0]","survey-likert","379","1355290","0.0-379.0","eo6ufupv","","","","","",""
"2576.3499999998603","{""pre-3"":2}","[0]","survey-likert","380","1357867","0.0-380.0","eo6ufupv","","","","","",""
"2179.4599999999627","{""post-5"":0}","[0]","survey-likert","381","1360048","0.0-381.0","eo6ufupv","","","","","",""
"","","","call-function","382","1360048","0.0-382.0","eo6ufupv","","","","","",""
"null","","","video-keyboard-response","383","1363119","0.0-383.0","eo6ufupv","","","","null","Agent A","STIM_SET_1_REAL/713017.bmp_pp152_L2_V1.0_veridical_freeview_isoFalse_fps144.mp4"
"","","","call-function","384","1363119","0.0-384.0","eo6ufupv","","","","","",""
"3504.1450000000186","{""pre-1"":2}","[0]","survey-likert","385","1366624","0.0-385.0","eo6ufupv","","","","","",""
"2670.1999999999534","{""pre-2"":2}","[0]","survey-likert","386","1369296","0.0-386.0","eo6ufupv","","","","","",""
"1863.9499999999534","{""pre-3"":0}","[0]","survey-likert","387","1371162","0.0-387.0","eo6ufupv","","","","","",""
"14541.560000000056","{""post-5"":2}","[0]","survey-likert","388","1385705","0.0-388.0","eo6ufupv","","","","","",""
"","","","call-function","389","1385706","0.0-389.0","eo6ufupv","","","","","",""
"null","","","video-keyboard-response","390","1388775","0.0-390.0","eo6ufupv","","","","null","Agent A","STIM_SET_1_REAL/1159829.bmp_pp91_L3_V1.0_scrambled_freeview_isoFalse_fps144.mp4"
"","","","call-function","391","1388775","0.0-391.0","eo6ufupv","","","","","",""
"4011.0499999998137","{""pre-1"":0}","[0]","survey-likert","392","1392787","0.0-392.0","eo6ufupv","","","","","",""
"1851.6049999999814","{""pre-2"":0}","[0]","survey-likert","393","1394640","0.0-393.0","eo6ufupv","","","","","",""
"2105.469999999972","{""pre-3"":0}","[0]","survey-likert","394","1396747","0.0-394.0","eo6ufupv","","","","","",""
"2392.774999999907","{""post-5"":2}","[0]","survey-likert","395","1399141","0.0-395.0","eo6ufupv","","","","","",""
"","","","call-function","396","1399141","0.0-396.0","eo6ufupv","","","","","",""
"null","","","video-keyboard-response","397","1402211","0.0-397.0","eo6ufupv","","","","null","Agent A","STIM_SET_1_REAL/1592397.bmp_pp85_L3_V1.0_veridical_freeview_isoFalse_fps144.mp4"
"","","","call-function","398","1402212","0.0-398.0","eo6ufupv","","","","","",""
"5662.554999999935","{""pre-1"":2}","[0]","survey-likert","399","1407875","0.0-399.0","eo6ufupv","","","","","",""
"3972.7399999999907","{""pre-2"":0}","[0]","survey-likert","400","1411849","0.0-400.0","eo6ufupv","","","","","",""
"1541.0149999998976","{""pre-3"":0}","[0]","survey-likert","401","1413391","0.0-401.0","eo6ufupv","","","","","",""
"3279.8799999998882","{""post-5"":1}","[0]","survey-likert","402","1416672","0.0-402.0","eo6ufupv","","","","","",""
"","","","call-function","403","1416673","0.0-403.0","eo6ufupv","","","","","",""
"null","","","video-keyboard-response","404","1419732","0.0-404.0","eo6ufupv","","","","null","Agent A","STIM_SET_1_REAL/713779.bmp_pp152_L2_V1.0_veridical_freeview_isoFalse_fps144.mp4"
"","","","call-function","405","1419733","0.0-405.0","eo6ufupv","","","","","",""
"2777.0049999998882","{""pre-1"":2}","[0]","survey-likert","406","1422512","0.0-406.0","eo6ufupv","","","","","",""
"2633.5100000000093","{""pre-2"":2}","[0]","survey-likert","407","1425147","0.0-407.0","eo6ufupv","","","","","",""
"1562.505000000121","{""pre-3"":2}","[0]","survey-likert","408","1426711","0.0-408.0","eo6ufupv","","","","","",""
"2819.6100000001024","{""post-5"":1}","[0]","survey-likert","409","1429531","0.0-409.0","eo6ufupv","","","","","",""
"","","","call-function","410","1429532","0.0-410.0","eo6ufupv","","","","","",""
"null","","","video-keyboard-response","411","1432600","0.0-411.0","eo6ufupv","","","","null","Agent A","STIM_SET_1_REAL/1159440.bmp_pp98_L1_V1.0_scrambled_freeview_isoFalse_fps144.mp4"
"","","","call-function","412","1432601","0.0-412.0","eo6ufupv","","","","","",""
"3800.435000000056","{""pre-1"":0}","[0]","survey-likert","413","1436403","0.0-413.0","eo6ufupv","","","","","",""
"1840.125","{""pre-2"":0}","[0]","survey-likert","414","1438245","0.0-414.0","eo6ufupv","","","","","",""
"1605.1400000001304","{""pre-3"":0}","[0]","survey-likert","415","1439851","0.0-415.0","eo6ufupv","","","","","",""
"2302.8249999999534","{""post-5"":2}","[0]","survey-likert","416","1442155","0.0-416.0","eo6ufupv","","","","","",""
"","","","call-function","417","1442155","0.0-417.0","eo6ufupv","","","","","",""
"null","","","video-keyboard-response","418","1445216","0.0-418.0","eo6ufupv","","","","null","Agent A","STIM_SET_1_REAL/1159882.bmp_pp61_L2_V1.0_scrambled_freeview_isoFalse_fps144.mp4"
"","","","call-function","419","1445216","0.0-419.0","eo6ufupv","","","","","",""
"2187.125","{""pre-1"":0}","[0]","survey-likert","420","1447405","0.0-420.0","eo6ufupv","","","","","",""
"1919.7700000000186","{""pre-2"":0}","[0]","survey-likert","421","1449326","0.0-421.0","eo6ufupv","","","","","",""
"2039.4250000000466","{""pre-3"":0}","[0]","survey-likert","422","1451366","0.0-422.0","eo6ufupv","","","","","",""
"3409.774999999907","{""post-5"":3}","[0]","survey-likert","423","1454777","0.0-423.0","eo6ufupv","","","","","",""
"","","","call-function","424","1454778","0.0-424.0","eo6ufupv","","","","","",""
"null","","","video-keyboard-response","425","1457847","0.0-425.0","eo6ufupv","","","","null","Agent A","STIM_SET_1_REAL/713135.bmp_pp54_L2_V1.0_veridical_freeview_isoFalse_fps144.mp4"
"","","","call-function","426","1457848","0.0-426.0","eo6ufupv","","","","","",""
"6072.284999999916","{""pre-1"":1}","[0]","survey-likert","427","1463921","0.0-427.0","eo6ufupv","","","","","",""
"3871.1049999999814","{""pre-2"":3}","[0]","survey-likert","428","1467793","0.0-428.0","eo6ufupv","","","","","",""
"3568.9250000000466","{""pre-3"":2}","[0]","survey-likert","429","1471363","0.0-429.0","eo6ufupv","","","","","",""
"2882.994999999879","{""post-5"":0}","[0]","survey-likert","430","1474247","0.0-430.0","eo6ufupv","","","","","",""
"","","","call-function","431","1474248","0.0-431.0","eo6ufupv","","","","","",""
"null","","","video-keyboard-response","432","1477316","0.0-432.0","eo6ufupv","","","","null","Agent A","STIM_SET_1_REAL/1592934.bmp_pp63_L1_V1.0_scrambled_freeview_isoFalse_fps144.mp4"
"","","","call-function","433","1477316","0.0-433.0","eo6ufupv","","","","","",""
"3556.0449999999255","{""pre-1"":1}","[0]","survey-likert","434","1480873","0.0-434.0","eo6ufupv","","","","","",""
"2140.725000000093","{""pre-2"":0}","[0]","survey-likert","435","1483015","0.0-435.0","eo6ufupv","","","","","",""
"2325.465000000084","{""pre-3"":0}","[0]","survey-likert","436","1485342","0.0-436.0","eo6ufupv","","","","","",""
"7921.280000000028","{""post-5"":1}","[0]","survey-likert","437","1493266","0.0-437.0","eo6ufupv","","","","","",""
"","","","call-function","438","1493267","0.0-438.0","eo6ufupv","","","","","",""
"null","","","video-keyboard-response","439","1496337","0.0-439.0","eo6ufupv","","","","null","Agent A","STIM_SET_1_REAL/1159768.bmp_pp89_L1_V1.0_veridical_freeview_isoFalse_fps144.mp4"
"","","","call-function","440","1496338","0.0-440.0","eo6ufupv","","","","","",""
"5933.590000000084","{""pre-1"":2}","[0]","survey-likert","441","1502273","0.0-441.0","eo6ufupv","","","","","",""
"7087.645000000019","{""pre-2"":0}","[0]","survey-likert","442","1509362","0.0-442.0","eo6ufupv","","","","","",""
"2759.2100000001956","{""pre-3"":0}","[0]","survey-likert","443","1512122","0.0-443.0","eo6ufupv","","","","","",""
"5019.784999999916","{""post-5"":0}","[0]","survey-likert","444","1517143","0.0-444.0","eo6ufupv","","","","","",""
"2674.5100000000093","","","instructions","445","1519818","0.0-445.0","eo6ufupv","[{""page_index"":0,""viewing_time"":1181.4099999999162},{""page_index"":1,""viewing_time"":811.3049999999348},{""page_index"":2,""viewing_time"":681.625}]","","","","",""
"2211.8850000000093","","","instructions","446","1522031","0.0-446.0","eo6ufupv","[{""page_index"":0,""viewing_time"":618.3600000001024},{""page_index"":1,""viewing_time"":827.0249999999069},{""page_index"":2,""viewing_time"":766.3899999998976}]","","","","",""
"","","","call-function","447","1522031","0.0-447.0","eo6ufupv","","","","","",""
"null","","","video-keyboard-response","448","1525108","0.0-448.0","eo6ufupv","","","","null","Agent A","STIM_SET_1_REAL/713707.bmp_pp154_L1_V1.0_scrambled_freeview_isoFalse_fps144.mp4"
"","","","call-function","449","1525108","0.0-449.0","eo6ufupv","","","","","",""
"3617.195000000065","{""pre-1"":0}","[0]","survey-likert","450","1528726","0.0-450.0","eo6ufupv","","","","","",""
"1726.9199999999255","{""pre-2"":0}","[0]","survey-likert","451","1530454","0.0-451.0","eo6ufupv","","","","","",""
"1848.3500000000931","{""pre-3"":0}","[0]","survey-likert","452","1532304","0.0-452.0","eo6ufupv","","","","","",""
"2091.3850000000093","{""post-5"":3}","[0]","survey-likert","453","1534396","0.0-453.0","eo6ufupv","","","","","",""
"","","","call-function","454","1534397","0.0-454.0","eo6ufupv","","","","","",""
"null","","","video-keyboard-response","455","1537466","0.0-455.0","eo6ufupv","","","","null","Agent A","STIM_SET_1_REAL/713135.bmp_pp54_L2_V1.0_scrambled_freeview_isoFalse_fps144.mp4"
"","","","call-function","456","1537467","0.0-456.0","eo6ufupv","","","","","",""
"2048.7450000001118","{""pre-1"":0}","[0]","survey-likert","457","1539516","0.0-457.0","eo6ufupv","","","","","",""
"1791.1749999998137","{""pre-2"":0}","[0]","survey-likert","458","1541309","0.0-458.0","eo6ufupv","","","","","",""
"3739.965000000084","{""pre-3"":0}","[0]","survey-likert","459","1545050","0.0-459.0","eo6ufupv","","","","","",""
"2057.7750000001397","{""post-5"":3}","[0]","survey-likert","460","1547109","0.0-460.0","eo6ufupv","","","","","",""
"","","","call-function","461","1547109","0.0-461.0","eo6ufupv","","","","","",""
"null","","","video-keyboard-response","462","1550183","0.0-462.0","eo6ufupv","","","","null","Agent A","STIM_SET_1_REAL/713749.bmp_pp88_L2_V1.0_scrambled_freeview_isoFalse_fps144.mp4"
"","","","call-function","463","1550183","0.0-463.0","eo6ufupv","","","","","",""
"2446.6750000000466","{""pre-1"":0}","[0]","survey-likert","464","1552631","0.0-464.0","eo6ufupv","","","","","",""
"3261.5250000001397","{""pre-2"":0}","[0]","survey-likert","465","1555895","0.0-465.0","eo6ufupv","","","","","",""
"1839.2649999998976","{""pre-3"":0}","[0]","survey-likert","466","1557736","0.0-466.0","eo6ufupv","","","","","",""
"1696.1950000000652","{""post-5"":3}","[0]","survey-likert","467","1559433","0.0-467.0","eo6ufupv","","","","","",""
"","","","call-function","468","1559434","0.0-468.0","eo6ufupv","","","","","",""
"null","","","video-keyboard-response","469","1562520","0.0-469.0","eo6ufupv","","","","null","Agent A","STIM_SET_1_REAL/1160168.bmp_pp53_L2_V1.0_scrambled_freeview_isoFalse_fps144.mp4"
"","","","call-function","470","1562521","0.0-470.0","eo6ufupv","","","","","",""
"3276.2650000001304","{""pre-1"":2}","[0]","survey-likert","471","1565798","0.0-471.0","eo6ufupv","","","","","",""
"1539.5150000001304","{""pre-2"":0}","[0]","survey-likert","472","1567339","0.0-472.0","eo6ufupv","","","","","",""
"2966.255000000121","{""pre-3"":0}","[0]","survey-likert","473","1570307","0.0-473.0","eo6ufupv","","","","","",""
"3178.6299999998882","{""post-5"":1}","[0]","survey-likert","474","1573487","0.0-474.0","eo6ufupv","","","","","",""
"","","","call-function","475","1573487","0.0-475.0","eo6ufupv","","","","","",""
"null","","","video-keyboard-response","476","1576556","0.0-476.0","eo6ufupv","","","","null","Agent A","STIM_SET_1_REAL/1591961.bmp_pp67_L2_V1.0_veridical_freeview_isoFalse_fps144.mp4"
"","","","call-function","477","1576557","0.0-477.0","eo6ufupv","","","","","",""
"2520.0400000000373","{""pre-1"":0}","[0]","survey-likert","478","1579079","0.0-478.0","eo6ufupv","","","","","",""
"1566.8700000001118","{""pre-2"":0}","[0]","survey-likert","479","1580647","0.0-479.0","eo6ufupv","","","","","",""
"1830.7900000000373","{""pre-3"":0}","[0]","survey-likert","480","1582478","0.0-480.0","eo6ufupv","","","","","",""
"2610.9499999999534","{""post-5"":0}","[0]","survey-likert","481","1585090","0.0-481.0","eo6ufupv","","","","","",""
"","","","call-function","482","1585091","0.0-482.0","eo6ufupv","","","","","",""
"null","","","video-keyboard-response","483","1588164","0.0-483.0","eo6ufupv","","","","null","Agent A","STIM_SET_1_REAL/498111.bmp_pp88_L2_V1.0_scrambled_freeview_isoFalse_fps144.mp4"
"","","","call-function","484","1588165","0.0-484.0","eo6ufupv","","","","","",""
"1950.7700000000186","{""pre-1"":0}","[0]","survey-likert","485","1590117","0.0-485.0","eo6ufupv","","","","","",""
"1482.6099999998696","{""pre-2"":0}","[0]","survey-likert","486","1591600","0.0-486.0","eo6ufupv","","","","","",""
"2524.875","{""pre-3"":0}","[0]","survey-likert","487","1594126","0.0-487.0","eo6ufupv","","","","","",""
"3216.660000000149","{""post-5"":2}","[0]","survey-likert","488","1597344","0.0-488.0","eo6ufupv","","","","","",""
"","","","call-function","489","1597344","0.0-489.0","eo6ufupv","","","","","",""
"null","","","video-keyboard-response","490","1602327","0.0-490.0","eo6ufupv","","","","null","Agent A","STIM_SET_1_REAL/498170.bmp_pp153_L3_V1.0_scrambled_freeview_isoFalse_fps144.mp4"
"","","","call-function","491","1602328","0.0-491.0","eo6ufupv","","","","","",""
"4368.2949999999255","{""pre-1"":2}","[0]","survey-likert","492","1606698","0.0-492.0","eo6ufupv","","","","","",""
"7015.089999999851","{""pre-2"":1}","[0]","survey-likert","493","1613715","0.0-493.0","eo6ufupv","","","","","",""
"3154.4449999998324","{""pre-3"":0}","[0]","survey-likert","494","1616871","0.0-494.0","eo6ufupv","","","","","",""
"2250.070000000065","{""post-5"":0}","[0]","survey-likert","495","1619122","0.0-495.0","eo6ufupv","","","","","",""
"","","","call-function","496","1619123","0.0-496.0","eo6ufupv","","","","","",""
"null","","","video-keyboard-response","497","1622184","0.0-497.0","eo6ufupv","","","","null","Agent A","STIM_SET_1_REAL/286001.bmp_pp54_L2_V1.0_scrambled_freeview_isoFalse_fps144.mp4"
"","","","call-function","498","1622184","0.0-498.0","eo6ufupv","","","","","",""
"3296.8950000000186","{""pre-1"":0}","[0]","survey-likert","499","1625482","0.0-499.0","eo6ufupv","","","","","",""
"1490.2299999999814","{""pre-2"":0}","[0]","survey-likert","500","1626974","0.0-500.0","eo6ufupv","","","","","",""
"1641.2549999998882","{""pre-3"":0}","[0]","survey-likert","501","1628617","0.0-501.0","eo6ufupv","","","","","",""
"2051.9150000000373","{""post-5"":3}","[0]","survey-likert","502","1630670","0.0-502.0","eo6ufupv","","","","","",""
"","","","call-function","503","1630670","0.0-503.0","eo6ufupv","","","","","",""
"null","","","video-keyboard-response","504","1633743","0.0-504.0","eo6ufupv","","","","null","Agent A","STIM_SET_1_REAL/1592657.bmp_pp98_L1_V1.0_veridical_freeview_isoFalse_fps144.mp4"
"","","","call-function","505","1633743","0.0-505.0","eo6ufupv","","","","","",""
"4909.620000000112","{""pre-1"":3}","[0]","survey-likert","506","1638654","0.0-506.0","eo6ufupv","","","","","",""
"3106.939999999944","{""pre-2"":2}","[0]","survey-likert","507","1641761","0.0-507.0","eo6ufupv","","","","","",""
"1756.1850000000559","{""pre-3"":2}","[0]","survey-likert","508","1643519","0.0-508.0","eo6ufupv","","","","","",""
"3768.25","{""post-5"":0}","[0]","survey-likert","509","1647289","0.0-509.0","eo6ufupv","","","","","",""
"","","","call-function","510","1647290","0.0-510.0","eo6ufupv","","","","","",""
"null","","","video-keyboard-response","511","1650365","0.0-511.0","eo6ufupv","","","","null","Agent A","STIM_SET_1_REAL/1591994.bmp_pp69_L3_V1.0_veridical_freeview_isoFalse_fps144.mp4"
"","","","call-function","512","1650366","0.0-512.0","eo6ufupv","","","","","",""
"3592.0449999999255","{""pre-1"":2}","[0]","survey-likert","513","1653959","0.0-513.0","eo6ufupv","","","","","",""
"2519.9849999998696","{""pre-2"":0}","[0]","survey-likert","514","1656480","0.0-514.0","eo6ufupv","","","","","",""
"2019.5449999999255","{""pre-3"":0}","[0]","survey-likert","515","1658500","0.0-515.0","eo6ufupv","","","","","",""
"2185.679999999935","{""post-5"":0}","[0]","survey-likert","516","1660688","0.0-516.0","eo6ufupv","","","","","",""
"","","","call-function","517","1660689","0.0-517.0","eo6ufupv","","","","","",""
"null","","","video-keyboard-response","518","1663792","0.0-518.0","eo6ufupv","","","","null","Agent A","STIM_SET_1_REAL/713620.bmp_pp65_L3_V1.0_scrambled_freeview_isoFalse_fps144.mp4"
"","","","call-function","519","1663792","0.0-519.0","eo6ufupv","","","","","",""
"6129.564999999944","{""pre-1"":0}","[0]","survey-likert","520","1669923","0.0-520.0","eo6ufupv","","","","","",""
"2855.5400000000373","{""pre-2"":0}","[0]","survey-likert","521","1672780","0.0-521.0","eo6ufupv","","","","","",""
"2729.3000000000466","{""pre-3"":0}","[0]","survey-likert","522","1675510","0.0-522.0","eo6ufupv","","","","","",""
"2196.4149999998044","{""post-5"":3}","[0]","survey-likert","523","1677708","0.0-523.0","eo6ufupv","","","","","",""
"","","","call-function","524","1677709","0.0-524.0","eo6ufupv","","","","","",""
"null","","","video-keyboard-response","525","1680780","0.0-525.0","eo6ufupv","","","","null","Agent A","STIM_SET_1_REAL/1160168.bmp_pp53_L2_V1.0_veridical_freeview_isoFalse_fps144.mp4"
"","","","call-function","526","1680780","0.0-526.0","eo6ufupv","","","","","",""
"1978.3999999999069","{""pre-1"":0}","[0]","survey-likert","527","1682760","0.0-527.0","eo6ufupv","","","","","",""
"1580.719999999972","{""pre-2"":0}","[0]","survey-likert","528","1684342","0.0-528.0","eo6ufupv","","","","","",""
"1581.7700000000186","{""pre-3"":0}","[0]","survey-likert","529","1685924","0.0-529.0","eo6ufupv","","","","","",""
"2348.1349999997765","{""post-5"":3}","[0]","survey-likert","530","1688274","0.0-530.0","eo6ufupv","","","","","",""
"","","","call-function","531","1688274","0.0-531.0","eo6ufupv","","","","","",""
"null","","","video-keyboard-response","532","1691349","0.0-532.0","eo6ufupv","","","","null","Agent A","STIM_SET_1_REAL/713684.bmp_pp85_L3_V1.0_scrambled_freeview_isoFalse_fps144.mp4"
"","","","call-function","533","1691349","0.0-533.0","eo6ufupv","","","","","",""
"3070.570000000065","{""pre-1"":0}","[0]","survey-likert","534","1694421","0.0-534.0","eo6ufupv","","","","","",""
"1580.0849999999627","{""pre-2"":0}","[0]","survey-likert","535","1696002","0.0-535.0","eo6ufupv","","","","","",""
"1788.6200000001118","{""pre-3"":0}","[0]","survey-likert","536","1697791","0.0-536.0","eo6ufupv","","","","","",""
"2441.130000000121","{""post-5"":1}","[0]","survey-likert","537","1700234","0.0-537.0","eo6ufupv","","","","","",""
"","","","call-function","538","1700234","0.0-538.0","eo6ufupv","","","","","",""
"null","","","video-keyboard-response","539","1703342","0.0-539.0","eo6ufupv","","","","null","Agent A","STIM_SET_1_REAL/713211.bmp_pp100_L3_V1.0_scrambled_freeview_isoFalse_fps144.mp4"
"","","","call-function","540","1703342","0.0-540.0","eo6ufupv","","","","","",""
"3387.8249999999534","{""pre-1"":0}","[0]","survey-likert","541","1706731","0.0-541.0","eo6ufupv","","","","","",""
"2900.839999999851","{""pre-2"":0}","[0]","survey-likert","542","1709633","0.0-542.0","eo6ufupv","","","","","",""
"1889.2150000000838","{""pre-3"":0}","[0]","survey-likert","543","1711523","0.0-543.0","eo6ufupv","","","","","",""
"4695.004999999888","{""post-5"":3}","[0]","survey-likert","544","1716220","0.0-544.0","eo6ufupv","","","","","",""
"","","","call-function","545","1716220","0.0-545.0","eo6ufupv","","","","","",""
"null","","","video-keyboard-response","546","1719314","0.0-546.0","eo6ufupv","","","","null","Agent A","STIM_SET_1_REAL/1591954.bmp_pp62_L2_V1.0_scrambled_freeview_isoFalse_fps144.mp4"
"","","","call-function","547","1719315","0.0-547.0","eo6ufupv","","","","","",""
"3327.909999999916","{""pre-1"":3}","[0]","survey-likert","548","1722645","0.0-548.0","eo6ufupv","","","","","",""
"2310.5500000000466","{""pre-2"":2}","[0]","survey-likert","549","1724957","0.0-549.0","eo6ufupv","","","","","",""
"1427.1750000000466","{""pre-3"":2}","[0]","survey-likert","550","1726386","0.0-550.0","eo6ufupv","","","","","",""
"4098.864999999991","{""post-5"":0}","[0]","survey-likert","551","1730486","0.0-551.0","eo6ufupv","","","","","",""
"","","","call-function","552","1730487","0.0-552.0","eo6ufupv","","","","","",""
"null","","","video-keyboard-response","553","1733574","0.0-553.0","eo6ufupv","","","","null","Agent A","STIM_SET_1_REAL/61537.bmp_pp73_L3_V1.0_scrambled_freeview_isoFalse_fps144.mp4"
"","","","call-function","554","1733575","0.0-554.0","eo6ufupv","","","","","",""
"2339.1049999999814","{""pre-1"":0}","[0]","survey-likert","555","1735915","0.0-555.0","eo6ufupv","","","","","",""
"1496.8549999999814","{""pre-2"":0}","[0]","survey-likert","556","1737413","0.0-556.0","eo6ufupv","","","","","",""
"1679.6149999999907","{""pre-3"":0}","[0]","survey-likert","557","1739094","0.0-557.0","eo6ufupv","","","","","",""
"3793.9799999999814","{""post-5"":3}","[0]","survey-likert","558","1742889","0.0-558.0","eo6ufupv","","","","","",""
"","","","call-function","559","1742890","0.0-559.0","eo6ufupv","","","","","",""
"null","","","video-keyboard-response","560","1745949","0.0-560.0","eo6ufupv","","","","null","Agent A","STIM_SET_1_REAL/1592890.bmp_pp82_L2_V1.0_veridical_freeview_isoFalse_fps144.mp4"
"","","","call-function","561","1745950","0.0-561.0","eo6ufupv","","","","","",""
"2127.8850000000093","{""pre-1"":0}","[0]","survey-likert","562","1748079","0.0-562.0","eo6ufupv","","","","","",""
"1731.780000000028","{""pre-2"":0}","[0]","survey-likert","563","1749812","0.0-563.0","eo6ufupv","","","","","",""
"1508.3149999999441","{""pre-3"":0}","[0]","survey-likert","564","1751321","0.0-564.0","eo6ufupv","","","","","",""
"2328.75","{""post-5"":1}","[0]","survey-likert","565","1753651","0.0-565.0","eo6ufupv","","","","","",""
"","","","call-function","566","1753651","0.0-566.0","eo6ufupv","","","","","",""
"null","","","video-keyboard-response","567","1756726","0.0-567.0","eo6ufupv","","","","null","Agent A","STIM_SET_1_REAL/1159675.bmp_pp77_L3_V1.0_scrambled_freeview_isoFalse_fps144.mp4"
"","","","call-function","568","1756726","0.0-568.0","eo6ufupv","","","","","",""
"3191.9799999999814","{""pre-1"":3}","[0]","survey-likert","569","1759919","0.0-569.0","eo6ufupv","","","","","",""
"2150.344999999972","{""pre-2"":2}","[0]","survey-likert","570","1762071","0.0-570.0","eo6ufupv","","","","","",""
"1685.969999999972","{""pre-3"":0}","[0]","survey-likert","571","1763758","0.0-571.0","eo6ufupv","","","","","",""
"3317.7649999998976","{""post-5"":1}","[0]","survey-likert","572","1767077","0.0-572.0","eo6ufupv","","","","","",""
"","","","call-function","573","1767077","0.0-573.0","eo6ufupv","","","","","",""
"null","","","video-keyboard-response","574","1770163","0.0-574.0","eo6ufupv","","","","null","Agent A","STIM_SET_1_REAL/1159446.bmp_pp60_L3_V1.0_veridical_freeview_isoFalse_fps144.mp4"
"","","","call-function","575","1770163","0.0-575.0","eo6ufupv","","","","","",""
"3019.25","{""pre-1"":2}","[0]","survey-likert","576","1773183","0.0-576.0","eo6ufupv","","","","","",""
"5068.559999999823","{""pre-2"":1}","[0]","survey-likert","577","1778254","0.0-577.0","eo6ufupv","","","","","",""
"2230.780000000028","{""pre-3"":1}","[0]","survey-likert","578","1780486","0.0-578.0","eo6ufupv","","","","","",""
"3092.9000000001397","{""post-5"":0}","[0]","survey-likert","579","1783581","0.0-579.0","eo6ufupv","","","","","",""
"","","","call-function","580","1783582","0.0-580.0","eo6ufupv","","","","","",""
"null","","","video-keyboard-response","581","1786657","0.0-581.0","eo6ufupv","","","","null","Agent A","STIM_SET_1_REAL/1592372.bmp_pp76_L1_V1.0_scrambled_freeview_isoFalse_fps144.mp4"
"","","","call-function","582","1786658","0.0-582.0","eo6ufupv","","","","","",""
"3713.7600000000093","{""pre-1"":2}","[0]","survey-likert","583","1790373","0.0-583.0","eo6ufupv","","","","","",""
"2032.1950000000652","{""pre-2"":2}","[0]","survey-likert","584","1792406","0.0-584.0","eo6ufupv","","","","","",""
"2279.054999999935","{""pre-3"":0}","[0]","survey-likert","585","1794686","0.0-585.0","eo6ufupv","","","","","",""
"3203.564999999944","{""post-5"":1}","[0]","survey-likert","586","1797891","0.0-586.0","eo6ufupv","","","","","",""
"7884.285000000149","","","instructions","587","1805776","0.0-587.0","eo6ufupv","[{""page_index"":0,""viewing_time"":1139.160000000149},{""page_index"":1,""viewing_time"":1018.9299999999348},{""page_index"":2,""viewing_time"":5725.969999999972}]","","","","",""
"2395.100000000093","","","instructions","588","1808172","0.0-588.0","eo6ufupv","[{""page_index"":0,""viewing_time"":721.8649999999907},{""page_index"":1,""viewing_time"":1060.0700000000652},{""page_index"":2,""viewing_time"":613.0549999999348}]","","","","",""
"","","","call-function","589","1808172","0.0-589.0","eo6ufupv","","","","","",""
"null","","","video-keyboard-response","590","1811233","0.0-590.0","eo6ufupv","","","","null","Agent A","STIM_SET_1_REAL/497950.bmp_pp151_L1_V1.0_scrambled_freeview_isoFalse_fps144.mp4"
"","","","call-function","591","1811233","0.0-591.0","eo6ufupv","","","","","",""
"3091.840000000084","{""pre-1"":0}","[0]","survey-likert","592","1814326","0.0-592.0","eo6ufupv","","","","","",""
"1625.3299999998417","{""pre-2"":0}","[0]","survey-likert","593","1815953","0.0-593.0","eo6ufupv","","","","","",""
"1587.4399999999441","{""pre-3"":0}","[0]","survey-likert","594","1817541","0.0-594.0","eo6ufupv","","","","","",""
"2479.125","{""post-5"":3}","[0]","survey-likert","595","1820021","0.0-595.0","eo6ufupv","","","","","",""
"","","","call-function","596","1820022","0.0-596.0","eo6ufupv","","","","","",""
"null","","","video-keyboard-response","597","1823127","0.0-597.0","eo6ufupv","","","","null","Agent A","STIM_SET_1_REAL/1592499.bmp_pp96_L2_V1.0_veridical_freeview_isoFalse_fps144.mp4"
"","","","call-function","598","1823128","0.0-598.0","eo6ufupv","","","","","",""
"3277.0400000000373","{""pre-1"":2}","[0]","survey-likert","599","1826406","0.0-599.0","eo6ufupv","","","","","",""
"1495.8850000000093","{""pre-2"":0}","[0]","survey-likert","600","1827903","0.0-600.0","eo6ufupv","","","","","",""
"1648.1000000000931","{""pre-3"":0}","[0]","survey-likert","601","1829552","0.0-601.0","eo6ufupv","","","","","",""
"2189.1099999998696","{""post-5"":1}","[0]","survey-likert","602","1831742","0.0-602.0","eo6ufupv","","","","","",""
"","","","call-function","603","1831743","0.0-603.0","eo6ufupv","","","","","",""
"null","","","video-keyboard-response","604","1834806","0.0-604.0","eo6ufupv","","","","null","Agent A","STIM_SET_1_REAL/1159621.bmp_pp92_L3_V1.0_scrambled_freeview_isoFalse_fps144.mp4"
"","","","call-function","605","1834806","0.0-605.0","eo6ufupv","","","","","",""
"4517.739999999991","{""pre-1"":0}","[0]","survey-likert","606","1839325","0.0-606.0","eo6ufupv","","","","","",""
"1862.7750000001397","{""pre-2"":0}","[0]","survey-likert","607","1841189","0.0-607.0","eo6ufupv","","","","","",""
"1178.9299999999348","{""pre-3"":0}","[0]","survey-likert","608","1842370","0.0-608.0","eo6ufupv","","","","","",""
"2247.785000000149","{""post-5"":3}","[0]","survey-likert","609","1844620","0.0-609.0","eo6ufupv","","","","","",""
"","","","call-function","610","1844621","0.0-610.0","eo6ufupv","","","","","",""
"null","","","video-keyboard-response","611","1847683","0.0-611.0","eo6ufupv","","","","null","Agent A","STIM_SET_1_REAL/1592619.bmp_pp56_L3_V1.0_veridical_freeview_isoFalse_fps144.mp4"
"","","","call-function","612","1847684","0.0-612.0","eo6ufupv","","","","","",""
"2417.679999999935","{""pre-1"":2}","[0]","survey-likert","613","1850103","0.0-613.0","eo6ufupv","","","","","",""
"1613.5900000000838","{""pre-2"":2}","[0]","survey-likert","614","1851718","0.0-614.0","eo6ufupv","","","","","",""
"1443.8400000000838","{""pre-3"":2}","[0]","survey-likert","615","1853163","0.0-615.0","eo6ufupv","","","","","",""
"3798.725000000093","{""post-5"":2}","[0]","survey-likert","616","1856963","0.0-616.0","eo6ufupv","","","","","",""
"","","","call-function","617","1856964","0.0-617.0","eo6ufupv","","","","","",""
"null","","","video-keyboard-response","618","1860056","0.0-618.0","eo6ufupv","","","","null","Agent A","STIM_SET_1_REAL/713684.bmp_pp85_L3_V1.0_veridical_freeview_isoFalse_fps144.mp4"
"","","","call-function","619","1860056","0.0-619.0","eo6ufupv","","","","","",""
"5184.870000000112","{""pre-1"":2}","[0]","survey-likert","620","1865242","0.0-620.0","eo6ufupv","","","","","",""
"2728.6299999998882","{""pre-2"":2}","[0]","survey-likert","621","1867972","0.0-621.0","eo6ufupv","","","","","",""
"1770.8249999999534","{""pre-3"":2}","[0]","survey-likert","622","1869744","0.0-622.0","eo6ufupv","","","","","",""
"2190.5750000001863","{""post-5"":0}","[0]","survey-likert","623","1871936","0.0-623.0","eo6ufupv","","","","","",""
"","","","call-function","624","1871937","0.0-624.0","eo6ufupv","","","","","",""
"null","","","video-keyboard-response","625","1875010","0.0-625.0","eo6ufupv","","","","null","Agent A","STIM_SET_1_REAL/713707.bmp_pp154_L1_V1.0_veridical_freeview_isoFalse_fps144.mp4"
"","","","call-function","626","1875011","0.0-626.0","eo6ufupv","","","","","",""
"1824.0450000001583","{""pre-1"":1}","[0]","survey-likert","627","1876836","0.0-627.0","eo6ufupv","","","","","",""
"1685.880000000121","{""pre-2"":0}","[0]","survey-likert","628","1878523","0.0-628.0","eo6ufupv","","","","","",""
"1493.940000000177","{""pre-3"":0}","[0]","survey-likert","629","1880018","0.0-629.0","eo6ufupv","","","","","",""
"3047.179999999935","{""post-5"":1}","[0]","survey-likert","630","1883066","0.0-630.0","eo6ufupv","","","","","",""
"","","","call-function","631","1883067","0.0-631.0","eo6ufupv","","","","","",""
"null","","","video-keyboard-response","632","1886137","0.0-632.0","eo6ufupv","","","","null","Agent A","STIM_SET_1_REAL/285905.bmp_pp57_L1_V1.0_veridical_freeview_isoFalse_fps144.mp4"
"","","","call-function","633","1886137","0.0-633.0","eo6ufupv","","","","","",""
"4668.8300000000745","{""pre-1"":2}","[0]","survey-likert","634","1890807","0.0-634.0","eo6ufupv","","","","","",""
"2013.1049999999814","{""pre-2"":0}","[0]","survey-likert","635","1892822","0.0-635.0","eo6ufupv","","","","","",""
"1446.219999999972","{""pre-3"":0}","[0]","survey-likert","636","1894269","0.0-636.0","eo6ufupv","","","","","",""
"9101.345000000205","{""post-5"":1}","[0]","survey-likert","637","1903372","0.0-637.0","eo6ufupv","","","","","",""
"","","","call-function","638","1903373","0.0-638.0","eo6ufupv","","","","","",""
"null","","","video-keyboard-response","639","1906447","0.0-639.0","eo6ufupv","","","","null","Agent A","STIM_SET_1_REAL/285751.bmp_pp55_L3_V1.0_scrambled_freeview_isoFalse_fps144.mp4"
"","","","call-function","640","1906448","0.0-640.0","eo6ufupv","","","","","",""
"8683.685000000056","{""pre-1"":0}","[0]","survey-likert","641","1915132","0.0-641.0","eo6ufupv","","","","","",""
"2496.5","{""pre-2"":0}","[0]","survey-likert","642","1917630","0.0-642.0","eo6ufupv","","","","","",""
"3472.590000000084","{""pre-3"":0}","[0]","survey-likert","643","1921104","0.0-643.0","eo6ufupv","","","","","",""
"4571.975000000093","{""post-5"":2}","[0]","survey-likert","644","1925677","0.0-644.0","eo6ufupv","","","","","",""
"","","","call-function","645","1925678","0.0-645.0","eo6ufupv","","","","","",""
"null","","","video-keyboard-response","646","1928752","0.0-646.0","eo6ufupv","","","","null","Agent A","STIM_SET_1_REAL/1159855.bmp_pp99_L2_V1.0_scrambled_freeview_isoFalse_fps144.mp4"
"","","","call-function","647","1928752","0.0-647.0","eo6ufupv","","","","","",""
"2371.3900000001304","{""pre-1"":0}","[0]","survey-likert","648","1931125","0.0-648.0","eo6ufupv","","","","","",""
"1569.6499999999069","{""pre-2"":0}","[0]","survey-likert","649","1932696","0.0-649.0","eo6ufupv","","","","","",""
"1637.4599999999627","{""pre-3"":0}","[0]","survey-likert","650","1934335","0.0-650.0","eo6ufupv","","","","","",""
"2536.3950000000186","{""post-5"":3}","[0]","survey-likert","651","1936872","0.0-651.0","eo6ufupv","","","","","",""
"","","","call-function","652","1936873","0.0-652.0","eo6ufupv","","","","","",""
"null","","","video-keyboard-response","653","1939948","0.0-653.0","eo6ufupv","","","","null","Agent A","STIM_SET_1_REAL/1592807.bmp_pp68_L1_V1.0_veridical_freeview_isoFalse_fps144.mp4"
"","","","call-function","654","1939948","0.0-654.0","eo6ufupv","","","","","",""
"2678.8649999999907","{""pre-1"":0}","[0]","survey-likert","655","1942628","0.0-655.0","eo6ufupv","","","","","",""
"1742.7949999999255","{""pre-2"":0}","[0]","survey-likert","656","1944372","0.0-656.0","eo6ufupv","","","","","",""
"1415.9249999998137","{""pre-3"":0}","[0]","survey-likert","657","1945789","0.0-657.0","eo6ufupv","","","","","",""
"2281.2299999999814","{""post-5"":3}","[0]","survey-likert","658","1948071","0.0-658.0","eo6ufupv","","","","","",""
"","","","call-function","659","1948072","0.0-659.0","eo6ufupv","","","","","",""
"null","","","video-keyboard-response","660","1951139","0.0-660.0","eo6ufupv","","","","null","Agent A","STIM_SET_1_REAL/285933.bmp_pp81_L1_V1.0_veridical_freeview_isoFalse_fps144.mp4"
"","","","call-function","661","1951139","0.0-661.0","eo6ufupv","","","","","",""
"2059.524999999907","{""pre-1"":2}","[0]","survey-likert","662","1953200","0.0-662.0","eo6ufupv","","","","","",""
"1665.3950000000186","{""pre-2"":2}","[0]","survey-likert","663","1954866","0.0-663.0","eo6ufupv","","","","","",""
"2775.804999999935","{""pre-3"":2}","[0]","survey-likert","664","1957643","0.0-664.0","eo6ufupv","","","","","",""
"2943.964999999851","{""post-5"":1}","[0]","survey-likert","665","1960588","0.0-665.0","eo6ufupv","","","","","",""
"","","","call-function","666","1960589","0.0-666.0","eo6ufupv","","","","","",""
"null","","","video-keyboard-response","667","1963676","0.0-667.0","eo6ufupv","","","","null","Agent A","STIM_SET_1_REAL/1593035.bmp_pp94_L2_V1.0_veridical_freeview_isoFalse_fps144.mp4"
"","","","call-function","668","1963676","0.0-668.0","eo6ufupv","","","","","",""
"3797.0149999998976","{""pre-1"":0}","[0]","survey-likert","669","1967475","0.0-669.0","eo6ufupv","","","","","",""
"2601.405000000028","{""pre-2"":2}","[0]","survey-likert","670","1970079","0.0-670.0","eo6ufupv","","","","","",""
"1791.0649999999441","{""pre-3"":2}","[0]","survey-likert","671","1971871","0.0-671.0","eo6ufupv","","","","","",""
"2552.3899999998976","{""post-5"":1}","[0]","survey-likert","672","1974425","0.0-672.0","eo6ufupv","","","","","",""
"","","","call-function","673","1974426","0.0-673.0","eo6ufupv","","","","","",""
"null","","","video-keyboard-response","674","1977486","0.0-674.0","eo6ufupv","","","","null","Agent A","STIM_SET_1_REAL/1159621.bmp_pp92_L3_V1.0_veridical_freeview_isoFalse_fps144.mp4"
"","","","call-function","675","1977487","0.0-675.0","eo6ufupv","","","","","",""
"2979.684999999823","{""pre-1"":0}","[0]","survey-likert","676","1980468","0.0-676.0","eo6ufupv","","","","","",""
"2568.905000000028","{""pre-2"":0}","[0]","survey-likert","677","1983038","0.0-677.0","eo6ufupv","","","","","",""
"1986.6499999999069","{""pre-3"":0}","[0]","survey-likert","678","1985026","0.0-678.0","eo6ufupv","","","","","",""
"2553.970000000205","{""post-5"":3}","[0]","survey-likert","679","1987582","0.0-679.0","eo6ufupv","","","","","",""
"","","","call-function","680","1987583","0.0-680.0","eo6ufupv","","","","","",""
"null","","","video-keyboard-response","681","1990653","0.0-681.0","eo6ufupv","","","","null","Agent A","STIM_SET_1_REAL/1159515.bmp_pp84_L3_V1.0_scrambled_freeview_isoFalse_fps144.mp4"
"","","","call-function","682","1990654","0.0-682.0","eo6ufupv","","","","","",""
"2500.475000000093","{""pre-1"":0}","[0]","survey-likert","683","1993155","0.0-683.0","eo6ufupv","","","","","",""
"1815.1450000000186","{""pre-2"":0}","[0]","survey-likert","684","1994971","0.0-684.0","eo6ufupv","","","","","",""
"1509.0150000001304","{""pre-3"":0}","[0]","survey-likert","685","1996482","0.0-685.0","eo6ufupv","","","","","",""
"2031.4550000000745","{""post-5"":3}","[0]","survey-likert","686","1998514","0.0-686.0","eo6ufupv","","","","","",""
"","","","call-function","687","1998515","0.0-687.0","eo6ufupv","","","","","",""
"null","","","video-keyboard-response","688","2001586","0.0-688.0","eo6ufupv","","","","null","Agent A","STIM_SET_1_REAL/498175.bmp_pp154_L1_V1.0_scrambled_freeview_isoFalse_fps144.mp4"
"","","","call-function","689","2001587","0.0-689.0","eo6ufupv","","","","","",""
"2460.3600000001024","{""pre-1"":0}","[0]","survey-likert","690","2004048","0.0-690.0","eo6ufupv","","","","","",""
"2070.9150000000373","{""pre-2"":0}","[0]","survey-likert","691","2006120","0.0-691.0","eo6ufupv","","","","","",""
"1809.1899999999441","{""pre-3"":0}","[0]","survey-likert","692","2007931","0.0-692.0","eo6ufupv","","","","","",""
"1752.5500000000466","{""post-5"":3}","[0]","survey-likert","693","2009684","0.0-693.0","eo6ufupv","","","","","",""
"","","","call-function","694","2009685","0.0-694.0","eo6ufupv","","","","","",""
"null","","","video-keyboard-response","695","2012754","0.0-695.0","eo6ufupv","","","","null","Agent A","STIM_SET_1_REAL/1592581.bmp_pp100_L3_V1.0_scrambled_freeview_isoFalse_fps144.mp4"
"","","","call-function","696","2012755","0.0-696.0","eo6ufupv","","","","","",""
"2931.7549999998882","{""pre-1"":0}","[0]","survey-likert","697","2015689","0.0-697.0","eo6ufupv","","","","","",""
"1530.9549999998417","{""pre-2"":2}","[0]","survey-likert","698","2017221","0.0-698.0","eo6ufupv","","","","","",""
"1096.2349999998696","{""pre-3"":2}","[0]","survey-likert","699","2018318","0.0-699.0","eo6ufupv","","","","","",""
"2624.774999999907","{""post-5"":0}","[0]","survey-likert","700","2020944","0.0-700.0","eo6ufupv","","","","","",""
"","","","call-function","701","2020945","0.0-701.0","eo6ufupv","","","","","",""
"null","","","video-keyboard-response","702","2024019","0.0-702.0","eo6ufupv","","","","null","Agent A","STIM_SET_1_REAL/1159675.bmp_pp77_L3_V1.0_veridical_freeview_isoFalse_fps144.mp4"
"","","","call-function","703","2024020","0.0-703.0","eo6ufupv","","","","","",""
"2065.5","{""pre-1"":0}","[0]","survey-likert","704","2026086","0.0-704.0","eo6ufupv","","","","","",""
"1376.3999999999069","{""pre-2"":0}","[0]","survey-likert","705","2027464","0.0-705.0","eo6ufupv","","","","","",""
"1305.4099999999162","{""pre-3"":0}","[0]","survey-likert","706","2028771","0.0-706.0","eo6ufupv","","","","","",""
"2050.9499999999534","{""post-5"":3}","[0]","survey-likert","707","2030823","0.0-707.0","eo6ufupv","","","","","",""
"","","","call-function","708","2030824","0.0-708.0","eo6ufupv","","","","","",""
"null","","","video-keyboard-response","709","2033900","0.0-709.0","eo6ufupv","","","","null","Agent A","STIM_SET_1_REAL/713760.bmp_pp81_L1_V1.0_veridical_freeview_isoFalse_fps144.mp4"
"","","","call-function","710","2033901","0.0-710.0","eo6ufupv","","","","","",""
"3280.3850000000093","{""pre-1"":2}","[0]","survey-likert","711","2037182","0.0-711.0","eo6ufupv","","","","","",""
"3160.965000000084","{""pre-2"":2}","[0]","survey-likert","712","2040344","0.0-712.0","eo6ufupv","","","","","",""
"3246.994999999879","{""pre-3"":2}","[0]","survey-likert","713","2043592","0.0-713.0","eo6ufupv","","","","","",""
"4461.76500000013","{""post-5"":0}","[0]","survey-likert","714","2048055","0.0-714.0","eo6ufupv","","","","","",""
"","","","call-function","715","2048056","0.0-715.0","eo6ufupv","","","","","",""
"null","","","video-keyboard-response","716","2051129","0.0-716.0","eo6ufupv","","","","null","Agent A","STIM_SET_1_REAL/61537.bmp_pp73_L3_V1.0_veridical_freeview_isoFalse_fps144.mp4"
"","","","call-function","717","2051130","0.0-717.0","eo6ufupv","","","","","",""
"3083.309999999823","{""pre-1"":0}","[0]","survey-likert","718","2054214","0.0-718.0","eo6ufupv","","","","","",""
"2083.5849999999627","{""pre-2"":3}","[0]","survey-likert","719","2056299","0.0-719.0","eo6ufupv","","","","","",""
"1387.0150000001304","{""pre-3"":3}","[0]","survey-likert","720","2057687","0.0-720.0","eo6ufupv","","","","","",""
"2236.9849999998696","{""post-5"":0}","[0]","survey-likert","721","2059925","0.0-721.0","eo6ufupv","","","","","",""
"","","","call-function","722","2059926","0.0-722.0","eo6ufupv","","","","","",""
"null","","","video-keyboard-response","723","2063056","0.0-723.0","eo6ufupv","","","","null","Agent A","STIM_SET_1_REAL/1159784.bmp_pp73_L3_V1.0_veridical_freeview_isoFalse_fps144.mp4"
"","","","call-function","724","2063057","0.0-724.0","eo6ufupv","","","","","",""
"2293.945000000065","{""pre-1"":0}","[0]","survey-likert","725","2065352","0.0-725.0","eo6ufupv","","","","","",""
"1942.219999999972","{""pre-2"":0}","[0]","survey-likert","726","2067295","0.0-726.0","eo6ufupv","","","","","",""
"1296.8349999999627","{""pre-3"":0}","[0]","survey-likert","727","2068593","0.0-727.0","eo6ufupv","","","","","",""
"2375.434999999823","{""post-5"":1}","[0]","survey-likert","728","2070970","0.0-728.0","eo6ufupv","","","","","",""
"20960.064999999944","","","instructions","729","2091932","0.0-729.0","eo6ufupv","[{""page_index"":0,""viewing_time"":1180.5449999999255},{""page_index"":1,""viewing_time"":19044.925000000047},{""page_index"":2,""viewing_time"":734.0200000000186}]","","","","",""
"1694.4450000000652","","","instructions","730","2093627","0.0-730.0","eo6ufupv","[{""page_index"":0,""viewing_time"":465.6850000000559},{""page_index"":1,""viewing_time"":690.5400000000373},{""page_index"":2,""viewing_time"":538.1199999998789}]","","","","",""
"","","","call-function","731","2093628","0.0-731.0","eo6ufupv","","","","","",""
"null","","","video-keyboard-response","732","2096689","0.0-732.0","eo6ufupv","","","","null","Agent A","STIM_SET_1_REAL/713089.bmp_pp60_L3_V1.0_scrambled_freeview_isoFalse_fps144.mp4"
"","","","call-function","733","2096689","0.0-733.0","eo6ufupv","","","","","",""
"2279.189999999944","{""pre-1"":0}","[0]","survey-likert","734","2098970","0.0-734.0","eo6ufupv","","","","","",""
"1484.4750000000931","{""pre-2"":0}","[0]","survey-likert","735","2100456","0.0-735.0","eo6ufupv","","","","","",""
"3034.9650000003166","{""pre-3"":0}","[0]","survey-likert","736","2103492","0.0-736.0","eo6ufupv","","","","","",""
"2177.5200000000186","{""post-5"":3}","[0]","survey-likert","737","2105671","0.0-737.0","eo6ufupv","","","","","",""
"","","","call-function","738","2105672","0.0-738.0","eo6ufupv","","","","","",""
"null","","","video-keyboard-response","739","2108732","0.0-739.0","eo6ufupv","","","","null","Agent A","STIM_SET_1_REAL/286001.bmp_pp54_L2_V1.0_veridical_freeview_isoFalse_fps144.mp4"
"","","","call-function","740","2108732","0.0-740.0","eo6ufupv","","","","","",""
"2442.380000000354","{""pre-1"":0}","[0]","survey-likert","741","2111176","0.0-741.0","eo6ufupv","","","","","",""
"1673.7900000000373","{""pre-2"":0}","[0]","survey-likert","742","2112851","0.0-742.0","eo6ufupv","","","","","",""
"1380.0100000002421","{""pre-3"":0}","[0]","survey-likert","743","2114232","0.0-743.0","eo6ufupv","","","","","",""
"1570.4599999999627","{""post-5"":3}","[0]","survey-likert","744","2115803","0.0-744.0","eo6ufupv","","","","","",""
"","","","call-function","745","2115804","0.0-745.0","eo6ufupv","","","","","",""
"null","","","video-keyboard-response","746","2118881","0.0-746.0","eo6ufupv","","","","null","Agent A","STIM_SET_1_REAL/498253.bmp_pp67_L2_V1.0_veridical_freeview_isoFalse_fps144.mp4"
"","","","call-function","747","2118882","0.0-747.0","eo6ufupv","","","","","",""
"2127.744999999646","{""pre-1"":0}","[0]","survey-likert","748","2121010","0.0-748.0","eo6ufupv","","","","","",""
"1459.5249999999069","{""pre-2"":0}","[0]","survey-likert","749","2122472","0.0-749.0","eo6ufupv","","","","","",""
"1494.4499999997206","{""pre-3"":0}","[0]","survey-likert","750","2123968","0.0-750.0","eo6ufupv","","","","","",""
"1420.9550000000745","{""post-5"":3}","[0]","survey-likert","751","2125390","0.0-751.0","eo6ufupv","","","","","",""
"","","","call-function","752","2125390","0.0-752.0","eo6ufupv","","","","","",""
"null","","","video-keyboard-response","753","2128464","0.0-753.0","eo6ufupv","","","","null","Agent A","STIM_SET_1_REAL/498175.bmp_pp154_L1_V1.0_veridical_freeview_isoFalse_fps144.mp4"
"","","","call-function","754","2128464","0.0-754.0","eo6ufupv","","","","","",""
"2013.9499999997206","{""pre-1"":0}","[0]","survey-likert","755","2130479","0.0-755.0","eo6ufupv","","","","","",""
"1305.6550000002608","{""pre-2"":0}","[0]","survey-likert","756","2131786","0.0-756.0","eo6ufupv","","","","","",""
"1428.3549999999814","{""pre-3"":0}","[0]","survey-likert","757","2133216","0.0-757.0","eo6ufupv","","","","","",""
"1391.7749999999069","{""post-5"":3}","[0]","survey-likert","758","2134609","0.0-758.0","eo6ufupv","","","","","",""
"","","","call-function","759","2134609","0.0-759.0","eo6ufupv","","","","","",""
"null","","","video-keyboard-response","760","2137693","0.0-760.0","eo6ufupv","","","","null","Agent A","STIM_SET_1_REAL/285994.bmp_pp92_L3_V1.0_veridical_freeview_isoFalse_fps144.mp4"
"","","","call-function","761","2137694","0.0-761.0","eo6ufupv","","","","","",""
"4663.98499999987","{""pre-1"":2}","[0]","survey-likert","762","2142359","0.0-762.0","eo6ufupv","","","","","",""
"2646.6699999999255","{""pre-2"":0}","[0]","survey-likert","763","2145009","0.0-763.0","eo6ufupv","","","","","",""
"1313.505000000354","{""pre-3"":0}","[0]","survey-likert","764","2146324","0.0-764.0","eo6ufupv","","","","","",""
"1259.3700000001118","{""post-5"":1}","[0]","survey-likert","765","2147585","0.0-765.0","eo6ufupv","","","","","",""
"","","","call-function","766","2147586","0.0-766.0","eo6ufupv","","","","","",""
"null","","","video-keyboard-response","767","2150648","0.0-767.0","eo6ufupv","","","","null","Agent A","STIM_SET_1_REAL/1592890.bmp_pp82_L2_V1.0_scrambled_freeview_isoFalse_fps144.mp4"
"","","","call-function","768","2150648","0.0-768.0","eo6ufupv","","","","","",""
"2991.0099999997765","{""pre-1"":0}","[0]","survey-likert","769","2153640","0.0-769.0","eo6ufupv","","","","","",""
"1535.4500000001863","{""pre-2"":2}","[0]","survey-likert","770","2155177","0.0-770.0","eo6ufupv","","","","","",""
"1090.5300000002608","{""pre-3"":2}","[0]","survey-likert","771","2156268","0.0-771.0","eo6ufupv","","","","","",""
"5557.8499999996275","{""post-5"":0}","[0]","survey-likert","772","2161828","0.0-772.0","eo6ufupv","","","","","",""
"","","","call-function","773","2161828","0.0-773.0","eo6ufupv","","","","","",""
"null","","","video-keyboard-response","774","2164890","0.0-774.0","eo6ufupv","","","","null","Agent A","STIM_SET_1_REAL/285994.bmp_pp92_L3_V1.0_scrambled_freeview_isoFalse_fps144.mp4"
"","","","call-function","775","2164891","0.0-775.0","eo6ufupv","","","","","",""
"3608.8499999996275","{""pre-1"":0}","[0]","survey-likert","776","2168501","0.0-776.0","eo6ufupv","","","","","",""
"1214.6150000002235","{""pre-2"":2}","[0]","survey-likert","777","2169716","0.0-777.0","eo6ufupv","","","","","",""
"2935.2299999999814","{""pre-3"":2}","[0]","survey-likert","778","2172653","0.0-778.0","eo6ufupv","","","","","",""
"4073.189999999944","{""post-5"":0}","[0]","survey-likert","779","2176727","0.0-779.0","eo6ufupv","","","","","",""
"","","","call-function","780","2176727","0.0-780.0","eo6ufupv","","","","","",""
"null","","","video-keyboard-response","781","2179800","0.0-781.0","eo6ufupv","","","","null","Agent A","STIM_SET_1_REAL/1592804.bmp_pp91_L3_V1.0_scrambled_freeview_isoFalse_fps144.mp4"
"","","","call-function","782","2179801","0.0-782.0","eo6ufupv","","","","","",""
"2998.464999999851","{""pre-1"":0}","[0]","survey-likert","783","2182800","0.0-783.0","eo6ufupv","","","","","",""
"1408.0400000000373","{""pre-2"":0}","[0]","survey-likert","784","2184209","0.0-784.0","eo6ufupv","","","","","",""
"1400.8100000000559","{""pre-3"":0}","[0]","survey-likert","785","2185611","0.0-785.0","eo6ufupv","","","","","",""
"3854.2000000001863","{""post-5"":3}","[0]","survey-likert","786","2189467","0.0-786.0","eo6ufupv","","","","","",""
"","","","call-function","787","2189467","0.0-787.0","eo6ufupv","","","","","",""
"null","","","video-keyboard-response","788","2192560","0.0-788.0","eo6ufupv","","","","null","Agent A","STIM_SET_1_REAL/285751.bmp_pp55_L3_V1.0_veridical_freeview_isoFalse_fps144.mp4"
"","","","call-function","789","2192562","0.0-789.0","eo6ufupv","","","","","",""
"3132.6150000002235","{""pre-1"":2}","[0]","survey-likert","790","2195696","0.0-790.0","eo6ufupv","","","","","",""
"2625","{""pre-2"":2}","[0]","survey-likert","791","2198322","0.0-791.0","eo6ufupv","","","","","",""
"3008.2199999997392","{""pre-3"":2}","[0]","survey-likert","792","2201332","0.0-792.0","eo6ufupv","","","","","",""
"2481.5400000000373","{""post-5"":0}","[0]","survey-likert","793","2203815","0.0-793.0","eo6ufupv","","","","","",""
"","","","call-function","794","2203815","0.0-794.0","eo6ufupv","","","","","",""
"null","","","video-keyboard-response","795","2206891","0.0-795.0","eo6ufupv","","","","null","Agent A","STIM_SET_1_REAL/1591954.bmp_pp62_L2_V1.0_veridical_freeview_isoFalse_fps144.mp4"
"","","","call-function","796","2206892","0.0-796.0","eo6ufupv","","","","","",""
"3204.6450000000186","{""pre-1"":0}","[0]","survey-likert","797","2210098","0.0-797.0","eo6ufupv","","","","","",""
"1467.9900000002235","{""pre-2"":0}","[0]","survey-likert","798","2211567","0.0-798.0","eo6ufupv","","","","","",""
"1946.2749999999069","{""pre-3"":0}","[0]","survey-likert","799","2213515","0.0-799.0","eo6ufupv","","","","","",""
"8271.114999999758","{""post-5"":2}","[0]","survey-likert","800","2221787","0.0-800.0","eo6ufupv","","","","","",""
"","","","call-function","801","2221788","0.0-801.0","eo6ufupv","","","","","",""
"null","","","video-keyboard-response","802","2224853","0.0-802.0","eo6ufupv","","","","null","Agent A","STIM_SET_1_REAL/713513.bmp_pp62_L2_V1.0_scrambled_freeview_isoFalse_fps144.mp4"
"","","","call-function","803","2224854","0.0-803.0","eo6ufupv","","","","","",""
"1713.625","{""pre-1"":0}","[0]","survey-likert","804","2226569","0.0-804.0","eo6ufupv","","","","","",""
"2350.1099999998696","{""pre-2"":0}","[0]","survey-likert","805","2228920","0.0-805.0","eo6ufupv","","","","","",""
"3067.6349999997765","{""pre-3"":0}","[0]","survey-likert","806","2231989","0.0-806.0","eo6ufupv","","","","","",""
"2348.7349999998696","{""post-5"":3}","[0]","survey-likert","807","2234339","0.0-807.0","eo6ufupv","","","","","",""
"","","","call-function","808","2234339","0.0-808.0","eo6ufupv","","","","","",""
"null","","","video-keyboard-response","809","2237408","0.0-809.0","eo6ufupv","","","","null","Agent A","STIM_SET_1_REAL/1159829.bmp_pp91_L3_V1.0_veridical_freeview_isoFalse_fps144.mp4"
"","","","call-function","810","2237409","0.0-810.0","eo6ufupv","","","","","",""
"2668.6949999998324","{""pre-1"":0}","[0]","survey-likert","811","2240079","0.0-811.0","eo6ufupv","","","","","",""
"1793.8300000000745","{""pre-2"":0}","[0]","survey-likert","812","2241874","0.0-812.0","eo6ufupv","","","","","",""
"1592.3349999999627","{""pre-3"":0}","[0]","survey-likert","813","2243467","0.0-813.0","eo6ufupv","","","","","",""
"2854.3300000000745","{""post-5"":3}","[0]","survey-likert","814","2246323","0.0-814.0","eo6ufupv","","","","","",""
"","","","call-function","815","2246323","0.0-815.0","eo6ufupv","","","","","",""
"null","","","video-keyboard-response","816","2249413","0.0-816.0","eo6ufupv","","","","null","Agent A","STIM_SET_1_REAL/1159447.bmp_pp70_L2_V1.0_veridical_freeview_isoFalse_fps144.mp4"
"","","","call-function","817","2249415","0.0-817.0","eo6ufupv","","","","","",""
"2812.3250000001863","{""pre-1"":2}","[0]","survey-likert","818","2252230","0.0-818.0","eo6ufupv","","","","","",""
"3225.9799999999814","{""pre-2"":3}","[0]","survey-likert","819","2255458","0.0-819.0","eo6ufupv","","","","","",""
"3460.6150000002235","{""pre-3"":3}","[0]","survey-likert","820","2258920","0.0-820.0","eo6ufupv","","","","","",""
"2654.4449999998324","{""post-5"":0}","[0]","survey-likert","821","2261576","0.0-821.0","eo6ufupv","","","","","",""
"","","","call-function","822","2261577","0.0-822.0","eo6ufupv","","","","","",""
"null","","","video-keyboard-response","823","2264645","0.0-823.0","eo6ufupv","","","","null","Agent A","STIM_SET_1_REAL/1159515.bmp_pp84_L3_V1.0_veridical_freeview_isoFalse_fps144.mp4"
"","","","call-function","824","2264645","0.0-824.0","eo6ufupv","","","","","",""
"3717.435000000056","{""pre-1"":3}","[0]","survey-likert","825","2268364","0.0-825.0","eo6ufupv","","","","","",""
"2534.0049999998882","{""pre-2"":2}","[0]","survey-likert","826","2270899","0.0-826.0","eo6ufupv","","","","","",""
"2635.119999999646","{""pre-3"":2}","[0]","survey-likert","827","2273536","0.0-827.0","eo6ufupv","","","","","",""
"1858.1299999998882","{""post-5"":0}","[0]","survey-likert","828","2275395","0.0-828.0","eo6ufupv","","","","","",""
"","","","call-function","829","2275397","0.0-829.0","eo6ufupv","","","","","",""
"null","","","video-keyboard-response","830","2278471","0.0-830.0","eo6ufupv","","","","null","Agent A","STIM_SET_1_REAL/1159855.bmp_pp99_L2_V1.0_veridical_freeview_isoFalse_fps144.mp4"
"","","","call-function","831","2278471","0.0-831.0","eo6ufupv","","","","","",""
"4292.5800000000745","{""pre-1"":2}","[0]","survey-likert","832","2282765","0.0-832.0","eo6ufupv","","","","","",""
"2070.720000000205","{""pre-2"":0}","[0]","survey-likert","833","2284837","0.0-833.0","eo6ufupv","","","","","",""
"1872.0049999998882","{""pre-3"":0}","[0]","survey-likert","834","2286710","0.0-834.0","eo6ufupv","","","","","",""
"3325.899999999907","{""post-5"":0}","[0]","survey-likert","835","2290037","0.0-835.0","eo6ufupv","","","","","",""
"","","","call-function","836","2290037","0.0-836.0","eo6ufupv","","","","","",""
