"rt","responses","question_order","trial_type","trial_index","time_elapsed","internal_node_id","ID","view_history","value","stimulus","key_press","agent","image"
"196666.5","{""Experimenter"":[""Confirmed subject's identity (ID card)"",""Confirmed normal or corrected-to-normal vision"",""Obtained consent (signature and date)"",""Checked the test room lighting"",""Checked computer screen lighting"",""Checked distance from screen to chin rest (50cm)"",""Cleaned and adjusted chin rest"",""Counterbalanced the order of the tasks"",""Opened the experiment in Firefox"",""Made the experiment full screen"",""Encouraged subject to silence phone, put away distractors, etc.""]}","[0]","survey-multi-select","0","196675","0.0-0.0","gejyz804","","","","","",""
"55389.10000002384","","","instructions","1","252065","0.0-1.0","gejyz804","[{""page_index"":0,""viewing_time"":55388.700000047684}]","","","","",""
"6624.599999904633","{""Age"":1,""Sex"":1,""Gender"":1}","[0,1,2]","survey-likert","2","258691","0.0-2.0","gejyz804","","","","","",""
"1074.7000000476837","","","instructions","3","259767","0.0-3.0","gejyz804","[{""page_index"":0,""viewing_time"":1074.5}]","","","","",""
"3389.5999999046326","","","instructions","4","263157","0.0-4.0","gejyz804","[{""page_index"":0,""viewing_time"":2186.0999999046326},{""page_index"":1,""viewing_time"":1203.2000000476837}]","","","","",""
"10537.5","","","instructions","5","273695","0.0-5.0","gejyz804","[{""page_index"":0,""viewing_time"":2832.2999999523163},{""page_index"":1,""viewing_time"":2265.899999976158},{""page_index"":2,""viewing_time"":5439.100000023842}]","","","","",""
"5150.200000047684","","","instructions","6","278846","0.0-6.0","gejyz804","[{""page_index"":0,""viewing_time"":5150.100000023842}]","","","","",""
"","","","call-function","7","278847","0.0-7.0","gejyz804","","","","","",""
"null","","","video-keyboard-response","8","281952","0.0-8.0","gejyz804","","","","null","",""
"","","","call-function","9","281952","0.0-9.0","gejyz804","","","","","",""
"8804.100000023842","","","instructions","10","290757","0.0-10.0","gejyz804","[{""page_index"":0,""viewing_time"":2356.2000000476837},{""page_index"":1,""viewing_time"":2271.7999999523163},{""page_index"":2,""viewing_time"":1009.2000000476837},{""page_index"":3,""viewing_time"":3166.899999976158}]","","","","",""
"5159.800000071526","","","instructions","11","295917","0.0-11.0","gejyz804","[{""page_index"":0,""viewing_time"":5159.600000023842}]","","","","",""
"","","","call-function","12","295917","0.0-12.0","gejyz804","","","","","",""
"null","","","video-keyboard-response","13","298993","0.0-13.0","gejyz804","","","","null","",""
"","","","call-function","14","298993","0.0-14.0","gejyz804","","","","","",""
"12041.100000023842","{""pre-1"":1}","[0]","survey-likert","15","311035","0.0-15.0","gejyz804","","","","","",""
"6441.600000023842","{""pre-2"":1}","[0]","survey-likert","16","317478","0.0-16.0","gejyz804","","","","","",""
"3687","{""pre-3"":1}","[0]","survey-likert","17","321166","0.0-17.0","gejyz804","","","","","",""
"2669","{""post-5"":2}","[0]","survey-likert","18","323836","0.0-18.0","gejyz804","","","","","",""
"833.4000000953674","","","instructions","19","324670","0.0-19.0","gejyz804","[{""page_index"":0,""viewing_time"":833.2000000476837}]","","","","",""
"5495.699999928474","","","instructions","20","330166","0.0-20.0","gejyz804","[{""page_index"":0,""viewing_time"":5495.5}]","","","","",""
"","","","call-function","21","330166","0.0-21.0","gejyz804","","","","","",""
"null","","","video-keyboard-response","22","333276","0.0-22.0","gejyz804","","","","null","Agent A","STIM_SET_1_REAL/1592372.bmp_pp76_L1_V1.0_veridical_freeview_isoFalse_fps144.mp4"
"","","","call-function","23","333276","0.0-23.0","gejyz804","","","","","",""
"6708.799999952316","{""pre-1"":1}","[0]","survey-likert","24","339986","0.0-24.0","gejyz804","","","","","",""
"1942.3000000715256","{""pre-2"":1}","[0]","survey-likert","25","341929","0.0-25.0","gejyz804","","","","","",""
"2340.100000023842","{""pre-3"":1}","[0]","survey-likert","26","344270","0.0-26.0","gejyz804","","","","","",""
"3120.100000023842","{""post-5"":2}","[0]","survey-likert","27","347391","0.0-27.0","gejyz804","","","","","",""
"","","","call-function","28","347392","0.0-28.0","gejyz804","","","","","",""
"null","","","video-keyboard-response","29","350490","0.0-29.0","gejyz804","","","","null","Agent A","STIM_SET_1_REAL/1159813.bmp_pp79_L2_V1.0_scrambled_freeview_isoFalse_fps144.mp4"
"","","","call-function","30","350490","0.0-30.0","gejyz804","","","","","",""
"6619.799999952316","{""pre-1"":1}","[0]","survey-likert","31","357111","0.0-31.0","gejyz804","","","","","",""
"4317.100000023842","{""pre-2"":2}","[0]","survey-likert","32","361429","0.0-32.0","gejyz804","","","","","",""
"3861.7999999523163","{""pre-3"":2}","[0]","survey-likert","33","365292","0.0-33.0","gejyz804","","","","","",""
"3790.2000000476837","{""post-5"":1}","[0]","survey-likert","34","369083","0.0-34.0","gejyz804","","","","","",""
"","","","call-function","35","369084","0.0-35.0","gejyz804","","","","","",""
"null","","","video-keyboard-response","36","372156","0.0-36.0","gejyz804","","","","null","Agent A","STIM_SET_1_REAL/1592351.bmp_pp51_L1_V1.0_scrambled_freeview_isoFalse_fps144.mp4"
"","","","call-function","37","372156","0.0-37.0","gejyz804","","","","","",""
"6268.600000023842","{""pre-1"":0}","[0]","survey-likert","38","378425","0.0-38.0","gejyz804","","","","","",""
"4266.700000047684","{""pre-2"":0}","[0]","survey-likert","39","382693","0.0-39.0","gejyz804","","","","","",""
"3345","{""pre-3"":0}","[0]","survey-likert","40","386039","0.0-40.0","gejyz804","","","","","",""
"4960","{""post-5"":3}","[0]","survey-likert","41","391000","0.0-41.0","gejyz804","","","","","",""
"","","","call-function","42","391001","0.0-42.0","gejyz804","","","","","",""
"null","","","video-keyboard-response","43","394106","0.0-43.0","gejyz804","","","","null","Agent A","STIM_SET_1_REAL/1592657.bmp_pp98_L1_V1.0_veridical_freeview_isoFalse_fps144.mp4"
"","","","call-function","44","394106","0.0-44.0","gejyz804","","","","","",""
"3525.6999999284744","{""pre-1"":1}","[0]","survey-likert","45","397632","0.0-45.0","gejyz804","","","","","",""
"2448.600000023842","{""pre-2"":2}","[0]","survey-likert","46","400082","0.0-46.0","gejyz804","","","","","",""
"1601.8999999761581","{""pre-3"":2}","[0]","survey-likert","47","401685","0.0-47.0","gejyz804","","","","","",""
"1909.8999999761581","{""post-5"":2}","[0]","survey-likert","48","403596","0.0-48.0","gejyz804","","","","","",""
"","","","call-function","49","403597","0.0-49.0","gejyz804","","","","","",""
"null","","","video-keyboard-response","50","406695","0.0-50.0","gejyz804","","","","null","Agent A","STIM_SET_1_REAL/1160127.bmp_pp90_L2_V1.0_scrambled_freeview_isoFalse_fps144.mp4"
"","","","call-function","51","406695","0.0-51.0","gejyz804","","","","","",""
"7833.200000047684","{""pre-1"":2}","[0]","survey-likert","52","414529","0.0-52.0","gejyz804","","","","","",""
"1390","{""pre-2"":1}","[0]","survey-likert","53","415920","0.0-53.0","gejyz804","","","","","",""
"1756.1000000238419","{""pre-3"":2}","[0]","survey-likert","54","417677","0.0-54.0","gejyz804","","","","","",""
"1841.2999999523163","{""post-5"":2}","[0]","survey-likert","55","419520","0.0-55.0","gejyz804","","","","","",""
"","","","call-function","56","419520","0.0-56.0","gejyz804","","","","","",""
"null","","","video-keyboard-response","57","422618","0.0-57.0","gejyz804","","","","null","Agent A","STIM_SET_1_REAL/498149.bmp_pp99_L2_V1.0_scrambled_freeview_isoFalse_fps144.mp4"
"","","","call-function","58","422618","0.0-58.0","gejyz804","","","","","",""
"3754","{""pre-1"":1}","[0]","survey-likert","59","426373","0.0-59.0","gejyz804","","","","","",""
"1567.2000000476837","{""pre-2"":1}","[0]","survey-likert","60","427941","0.0-60.0","gejyz804","","","","","",""
"1734.7000000476837","{""pre-3"":1}","[0]","survey-likert","61","429677","0.0-61.0","gejyz804","","","","","",""
"3618","{""post-5"":2}","[0]","survey-likert","62","433296","0.0-62.0","gejyz804","","","","","",""
"","","","call-function","63","433297","0.0-63.0","gejyz804","","","","","",""
"null","","","video-keyboard-response","64","436367","0.0-64.0","gejyz804","","","","null","Agent A","STIM_SET_1_REAL/1159446.bmp_pp60_L3_V1.0_veridical_freeview_isoFalse_fps144.mp4"
"","","","call-function","65","436368","0.0-65.0","gejyz804","","","","","",""
"2262.9000000953674","{""pre-1"":2}","[0]","survey-likert","66","438631","0.0-66.0","gejyz804","","","","","",""
"1832.2999999523163","{""pre-2"":2}","[0]","survey-likert","67","440464","0.0-67.0","gejyz804","","","","","",""
"4579.600000023842","{""pre-3"":1}","[0]","survey-likert","68","445045","0.0-68.0","gejyz804","","","","","",""
"2318.100000023842","{""post-5"":2}","[0]","survey-likert","69","447364","0.0-69.0","gejyz804","","","","","",""
"","","","call-function","70","447365","0.0-70.0","gejyz804","","","","","",""
"null","","","video-keyboard-response","71","450457","0.0-71.0","gejyz804","","","","null","Agent A","STIM_SET_1_REAL/1592372.bmp_pp76_L1_V1.0_scrambled_freeview_isoFalse_fps144.mp4"
"","","","call-function","72","450458","0.0-72.0","gejyz804","","","","","",""
"4948.5","{""pre-1"":1}","[0]","survey-likert","73","455407","0.0-73.0","gejyz804","","","","","",""
"3682","{""pre-2"":2}","[0]","survey-likert","74","459090","0.0-74.0","gejyz804","","","","","",""
"3120.100000023842","{""pre-3"":2}","[0]","survey-likert","75","462211","0.0-75.0","gejyz804","","","","","",""
"1722.7999999523163","{""post-5"":2}","[0]","survey-likert","76","463935","0.0-76.0","gejyz804","","","","","",""
"","","","call-function","77","463936","0.0-77.0","gejyz804","","","","","",""
"null","","","video-keyboard-response","78","467019","0.0-78.0","gejyz804","","","","null","Agent A","STIM_SET_1_REAL/713760.bmp_pp81_L1_V1.0_veridical_freeview_isoFalse_fps144.mp4"
"","","","call-function","79","467019","0.0-79.0","gejyz804","","","","","",""
"2682.600000023842","{""pre-1"":2}","[0]","survey-likert","80","469702","0.0-80.0","gejyz804","","","","","",""
"1434.8999999761581","{""pre-2"":2}","[0]","survey-likert","81","471138","0.0-81.0","gejyz804","","","","","",""
"2804.7999999523163","{""pre-3"":1}","[0]","survey-likert","82","473944","0.0-82.0","gejyz804","","","","","",""
"1690.3000000715256","{""post-5"":2}","[0]","survey-likert","83","475635","0.0-83.0","gejyz804","","","","","",""
"","","","call-function","84","475636","0.0-84.0","gejyz804","","","","","",""
"null","","","video-keyboard-response","85","478720","0.0-85.0","gejyz804","","","","null","Agent A","STIM_SET_1_REAL/713593.bmp_pp64_L1_V1.0_veridical_freeview_isoFalse_fps144.mp4"
"","","","call-function","86","478720","0.0-86.0","gejyz804","","","","","",""
"3999.3000000715256","{""pre-1"":1}","[0]","survey-likert","87","482720","0.0-87.0","gejyz804","","","","","",""
"3569.2000000476837","{""pre-2"":3}","[0]","survey-likert","88","486290","0.0-88.0","gejyz804","","","","","",""
"4118.899999976158","{""pre-3"":3}","[0]","survey-likert","89","490410","0.0-89.0","gejyz804","","","","","",""
"3261.899999976158","{""post-5"":1}","[0]","survey-likert","90","493673","0.0-90.0","gejyz804","","","","","",""
"","","","call-function","91","493674","0.0-91.0","gejyz804","","","","","",""
"null","","","video-keyboard-response","92","496768","0.0-92.0","gejyz804","","","","null","Agent A","STIM_SET_1_REAL/1159440.bmp_pp98_L1_V1.0_veridical_freeview_isoFalse_fps144.mp4"
"","","","call-function","93","496768","0.0-93.0","gejyz804","","","","","",""
"5235.600000023842","{""pre-1"":2}","[0]","survey-likert","94","502004","0.0-94.0","gejyz804","","","","","",""
"4541","{""pre-2"":1}","[0]","survey-likert","95","506546","0.0-95.0","gejyz804","","","","","",""
"1633","{""pre-3"":1}","[0]","survey-likert","96","508180","0.0-96.0","gejyz804","","","","","",""
"2122.1999999284744","{""post-5"":2}","[0]","survey-likert","97","510304","0.0-97.0","gejyz804","","","","","",""
"","","","call-function","98","510304","0.0-98.0","gejyz804","","","","","",""
"null","","","video-keyboard-response","99","513426","0.0-99.0","gejyz804","","","","null","Agent A","STIM_SET_1_REAL/1591954.bmp_pp62_L2_V1.0_scrambled_freeview_isoFalse_fps144.mp4"
"","","","call-function","100","513426","0.0-100.0","gejyz804","","","","","",""
"4131.600000023842","{""pre-1"":1}","[0]","survey-likert","101","517559","0.0-101.0","gejyz804","","","","","",""
"2914.2999999523163","{""pre-2"":1}","[0]","survey-likert","102","520474","0.0-102.0","gejyz804","","","","","",""
"4896.100000023842","{""pre-3"":1}","[0]","survey-likert","103","525371","0.0-103.0","gejyz804","","","","","",""
"1573.1000000238419","{""post-5"":2}","[0]","survey-likert","104","526945","0.0-104.0","gejyz804","","","","","",""
"","","","call-function","105","526946","0.0-105.0","gejyz804","","","","","",""
"null","","","video-keyboard-response","106","530015","0.0-106.0","gejyz804","","","","null","Agent A","STIM_SET_1_REAL/713089.bmp_pp60_L3_V1.0_scrambled_freeview_isoFalse_fps144.mp4"
"","","","call-function","107","530016","0.0-107.0","gejyz804","","","","","",""
"4621.600000023842","{""pre-1"":0}","[0]","survey-likert","108","534638","0.0-108.0","gejyz804","","","","","",""
"2029.6999999284744","{""pre-2"":3}","[0]","survey-likert","109","536669","0.0-109.0","gejyz804","","","","","",""
"2725.899999976158","{""pre-3"":3}","[0]","survey-likert","110","539396","0.0-110.0","gejyz804","","","","","",""
"2411.899999976158","{""post-5"":0}","[0]","survey-likert","111","541809","0.0-111.0","gejyz804","","","","","",""
"","","","call-function","112","541810","0.0-112.0","gejyz804","","","","","",""
"null","","","video-keyboard-response","113","544903","0.0-113.0","gejyz804","","","","null","Agent A","STIM_SET_1_REAL/1593041.bmp_pp58_L1_V1.0_scrambled_freeview_isoFalse_fps144.mp4"
"","","","call-function","114","544904","0.0-114.0","gejyz804","","","","","",""
"5666.600000023842","{""pre-1"":2}","[0]","survey-likert","115","550571","0.0-115.0","gejyz804","","","","","",""
"2016","{""pre-2"":1}","[0]","survey-likert","116","552588","0.0-116.0","gejyz804","","","","","",""
"2851.7999999523163","{""pre-3"":1}","[0]","survey-likert","117","555441","0.0-117.0","gejyz804","","","","","",""
"2670.100000023842","{""post-5"":2}","[0]","survey-likert","118","558112","0.0-118.0","gejyz804","","","","","",""
"","","","call-function","119","558113","0.0-119.0","gejyz804","","","","","",""
"null","","","video-keyboard-response","120","561209","0.0-120.0","gejyz804","","","","null","Agent A","STIM_SET_1_REAL/1592499.bmp_pp96_L2_V1.0_veridical_freeview_isoFalse_fps144.mp4"
"","","","call-function","121","561209","0.0-121.0","gejyz804","","","","","",""
"3783.7000000476837","{""pre-1"":2}","[0]","survey-likert","122","564993","0.0-122.0","gejyz804","","","","","",""
"1733.8999999761581","{""pre-2"":1}","[0]","survey-likert","123","566728","0.0-123.0","gejyz804","","","","","",""
"2799.5","{""pre-3"":1}","[0]","survey-likert","124","569529","0.0-124.0","gejyz804","","","","","",""
"4363.899999976158","{""post-5"":2}","[0]","survey-likert","125","573894","0.0-125.0","gejyz804","","","","","",""
"","","","call-function","126","573895","0.0-126.0","gejyz804","","","","","",""
"null","","","video-keyboard-response","127","577013","0.0-127.0","gejyz804","","","","null","Agent A","STIM_SET_1_REAL/1159440.bmp_pp98_L1_V1.0_scrambled_freeview_isoFalse_fps144.mp4"
"","","","call-function","128","577014","0.0-128.0","gejyz804","","","","","",""
"3264.100000023842","{""pre-1"":1}","[0]","survey-likert","129","580278","0.0-129.0","gejyz804","","","","","",""
"2840.100000023842","{""pre-2"":2}","[0]","survey-likert","130","583119","0.0-130.0","gejyz804","","","","","",""
"3683.7999999523163","{""pre-3"":1}","[0]","survey-likert","131","586804","0.0-131.0","gejyz804","","","","","",""
"5800","{""post-5"":2}","[0]","survey-likert","132","592605","0.0-132.0","gejyz804","","","","","",""
"","","","call-function","133","592606","0.0-133.0","gejyz804","","","","","",""
"null","","","video-keyboard-response","134","595685","0.0-134.0","gejyz804","","","","null","Agent A","STIM_SET_1_REAL/1593041.bmp_pp58_L1_V1.0_veridical_freeview_isoFalse_fps144.mp4"
"","","","call-function","135","595686","0.0-135.0","gejyz804","","","","","",""
"3848.7000000476837","{""pre-1"":1}","[0]","survey-likert","136","599535","0.0-136.0","gejyz804","","","","","",""
"1680.8999999761581","{""pre-2"":2}","[0]","survey-likert","137","601217","0.0-137.0","gejyz804","","","","","",""
"2377.3000000715256","{""pre-3"":1}","[0]","survey-likert","138","603595","0.0-138.0","gejyz804","","","","","",""
"2564.100000023842","{""post-5"":1}","[0]","survey-likert","139","606160","0.0-139.0","gejyz804","","","","","",""
"","","","call-function","140","606161","0.0-140.0","gejyz804","","","","","",""
"null","","","video-keyboard-response","141","609262","0.0-141.0","gejyz804","","","","null","Agent A","STIM_SET_1_REAL/1159784.bmp_pp73_L3_V1.0_scrambled_freeview_isoFalse_fps144.mp4"
"","","","call-function","142","609262","0.0-142.0","gejyz804","","","","","",""
"6478.600000023842","{""pre-1"":2}","[0]","survey-likert","143","615741","0.0-143.0","gejyz804","","","","","",""
"3285.899999976158","{""pre-2"":1}","[0]","survey-likert","144","619028","0.0-144.0","gejyz804","","","","","",""
"1850.2000000476837","{""pre-3"":1}","[0]","survey-likert","145","620879","0.0-145.0","gejyz804","","","","","",""
"2130","{""post-5"":2}","[0]","survey-likert","146","623010","0.0-146.0","gejyz804","","","","","",""
"","","","call-function","147","623011","0.0-147.0","gejyz804","","","","","",""
"null","","","video-keyboard-response","148","626115","0.0-148.0","gejyz804","","","","null","Agent A","STIM_SET_1_REAL/1591876.bmp_pp63_L1_V1.0_veridical_freeview_isoFalse_fps144.mp4"
"","","","call-function","149","626115","0.0-149.0","gejyz804","","","","","",""
"3132.399999976158","{""pre-1"":1}","[0]","survey-likert","150","629248","0.0-150.0","gejyz804","","","","","",""
"1453.1000000238419","{""pre-2"":2}","[0]","survey-likert","151","630702","0.0-151.0","gejyz804","","","","","",""
"1738.2000000476837","{""pre-3"":2}","[0]","survey-likert","152","632442","0.0-152.0","gejyz804","","","","","",""
"1797","{""post-5"":1}","[0]","survey-likert","153","634240","0.0-153.0","gejyz804","","","","","",""
"","","","call-function","154","634240","0.0-154.0","gejyz804","","","","","",""
"null","","","video-keyboard-response","155","637336","0.0-155.0","gejyz804","","","","null","Agent A","STIM_SET_1_REAL/1159855.bmp_pp99_L2_V1.0_veridical_freeview_isoFalse_fps144.mp4"
"","","","call-function","156","637337","0.0-156.0","gejyz804","","","","","",""
"2301","{""pre-1"":1}","[0]","survey-likert","157","639638","0.0-157.0","gejyz804","","","","","",""
"2662.899999976158","{""pre-2"":3}","[0]","survey-likert","158","642302","0.0-158.0","gejyz804","","","","","",""
"3325.100000023842","{""pre-3"":3}","[0]","survey-likert","159","645628","0.0-159.0","gejyz804","","","","","",""
"3317.100000023842","{""post-5"":0}","[0]","survey-likert","160","648946","0.0-160.0","gejyz804","","","","","",""
"19039.300000071526","","","instructions","161","667986","0.0-161.0","gejyz804","[{""page_index"":0,""viewing_time"":1541.5},{""page_index"":1,""viewing_time"":16517.700000047684},{""page_index"":2,""viewing_time"":979.8999999761581}]","","","","",""
"12351.700000047684","","","instructions","162","680338","0.0-162.0","gejyz804","[{""page_index"":0,""viewing_time"":787.5},{""page_index"":1,""viewing_time"":4933.799999952316},{""page_index"":2,""viewing_time"":6630.200000047684}]","","","","",""
"","","","call-function","163","680339","0.0-163.0","gejyz804","","","","","",""
"null","","","video-keyboard-response","164","683438","0.0-164.0","gejyz804","","","","null","Agent A","STIM_SET_1_REAL/1592817.bmp_pp55_L3_V1.0_scrambled_freeview_isoFalse_fps144.mp4"
"","","","call-function","165","683438","0.0-165.0","gejyz804","","","","","",""
"7701.700000047684","{""pre-1"":2}","[0]","survey-likert","166","691141","0.0-166.0","gejyz804","","","","","",""
"3376.2000000476837","{""pre-2"":2}","[0]","survey-likert","167","694518","0.0-167.0","gejyz804","","","","","",""
"3027.600000023842","{""pre-3"":2}","[0]","survey-likert","168","697547","0.0-168.0","gejyz804","","","","","",""
"2369.899999976158","{""post-5"":1}","[0]","survey-likert","169","699918","0.0-169.0","gejyz804","","","","","",""
"","","","call-function","170","699918","0.0-170.0","gejyz804","","","","","",""
"null","","","video-keyboard-response","171","703007","0.0-171.0","gejyz804","","","","null","Agent A","STIM_SET_1_REAL/712977.bmp_pp51_L1_V1.0_veridical_freeview_isoFalse_fps144.mp4"
"","","","call-function","172","703007","0.0-172.0","gejyz804","","","","","",""
"2557.2999999523163","{""pre-1"":2}","[0]","survey-likert","173","705565","0.0-173.0","gejyz804","","","","","",""
"1929.1999999284744","{""pre-2"":2}","[0]","survey-likert","174","707496","0.0-174.0","gejyz804","","","","","",""
"3557.8000000715256","{""pre-3"":2}","[0]","survey-likert","175","711055","0.0-175.0","gejyz804","","","","","",""
"1572.8999999761581","{""post-5"":1}","[0]","survey-likert","176","712628","0.0-176.0","gejyz804","","","","","",""
"","","","call-function","177","712629","0.0-177.0","gejyz804","","","","","",""
"null","","","video-keyboard-response","178","715714","0.0-178.0","gejyz804","","","","null","Agent A","STIM_SET_1_REAL/1592890.bmp_pp82_L2_V1.0_veridical_freeview_isoFalse_fps144.mp4"
"","","","call-function","179","715714","0.0-179.0","gejyz804","","","","","",""
"3283.2000000476837","{""pre-1"":1}","[0]","survey-likert","180","718998","0.0-180.0","gejyz804","","","","","",""
"1727.1000000238419","{""pre-2"":1}","[0]","survey-likert","181","720726","0.0-181.0","gejyz804","","","","","",""
"1729.3000000715256","{""pre-3"":1}","[0]","survey-likert","182","722457","0.0-182.0","gejyz804","","","","","",""
"2735.7999999523163","{""post-5"":2}","[0]","survey-likert","183","725193","0.0-183.0","gejyz804","","","","","",""
"","","","call-function","184","725194","0.0-184.0","gejyz804","","","","","",""
"null","","","video-keyboard-response","185","728276","0.0-185.0","gejyz804","","","","null","Agent A","STIM_SET_1_REAL/1159447.bmp_pp70_L2_V1.0_veridical_freeview_isoFalse_fps144.mp4"
"","","","call-function","186","728277","0.0-186.0","gejyz804","","","","","",""
"3745.100000023842","{""pre-1"":2}","[0]","survey-likert","187","732023","0.0-187.0","gejyz804","","","","","",""
"3772.100000023842","{""pre-2"":2}","[0]","survey-likert","188","735796","0.0-188.0","gejyz804","","","","","",""
"1891.5999999046326","{""pre-3"":2}","[0]","survey-likert","189","737688","0.0-189.0","gejyz804","","","","","",""
"1842.7000000476837","{""post-5"":1}","[0]","survey-likert","190","739532","0.0-190.0","gejyz804","","","","","",""
"","","","call-function","191","739533","0.0-191.0","gejyz804","","","","","",""
"null","","","video-keyboard-response","192","742630","0.0-192.0","gejyz804","","","","null","Agent A","STIM_SET_1_REAL/1591954.bmp_pp62_L2_V1.0_veridical_freeview_isoFalse_fps144.mp4"
"","","","call-function","193","742630","0.0-193.0","gejyz804","","","","","",""
"3752.7000000476837","{""pre-1"":2}","[0]","survey-likert","194","746384","0.0-194.0","gejyz804","","","","","",""
"1707.2000000476837","{""pre-2"":2}","[0]","survey-likert","195","748092","0.0-195.0","gejyz804","","","","","",""
"1265.8999999761581","{""pre-3"":2}","[0]","survey-likert","196","749358","0.0-196.0","gejyz804","","","","","",""
"1084.5","{""post-5"":1}","[0]","survey-likert","197","750444","0.0-197.0","gejyz804","","","","","",""
"","","","call-function","198","750444","0.0-198.0","gejyz804","","","","","",""
"null","","","video-keyboard-response","199","753526","0.0-199.0","gejyz804","","","","null","Agent A","STIM_SET_1_REAL/498175.bmp_pp154_L1_V1.0_scrambled_freeview_isoFalse_fps144.mp4"
"","","","call-function","200","753526","0.0-200.0","gejyz804","","","","","",""
"2391.100000023842","{""pre-1"":1}","[0]","survey-likert","201","755918","0.0-201.0","gejyz804","","","","","",""
"4377","{""pre-2"":1}","[0]","survey-likert","202","760296","0.0-202.0","gejyz804","","","","","",""
"2075.100000023842","{""pre-3"":1}","[0]","survey-likert","203","762372","0.0-203.0","gejyz804","","","","","",""
"4496.799999952316","{""post-5"":2}","[0]","survey-likert","204","766869","0.0-204.0","gejyz804","","","","","",""
"","","","call-function","205","766870","0.0-205.0","gejyz804","","","","","",""
"null","","","video-keyboard-response","206","769954","0.0-206.0","gejyz804","","","","null","Agent A","STIM_SET_1_REAL/285905.bmp_pp57_L1_V1.0_scrambled_freeview_isoFalse_fps144.mp4"
"","","","call-function","207","769955","0.0-207.0","gejyz804","","","","","",""
"9784.899999976158","{""pre-1"":1}","[0]","survey-likert","208","779740","0.0-208.0","gejyz804","","","","","",""
"1485.1000000238419","{""pre-2"":1}","[0]","survey-likert","209","781226","0.0-209.0","gejyz804","","","","","",""
"1708","{""pre-3"":1}","[0]","survey-likert","210","782936","0.0-210.0","gejyz804","","","","","",""
"2158.2000000476837","{""post-5"":2}","[0]","survey-likert","211","785095","0.0-211.0","gejyz804","","","","","",""
"","","","call-function","212","785095","0.0-212.0","gejyz804","","","","","",""
"null","","","video-keyboard-response","213","788169","0.0-213.0","gejyz804","","","","null","Agent A","STIM_SET_1_REAL/498170.bmp_pp153_L3_V1.0_scrambled_freeview_isoFalse_fps144.mp4"
"","","","call-function","214","788169","0.0-214.0","gejyz804","","","","","",""
"7995.700000047684","{""pre-1"":2}","[0]","survey-likert","215","796166","0.0-215.0","gejyz804","","","","","",""
"1733.8999999761581","{""pre-2"":1}","[0]","survey-likert","216","797901","0.0-216.0","gejyz804","","","","","",""
"1800.9000000953674","{""pre-3"":1}","[0]","survey-likert","217","799703","0.0-217.0","gejyz804","","","","","",""
"1931.1000000238419","{""post-5"":2}","[0]","survey-likert","218","801634","0.0-218.0","gejyz804","","","","","",""
"","","","call-function","219","801635","0.0-219.0","gejyz804","","","","","",""
"null","","","video-keyboard-response","220","804724","0.0-220.0","gejyz804","","","","null","Agent A","STIM_SET_1_REAL/1592890.bmp_pp82_L2_V1.0_scrambled_freeview_isoFalse_fps144.mp4"
"","","","call-function","221","804725","0.0-221.0","gejyz804","","","","","",""
"2244.5","{""pre-1"":1}","[0]","survey-likert","222","806970","0.0-222.0","gejyz804","","","","","",""
"1516.8999999761581","{""pre-2"":1}","[0]","survey-likert","223","808488","0.0-223.0","gejyz804","","","","","",""
"1261.8999999761581","{""pre-3"":1}","[0]","survey-likert","224","809750","0.0-224.0","gejyz804","","","","","",""
"1985.3000000715256","{""post-5"":2}","[0]","survey-likert","225","811737","0.0-225.0","gejyz804","","","","","",""
"","","","call-function","226","811737","0.0-226.0","gejyz804","","","","","",""
"null","","","video-keyboard-response","227","814807","0.0-227.0","gejyz804","","","","null","Agent A","STIM_SET_1_REAL/713403.bmp_pp80_L3_V1.0_veridical_freeview_isoFalse_fps144.mp4"
"","","","call-function","228","814808","0.0-228.0","gejyz804","","","","","",""
"3436.3000000715256","{""pre-1"":2}","[0]","survey-likert","229","818245","0.0-229.0","gejyz804","","","","","",""
"1389.7999999523163","{""pre-2"":2}","[0]","survey-likert","230","819636","0.0-230.0","gejyz804","","","","","",""
"1311.8999999761581","{""pre-3"":2}","[0]","survey-likert","231","820949","0.0-231.0","gejyz804","","","","","",""
"1502.8999999761581","{""post-5"":1}","[0]","survey-likert","232","822453","0.0-232.0","gejyz804","","","","","",""
"","","","call-function","233","822453","0.0-233.0","gejyz804","","","","","",""
"null","","","video-keyboard-response","234","825528","0.0-234.0","gejyz804","","","","null","Agent A","STIM_SET_1_REAL/713681.bmp_pp86_L2_V1.0_scrambled_freeview_isoFalse_fps144.mp4"
"","","","call-function","235","825529","0.0-235.0","gejyz804","","","","","",""
"17132.200000047684","{""pre-1"":2}","[0]","survey-likert","236","842662","0.0-236.0","gejyz804","","","","","",""
"2039","{""pre-2"":2}","[0]","survey-likert","237","844702","0.0-237.0","gejyz804","","","","","",""
"1073.7000000476837","{""pre-3"":2}","[0]","survey-likert","238","845777","0.0-238.0","gejyz804","","","","","",""
"2443.8000000715256","{""post-5"":1}","[0]","survey-likert","239","848222","0.0-239.0","gejyz804","","","","","",""
"","","","call-function","240","848222","0.0-240.0","gejyz804","","","","","",""
"null","","","video-keyboard-response","241","851311","0.0-241.0","gejyz804","","","","null","Agent A","STIM_SET_1_REAL/1592934.bmp_pp63_L1_V1.0_scrambled_freeview_isoFalse_fps144.mp4"
"","","","call-function","242","851312","0.0-242.0","gejyz804","","","","","",""
"2219.3000000715256","{""pre-1"":1}","[0]","survey-likert","243","853532","0.0-243.0","gejyz804","","","","","",""
"1760.8999999761581","{""pre-2"":1}","[0]","survey-likert","244","855294","0.0-244.0","gejyz804","","","","","",""
"1657.1000000238419","{""pre-3"":1}","[0]","survey-likert","245","856952","0.0-245.0","gejyz804","","","","","",""
"1192.1000000238419","{""post-5"":2}","[0]","survey-likert","246","858145","0.0-246.0","gejyz804","","","","","",""
"","","","call-function","247","858145","0.0-247.0","gejyz804","","","","","",""
"null","","","video-keyboard-response","248","861214","0.0-248.0","gejyz804","","","","null","Agent A","STIM_SET_1_REAL/498175.bmp_pp154_L1_V1.0_veridical_freeview_isoFalse_fps144.mp4"
"","","","call-function","249","861214","0.0-249.0","gejyz804","","","","","",""
"2118","{""pre-1"":1}","[0]","survey-likert","250","863333","0.0-250.0","gejyz804","","","","","",""
"1773.8999999761581","{""pre-2"":1}","[0]","survey-likert","251","865108","0.0-251.0","gejyz804","","","","","",""
"1187","{""pre-3"":1}","[0]","survey-likert","252","866296","0.0-252.0","gejyz804","","","","","",""
"2310.100000023842","{""post-5"":2}","[0]","survey-likert","253","868607","0.0-253.0","gejyz804","","","","","",""
"","","","call-function","254","868607","0.0-254.0","gejyz804","","","","","",""
"null","","","video-keyboard-response","255","871692","0.0-255.0","gejyz804","","","","null","Agent A","STIM_SET_1_REAL/1592804.bmp_pp91_L3_V1.0_veridical_freeview_isoFalse_fps144.mp4"
"","","","call-function","256","871693","0.0-256.0","gejyz804","","","","","",""
"3370.7999999523163","{""pre-1"":2}","[0]","survey-likert","257","875064","0.0-257.0","gejyz804","","","","","",""
"1347.6000000238419","{""pre-2"":2}","[0]","survey-likert","258","876413","0.0-258.0","gejyz804","","","","","",""
"1099.2000000476837","{""pre-3"":2}","[0]","survey-likert","259","877513","0.0-259.0","gejyz804","","","","","",""
"1181.1999999284744","{""post-5"":1}","[0]","survey-likert","260","878695","0.0-260.0","gejyz804","","","","","",""
"","","","call-function","261","878695","0.0-261.0","gejyz804","","","","","",""
"null","","","video-keyboard-response","262","881782","0.0-262.0","gejyz804","","","","null","Agent A","STIM_SET_1_REAL/498155.bmp_pp61_L2_V1.0_scrambled_freeview_isoFalse_fps144.mp4"
"","","","call-function","263","881782","0.0-263.0","gejyz804","","","","","",""
"5171.700000047684","{""pre-1"":3}","[0]","survey-likert","264","886955","0.0-264.0","gejyz804","","","","","",""
"2700","{""pre-2"":2}","[0]","survey-likert","265","889656","0.0-265.0","gejyz804","","","","","",""
"4580.899999976158","{""pre-3"":2}","[0]","survey-likert","266","894238","0.0-266.0","gejyz804","","","","","",""
"2829.2000000476837","{""post-5"":1}","[0]","survey-likert","267","897068","0.0-267.0","gejyz804","","","","","",""
"","","","call-function","268","897068","0.0-268.0","gejyz804","","","","","",""
"null","","","video-keyboard-response","269","900170","0.0-269.0","gejyz804","","","","null","Agent A","STIM_SET_1_REAL/1591961.bmp_pp67_L2_V1.0_scrambled_freeview_isoFalse_fps144.mp4"
"","","","call-function","270","900170","0.0-270.0","gejyz804","","","","","",""
"4069.399999976158","{""pre-1"":1}","[0]","survey-likert","271","904241","0.0-271.0","gejyz804","","","","","",""
"1587.8999999761581","{""pre-2"":1}","[0]","survey-likert","272","905830","0.0-272.0","gejyz804","","","","","",""
"1270.2000000476837","{""pre-3"":1}","[0]","survey-likert","273","907101","0.0-273.0","gejyz804","","","","","",""
"1149.8999999761581","{""post-5"":2}","[0]","survey-likert","274","908252","0.0-274.0","gejyz804","","","","","",""
"","","","call-function","275","908252","0.0-275.0","gejyz804","","","","","",""
"null","","","video-keyboard-response","276","911330","0.0-276.0","gejyz804","","","","null","Agent A","STIM_SET_1_REAL/498155.bmp_pp61_L2_V1.0_veridical_freeview_isoFalse_fps144.mp4"
"","","","call-function","277","911330","0.0-277.0","gejyz804","","","","","",""
"4301.800000071526","{""pre-1"":3}","[0]","survey-likert","278","915633","0.0-278.0","gejyz804","","","","","",""
"1605.1999999284744","{""pre-2"":3}","[0]","survey-likert","279","917239","0.0-279.0","gejyz804","","","","","",""
"1587.6000000238419","{""pre-3"":3}","[0]","survey-likert","280","918828","0.0-280.0","gejyz804","","","","","",""
"2271.100000023842","{""post-5"":0}","[0]","survey-likert","281","921100","0.0-281.0","gejyz804","","","","","",""
"","","","call-function","282","921100","0.0-282.0","gejyz804","","","","","",""
"null","","","video-keyboard-response","283","924177","0.0-283.0","gejyz804","","","","null","Agent A","STIM_SET_1_REAL/713779.bmp_pp152_L2_V1.0_scrambled_freeview_isoFalse_fps144.mp4"
"","","","call-function","284","924177","0.0-284.0","gejyz804","","","","","",""
"2157.100000023842","{""pre-1"":1}","[0]","survey-likert","285","926335","0.0-285.0","gejyz804","","","","","",""
"1185.2000000476837","{""pre-2"":1}","[0]","survey-likert","286","927521","0.0-286.0","gejyz804","","","","","",""
"1262","{""pre-3"":1}","[0]","survey-likert","287","928784","0.0-287.0","gejyz804","","","","","",""
"3395","{""post-5"":2}","[0]","survey-likert","288","932180","0.0-288.0","gejyz804","","","","","",""
"","","","call-function","289","932180","0.0-289.0","gejyz804","","","","","",""
"null","","","video-keyboard-response","290","935245","0.0-290.0","gejyz804","","","","null","Agent A","STIM_SET_1_REAL/498149.bmp_pp99_L2_V1.0_veridical_freeview_isoFalse_fps144.mp4"
"","","","call-function","291","935245","0.0-291.0","gejyz804","","","","","",""
"4257","{""pre-1"":1}","[0]","survey-likert","292","939503","0.0-292.0","gejyz804","","","","","",""
"2759","{""pre-2"":1}","[0]","survey-likert","293","942263","0.0-293.0","gejyz804","","","","","",""
"1391","{""pre-3"":1}","[0]","survey-likert","294","943655","0.0-294.0","gejyz804","","","","","",""
"1413.1000000238419","{""post-5"":2}","[0]","survey-likert","295","945069","0.0-295.0","gejyz804","","","","","",""
"","","","call-function","296","945069","0.0-296.0","gejyz804","","","","","",""
"null","","","video-keyboard-response","297","948139","0.0-297.0","gejyz804","","","","null","Agent A","STIM_SET_1_REAL/285933.bmp_pp81_L1_V1.0_scrambled_freeview_isoFalse_fps144.mp4"
"","","","call-function","298","948140","0.0-298.0","gejyz804","","","","","",""
"3598.100000023842","{""pre-1"":2}","[0]","survey-likert","299","951739","0.0-299.0","gejyz804","","","","","",""
"1899.8999999761581","{""pre-2"":2}","[0]","survey-likert","300","953640","0.0-300.0","gejyz804","","","","","",""
"1520.2000000476837","{""pre-3"":2}","[0]","survey-likert","301","955161","0.0-301.0","gejyz804","","","","","",""
"1205.7999999523163","{""post-5"":1}","[0]","survey-likert","302","956368","0.0-302.0","gejyz804","","","","","",""
"25185.100000023842","","","instructions","303","981554","0.0-303.0","gejyz804","[{""page_index"":0,""viewing_time"":19890},{""page_index"":1,""viewing_time"":3452},{""page_index"":2,""viewing_time"":1843}]","","","","",""
"2912.7000000476837","","","instructions","304","984467","0.0-304.0","gejyz804","[{""page_index"":0,""viewing_time"":1211.3999999761581},{""page_index"":1,""viewing_time"":1049.1000000238419},{""page_index"":2,""viewing_time"":652}]","","","","",""
"","","","call-function","305","984467","0.0-305.0","gejyz804","","","","","",""
"null","","","video-keyboard-response","306","987568","0.0-306.0","gejyz804","","","","null","Agent A","STIM_SET_1_REAL/1592619.bmp_pp56_L3_V1.0_veridical_freeview_isoFalse_fps144.mp4"
"","","","call-function","307","987569","0.0-307.0","gejyz804","","","","","",""
"2624.3000000715256","{""pre-1"":1}","[0]","survey-likert","308","990194","0.0-308.0","gejyz804","","","","","",""
"1151.8000000715256","{""pre-2"":1}","[0]","survey-likert","309","991347","0.0-309.0","gejyz804","","","","","",""
"2185","{""pre-3"":1}","[0]","survey-likert","310","993533","0.0-310.0","gejyz804","","","","","",""
"1494.1000000238419","{""post-5"":2}","[0]","survey-likert","311","995028","0.0-311.0","gejyz804","","","","","",""
"","","","call-function","312","995028","0.0-312.0","gejyz804","","","","","",""
"null","","","video-keyboard-response","313","998144","0.0-313.0","gejyz804","","","","null","Agent A","STIM_SET_1_REAL/498111.bmp_pp88_L2_V1.0_scrambled_freeview_isoFalse_fps144.mp4"
"","","","call-function","314","998145","0.0-314.0","gejyz804","","","","","",""
"2885.5","{""pre-1"":2}","[0]","survey-likert","315","1001031","0.0-315.0","gejyz804","","","","","",""
"1313.8999999761581","{""pre-2"":2}","[0]","survey-likert","316","1002346","0.0-316.0","gejyz804","","","","","",""
"987.1000000238419","{""pre-3"":2}","[0]","survey-likert","317","1003334","0.0-317.0","gejyz804","","","","","",""
"1850.8999999761581","{""post-5"":1}","[0]","survey-likert","318","1005186","0.0-318.0","gejyz804","","","","","",""
"","","","call-function","319","1005186","0.0-319.0","gejyz804","","","","","",""
"null","","","video-keyboard-response","320","1008276","0.0-320.0","gejyz804","","","","null","Agent A","STIM_SET_1_REAL/1591994.bmp_pp69_L3_V1.0_scrambled_freeview_isoFalse_fps144.mp4"
"","","","call-function","321","1008276","0.0-321.0","gejyz804","","","","","",""
"4147.100000023842","{""pre-1"":2}","[0]","survey-likert","322","1012424","0.0-322.0","gejyz804","","","","","",""
"1496.7000000476837","{""pre-2"":2}","[0]","survey-likert","323","1013922","0.0-323.0","gejyz804","","","","","",""
"1498.5999999046326","{""pre-3"":2}","[0]","survey-likert","324","1015422","0.0-324.0","gejyz804","","","","","",""
"1336.3000000715256","{""post-5"":1}","[0]","survey-likert","325","1016759","0.0-325.0","gejyz804","","","","","",""
"","","","call-function","326","1016759","0.0-326.0","gejyz804","","","","","",""
"null","","","video-keyboard-response","327","1019865","0.0-327.0","gejyz804","","","","null","Agent A","STIM_SET_1_REAL/1592286.bmp_pp52_L1_V1.0_veridical_freeview_isoFalse_fps144.mp4"
"","","","call-function","328","1019866","0.0-328.0","gejyz804","","","","","",""
"3182.100000023842","{""pre-1"":3}","[0]","survey-likert","329","1023049","0.0-329.0","gejyz804","","","","","",""
"1436.1000000238419","{""pre-2"":3}","[0]","survey-likert","330","1024486","0.0-330.0","gejyz804","","","","","",""
"1489","{""pre-3"":3}","[0]","survey-likert","331","1025976","0.0-331.0","gejyz804","","","","","",""
"1958.1999999284744","{""post-5"":0}","[0]","survey-likert","332","1027935","0.0-332.0","gejyz804","","","","","",""
"","","","call-function","333","1027936","0.0-333.0","gejyz804","","","","","",""
"null","","","video-keyboard-response","334","1031038","0.0-334.0","gejyz804","","","","null","Agent A","STIM_SET_1_REAL/1593146.bmp_pp93_L1_V1.0_veridical_freeview_isoFalse_fps144.mp4"
"","","","call-function","335","1031039","0.0-335.0","gejyz804","","","","","",""
"4861.5","{""pre-1"":1}","[0]","survey-likert","336","1035901","0.0-336.0","gejyz804","","","","","",""
"1007","{""pre-2"":1}","[0]","survey-likert","337","1036909","0.0-337.0","gejyz804","","","","","",""
"1152.2000000476837","{""pre-3"":1}","[0]","survey-likert","338","1038062","0.0-338.0","gejyz804","","","","","",""
"1012.2999999523163","{""post-5"":2}","[0]","survey-likert","339","1039075","0.0-339.0","gejyz804","","","","","",""
"","","","call-function","340","1039076","0.0-340.0","gejyz804","","","","","",""
"null","","","video-keyboard-response","341","1042142","0.0-341.0","gejyz804","","","","null","Agent A","STIM_SET_1_REAL/1592362.bmp_pp95_L2_V1.0_scrambled_freeview_isoFalse_fps144.mp4"
"","","","call-function","342","1042142","0.0-342.0","gejyz804","","","","","",""
"2432.9000000953674","{""pre-1"":2}","[0]","survey-likert","343","1044576","0.0-343.0","gejyz804","","","","","",""
"975.8999999761581","{""pre-2"":2}","[0]","survey-likert","344","1045553","0.0-344.0","gejyz804","","","","","",""
"891.1000000238419","{""pre-3"":2}","[0]","survey-likert","345","1046445","0.0-345.0","gejyz804","","","","","",""
"1140.1000000238419","{""post-5"":1}","[0]","survey-likert","346","1047586","0.0-346.0","gejyz804","","","","","",""
"","","","call-function","347","1047586","0.0-347.0","gejyz804","","","","","",""
"null","","","video-keyboard-response","348","1050661","0.0-348.0","gejyz804","","","","null","Agent A","STIM_SET_1_REAL/497950.bmp_pp151_L1_V1.0_scrambled_freeview_isoFalse_fps144.mp4"
"","","","call-function","349","1050662","0.0-349.0","gejyz804","","","","","",""
"1805.7999999523163","{""pre-1"":1}","[0]","survey-likert","350","1052468","0.0-350.0","gejyz804","","","","","",""
"1035.6000000238419","{""pre-2"":1}","[0]","survey-likert","351","1053505","0.0-351.0","gejyz804","","","","","",""
"968.0999999046326","{""pre-3"":1}","[0]","survey-likert","352","1054474","0.0-352.0","gejyz804","","","","","",""
"1183.3999999761581","{""post-5"":2}","[0]","survey-likert","353","1055659","0.0-353.0","gejyz804","","","","","",""
"","","","call-function","354","1055659","0.0-354.0","gejyz804","","","","","",""
"null","","","video-keyboard-response","355","1058731","0.0-355.0","gejyz804","","","","null","Agent A","STIM_SET_1_REAL/1593035.bmp_pp94_L2_V1.0_scrambled_freeview_isoFalse_fps144.mp4"
"","","","call-function","356","1058732","0.0-356.0","gejyz804","","","","","",""
"2590.3000000715256","{""pre-1"":1}","[0]","survey-likert","357","1061323","0.0-357.0","gejyz804","","","","","",""
"996.2000000476837","{""pre-2"":1}","[0]","survey-likert","358","1062320","0.0-358.0","gejyz804","","","","","",""
"924","{""pre-3"":1}","[0]","survey-likert","359","1063245","0.0-359.0","gejyz804","","","","","",""
"2281.7999999523163","{""post-5"":2}","[0]","survey-likert","360","1065528","0.0-360.0","gejyz804","","","","","",""
"","","","call-function","361","1065528","0.0-361.0","gejyz804","","","","","",""
"null","","","video-keyboard-response","362","1068620","0.0-362.0","gejyz804","","","","null","Agent A","STIM_SET_1_REAL/1159768.bmp_pp89_L1_V1.0_veridical_freeview_isoFalse_fps144.mp4"
"","","","call-function","363","1068620","0.0-363.0","gejyz804","","","","","",""
"3133.899999976158","{""pre-1"":2}","[0]","survey-likert","364","1071755","0.0-364.0","gejyz804","","","","","",""
"1192.2999999523163","{""pre-2"":1}","[0]","survey-likert","365","1072948","0.0-365.0","gejyz804","","","","","",""
"1679.5","{""pre-3"":1}","[0]","survey-likert","366","1074629","0.0-366.0","gejyz804","","","","","",""
"3807.5999999046326","{""post-5"":1}","[0]","survey-likert","367","1078438","0.0-367.0","gejyz804","","","","","",""
"","","","call-function","368","1078438","0.0-368.0","gejyz804","","","","","",""
"null","","","video-keyboard-response","369","1081542","0.0-369.0","gejyz804","","","","null","Agent A","STIM_SET_1_REAL/1592934.bmp_pp63_L1_V1.0_veridical_freeview_isoFalse_fps144.mp4"
"","","","call-function","370","1081543","0.0-370.0","gejyz804","","","","","",""
"2415.5","{""pre-1"":2}","[0]","survey-likert","371","1083959","0.0-371.0","gejyz804","","","","","",""
"1289.2999999523163","{""pre-2"":2}","[0]","survey-likert","372","1085249","0.0-372.0","gejyz804","","","","","",""
"1133.8999999761581","{""pre-3"":2}","[0]","survey-likert","373","1086384","0.0-373.0","gejyz804","","","","","",""
"1130.2000000476837","{""post-5"":1}","[0]","survey-likert","374","1087515","0.0-374.0","gejyz804","","","","","",""
"","","","call-function","375","1087516","0.0-375.0","gejyz804","","","","","",""
"null","","","video-keyboard-response","376","1090605","0.0-376.0","gejyz804","","","","null","Agent A","STIM_SET_1_REAL/713684.bmp_pp85_L3_V1.0_scrambled_freeview_isoFalse_fps144.mp4"
"","","","call-function","377","1090605","0.0-377.0","gejyz804","","","","","",""
"3849","{""pre-1"":3}","[0]","survey-likert","378","1094455","0.0-378.0","gejyz804","","","","","",""
"2578.7000000476837","{""pre-2"":2}","[0]","survey-likert","379","1097035","0.0-379.0","gejyz804","","","","","",""
"3587.899999976158","{""pre-3"":2}","[0]","survey-likert","380","1100624","0.0-380.0","gejyz804","","","","","",""
"1429.1000000238419","{""post-5"":0}","[0]","survey-likert","381","1102054","0.0-381.0","gejyz804","","","","","",""
"","","","call-function","382","1102054","0.0-382.0","gejyz804","","","","","",""
"null","","","video-keyboard-response","383","1105138","0.0-383.0","gejyz804","","","","null","Agent A","STIM_SET_1_REAL/1159675.bmp_pp77_L3_V1.0_veridical_freeview_isoFalse_fps144.mp4"
"","","","call-function","384","1105139","0.0-384.0","gejyz804","","","","","",""
"1996.6000000238419","{""pre-1"":2}","[0]","survey-likert","385","1107136","0.0-385.0","gejyz804","","","","","",""
"1199","{""pre-2"":2}","[0]","survey-likert","386","1108336","0.0-386.0","gejyz804","","","","","",""
"1372","{""pre-3"":2}","[0]","survey-likert","387","1109709","0.0-387.0","gejyz804","","","","","",""
"1394.1000000238419","{""post-5"":1}","[0]","survey-likert","388","1111104","0.0-388.0","gejyz804","","","","","",""
"","","","call-function","389","1111105","0.0-389.0","gejyz804","","","","","",""
"null","","","video-keyboard-response","390","1114194","0.0-390.0","gejyz804","","","","null","Agent A","STIM_SET_1_REAL/1591961.bmp_pp67_L2_V1.0_veridical_freeview_isoFalse_fps144.mp4"
"","","","call-function","391","1114195","0.0-391.0","gejyz804","","","","","",""
"2091","{""pre-1"":1}","[0]","survey-likert","392","1116286","0.0-392.0","gejyz804","","","","","",""
"1082.5","{""pre-2"":1}","[0]","survey-likert","393","1117370","0.0-393.0","gejyz804","","","","","",""
"1419.6999999284744","{""pre-3"":1}","[0]","survey-likert","394","1118791","0.0-394.0","gejyz804","","","","","",""
"1576","{""post-5"":2}","[0]","survey-likert","395","1120368","0.0-395.0","gejyz804","","","","","",""
"","","","call-function","396","1120368","0.0-396.0","gejyz804","","","","","",""
"null","","","video-keyboard-response","397","1123464","0.0-397.0","gejyz804","","","","null","Agent A","STIM_SET_1_REAL/285905.bmp_pp57_L1_V1.0_veridical_freeview_isoFalse_fps144.mp4"
"","","","call-function","398","1123465","0.0-398.0","gejyz804","","","","","",""
"4206.600000023842","{""pre-1"":1}","[0]","survey-likert","399","1127672","0.0-399.0","gejyz804","","","","","",""
"1477.7999999523163","{""pre-2"":1}","[0]","survey-likert","400","1129151","0.0-400.0","gejyz804","","","","","",""
"922.1000000238419","{""pre-3"":1}","[0]","survey-likert","401","1130074","0.0-401.0","gejyz804","","","","","",""
"1692","{""post-5"":2}","[0]","survey-likert","402","1131767","0.0-402.0","gejyz804","","","","","",""
"","","","call-function","403","1131768","0.0-403.0","gejyz804","","","","","",""
"null","","","video-keyboard-response","404","1134874","0.0-404.0","gejyz804","","","","null","Agent A","STIM_SET_1_REAL/712977.bmp_pp51_L1_V1.0_scrambled_freeview_isoFalse_fps144.mp4"
"","","","call-function","405","1134874","0.0-405.0","gejyz804","","","","","",""
"2180.399999976158","{""pre-1"":1}","[0]","survey-likert","406","1137055","0.0-406.0","gejyz804","","","","","",""
"1000.1000000238419","{""pre-2"":1}","[0]","survey-likert","407","1138056","0.0-407.0","gejyz804","","","","","",""
"984.8000000715256","{""pre-3"":1}","[0]","survey-likert","408","1139042","0.0-408.0","gejyz804","","","","","",""
"2190.100000023842","{""post-5"":2}","[0]","survey-likert","409","1141233","0.0-409.0","gejyz804","","","","","",""
"","","","call-function","410","1141234","0.0-410.0","gejyz804","","","","","",""
"null","","","video-keyboard-response","411","1144324","0.0-411.0","gejyz804","","","","null","Agent A","STIM_SET_1_REAL/285751.bmp_pp55_L3_V1.0_veridical_freeview_isoFalse_fps144.mp4"
"","","","call-function","412","1144325","0.0-412.0","gejyz804","","","","","",""
"1758.5","{""pre-1"":2}","[0]","survey-likert","413","1146084","0.0-413.0","gejyz804","","","","","",""
"887","{""pre-2"":2}","[0]","survey-likert","414","1146972","0.0-414.0","gejyz804","","","","","",""
"964","{""pre-3"":2}","[0]","survey-likert","415","1147937","0.0-415.0","gejyz804","","","","","",""
"1421.1000000238419","{""post-5"":1}","[0]","survey-likert","416","1149359","0.0-416.0","gejyz804","","","","","",""
"","","","call-function","417","1149360","0.0-417.0","gejyz804","","","","","",""
"null","","","video-keyboard-response","418","1152442","0.0-418.0","gejyz804","","","","null","Agent A","STIM_SET_1_REAL/1591994.bmp_pp69_L3_V1.0_veridical_freeview_isoFalse_fps144.mp4"
"","","","call-function","419","1152442","0.0-419.0","gejyz804","","","","","",""
"3730.2000000476837","{""pre-1"":1}","[0]","survey-likert","420","1156173","0.0-420.0","gejyz804","","","","","",""
"1279","{""pre-2"":0}","[0]","survey-likert","421","1157453","0.0-421.0","gejyz804","","","","","",""
"3595","{""pre-3"":0}","[0]","survey-likert","422","1161049","0.0-422.0","gejyz804","","","","","",""
"2804.5","{""post-5"":2}","[0]","survey-likert","423","1163855","0.0-423.0","gejyz804","","","","","",""
"","","","call-function","424","1163855","0.0-424.0","gejyz804","","","","","",""
"null","","","video-keyboard-response","425","1166963","0.0-425.0","gejyz804","","","","null","Agent A","STIM_SET_1_REAL/1591876.bmp_pp63_L1_V1.0_scrambled_freeview_isoFalse_fps144.mp4"
"","","","call-function","426","1166963","0.0-426.0","gejyz804","","","","","",""
"5188.399999976158","{""pre-1"":1}","[0]","survey-likert","427","1172152","0.0-427.0","gejyz804","","","","","",""
"2270.100000023842","{""pre-2"":0}","[0]","survey-likert","428","1174423","0.0-428.0","gejyz804","","","","","",""
"1108.8999999761581","{""pre-3"":1}","[0]","survey-likert","429","1175533","0.0-429.0","gejyz804","","","","","",""
"1278.8999999761581","{""post-5"":2}","[0]","survey-likert","430","1176813","0.0-430.0","gejyz804","","","","","",""
"","","","call-function","431","1176814","0.0-431.0","gejyz804","","","","","",""
"null","","","video-keyboard-response","432","1179919","0.0-432.0","gejyz804","","","","null","Agent A","STIM_SET_1_REAL/1159515.bmp_pp84_L3_V1.0_veridical_freeview_isoFalse_fps144.mp4"
"","","","call-function","433","1179920","0.0-433.0","gejyz804","","","","","",""
"2322.7000000476837","{""pre-1"":1}","[0]","survey-likert","434","1182243","0.0-434.0","gejyz804","","","","","",""
"1245","{""pre-2"":1}","[0]","survey-likert","435","1183489","0.0-435.0","gejyz804","","","","","",""
"1322.2000000476837","{""pre-3"":1}","[0]","survey-likert","436","1184812","0.0-436.0","gejyz804","","","","","",""
"1329.1000000238419","{""post-5"":2}","[0]","survey-likert","437","1186142","0.0-437.0","gejyz804","","","","","",""
"","","","call-function","438","1186143","0.0-438.0","gejyz804","","","","","",""
"null","","","video-keyboard-response","439","1189225","0.0-439.0","gejyz804","","","","null","Agent A","STIM_SET_1_REAL/713796.bmp_pp84_L3_V1.0_veridical_freeview_isoFalse_fps144.mp4"
"","","","call-function","440","1189226","0.0-440.0","gejyz804","","","","","",""
"2444.5","{""pre-1"":3}","[0]","survey-likert","441","1191671","0.0-441.0","gejyz804","","","","","",""
"1288.8999999761581","{""pre-2"":3}","[0]","survey-likert","442","1192961","0.0-442.0","gejyz804","","","","","",""
"1339.8999999761581","{""pre-3"":2}","[0]","survey-likert","443","1194302","0.0-443.0","gejyz804","","","","","",""
"4774.100000023842","{""post-5"":0}","[0]","survey-likert","444","1199077","0.0-444.0","gejyz804","","","","","",""
"29729","","","instructions","445","1228807","0.0-445.0","gejyz804","[{""page_index"":0,""viewing_time"":6890},{""page_index"":1,""viewing_time"":21813.899999976158},{""page_index"":2,""viewing_time"":1025}]","","","","",""
"3091.7000000476837","","","instructions","446","1231899","0.0-446.0","gejyz804","[{""page_index"":0,""viewing_time"":847.6000000238419},{""page_index"":1,""viewing_time"":1554},{""page_index"":2,""viewing_time"":689.8999999761581}]","","","","",""
"","","","call-function","447","1231899","0.0-447.0","gejyz804","","","","","",""
"null","","","video-keyboard-response","448","1234986","0.0-448.0","gejyz804","","","","null","Agent A","STIM_SET_1_REAL/713211.bmp_pp100_L3_V1.0_scrambled_freeview_isoFalse_fps144.mp4"
"","","","call-function","449","1234987","0.0-449.0","gejyz804","","","","","",""
"1950.9000000953674","{""pre-1"":2}","[0]","survey-likert","450","1236938","0.0-450.0","gejyz804","","","","","",""
"1339.3999999761581","{""pre-2"":2}","[0]","survey-likert","451","1238279","0.0-451.0","gejyz804","","","","","",""
"1025.3999999761581","{""pre-3"":2}","[0]","survey-likert","452","1239305","0.0-452.0","gejyz804","","","","","",""
"935.7999999523163","{""post-5"":1}","[0]","survey-likert","453","1240242","0.0-453.0","gejyz804","","","","","",""
"","","","call-function","454","1240243","0.0-454.0","gejyz804","","","","","",""
"null","","","video-keyboard-response","455","1243333","0.0-455.0","gejyz804","","","","null","Agent A","STIM_SET_1_REAL/713666.bmp_pp97_L3_V1.0_scrambled_freeview_isoFalse_fps144.mp4"
"","","","call-function","456","1243334","0.0-456.0","gejyz804","","","","","",""
"3207.9000000953674","{""pre-1"":3}","[0]","survey-likert","457","1246542","0.0-457.0","gejyz804","","","","","",""
"1418.7000000476837","{""pre-2"":3}","[0]","survey-likert","458","1247962","0.0-458.0","gejyz804","","","","","",""
"1184.8999999761581","{""pre-3"":2}","[0]","survey-likert","459","1249148","0.0-459.0","gejyz804","","","","","",""
"1928.2000000476837","{""post-5"":1}","[0]","survey-likert","460","1251077","0.0-460.0","gejyz804","","","","","",""
"","","","call-function","461","1251078","0.0-461.0","gejyz804","","","","","",""
"null","","","video-keyboard-response","462","1254144","0.0-462.0","gejyz804","","","","null","Agent A","STIM_SET_1_REAL/1159446.bmp_pp60_L3_V1.0_scrambled_freeview_isoFalse_fps144.mp4"
"","","","call-function","463","1254145","0.0-463.0","gejyz804","","","","","",""
"2737.8000000715256","{""pre-1"":2}","[0]","survey-likert","464","1256883","0.0-464.0","gejyz804","","","","","",""
"1713.8999999761581","{""pre-2"":2}","[0]","survey-likert","465","1258598","0.0-465.0","gejyz804","","","","","",""
"2045.2000000476837","{""pre-3"":2}","[0]","survey-likert","466","1260644","0.0-466.0","gejyz804","","","","","",""
"1140.8000000715256","{""post-5"":1}","[0]","survey-likert","467","1261786","0.0-467.0","gejyz804","","","","","",""
"","","","call-function","468","1261787","0.0-468.0","gejyz804","","","","","",""
"null","","","video-keyboard-response","469","1264908","0.0-469.0","gejyz804","","","","null","Agent A","STIM_SET_1_REAL/1159813.bmp_pp79_L2_V1.0_veridical_freeview_isoFalse_fps144.mp4"
"","","","call-function","470","1264909","0.0-470.0","gejyz804","","","","","",""
"2419.7000000476837","{""pre-1"":2}","[0]","survey-likert","471","1267329","0.0-471.0","gejyz804","","","","","",""
"1225.8000000715256","{""pre-2"":2}","[0]","survey-likert","472","1268556","0.0-472.0","gejyz804","","","","","",""
"1483.7000000476837","{""pre-3"":2}","[0]","survey-likert","473","1270041","0.0-473.0","gejyz804","","","","","",""
"1296.8999999761581","{""post-5"":1}","[0]","survey-likert","474","1271339","0.0-474.0","gejyz804","","","","","",""
"","","","call-function","475","1271340","0.0-475.0","gejyz804","","","","","",""
"null","","","video-keyboard-response","476","1274408","0.0-476.0","gejyz804","","","","null","Agent A","STIM_SET_1_REAL/286001.bmp_pp54_L2_V1.0_veridical_freeview_isoFalse_fps144.mp4"
"","","","call-function","477","1274408","0.0-477.0","gejyz804","","","","","",""
"4255.399999976158","{""pre-1"":1}","[0]","survey-likert","478","1278664","0.0-478.0","gejyz804","","","","","",""
"1018","{""pre-2"":1}","[0]","survey-likert","479","1279683","0.0-479.0","gejyz804","","","","","",""
"992.1000000238419","{""pre-3"":1}","[0]","survey-likert","480","1280676","0.0-480.0","gejyz804","","","","","",""
"1197.2000000476837","{""post-5"":2}","[0]","survey-likert","481","1281874","0.0-481.0","gejyz804","","","","","",""
"","","","call-function","482","1281875","0.0-482.0","gejyz804","","","","","",""
"null","","","video-keyboard-response","483","1284942","0.0-483.0","gejyz804","","","","null","Agent A","STIM_SET_1_REAL/1159829.bmp_pp91_L3_V1.0_scrambled_freeview_isoFalse_fps144.mp4"
"","","","call-function","484","1284942","0.0-484.0","gejyz804","","","","","",""
"2880.4000000953674","{""pre-1"":2}","[0]","survey-likert","485","1287823","0.0-485.0","gejyz804","","","","","",""
"1141.7999999523163","{""pre-2"":2}","[0]","survey-likert","486","1288966","0.0-486.0","gejyz804","","","","","",""
"1307","{""pre-3"":2}","[0]","survey-likert","487","1290274","0.0-487.0","gejyz804","","","","","",""
"1949","{""post-5"":1}","[0]","survey-likert","488","1292224","0.0-488.0","gejyz804","","","","","",""
"","","","call-function","489","1292225","0.0-489.0","gejyz804","","","","","",""
"null","","","video-keyboard-response","490","1295317","0.0-490.0","gejyz804","","","","null","Agent A","STIM_SET_1_REAL/498253.bmp_pp67_L2_V1.0_scrambled_freeview_isoFalse_fps144.mp4"
"","","","call-function","491","1295317","0.0-491.0","gejyz804","","","","","",""
"6015.600000023842","{""pre-1"":2}","[0]","survey-likert","492","1301333","0.0-492.0","gejyz804","","","","","",""
"1104.8999999761581","{""pre-2"":2}","[0]","survey-likert","493","1302439","0.0-493.0","gejyz804","","","","","",""
"983.2000000476837","{""pre-3"":2}","[0]","survey-likert","494","1303423","0.0-494.0","gejyz804","","","","","",""
"1329","{""post-5"":1}","[0]","survey-likert","495","1304753","0.0-495.0","gejyz804","","","","","",""
"","","","call-function","496","1304754","0.0-496.0","gejyz804","","","","","",""
"null","","","video-keyboard-response","497","1307851","0.0-497.0","gejyz804","","","","null","Agent A","STIM_SET_1_REAL/713707.bmp_pp154_L1_V1.0_veridical_freeview_isoFalse_fps144.mp4"
"","","","call-function","498","1307851","0.0-498.0","gejyz804","","","","","",""
"2536.100000023842","{""pre-1"":2}","[0]","survey-likert","499","1310388","0.0-499.0","gejyz804","","","","","",""
"981","{""pre-2"":2}","[0]","survey-likert","500","1311370","0.0-500.0","gejyz804","","","","","",""
"1627.1000000238419","{""pre-3"":2}","[0]","survey-likert","501","1312998","0.0-501.0","gejyz804","","","","","",""
"1501","{""post-5"":1}","[0]","survey-likert","502","1314500","0.0-502.0","gejyz804","","","","","",""
"","","","call-function","503","1314501","0.0-503.0","gejyz804","","","","","",""
"null","","","video-keyboard-response","504","1317579","0.0-504.0","gejyz804","","","","null","Agent A","STIM_SET_1_REAL/713089.bmp_pp60_L3_V1.0_veridical_freeview_isoFalse_fps144.mp4"
"","","","call-function","505","1317579","0.0-505.0","gejyz804","","","","","",""
"1993.2000000476837","{""pre-1"":2}","[0]","survey-likert","506","1319573","0.0-506.0","gejyz804","","","","","",""
"1021.8999999761581","{""pre-2"":2}","[0]","survey-likert","507","1320596","0.0-507.0","gejyz804","","","","","",""
"1283","{""pre-3"":2}","[0]","survey-likert","508","1321880","0.0-508.0","gejyz804","","","","","",""
"1145","{""post-5"":0}","[0]","survey-likert","509","1323026","0.0-509.0","gejyz804","","","","","",""
"","","","call-function","510","1323027","0.0-510.0","gejyz804","","","","","",""
"null","","","video-keyboard-response","511","1326100","0.0-511.0","gejyz804","","","","null","Agent A","STIM_SET_1_REAL/1593035.bmp_pp94_L2_V1.0_veridical_freeview_isoFalse_fps144.mp4"
"","","","call-function","512","1326100","0.0-512.0","gejyz804","","","","","",""
"4626.300000071526","{""pre-1"":1}","[0]","survey-likert","513","1330727","0.0-513.0","gejyz804","","","","","",""
"1023.8999999761581","{""pre-2"":1}","[0]","survey-likert","514","1331752","0.0-514.0","gejyz804","","","","","",""
"1567.8999999761581","{""pre-3"":1}","[0]","survey-likert","515","1333321","0.0-515.0","gejyz804","","","","","",""
"1339.2000000476837","{""post-5"":2}","[0]","survey-likert","516","1334661","0.0-516.0","gejyz804","","","","","",""
"","","","call-function","517","1334662","0.0-517.0","gejyz804","","","","","",""
"null","","","video-keyboard-response","518","1337731","0.0-518.0","gejyz804","","","","null","Agent A","STIM_SET_1_REAL/285994.bmp_pp92_L3_V1.0_veridical_freeview_isoFalse_fps144.mp4"
"","","","call-function","519","1337731","0.0-519.0","gejyz804","","","","","",""
"1795.3000000715256","{""pre-1"":2}","[0]","survey-likert","520","1339527","0.0-520.0","gejyz804","","","","","",""
"1315.8999999761581","{""pre-2"":2}","[0]","survey-likert","521","1340844","0.0-521.0","gejyz804","","","","","",""
"1961.2999999523163","{""pre-3"":2}","[0]","survey-likert","522","1342807","0.0-522.0","gejyz804","","","","","",""
"1525.5","{""post-5"":1}","[0]","survey-likert","523","1344333","0.0-523.0","gejyz804","","","","","",""
"","","","call-function","524","1344334","0.0-524.0","gejyz804","","","","","",""
"null","","","video-keyboard-response","525","1347418","0.0-525.0","gejyz804","","","","null","Agent A","STIM_SET_1_REAL/713211.bmp_pp100_L3_V1.0_veridical_freeview_isoFalse_fps144.mp4"
"","","","call-function","526","1347418","0.0-526.0","gejyz804","","","","","",""
"3930.399999976158","{""pre-1"":2}","[0]","survey-likert","527","1351349","0.0-527.0","gejyz804","","","","","",""
"1969.7999999523163","{""pre-2"":2}","[0]","survey-likert","528","1353320","0.0-528.0","gejyz804","","","","","",""
"1546.1000000238419","{""pre-3"":2}","[0]","survey-likert","529","1354867","0.0-529.0","gejyz804","","","","","",""
"1864.1000000238419","{""post-5"":0}","[0]","survey-likert","530","1356732","0.0-530.0","gejyz804","","","","","",""
"","","","call-function","531","1356733","0.0-531.0","gejyz804","","","","","",""
"null","","","video-keyboard-response","532","1359848","0.0-532.0","gejyz804","","","","null","Agent A","STIM_SET_1_REAL/713593.bmp_pp64_L1_V1.0_scrambled_freeview_isoFalse_fps144.mp4"
"","","","call-function","533","1359848","0.0-533.0","gejyz804","","","","","",""
"3523.2999999523163","{""pre-1"":2}","[0]","survey-likert","534","1363372","0.0-534.0","gejyz804","","","","","",""
"1740","{""pre-2"":3}","[0]","survey-likert","535","1365113","0.0-535.0","gejyz804","","","","","",""
"1874.7999999523163","{""pre-3"":2}","[0]","survey-likert","536","1366989","0.0-536.0","gejyz804","","","","","",""
"1836.7999999523163","{""post-5"":0}","[0]","survey-likert","537","1368827","0.0-537.0","gejyz804","","","","","",""
"","","","call-function","538","1368828","0.0-538.0","gejyz804","","","","","",""
"null","","","video-keyboard-response","539","1371931","0.0-539.0","gejyz804","","","","null","Agent A","STIM_SET_1_REAL/498253.bmp_pp67_L2_V1.0_veridical_freeview_isoFalse_fps144.mp4"
"","","","call-function","540","1371931","0.0-540.0","gejyz804","","","","","",""
"1869.3000000715256","{""pre-1"":1}","[0]","survey-likert","541","1373801","0.0-541.0","gejyz804","","","","","",""
"2231.100000023842","{""pre-2"":1}","[0]","survey-likert","542","1376033","0.0-542.0","gejyz804","","","","","",""
"1378","{""pre-3"":1}","[0]","survey-likert","543","1377412","0.0-543.0","gejyz804","","","","","",""
"1546.1000000238419","{""post-5"":2}","[0]","survey-likert","544","1378959","0.0-544.0","gejyz804","","","","","",""
"","","","call-function","545","1378960","0.0-545.0","gejyz804","","","","","",""
"null","","","video-keyboard-response","546","1382041","0.0-546.0","gejyz804","","","","null","Agent A","STIM_SET_1_REAL/285751.bmp_pp55_L3_V1.0_scrambled_freeview_isoFalse_fps144.mp4"
"","","","call-function","547","1382042","0.0-547.0","gejyz804","","","","","",""
"3831.100000023842","{""pre-1"":1}","[0]","survey-likert","548","1385873","0.0-548.0","gejyz804","","","","","",""
"1104","{""pre-2"":1}","[0]","survey-likert","549","1386978","0.0-549.0","gejyz804","","","","","",""
"1411","{""pre-3"":1}","[0]","survey-likert","550","1388391","0.0-550.0","gejyz804","","","","","",""
"1547.6000000238419","{""post-5"":2}","[0]","survey-likert","551","1389939","0.0-551.0","gejyz804","","","","","",""
"","","","call-function","552","1389940","0.0-552.0","gejyz804","","","","","",""
"null","","","video-keyboard-response","553","1393013","0.0-553.0","gejyz804","","","","null","Agent A","STIM_SET_1_REAL/1592133.bmp_pp75_L1_V1.0_veridical_freeview_isoFalse_fps144.mp4"
"","","","call-function","554","1393013","0.0-554.0","gejyz804","","","","","",""
"5021.100000023842","{""pre-1"":1}","[0]","survey-likert","555","1398035","0.0-555.0","gejyz804","","","","","",""
"1139.2000000476837","{""pre-2"":1}","[0]","survey-likert","556","1399175","0.0-556.0","gejyz804","","","","","",""
"1826.7999999523163","{""pre-3"":1}","[0]","survey-likert","557","1401003","0.0-557.0","gejyz804","","","","","",""
"1775","{""post-5"":2}","[0]","survey-likert","558","1402779","0.0-558.0","gejyz804","","","","","",""
"","","","call-function","559","1402780","0.0-559.0","gejyz804","","","","","",""
"null","","","video-keyboard-response","560","1405895","0.0-560.0","gejyz804","","","","null","Agent A","STIM_SET_1_REAL/1592807.bmp_pp68_L1_V1.0_scrambled_freeview_isoFalse_fps144.mp4"
"","","","call-function","561","1405895","0.0-561.0","gejyz804","","","","","",""
"3973.7999999523163","{""pre-1"":2}","[0]","survey-likert","562","1409870","0.0-562.0","gejyz804","","","","","",""
"1575.5","{""pre-2"":2}","[0]","survey-likert","563","1411446","0.0-563.0","gejyz804","","","","","",""
"1158.1000000238419","{""pre-3"":2}","[0]","survey-likert","564","1412605","0.0-564.0","gejyz804","","","","","",""
"1685.8999999761581","{""post-5"":1}","[0]","survey-likert","565","1414292","0.0-565.0","gejyz804","","","","","",""
"","","","call-function","566","1414293","0.0-566.0","gejyz804","","","","","",""
"null","","","video-keyboard-response","567","1417374","0.0-567.0","gejyz804","","","","null","Agent A","STIM_SET_1_REAL/1592727.bmp_pp59_L3_V1.0_scrambled_freeview_isoFalse_fps144.mp4"
"","","","call-function","568","1417374","0.0-568.0","gejyz804","","","","","",""
"3445.5","{""pre-1"":1}","[0]","survey-likert","569","1420820","0.0-569.0","gejyz804","","","","","",""
"1942.1000000238419","{""pre-2"":1}","[0]","survey-likert","570","1422763","0.0-570.0","gejyz804","","","","","",""
"1618.1000000238419","{""pre-3"":1}","[0]","survey-likert","571","1424382","0.0-571.0","gejyz804","","","","","",""
"1445.1000000238419","{""post-5"":2}","[0]","survey-likert","572","1425828","0.0-572.0","gejyz804","","","","","",""
"","","","call-function","573","1425829","0.0-573.0","gejyz804","","","","","",""
"null","","","video-keyboard-response","574","1428913","0.0-574.0","gejyz804","","","","null","Agent A","STIM_SET_1_REAL/1159777.bmp_pp77_L3_V1.0_scrambled_freeview_isoFalse_fps144.mp4"
"","","","call-function","575","1428914","0.0-575.0","gejyz804","","","","","",""
"2751.8000000715256","{""pre-1"":0}","[0]","survey-likert","576","1431667","0.0-576.0","gejyz804","","","","","",""
"4636.899999976158","{""pre-2"":1}","[0]","survey-likert","577","1436305","0.0-577.0","gejyz804","","","","","",""
"1743.8999999761581","{""pre-3"":0}","[0]","survey-likert","578","1438049","0.0-578.0","gejyz804","","","","","",""
"1158.8000000715256","{""post-5"":2}","[0]","survey-likert","579","1439209","0.0-579.0","gejyz804","","","","","",""
"","","","call-function","580","1439210","0.0-580.0","gejyz804","","","","","",""
"null","","","video-keyboard-response","581","1442295","0.0-581.0","gejyz804","","","","null","Agent A","STIM_SET_1_REAL/1592581.bmp_pp100_L3_V1.0_scrambled_freeview_isoFalse_fps144.mp4"
"","","","call-function","582","1442295","0.0-582.0","gejyz804","","","","","",""
"1488.3999999761581","{""pre-1"":1}","[0]","survey-likert","583","1443784","0.0-583.0","gejyz804","","","","","",""
"1331","{""pre-2"":1}","[0]","survey-likert","584","1445116","0.0-584.0","gejyz804","","","","","",""
"993.1000000238419","{""pre-3"":1}","[0]","survey-likert","585","1446110","0.0-585.0","gejyz804","","","","","",""
"1104.1000000238419","{""post-5"":2}","[0]","survey-likert","586","1447215","0.0-586.0","gejyz804","","","","","",""
"45214.200000047684","","","instructions","587","1492430","0.0-587.0","gejyz804","[{""page_index"":0,""viewing_time"":5096.100000023842},{""page_index"":1,""viewing_time"":39456},{""page_index"":2,""viewing_time"":662}]","","","","",""
"5114.700000047684","","","instructions","588","1497545","0.0-588.0","gejyz804","[{""page_index"":0,""viewing_time"":612.5},{""page_index"":1,""viewing_time"":3528},{""page_index"":2,""viewing_time"":974.1000000238419}]","","","","",""
"","","","call-function","589","1497546","0.0-589.0","gejyz804","","","","","",""
"null","","","video-keyboard-response","590","1500619","0.0-590.0","gejyz804","","","","null","Agent A","STIM_SET_1_REAL/713681.bmp_pp86_L2_V1.0_veridical_freeview_isoFalse_fps144.mp4"
"","","","call-function","591","1500620","0.0-591.0","gejyz804","","","","","",""
"1888.3000000715256","{""pre-1"":1}","[0]","survey-likert","592","1502509","0.0-592.0","gejyz804","","","","","",""
"1590.7000000476837","{""pre-2"":1}","[0]","survey-likert","593","1504101","0.0-593.0","gejyz804","","","","","",""
"1148.7999999523163","{""pre-3"":1}","[0]","survey-likert","594","1505251","0.0-594.0","gejyz804","","","","","",""
"1429.7999999523163","{""post-5"":2}","[0]","survey-likert","595","1506681","0.0-595.0","gejyz804","","","","","",""
"","","","call-function","596","1506682","0.0-596.0","gejyz804","","","","","",""
"null","","","video-keyboard-response","597","1509757","0.0-597.0","gejyz804","","","","null","Agent A","STIM_SET_1_REAL/1159572.bmp_pp71_L1_V1.0_veridical_freeview_isoFalse_fps144.mp4"
"","","","call-function","598","1509757","0.0-598.0","gejyz804","","","","","",""
"2418.5999999046326","{""pre-1"":1}","[0]","survey-likert","599","1512177","0.0-599.0","gejyz804","","","","","",""
"1230.8999999761581","{""pre-2"":1}","[0]","survey-likert","600","1513408","0.0-600.0","gejyz804","","","","","",""
"1047.1000000238419","{""pre-3"":1}","[0]","survey-likert","601","1514457","0.0-601.0","gejyz804","","","","","",""
"1549.6000000238419","{""post-5"":2}","[0]","survey-likert","602","1516007","0.0-602.0","gejyz804","","","","","",""
"","","","call-function","603","1516008","0.0-603.0","gejyz804","","","","","",""
"null","","","video-keyboard-response","604","1519090","0.0-604.0","gejyz804","","","","null","Agent A","STIM_SET_1_REAL/713017.bmp_pp152_L2_V1.0_veridical_freeview_isoFalse_fps144.mp4"
"","","","call-function","605","1519090","0.0-605.0","gejyz804","","","","","",""
"1901.8000000715256","{""pre-1"":2}","[0]","survey-likert","606","1520993","0.0-606.0","gejyz804","","","","","",""
"1298.8999999761581","{""pre-2"":2}","[0]","survey-likert","607","1522293","0.0-607.0","gejyz804","","","","","",""
"1428.1999999284744","{""pre-3"":2}","[0]","survey-likert","608","1523722","0.0-608.0","gejyz804","","","","","",""
"1857.1000000238419","{""post-5"":1}","[0]","survey-likert","609","1525580","0.0-609.0","gejyz804","","","","","",""
"","","","call-function","610","1525581","0.0-610.0","gejyz804","","","","","",""
"null","","","video-keyboard-response","611","1528666","0.0-611.0","gejyz804","","","","null","Agent A","STIM_SET_1_REAL/713760.bmp_pp81_L1_V1.0_scrambled_freeview_isoFalse_fps144.mp4"
"","","","call-function","612","1528666","0.0-612.0","gejyz804","","","","","",""
"3265.899999976158","{""pre-1"":2}","[0]","survey-likert","613","1531932","0.0-613.0","gejyz804","","","","","",""
"1421","{""pre-2"":2}","[0]","survey-likert","614","1533354","0.0-614.0","gejyz804","","","","","",""
"1429","{""pre-3"":2}","[0]","survey-likert","615","1534784","0.0-615.0","gejyz804","","","","","",""
"1412.2000000476837","{""post-5"":1}","[0]","survey-likert","616","1536198","0.0-616.0","gejyz804","","","","","",""
"","","","call-function","617","1536198","0.0-617.0","gejyz804","","","","","",""
"null","","","video-keyboard-response","618","1539290","0.0-618.0","gejyz804","","","","null","Agent A","STIM_SET_1_REAL/497950.bmp_pp151_L1_V1.0_veridical_freeview_isoFalse_fps144.mp4"
"","","","call-function","619","1539290","0.0-619.0","gejyz804","","","","","",""
"1847","{""pre-1"":1}","[0]","survey-likert","620","1541138","0.0-620.0","gejyz804","","","","","",""
"1541.3999999761581","{""pre-2"":1}","[0]","survey-likert","621","1542680","0.0-621.0","gejyz804","","","","","",""
"1088.1000000238419","{""pre-3"":1}","[0]","survey-likert","622","1543770","0.0-622.0","gejyz804","","","","","",""
"1246.8999999761581","{""post-5"":2}","[0]","survey-likert","623","1545018","0.0-623.0","gejyz804","","","","","",""
"","","","call-function","624","1545018","0.0-624.0","gejyz804","","","","","",""
"null","","","video-keyboard-response","625","1548096","0.0-625.0","gejyz804","","","","null","Agent A","STIM_SET_1_REAL/498111.bmp_pp88_L2_V1.0_veridical_freeview_isoFalse_fps144.mp4"
"","","","call-function","626","1548096","0.0-626.0","gejyz804","","","","","",""
"2441.9000000953674","{""pre-1"":2}","[0]","survey-likert","627","1550539","0.0-627.0","gejyz804","","","","","",""
"1064.7000000476837","{""pre-2"":2}","[0]","survey-likert","628","1551605","0.0-628.0","gejyz804","","","","","",""
"943","{""pre-3"":2}","[0]","survey-likert","629","1552549","0.0-629.0","gejyz804","","","","","",""
"2275.6999999284744","{""post-5"":1}","[0]","survey-likert","630","1554825","0.0-630.0","gejyz804","","","","","",""
"","","","call-function","631","1554826","0.0-631.0","gejyz804","","","","","",""
"null","","","video-keyboard-response","632","1557893","0.0-632.0","gejyz804","","","","null","Agent A","STIM_SET_1_REAL/1592581.bmp_pp100_L3_V1.0_veridical_freeview_isoFalse_fps144.mp4"
"","","","call-function","633","1557893","0.0-633.0","gejyz804","","","","","",""
"2030.5","{""pre-1"":0}","[0]","survey-likert","634","1559925","0.0-634.0","gejyz804","","","","","",""
"1359.1000000238419","{""pre-2"":0}","[0]","survey-likert","635","1561285","0.0-635.0","gejyz804","","","","","",""
"3343.899999976158","{""pre-3"":0}","[0]","survey-likert","636","1564630","0.0-636.0","gejyz804","","","","","",""
"1483.8999999761581","{""post-5"":2}","[0]","survey-likert","637","1566115","0.0-637.0","gejyz804","","","","","",""
"","","","call-function","638","1566115","0.0-638.0","gejyz804","","","","","",""
"null","","","video-keyboard-response","639","1569239","0.0-639.0","gejyz804","","","","null","Agent A","STIM_SET_1_REAL/1592397.bmp_pp85_L3_V1.0_veridical_freeview_isoFalse_fps144.mp4"
"","","","call-function","640","1569240","0.0-640.0","gejyz804","","","","","",""
"2958","{""pre-1"":3}","[0]","survey-likert","641","1572199","0.0-641.0","gejyz804","","","","","",""
"1371.7999999523163","{""pre-2"":3}","[0]","survey-likert","642","1573571","0.0-642.0","gejyz804","","","","","",""
"3256.3000000715256","{""pre-3"":3}","[0]","survey-likert","643","1576829","0.0-643.0","gejyz804","","","","","",""
"1337","{""post-5"":0}","[0]","survey-likert","644","1578167","0.0-644.0","gejyz804","","","","","",""
"","","","call-function","645","1578167","0.0-645.0","gejyz804","","","","","",""
"null","","","video-keyboard-response","646","1581268","0.0-646.0","gejyz804","","","","null","Agent A","STIM_SET_1_REAL/713135.bmp_pp54_L2_V1.0_veridical_freeview_isoFalse_fps144.mp4"
"","","","call-function","647","1581268","0.0-647.0","gejyz804","","","","","",""
"4461.399999976158","{""pre-1"":2}","[0]","survey-likert","648","1585731","0.0-648.0","gejyz804","","","","","",""
"2516.8000000715256","{""pre-2"":1}","[0]","survey-likert","649","1588249","0.0-649.0","gejyz804","","","","","",""
"1008.8999999761581","{""pre-3"":1}","[0]","survey-likert","650","1589259","0.0-650.0","gejyz804","","","","","",""
"1916","{""post-5"":2}","[0]","survey-likert","651","1591176","0.0-651.0","gejyz804","","","","","",""
"","","","call-function","652","1591176","0.0-652.0","gejyz804","","","","","",""
"null","","","video-keyboard-response","653","1594383","0.0-653.0","gejyz804","","","","null","Agent A","STIM_SET_1_REAL/1159784.bmp_pp73_L3_V1.0_veridical_freeview_isoFalse_fps144.mp4"
"","","","call-function","654","1594384","0.0-654.0","gejyz804","","","","","",""
"5613.700000047684","{""pre-1"":1}","[0]","survey-likert","655","1599999","0.0-655.0","gejyz804","","","","","",""
"919.8999999761581","{""pre-2"":1}","[0]","survey-likert","656","1600920","0.0-656.0","gejyz804","","","","","",""
"1001","{""pre-3"":1}","[0]","survey-likert","657","1601921","0.0-657.0","gejyz804","","","","","",""
"1575.3000000715256","{""post-5"":2}","[0]","survey-likert","658","1603498","0.0-658.0","gejyz804","","","","","",""
"","","","call-function","659","1603498","0.0-659.0","gejyz804","","","","","",""
"null","","","video-keyboard-response","660","1606585","0.0-660.0","gejyz804","","","","null","Agent A","STIM_SET_1_REAL/61537.bmp_pp73_L3_V1.0_veridical_freeview_isoFalse_fps144.mp4"
"","","","call-function","661","1606585","0.0-661.0","gejyz804","","","","","",""
"1414.2999999523163","{""pre-1"":2}","[0]","survey-likert","662","1608001","0.0-662.0","gejyz804","","","","","",""
"1116.8999999761581","{""pre-2"":2}","[0]","survey-likert","663","1609119","0.0-663.0","gejyz804","","","","","",""
"2703","{""pre-3"":2}","[0]","survey-likert","664","1611823","0.0-664.0","gejyz804","","","","","",""
"1293.9000000953674","{""post-5"":1}","[0]","survey-likert","665","1613118","0.0-665.0","gejyz804","","","","","",""
"","","","call-function","666","1613119","0.0-666.0","gejyz804","","","","","",""
"null","","","video-keyboard-response","667","1616203","0.0-667.0","gejyz804","","","","null","Agent A","STIM_SET_1_REAL/1592397.bmp_pp85_L3_V1.0_scrambled_freeview_isoFalse_fps144.mp4"
"","","","call-function","668","1616203","0.0-668.0","gejyz804","","","","","",""
"1821.8000000715256","{""pre-1"":3}","[0]","survey-likert","669","1618026","0.0-669.0","gejyz804","","","","","",""
"1462.2000000476837","{""pre-2"":3}","[0]","survey-likert","670","1619489","0.0-670.0","gejyz804","","","","","",""
"1474","{""pre-3"":3}","[0]","survey-likert","671","1620964","0.0-671.0","gejyz804","","","","","",""
"1705.8999999761581","{""post-5"":0}","[0]","survey-likert","672","1622671","0.0-672.0","gejyz804","","","","","",""
"","","","call-function","673","1622671","0.0-673.0","gejyz804","","","","","",""
"null","","","video-keyboard-response","674","1625744","0.0-674.0","gejyz804","","","","null","Agent A","STIM_SET_1_REAL/1592351.bmp_pp51_L1_V1.0_veridical_freeview_isoFalse_fps144.mp4"
"","","","call-function","675","1625744","0.0-675.0","gejyz804","","","","","",""
"1934.5","{""pre-1"":1}","[0]","survey-likert","676","1627680","0.0-676.0","gejyz804","","","","","",""
"1132.8999999761581","{""pre-2"":1}","[0]","survey-likert","677","1628814","0.0-677.0","gejyz804","","","","","",""
"993.7000000476837","{""pre-3"":1}","[0]","survey-likert","678","1629809","0.0-678.0","gejyz804","","","","","",""
"1463","{""post-5"":2}","[0]","survey-likert","679","1631273","0.0-679.0","gejyz804","","","","","",""
"","","","call-function","680","1631273","0.0-680.0","gejyz804","","","","","",""
"null","","","video-keyboard-response","681","1634362","0.0-681.0","gejyz804","","","","null","Agent A","STIM_SET_1_REAL/1159515.bmp_pp84_L3_V1.0_scrambled_freeview_isoFalse_fps144.mp4"
"","","","call-function","682","1634362","0.0-682.0","gejyz804","","","","","",""
"2933.2000000476837","{""pre-1"":2}","[0]","survey-likert","683","1637296","0.0-683.0","gejyz804","","","","","",""
"1087.5","{""pre-2"":2}","[0]","survey-likert","684","1638385","0.0-684.0","gejyz804","","","","","",""
"1949.1000000238419","{""pre-3"":1}","[0]","survey-likert","685","1640335","0.0-685.0","gejyz804","","","","","",""
"2128","{""post-5"":1}","[0]","survey-likert","686","1642464","0.0-686.0","gejyz804","","","","","",""
"","","","call-function","687","1642464","0.0-687.0","gejyz804","","","","","",""
"null","","","video-keyboard-response","688","1645542","0.0-688.0","gejyz804","","","","null","Agent A","STIM_SET_1_REAL/1159621.bmp_pp92_L3_V1.0_veridical_freeview_isoFalse_fps144.mp4"
"","","","call-function","689","1645542","0.0-689.0","gejyz804","","","","","",""
"4492.600000023842","{""pre-1"":2}","[0]","survey-likert","690","1650036","0.0-690.0","gejyz804","","","","","",""
"3372.100000023842","{""pre-2"":1}","[0]","survey-likert","691","1653409","0.0-691.0","gejyz804","","","","","",""
"1292.7000000476837","{""pre-3"":1}","[0]","survey-likert","692","1654703","0.0-692.0","gejyz804","","","","","",""
"1663.1000000238419","{""post-5"":2}","[0]","survey-likert","693","1656367","0.0-693.0","gejyz804","","","","","",""
"","","","call-function","694","1656367","0.0-694.0","gejyz804","","","","","",""
"null","","","video-keyboard-response","695","1659457","0.0-695.0","gejyz804","","","","null","Agent A","STIM_SET_1_REAL/1159621.bmp_pp92_L3_V1.0_scrambled_freeview_isoFalse_fps144.mp4"
"","","","call-function","696","1659458","0.0-696.0","gejyz804","","","","","",""
"2390.5","{""pre-1"":2}","[0]","survey-likert","697","1661849","0.0-697.0","gejyz804","","","","","",""
"2370.5","{""pre-2"":2}","[0]","survey-likert","698","1664221","0.0-698.0","gejyz804","","","","","",""
"1158.1000000238419","{""pre-3"":2}","[0]","survey-likert","699","1665380","0.0-699.0","gejyz804","","","","","",""
"1553.8000000715256","{""post-5"":1}","[0]","survey-likert","700","1666935","0.0-700.0","gejyz804","","","","","",""
"","","","call-function","701","1666935","0.0-701.0","gejyz804","","","","","",""
"null","","","video-keyboard-response","702","1670020","0.0-702.0","gejyz804","","","","null","Agent A","STIM_SET_1_REAL/61537.bmp_pp73_L3_V1.0_scrambled_freeview_isoFalse_fps144.mp4"
"","","","call-function","703","1670020","0.0-703.0","gejyz804","","","","","",""
"1984.8000000715256","{""pre-1"":2}","[0]","survey-likert","704","1672006","0.0-704.0","gejyz804","","","","","",""
"1168.9000000953674","{""pre-2"":2}","[0]","survey-likert","705","1673176","0.0-705.0","gejyz804","","","","","",""
"1241","{""pre-3"":2}","[0]","survey-likert","706","1674418","0.0-706.0","gejyz804","","","","","",""
"1118","{""post-5"":1}","[0]","survey-likert","707","1675537","0.0-707.0","gejyz804","","","","","",""
"","","","call-function","708","1675537","0.0-708.0","gejyz804","","","","","",""
"null","","","video-keyboard-response","709","1678602","0.0-709.0","gejyz804","","","","null","Agent A","STIM_SET_1_REAL/286001.bmp_pp54_L2_V1.0_scrambled_freeview_isoFalse_fps144.mp4"
"","","","call-function","710","1678602","0.0-710.0","gejyz804","","","","","",""
"2596.1999999284744","{""pre-1"":1}","[0]","survey-likert","711","1681199","0.0-711.0","gejyz804","","","","","",""
"989.5","{""pre-2"":1}","[0]","survey-likert","712","1682190","0.0-712.0","gejyz804","","","","","",""
"2392.100000023842","{""pre-3"":1}","[0]","survey-likert","713","1684583","0.0-713.0","gejyz804","","","","","",""
"1351.8999999761581","{""post-5"":2}","[0]","survey-likert","714","1685936","0.0-714.0","gejyz804","","","","","",""
"","","","call-function","715","1685936","0.0-715.0","gejyz804","","","","","",""
"null","","","video-keyboard-response","716","1689053","0.0-716.0","gejyz804","","","","null","Agent A","STIM_SET_1_REAL/713749.bmp_pp88_L2_V1.0_veridical_freeview_isoFalse_fps144.mp4"
"","","","call-function","717","1689053","0.0-717.0","gejyz804","","","","","",""
"8412.600000023842","{""pre-1"":2}","[0]","survey-likert","718","1697467","0.0-718.0","gejyz804","","","","","",""
"1900.8999999761581","{""pre-2"":2}","[0]","survey-likert","719","1699369","0.0-719.0","gejyz804","","","","","",""
"3757.2000000476837","{""pre-3"":1}","[0]","survey-likert","720","1703127","0.0-720.0","gejyz804","","","","","",""
"1692.1000000238419","{""post-5"":1}","[0]","survey-likert","721","1704820","0.0-721.0","gejyz804","","","","","",""
"","","","call-function","722","1704821","0.0-722.0","gejyz804","","","","","",""
"null","","","video-keyboard-response","723","1707913","0.0-723.0","gejyz804","","","","null","Agent A","STIM_SET_1_REAL/713017.bmp_pp152_L2_V1.0_scrambled_freeview_isoFalse_fps144.mp4"
"","","","call-function","724","1707914","0.0-724.0","gejyz804","","","","","",""
"4023.7999999523163","{""pre-1"":2}","[0]","survey-likert","725","1711938","0.0-725.0","gejyz804","","","","","",""
"1463.6000000238419","{""pre-2"":2}","[0]","survey-likert","726","1713403","0.0-726.0","gejyz804","","","","","",""
"1119.8999999761581","{""pre-3"":1}","[0]","survey-likert","727","1714524","0.0-727.0","gejyz804","","","","","",""
"1206.7999999523163","{""post-5"":1}","[0]","survey-likert","728","1715732","0.0-728.0","gejyz804","","","","","",""
"40398.5","","","instructions","729","1756131","0.0-729.0","gejyz804","[{""page_index"":0,""viewing_time"":39518.199999928474},{""page_index"":1,""viewing_time"":809},{""page_index"":2,""viewing_time"":71.10000002384186}]","","","","",""
"2113.5","","","instructions","730","1758245","0.0-730.0","gejyz804","[{""page_index"":0,""viewing_time"":800.3999999761581},{""page_index"":1,""viewing_time"":557.1000000238419},{""page_index"":2,""viewing_time"":756}]","","","","",""
"","","","call-function","731","1758245","0.0-731.0","gejyz804","","","","","",""
"null","","","video-keyboard-response","732","1761348","0.0-732.0","gejyz804","","","","null","Agent A","STIM_SET_1_REAL/713620.bmp_pp65_L3_V1.0_scrambled_freeview_isoFalse_fps144.mp4"
"","","","call-function","733","1761349","0.0-733.0","gejyz804","","","","","",""
"3372.4000000953674","{""pre-1"":2}","[0]","survey-likert","734","1764722","0.0-734.0","gejyz804","","","","","",""
"1274.1000000238419","{""pre-2"":2}","[0]","survey-likert","735","1765997","0.0-735.0","gejyz804","","","","","",""
"1549.7999999523163","{""pre-3"":2}","[0]","survey-likert","736","1767548","0.0-736.0","gejyz804","","","","","",""
"1336.3999999761581","{""post-5"":1}","[0]","survey-likert","737","1768885","0.0-737.0","gejyz804","","","","","",""
"","","","call-function","738","1768886","0.0-738.0","gejyz804","","","","","",""
"null","","","video-keyboard-response","739","1771980","0.0-739.0","gejyz804","","","","null","Agent A","STIM_SET_1_REAL/1159829.bmp_pp91_L3_V1.0_veridical_freeview_isoFalse_fps144.mp4"
"","","","call-function","740","1771980","0.0-740.0","gejyz804","","","","","",""
"1379.1000000238419","{""pre-1"":1}","[0]","survey-likert","741","1773360","0.0-741.0","gejyz804","","","","","",""
"1235","{""pre-2"":1}","[0]","survey-likert","742","1774596","0.0-742.0","gejyz804","","","","","",""
"1005","{""pre-3"":1}","[0]","survey-likert","743","1775602","0.0-743.0","gejyz804","","","","","",""
"1060","{""post-5"":2}","[0]","survey-likert","744","1776663","0.0-744.0","gejyz804","","","","","",""
"","","","call-function","745","1776664","0.0-745.0","gejyz804","","","","","",""
"null","","","video-keyboard-response","746","1779736","0.0-746.0","gejyz804","","","","null","Agent A","STIM_SET_1_REAL/1592133.bmp_pp75_L1_V1.0_scrambled_freeview_isoFalse_fps144.mp4"
"","","","call-function","747","1779737","0.0-747.0","gejyz804","","","","","",""
"1613.2000000476837","{""pre-1"":1}","[0]","survey-likert","748","1781351","0.0-748.0","gejyz804","","","","","",""
"1361.1000000238419","{""pre-2"":1}","[0]","survey-likert","749","1782713","0.0-749.0","gejyz804","","","","","",""
"1197.1000000238419","{""pre-3"":1}","[0]","survey-likert","750","1783911","0.0-750.0","gejyz804","","","","","",""
"2494.899999976158","{""post-5"":2}","[0]","survey-likert","751","1786407","0.0-751.0","gejyz804","","","","","",""
"","","","call-function","752","1786407","0.0-752.0","gejyz804","","","","","",""
"null","","","video-keyboard-response","753","1789478","0.0-753.0","gejyz804","","","","null","Agent A","STIM_SET_1_REAL/713796.bmp_pp84_L3_V1.0_scrambled_freeview_isoFalse_fps144.mp4"
"","","","call-function","754","1789478","0.0-754.0","gejyz804","","","","","",""
"1806.8000000715256","{""pre-1"":2}","[0]","survey-likert","755","1791286","0.0-755.0","gejyz804","","","","","",""
"1147.8999999761581","{""pre-2"":2}","[0]","survey-likert","756","1792435","0.0-756.0","gejyz804","","","","","",""
"2934.100000023842","{""pre-3"":2}","[0]","survey-likert","757","1795370","0.0-757.0","gejyz804","","","","","",""
"1013.8999999761581","{""post-5"":1}","[0]","survey-likert","758","1796385","0.0-758.0","gejyz804","","","","","",""
"","","","call-function","759","1796385","0.0-759.0","gejyz804","","","","","",""
"null","","","video-keyboard-response","760","1799471","0.0-760.0","gejyz804","","","","null","Agent A","STIM_SET_1_REAL/713684.bmp_pp85_L3_V1.0_veridical_freeview_isoFalse_fps144.mp4"
"","","","call-function","761","1799472","0.0-761.0","gejyz804","","","","","",""
"2846.5","{""pre-1"":0}","[0]","survey-likert","762","1802319","0.0-762.0","gejyz804","","","","","",""
"1751.8999999761581","{""pre-2"":0}","[0]","survey-likert","763","1804072","0.0-763.0","gejyz804","","","","","",""
"3744.100000023842","{""pre-3"":1}","[0]","survey-likert","764","1807817","0.0-764.0","gejyz804","","","","","",""
"1071.8999999761581","{""post-5"":2}","[0]","survey-likert","765","1808890","0.0-765.0","gejyz804","","","","","",""
"","","","call-function","766","1808890","0.0-766.0","gejyz804","","","","","",""
"null","","","video-keyboard-response","767","1811971","0.0-767.0","gejyz804","","","","null","Agent A","STIM_SET_1_REAL/1159675.bmp_pp77_L3_V1.0_scrambled_freeview_isoFalse_fps144.mp4"
"","","","call-function","768","1811971","0.0-768.0","gejyz804","","","","","",""
"2352.100000023842","{""pre-1"":1}","[0]","survey-likert","769","1814324","0.0-769.0","gejyz804","","","","","",""
"2293.100000023842","{""pre-2"":1}","[0]","survey-likert","770","1816618","0.0-770.0","gejyz804","","","","","",""
"2481.100000023842","{""pre-3"":0}","[0]","survey-likert","771","1819100","0.0-771.0","gejyz804","","","","","",""
"1453.6000000238419","{""post-5"":2}","[0]","survey-likert","772","1820555","0.0-772.0","gejyz804","","","","","",""
"","","","call-function","773","1820555","0.0-773.0","gejyz804","","","","","",""
"null","","","video-keyboard-response","774","1823630","0.0-774.0","gejyz804","","","","null","Agent A","STIM_SET_1_REAL/713620.bmp_pp65_L3_V1.0_veridical_freeview_isoFalse_fps144.mp4"
"","","","call-function","775","1823630","0.0-775.0","gejyz804","","","","","",""
"2381.3000000715256","{""pre-1"":2}","[0]","survey-likert","776","1826012","0.0-776.0","gejyz804","","","","","",""
"1129.1000000238419","{""pre-2"":2}","[0]","survey-likert","777","1827142","0.0-777.0","gejyz804","","","","","",""
"1441","{""pre-3"":2}","[0]","survey-likert","778","1828584","0.0-778.0","gejyz804","","","","","",""
"1624","{""post-5"":1}","[0]","survey-likert","779","1830209","0.0-779.0","gejyz804","","","","","",""
"","","","call-function","780","1830210","0.0-780.0","gejyz804","","","","","",""
"null","","","video-keyboard-response","781","1833288","0.0-781.0","gejyz804","","","","null","Agent A","STIM_SET_1_REAL/713707.bmp_pp154_L1_V1.0_scrambled_freeview_isoFalse_fps144.mp4"
"","","","call-function","782","1833289","0.0-782.0","gejyz804","","","","","",""
"1942.1000000238419","{""pre-1"":1}","[0]","survey-likert","783","1835232","0.0-783.0","gejyz804","","","","","",""
"3424.100000023842","{""pre-2"":0}","[0]","survey-likert","784","1838657","0.0-784.0","gejyz804","","","","","",""
"1623","{""pre-3"":0}","[0]","survey-likert","785","1840281","0.0-785.0","gejyz804","","","","","",""
"1306.6000000238419","{""post-5"":2}","[0]","survey-likert","786","1841589","0.0-786.0","gejyz804","","","","","",""
"","","","call-function","787","1841589","0.0-787.0","gejyz804","","","","","",""
"null","","","video-keyboard-response","788","1844711","0.0-788.0","gejyz804","","","","null","Agent A","STIM_SET_1_REAL/1160168.bmp_pp53_L2_V1.0_veridical_freeview_isoFalse_fps144.mp4"
"","","","call-function","789","1844712","0.0-789.0","gejyz804","","","","","",""
"2198","{""pre-1"":1}","[0]","survey-likert","790","1846911","0.0-790.0","gejyz804","","","","","",""
"1325.2000000476837","{""pre-2"":1}","[0]","survey-likert","791","1848237","0.0-791.0","gejyz804","","","","","",""
"1097","{""pre-3"":1}","[0]","survey-likert","792","1849335","0.0-792.0","gejyz804","","","","","",""
"1312","{""post-5"":2}","[0]","survey-likert","793","1850648","0.0-793.0","gejyz804","","","","","",""
"","","","call-function","794","1850649","0.0-794.0","gejyz804","","","","","",""
"null","","","video-keyboard-response","795","1853718","0.0-795.0","gejyz804","","","","null","Agent A","STIM_SET_1_REAL/1592286.bmp_pp52_L1_V1.0_scrambled_freeview_isoFalse_fps144.mp4"
"","","","call-function","796","1853718","0.0-796.0","gejyz804","","","","","",""
"6292.700000047684","{""pre-1"":2}","[0]","survey-likert","797","1860012","0.0-797.0","gejyz804","","","","","",""
"1254.1000000238419","{""pre-2"":1}","[0]","survey-likert","798","1861267","0.0-798.0","gejyz804","","","","","",""
"1053.8999999761581","{""pre-3"":1}","[0]","survey-likert","799","1862322","0.0-799.0","gejyz804","","","","","",""
"1298.7999999523163","{""post-5"":1}","[0]","survey-likert","800","1863622","0.0-800.0","gejyz804","","","","","",""
"","","","call-function","801","1863623","0.0-801.0","gejyz804","","","","","",""
"null","","","video-keyboard-response","802","1866738","0.0-802.0","gejyz804","","","","null","Agent A","STIM_SET_1_REAL/1159855.bmp_pp99_L2_V1.0_scrambled_freeview_isoFalse_fps144.mp4"
"","","","call-function","803","1866739","0.0-803.0","gejyz804","","","","","",""
"1526.5","{""pre-1"":3}","[0]","survey-likert","804","1868266","0.0-804.0","gejyz804","","","","","",""
"1833.1000000238419","{""pre-2"":3}","[0]","survey-likert","805","1870100","0.0-805.0","gejyz804","","","","","",""
"1373.2999999523163","{""pre-3"":2}","[0]","survey-likert","806","1871474","0.0-806.0","gejyz804","","","","","",""
"1148.6000000238419","{""post-5"":1}","[0]","survey-likert","807","1872624","0.0-807.0","gejyz804","","","","","",""
"","","","call-function","808","1872625","0.0-808.0","gejyz804","","","","","",""
"null","","","video-keyboard-response","809","1875711","0.0-809.0","gejyz804","","","","null","Agent A","STIM_SET_1_REAL/1160127.bmp_pp90_L2_V1.0_veridical_freeview_isoFalse_fps144.mp4"
"","","","call-function","810","1875711","0.0-810.0","gejyz804","","","","","",""
"3776.899999976158","{""pre-1"":2}","[0]","survey-likert","811","1879489","0.0-811.0","gejyz804","","","","","",""
"1457.0999999046326","{""pre-2"":1}","[0]","survey-likert","812","1880947","0.0-812.0","gejyz804","","","","","",""
"1018.7999999523163","{""pre-3"":1}","[0]","survey-likert","813","1881967","0.0-813.0","gejyz804","","","","","",""
"2933","{""post-5"":1}","[0]","survey-likert","814","1884901","0.0-814.0","gejyz804","","","","","",""
"","","","call-function","815","1884902","0.0-815.0","gejyz804","","","","","",""
"null","","","video-keyboard-response","816","1888021","0.0-816.0","gejyz804","","","","null","Agent A","STIM_SET_1_REAL/713666.bmp_pp97_L3_V1.0_veridical_freeview_isoFalse_fps144.mp4"
"","","","call-function","817","1888022","0.0-817.0","gejyz804","","","","","",""
"3173.600000023842","{""pre-1"":2}","[0]","survey-likert","818","1891196","0.0-818.0","gejyz804","","","","","",""
"4949.899999976158","{""pre-2"":2}","[0]","survey-likert","819","1896147","0.0-819.0","gejyz804","","","","","",""
"1863.1000000238419","{""pre-3"":2}","[0]","survey-likert","820","1898011","0.0-820.0","gejyz804","","","","","",""
"1082.5","{""post-5"":1}","[0]","survey-likert","821","1899095","0.0-821.0","gejyz804","","","","","",""
"","","","call-function","822","1899096","0.0-822.0","gejyz804","","","","","",""
"null","","","video-keyboard-response","823","1902182","0.0-823.0","gejyz804","","","","null","Agent A","STIM_SET_1_REAL/285933.bmp_pp81_L1_V1.0_veridical_freeview_isoFalse_fps144.mp4"
"","","","call-function","824","1902182","0.0-824.0","gejyz804","","","","","",""
"2523.3000000715256","{""pre-1"":2}","[0]","survey-likert","825","1904706","0.0-825.0","gejyz804","","","","","",""
"1238.8999999761581","{""pre-2"":2}","[0]","survey-likert","826","1905946","0.0-826.0","gejyz804","","","","","",""
"1805","{""pre-3"":2}","[0]","survey-likert","827","1907752","0.0-827.0","gejyz804","","","","","",""
"1510.8999999761581","{""post-5"":0}","[0]","survey-likert","828","1909264","0.0-828.0","gejyz804","","","","","",""
"","","","call-function","829","1909265","0.0-829.0","gejyz804","","","","","",""
"null","","","video-keyboard-response","830","1912340","0.0-830.0","gejyz804","","","","null","Agent A","STIM_SET_1_REAL/1160168.bmp_pp53_L2_V1.0_scrambled_freeview_isoFalse_fps144.mp4"
"","","","call-function","831","1912341","0.0-831.0","gejyz804","","","","","",""
"3911.899999976158","{""pre-1"":2}","[0]","survey-likert","832","1916253","0.0-832.0","gejyz804","","","","","",""
"4065.399999976158","{""pre-2"":1}","[0]","survey-likert","833","1920320","0.0-833.0","gejyz804","","","","","",""
"1972.8999999761581","{""pre-3"":0}","[0]","survey-likert","834","1922294","0.0-834.0","gejyz804","","","","","",""
"1485.6999999284744","{""post-5"":2}","[0]","survey-likert","835","1923781","0.0-835.0","gejyz804","","","","","",""
"","","","call-function","836","1923782","0.0-836.0","gejyz804","","","","","",""
"null","","","video-keyboard-response","837","1926889","0.0-837.0","gejyz804","","","","null","Agent A","STIM_SET_1_REAL/1593146.bmp_pp93_L1_V1.0_scrambled_freeview_isoFalse_fps144.mp4"
"","","","call-function","838","1926889","0.0-838.0","gejyz804","","","","","",""
"2641.7000000476837","{""pre-1"":3}","[0]","survey-likert","839","1929532","0.0-839.0","gejyz804","","","","","",""
"1401.2999999523163","{""pre-2"":2}","[0]","survey-likert","840","1930934","0.0-840.0","gejyz804","","","","","",""
"2028.7000000476837","{""pre-3"":2}","[0]","survey-likert","841","1932964","0.0-841.0","gejyz804","","","","","",""
"1950.8000000715256","{""post-5"":0}","[0]","survey-likert","842","1934916","0.0-842.0","gejyz804","","","","","",""
"","","","call-function","843","1934917","0.0-843.0","gejyz804","","","","","",""
"null","","","video-keyboard-response","844","1937992","0.0-844.0","gejyz804","","","","null","Agent A","STIM_SET_1_REAL/713513.bmp_pp62_L2_V1.0_scrambled_freeview_isoFalse_fps144.mp4"
"","","","call-function","845","1937992","0.0-845.0","gejyz804","","","","","",""
"1781","{""pre-1"":2}","[0]","survey-likert","846","1939774","0.0-846.0","gejyz804","","","","","",""
"1134","{""pre-2"":2}","[0]","survey-likert","847","1940909","0.0-847.0","gejyz804","","","","","",""
"1238.1999999284744","{""pre-3"":2}","[0]","survey-likert","848","1942149","0.0-848.0","gejyz804","","","","","",""
