"rt","responses","question_order","trial_type","trial_index","time_elapsed","internal_node_id","ID","view_history","value","stimulus","key_press","agent","image"
"218042.36000000002","{""Experimenter"":[""Confirmed subject's identity (ID card)"",""Confirmed normal or corrected-to-normal vision"",""Obtained consent (signature and date)"",""Checked the test room lighting"",""Checked computer screen lighting"",""Checked distance from screen to chin rest (50cm)"",""Cleaned and adjusted chin rest"",""Counterbalanced the order of the tasks"",""Opened the experiment in Firefox"",""Made the experiment full screen"",""Encouraged subject to silence phone, put away distractors, etc.""]}","[0]","survey-multi-select","0","218052","0.0-0.0","h9rm7sn1","","","","","",""
"19535.33500000002","","","instructions","1","237589","0.0-1.0","h9rm7sn1","[{""page_index"":0,""viewing_time"":19535.184999999998}]","","","","",""
"7353.9250000000175","{""Age"":1,""Sex"":1,""Gender"":1}","[0,1,2]","survey-likert","2","244945","0.0-2.0","h9rm7sn1","","","","","",""
"1356.914999999979","","","instructions","3","246303","0.0-3.0","h9rm7sn1","[{""page_index"":0,""viewing_time"":1356.8149999999732}]","","","","",""
"2601.375","","","instructions","4","248904","0.0-4.0","h9rm7sn1","[{""page_index"":0,""viewing_time"":1543.179999999993},{""page_index"":1,""viewing_time"":1058.0550000000221}]","","","","",""
"4690.814999999973","","","instructions","5","253596","0.0-5.0","h9rm7sn1","[{""page_index"":0,""viewing_time"":752.8149999999732},{""page_index"":1,""viewing_time"":918.6549999999988},{""page_index"":2,""viewing_time"":3019.210000000021}]","","","","",""
"2042.3300000000163","","","instructions","6","255638","0.0-6.0","h9rm7sn1","[{""page_index"":0,""viewing_time"":2042.2300000000105}]","","","","",""
"","","","call-function","7","255639","0.0-7.0","h9rm7sn1","","","","","",""
"null","","","video-keyboard-response","8","258713","0.0-8.0","h9rm7sn1","","","","null","",""
"","","","call-function","9","258713","0.0-9.0","h9rm7sn1","","","","","",""
"6131.570000000036","","","instructions","10","264845","0.0-10.0","h9rm7sn1","[{""page_index"":0,""viewing_time"":2398},{""page_index"":1,""viewing_time"":1572.8899999999849},{""page_index"":2,""viewing_time"":768.2300000000396},{""page_index"":3,""viewing_time"":1392.2149999999674}]","","","","",""
"833.6300000000047","","","instructions","11","265679","0.0-11.0","h9rm7sn1","[{""page_index"":0,""viewing_time"":833.5200000000186}]","","","","",""
"","","","call-function","12","265680","0.0-12.0","h9rm7sn1","","","","","",""
"null","","","video-keyboard-response","13","268750","0.0-13.0","h9rm7sn1","","","","null","",""
"","","","call-function","14","268751","0.0-14.0","h9rm7sn1","","","","","",""
"5593.830000000016","{""pre-1"":1}","[0]","survey-likert","15","274346","0.0-15.0","h9rm7sn1","","","","","",""
"5488.080000000016","{""pre-2"":2}","[0]","survey-likert","16","279835","0.0-16.0","h9rm7sn1","","","","","",""
"8199.165000000037","{""pre-3"":1}","[0]","survey-likert","17","288035","0.0-17.0","h9rm7sn1","","","","","",""
"2624.7449999999953","{""post-5"":1}","[0]","survey-likert","18","290662","0.0-18.0","h9rm7sn1","","","","","",""
"1177.2850000000326","","","instructions","19","291840","0.0-19.0","h9rm7sn1","[{""page_index"":0,""viewing_time"":1176.6650000000373}]","","","","",""
"3336.454999999958","","","instructions","20","295178","0.0-20.0","h9rm7sn1","[{""page_index"":0,""viewing_time"":3335.819999999949}]","","","","",""
"","","","call-function","21","295178","0.0-21.0","h9rm7sn1","","","","","",""
"null","","","video-keyboard-response","22","298248","0.0-22.0","h9rm7sn1","","","","null","Agent A","STIM_SET_1_REAL/1592362.bmp_pp95_L2_V1.0_veridical_freeview_isoFalse_fps144.mp4"
"","","","call-function","23","298248","0.0-23.0","h9rm7sn1","","","","","",""
"4655.770000000019","{""pre-1"":2}","[0]","survey-likert","24","302905","0.0-24.0","h9rm7sn1","","","","","",""
"5537.869999999995","{""pre-2"":1}","[0]","survey-likert","25","308444","0.0-25.0","h9rm7sn1","","","","","",""
"4037.3850000000093","{""pre-3"":1}","[0]","survey-likert","26","312483","0.0-26.0","h9rm7sn1","","","","","",""
"2864.0849999999627","{""post-5"":2}","[0]","survey-likert","27","315348","0.0-27.0","h9rm7sn1","","","","","",""
"","","","call-function","28","315348","0.0-28.0","h9rm7sn1","","","","","",""
"null","","","video-keyboard-response","29","318425","0.0-29.0","h9rm7sn1","","","","null","Agent A","STIM_SET_1_REAL/1159855.bmp_pp99_L2_V1.0_scrambled_freeview_isoFalse_fps144.mp4"
"","","","call-function","30","318425","0.0-30.0","h9rm7sn1","","","","","",""
"2497.3950000000186","{""pre-1"":2}","[0]","survey-likert","31","320924","0.0-31.0","h9rm7sn1","","","","","",""
"2981.7900000000373","{""pre-2"":0}","[0]","survey-likert","32","323907","0.0-32.0","h9rm7sn1","","","","","",""
"3336.905000000028","{""pre-3"":0}","[0]","survey-likert","33","327245","0.0-33.0","h9rm7sn1","","","","","",""
"2742.2399999999907","{""post-5"":3}","[0]","survey-likert","34","329988","0.0-34.0","h9rm7sn1","","","","","",""
"","","","call-function","35","329988","0.0-35.0","h9rm7sn1","","","","","",""
"null","","","video-keyboard-response","36","333064","0.0-36.0","h9rm7sn1","","","","null","Agent A","STIM_SET_1_REAL/1160127.bmp_pp90_L2_V1.0_veridical_freeview_isoFalse_fps144.mp4"
"","","","call-function","37","333064","0.0-37.0","h9rm7sn1","","","","","",""
"2996.694999999949","{""pre-1"":1}","[0]","survey-likert","38","336062","0.0-38.0","h9rm7sn1","","","","","",""
"1940.0750000000116","{""pre-2"":2}","[0]","survey-likert","39","338003","0.0-39.0","h9rm7sn1","","","","","",""
"2985.6699999999837","{""pre-3"":2}","[0]","survey-likert","40","340989","0.0-40.0","h9rm7sn1","","","","","",""
"3260.234999999986","{""post-5"":1}","[0]","survey-likert","41","344251","0.0-41.0","h9rm7sn1","","","","","",""
"","","","call-function","42","344251","0.0-42.0","h9rm7sn1","","","","","",""
"null","","","video-keyboard-response","43","347316","0.0-43.0","h9rm7sn1","","","","null","Agent A","STIM_SET_1_REAL/1592890.bmp_pp82_L2_V1.0_scrambled_freeview_isoFalse_fps144.mp4"
"","","","call-function","44","347317","0.0-44.0","h9rm7sn1","","","","","",""
"2666.914999999979","{""pre-1"":1}","[0]","survey-likert","45","349985","0.0-45.0","h9rm7sn1","","","","","",""
"1651.4799999999814","{""pre-2"":2}","[0]","survey-likert","46","351638","0.0-46.0","h9rm7sn1","","","","","",""
"1611.6500000000233","{""pre-3"":2}","[0]","survey-likert","47","353251","0.0-47.0","h9rm7sn1","","","","","",""
"2497.390000000014","{""post-5"":0}","[0]","survey-likert","48","355750","0.0-48.0","h9rm7sn1","","","","","",""
"","","","call-function","49","355750","0.0-49.0","h9rm7sn1","","","","","",""
"null","","","video-keyboard-response","50","358820","0.0-50.0","h9rm7sn1","","","","null","Agent A","STIM_SET_1_REAL/285933.bmp_pp81_L1_V1.0_veridical_freeview_isoFalse_fps144.mp4"
"","","","call-function","51","358821","0.0-51.0","h9rm7sn1","","","","","",""
"1678.009999999951","{""pre-1"":1}","[0]","survey-likert","52","360500","0.0-52.0","h9rm7sn1","","","","","",""
"1330.460000000021","{""pre-2"":2}","[0]","survey-likert","53","361832","0.0-53.0","h9rm7sn1","","","","","",""
"1699.9150000000373","{""pre-3"":2}","[0]","survey-likert","54","363532","0.0-54.0","h9rm7sn1","","","","","",""
"1829.1450000000186","{""post-5"":1}","[0]","survey-likert","55","365363","0.0-55.0","h9rm7sn1","","","","","",""
"","","","call-function","56","365363","0.0-56.0","h9rm7sn1","","","","","",""
"null","","","video-keyboard-response","57","368437","0.0-57.0","h9rm7sn1","","","","null","Agent A","STIM_SET_1_REAL/498111.bmp_pp88_L2_V1.0_veridical_freeview_isoFalse_fps144.mp4"
"","","","call-function","58","368437","0.0-58.0","h9rm7sn1","","","","","",""
"3194.5200000000186","{""pre-1"":1}","[0]","survey-likert","59","371633","0.0-59.0","h9rm7sn1","","","","","",""
"1967.2399999999907","{""pre-2"":3}","[0]","survey-likert","60","373601","0.0-60.0","h9rm7sn1","","","","","",""
"2584.359999999986","{""pre-3"":2}","[0]","survey-likert","61","376186","0.0-61.0","h9rm7sn1","","","","","",""
"2012.2999999999884","{""post-5"":1}","[0]","survey-likert","62","378199","0.0-62.0","h9rm7sn1","","","","","",""
"","","","call-function","63","378200","0.0-63.0","h9rm7sn1","","","","","",""
"null","","","video-keyboard-response","64","381274","0.0-64.0","h9rm7sn1","","","","null","Agent A","STIM_SET_1_REAL/1591994.bmp_pp69_L3_V1.0_veridical_freeview_isoFalse_fps144.mp4"
"","","","call-function","65","381275","0.0-65.0","h9rm7sn1","","","","","",""
"3597.835000000021","{""pre-1"":2}","[0]","survey-likert","66","384874","0.0-66.0","h9rm7sn1","","","","","",""
"1484.0650000000023","{""pre-2"":2}","[0]","survey-likert","67","386359","0.0-67.0","h9rm7sn1","","","","","",""
"1432.3349999999627","{""pre-3"":2}","[0]","survey-likert","68","387792","0.0-68.0","h9rm7sn1","","","","","",""
"1903.7600000000093","{""post-5"":1}","[0]","survey-likert","69","389697","0.0-69.0","h9rm7sn1","","","","","",""
"","","","call-function","70","389698","0.0-70.0","h9rm7sn1","","","","","",""
"null","","","video-keyboard-response","71","392765","0.0-71.0","h9rm7sn1","","","","null","Agent A","STIM_SET_1_REAL/1592499.bmp_pp96_L2_V1.0_scrambled_freeview_isoFalse_fps144.mp4"
"","","","call-function","72","392766","0.0-72.0","h9rm7sn1","","","","","",""
"2381.1500000000233","{""pre-1"":1}","[0]","survey-likert","73","395148","0.0-73.0","h9rm7sn1","","","","","",""
"1443.100000000035","{""pre-2"":2}","[0]","survey-likert","74","396592","0.0-74.0","h9rm7sn1","","","","","",""
"2479.1549999999697","{""pre-3"":2}","[0]","survey-likert","75","399072","0.0-75.0","h9rm7sn1","","","","","",""
"2051.850000000035","{""post-5"":0}","[0]","survey-likert","76","401125","0.0-76.0","h9rm7sn1","","","","","",""
"","","","call-function","77","401125","0.0-77.0","h9rm7sn1","","","","","",""
"null","","","video-keyboard-response","78","404224","0.0-78.0","h9rm7sn1","","","","null","Agent A","STIM_SET_1_REAL/498175.bmp_pp154_L1_V1.0_veridical_freeview_isoFalse_fps144.mp4"
"","","","call-function","79","404225","0.0-79.0","h9rm7sn1","","","","","",""
"4065.820000000007","{""pre-1"":2}","[0]","survey-likert","80","408292","0.0-80.0","h9rm7sn1","","","","","",""
"2851.3700000000536","{""pre-2"":1}","[0]","survey-likert","81","411145","0.0-81.0","h9rm7sn1","","","","","",""
"3753.3850000000093","{""pre-3"":0}","[0]","survey-likert","82","414900","0.0-82.0","h9rm7sn1","","","","","",""
"3790.1049999999814","{""post-5"":2}","[0]","survey-likert","83","418691","0.0-83.0","h9rm7sn1","","","","","",""
"","","","call-function","84","418692","0.0-84.0","h9rm7sn1","","","","","",""
"null","","","video-keyboard-response","85","421761","0.0-85.0","h9rm7sn1","","","","null","Agent A","STIM_SET_1_REAL/1159768.bmp_pp89_L1_V1.0_veridical_freeview_isoFalse_fps144.mp4"
"","","","call-function","86","421762","0.0-86.0","h9rm7sn1","","","","","",""
"2569.2550000000047","{""pre-1"":1}","[0]","survey-likert","87","424332","0.0-87.0","h9rm7sn1","","","","","",""
"1395.3150000000023","{""pre-2"":2}","[0]","survey-likert","88","425728","0.0-88.0","h9rm7sn1","","","","","",""
"2024.9800000000396","{""pre-3"":3}","[0]","survey-likert","89","427755","0.0-89.0","h9rm7sn1","","","","","",""
"2369.344999999972","{""post-5"":1}","[0]","survey-likert","90","430125","0.0-90.0","h9rm7sn1","","","","","",""
"","","","call-function","91","430126","0.0-91.0","h9rm7sn1","","","","","",""
"null","","","video-keyboard-response","92","433193","0.0-92.0","h9rm7sn1","","","","null","Agent A","STIM_SET_1_REAL/1592581.bmp_pp100_L3_V1.0_veridical_freeview_isoFalse_fps144.mp4"
"","","","call-function","93","433193","0.0-93.0","h9rm7sn1","","","","","",""
"2162.490000000049","{""pre-1"":1}","[0]","survey-likert","94","435357","0.0-94.0","h9rm7sn1","","","","","",""
"2176.1650000000373","{""pre-2"":1}","[0]","survey-likert","95","437534","0.0-95.0","h9rm7sn1","","","","","",""
"2934.460000000021","{""pre-3"":1}","[0]","survey-likert","96","440469","0.0-96.0","h9rm7sn1","","","","","",""
"2133.3300000000163","{""post-5"":2}","[0]","survey-likert","97","442604","0.0-97.0","h9rm7sn1","","","","","",""
"","","","call-function","98","442604","0.0-98.0","h9rm7sn1","","","","","",""
"null","","","video-keyboard-response","99","445683","0.0-99.0","h9rm7sn1","","","","null","Agent A","STIM_SET_1_REAL/1592807.bmp_pp68_L1_V1.0_scrambled_freeview_isoFalse_fps144.mp4"
"","","","call-function","100","445683","0.0-100.0","h9rm7sn1","","","","","",""
"3246.570000000007","{""pre-1"":2}","[0]","survey-likert","101","448931","0.0-101.0","h9rm7sn1","","","","","",""
"1786.2000000000116","{""pre-2"":1}","[0]","survey-likert","102","450718","0.0-102.0","h9rm7sn1","","","","","",""
"5444.829999999958","{""pre-3"":0}","[0]","survey-likert","103","456164","0.0-103.0","h9rm7sn1","","","","","",""
"4584.310000000056","{""post-5"":2}","[0]","survey-likert","104","460749","0.0-104.0","h9rm7sn1","","","","","",""
"","","","call-function","105","460750","0.0-105.0","h9rm7sn1","","","","","",""
"null","","","video-keyboard-response","106","463824","0.0-106.0","h9rm7sn1","","","","null","Agent A","STIM_SET_1_REAL/1159784.bmp_pp73_L3_V1.0_scrambled_freeview_isoFalse_fps144.mp4"
"","","","call-function","107","463825","0.0-107.0","h9rm7sn1","","","","","",""
"7689.860000000044","{""pre-1"":1}","[0]","survey-likert","108","471516","0.0-108.0","h9rm7sn1","","","","","",""
"2678.609999999986","{""pre-2"":1}","[0]","survey-likert","109","474196","0.0-109.0","h9rm7sn1","","","","","",""
"3830.4100000000326","{""pre-3"":2}","[0]","survey-likert","110","478028","0.0-110.0","h9rm7sn1","","","","","",""
"1615.2099999999627","{""post-5"":1}","[0]","survey-likert","111","479644","0.0-111.0","h9rm7sn1","","","","","",""
"","","","call-function","112","479645","0.0-112.0","h9rm7sn1","","","","","",""
"null","","","video-keyboard-response","113","482721","0.0-113.0","h9rm7sn1","","","","null","Agent A","STIM_SET_1_REAL/1592804.bmp_pp91_L3_V1.0_veridical_freeview_isoFalse_fps144.mp4"
"","","","call-function","114","482721","0.0-114.0","h9rm7sn1","","","","","",""
"2896.7200000000303","{""pre-1"":3}","[0]","survey-likert","115","485619","0.0-115.0","h9rm7sn1","","","","","",""
"2230.844999999972","{""pre-2"":0}","[0]","survey-likert","116","487851","0.0-116.0","h9rm7sn1","","","","","",""
"1906.329999999958","{""pre-3"":0}","[0]","survey-likert","117","489759","0.0-117.0","h9rm7sn1","","","","","",""
"2637.469999999972","{""post-5"":3}","[0]","survey-likert","118","492397","0.0-118.0","h9rm7sn1","","","","","",""
"","","","call-function","119","492398","0.0-119.0","h9rm7sn1","","","","","",""
"null","","","video-keyboard-response","120","495461","0.0-120.0","h9rm7sn1","","","","null","Agent A","STIM_SET_1_REAL/497950.bmp_pp151_L1_V1.0_veridical_freeview_isoFalse_fps144.mp4"
"","","","call-function","121","495462","0.0-121.0","h9rm7sn1","","","","","",""
"3322.1199999999953","{""pre-1"":2}","[0]","survey-likert","122","498785","0.0-122.0","h9rm7sn1","","","","","",""
"1439.1599999999744","{""pre-2"":2}","[0]","survey-likert","123","500225","0.0-123.0","h9rm7sn1","","","","","",""
"2046.6900000000023","{""pre-3"":1}","[0]","survey-likert","124","502272","0.0-124.0","h9rm7sn1","","","","","",""
"3398.289999999979","{""post-5"":2}","[0]","survey-likert","125","505673","0.0-125.0","h9rm7sn1","","","","","",""
"","","","call-function","126","505673","0.0-126.0","h9rm7sn1","","","","","",""
"null","","","video-keyboard-response","127","508748","0.0-127.0","h9rm7sn1","","","","null","Agent A","STIM_SET_1_REAL/713211.bmp_pp100_L3_V1.0_scrambled_freeview_isoFalse_fps144.mp4"
"","","","call-function","128","508749","0.0-128.0","h9rm7sn1","","","","","",""
"2508.4650000000256","{""pre-1"":3}","[0]","survey-likert","129","511258","0.0-129.0","h9rm7sn1","","","","","",""
"2432.0900000000256","{""pre-2"":0}","[0]","survey-likert","130","513691","0.0-130.0","h9rm7sn1","","","","","",""
"3031.640000000014","{""pre-3"":0}","[0]","survey-likert","131","516724","0.0-131.0","h9rm7sn1","","","","","",""
"2294.039999999979","{""post-5"":3}","[0]","survey-likert","132","519019","0.0-132.0","h9rm7sn1","","","","","",""
"","","","call-function","133","519019","0.0-133.0","h9rm7sn1","","","","","",""
"null","","","video-keyboard-response","134","522127","0.0-134.0","h9rm7sn1","","","","null","Agent A","STIM_SET_1_REAL/713371.bmp_pp68_L1_V1.0_veridical_freeview_isoFalse_fps144.mp4"
"","","","call-function","135","522128","0.0-135.0","h9rm7sn1","","","","","",""
"2897.8249999999534","{""pre-1"":2}","[0]","survey-likert","136","525028","0.0-136.0","h9rm7sn1","","","","","",""
"1375.8000000000466","{""pre-2"":2}","[0]","survey-likert","137","526405","0.0-137.0","h9rm7sn1","","","","","",""
"2388.4649999999674","{""pre-3"":1}","[0]","survey-likert","138","528795","0.0-138.0","h9rm7sn1","","","","","",""
"2544.7149999999674","{""post-5"":2}","[0]","survey-likert","139","531341","0.0-139.0","h9rm7sn1","","","","","",""
"","","","call-function","140","531342","0.0-140.0","h9rm7sn1","","","","","",""
"null","","","video-keyboard-response","141","534417","0.0-141.0","h9rm7sn1","","","","null","Agent A","STIM_SET_1_REAL/498111.bmp_pp88_L2_V1.0_scrambled_freeview_isoFalse_fps144.mp4"
"","","","call-function","142","534418","0.0-142.0","h9rm7sn1","","","","","",""
"5808.489999999991","{""pre-1"":2}","[0]","survey-likert","143","540227","0.0-143.0","h9rm7sn1","","","","","",""
"4505.760000000009","{""pre-2"":1}","[0]","survey-likert","144","544734","0.0-144.0","h9rm7sn1","","","","","",""
"2202.2299999999814","{""pre-3"":1}","[0]","survey-likert","145","546938","0.0-145.0","h9rm7sn1","","","","","",""
"1641.0550000000512","{""post-5"":2}","[0]","survey-likert","146","548580","0.0-146.0","h9rm7sn1","","","","","",""
"","","","call-function","147","548580","0.0-147.0","h9rm7sn1","","","","","",""
"null","","","video-keyboard-response","148","551659","0.0-148.0","h9rm7sn1","","","","null","Agent A","STIM_SET_1_REAL/498155.bmp_pp61_L2_V1.0_scrambled_freeview_isoFalse_fps144.mp4"
"","","","call-function","149","551660","0.0-149.0","h9rm7sn1","","","","","",""
"3459.140000000014","{""pre-1"":3}","[0]","survey-likert","150","555120","0.0-150.0","h9rm7sn1","","","","","",""
"1832.9749999999767","{""pre-2"":2}","[0]","survey-likert","151","556954","0.0-151.0","h9rm7sn1","","","","","",""
"2140.1199999999953","{""pre-3"":1}","[0]","survey-likert","152","559095","0.0-152.0","h9rm7sn1","","","","","",""
"1759.3049999999348","{""post-5"":3}","[0]","survey-likert","153","560855","0.0-153.0","h9rm7sn1","","","","","",""
"","","","call-function","154","560856","0.0-154.0","h9rm7sn1","","","","","",""
"null","","","video-keyboard-response","155","563946","0.0-155.0","h9rm7sn1","","","","null","Agent A","STIM_SET_1_REAL/1159813.bmp_pp79_L2_V1.0_veridical_freeview_isoFalse_fps144.mp4"
"","","","call-function","156","563946","0.0-156.0","h9rm7sn1","","","","","",""
"3834.04999999993","{""pre-1"":2}","[0]","survey-likert","157","567781","0.0-157.0","h9rm7sn1","","","","","",""
"4402.6699999999255","{""pre-2"":2}","[0]","survey-likert","158","572185","0.0-158.0","h9rm7sn1","","","","","",""
"1885.1950000000652","{""pre-3"":1}","[0]","survey-likert","159","574071","0.0-159.0","h9rm7sn1","","","","","",""
"2111.8000000000466","{""post-5"":2}","[0]","survey-likert","160","576184","0.0-160.0","h9rm7sn1","","","","","",""
"21797.889999999898","","","instructions","161","597983","0.0-161.0","h9rm7sn1","[{""page_index"":0,""viewing_time"":2171.159999999916},{""page_index"":1,""viewing_time"":16982.150000000023},{""page_index"":2,""viewing_time"":2643.9499999999534}]","","","","",""
"10645.084999999963","","","instructions","162","608629","0.0-162.0","h9rm7sn1","[{""page_index"":0,""viewing_time"":897.3949999999022},{""page_index"":1,""viewing_time"":8837.69000000006},{""page_index"":2,""viewing_time"":909.9000000000233}]","","","","",""
"","","","call-function","163","608630","0.0-163.0","h9rm7sn1","","","","","",""
"null","","","video-keyboard-response","164","611695","0.0-164.0","h9rm7sn1","","","","null","Agent A","STIM_SET_1_REAL/1159447.bmp_pp70_L2_V1.0_scrambled_freeview_isoFalse_fps144.mp4"
"","","","call-function","165","611695","0.0-165.0","h9rm7sn1","","","","","",""
"5449.854999999981","{""pre-1"":2}","[0]","survey-likert","166","617146","0.0-166.0","h9rm7sn1","","","","","",""
"4120.910000000033","{""pre-2"":1}","[0]","survey-likert","167","621268","0.0-167.0","h9rm7sn1","","","","","",""
"2391.7750000000233","{""pre-3"":2}","[0]","survey-likert","168","623661","0.0-168.0","h9rm7sn1","","","","","",""
"2045.1350000000093","{""post-5"":2}","[0]","survey-likert","169","625707","0.0-169.0","h9rm7sn1","","","","","",""
"","","","call-function","170","625708","0.0-170.0","h9rm7sn1","","","","","",""
"null","","","video-keyboard-response","171","628782","0.0-171.0","h9rm7sn1","","","","null","Agent A","STIM_SET_1_REAL/61537.bmp_pp73_L3_V1.0_veridical_freeview_isoFalse_fps144.mp4"
"","","","call-function","172","628783","0.0-172.0","h9rm7sn1","","","","","",""
"3560.3549999999814","{""pre-1"":1}","[0]","survey-likert","173","632344","0.0-173.0","h9rm7sn1","","","","","",""
"5686.354999999981","{""pre-2"":2}","[0]","survey-likert","174","638032","0.0-174.0","h9rm7sn1","","","","","",""
"2609.439999999944","{""pre-3"":2}","[0]","survey-likert","175","640642","0.0-175.0","h9rm7sn1","","","","","",""
"2489.984999999986","{""post-5"":1}","[0]","survey-likert","176","643133","0.0-176.0","h9rm7sn1","","","","","",""
"","","","call-function","177","643133","0.0-177.0","h9rm7sn1","","","","","",""
"null","","","video-keyboard-response","178","646197","0.0-178.0","h9rm7sn1","","","","null","Agent A","STIM_SET_1_REAL/713403.bmp_pp80_L3_V1.0_scrambled_freeview_isoFalse_fps144.mp4"
"","","","call-function","179","646197","0.0-179.0","h9rm7sn1","","","","","",""
"2579.0849999999627","{""pre-1"":1}","[0]","survey-likert","180","648777","0.0-180.0","h9rm7sn1","","","","","",""
"4957.954999999958","{""pre-2"":0}","[0]","survey-likert","181","653736","0.0-181.0","h9rm7sn1","","","","","",""
"2208.829999999958","{""pre-3"":1}","[0]","survey-likert","182","655946","0.0-182.0","h9rm7sn1","","","","","",""
"3670.3799999998882","{""post-5"":3}","[0]","survey-likert","183","659617","0.0-183.0","h9rm7sn1","","","","","",""
"","","","call-function","184","659618","0.0-184.0","h9rm7sn1","","","","","",""
"null","","","video-keyboard-response","185","662691","0.0-185.0","h9rm7sn1","","","","null","Agent A","STIM_SET_1_REAL/1592372.bmp_pp76_L1_V1.0_scrambled_freeview_isoFalse_fps144.mp4"
"","","","call-function","186","662692","0.0-186.0","h9rm7sn1","","","","","",""
"3289.6999999999534","{""pre-1"":1}","[0]","survey-likert","187","665982","0.0-187.0","h9rm7sn1","","","","","",""
"2818.2249999999767","{""pre-2"":1}","[0]","survey-likert","188","668801","0.0-188.0","h9rm7sn1","","","","","",""
"2536.829999999958","{""pre-3"":1}","[0]","survey-likert","189","671339","0.0-189.0","h9rm7sn1","","","","","",""
"1804.8149999999441","{""post-5"":3}","[0]","survey-likert","190","673145","0.0-190.0","h9rm7sn1","","","","","",""
"","","","call-function","191","673145","0.0-191.0","h9rm7sn1","","","","","",""
"null","","","video-keyboard-response","192","676215","0.0-192.0","h9rm7sn1","","","","null","Agent A","STIM_SET_1_REAL/1591961.bmp_pp67_L2_V1.0_scrambled_freeview_isoFalse_fps144.mp4"
"","","","call-function","193","676216","0.0-193.0","h9rm7sn1","","","","","",""
"1379.3349999999627","{""pre-1"":1}","[0]","survey-likert","194","677597","0.0-194.0","h9rm7sn1","","","","","",""
"1288.3349999999627","{""pre-2"":1}","[0]","survey-likert","195","678887","0.0-195.0","h9rm7sn1","","","","","",""
"1195.6000000000931","{""pre-3"":1}","[0]","survey-likert","196","680083","0.0-196.0","h9rm7sn1","","","","","",""
"1685.3699999999953","{""post-5"":3}","[0]","survey-likert","197","681770","0.0-197.0","h9rm7sn1","","","","","",""
"","","","call-function","198","681770","0.0-198.0","h9rm7sn1","","","","","",""
"null","","","video-keyboard-response","199","684846","0.0-199.0","h9rm7sn1","","","","null","Agent A","STIM_SET_1_REAL/712977.bmp_pp51_L1_V1.0_veridical_freeview_isoFalse_fps144.mp4"
"","","","call-function","200","684846","0.0-200.0","h9rm7sn1","","","","","",""
"3294.3499999999767","{""pre-1"":0}","[0]","survey-likert","201","688142","0.0-201.0","h9rm7sn1","","","","","",""
"2829.8249999999534","{""pre-2"":0}","[0]","survey-likert","202","690973","0.0-202.0","h9rm7sn1","","","","","",""
"2104.189999999944","{""pre-3"":0}","[0]","survey-likert","203","693078","0.0-203.0","h9rm7sn1","","","","","",""
"1430.4000000000233","{""post-5"":3}","[0]","survey-likert","204","694510","0.0-204.0","h9rm7sn1","","","","","",""
"","","","call-function","205","694510","0.0-205.0","h9rm7sn1","","","","","",""
"null","","","video-keyboard-response","206","697573","0.0-206.0","h9rm7sn1","","","","null","Agent A","STIM_SET_1_REAL/713779.bmp_pp152_L2_V1.0_scrambled_freeview_isoFalse_fps144.mp4"
"","","","call-function","207","697573","0.0-207.0","h9rm7sn1","","","","","",""
"2466.7449999999953","{""pre-1"":1}","[0]","survey-likert","208","700041","0.0-208.0","h9rm7sn1","","","","","",""
"1908.765000000014","{""pre-2"":2}","[0]","survey-likert","209","701951","0.0-209.0","h9rm7sn1","","","","","",""
"1387.969999999972","{""pre-3"":1}","[0]","survey-likert","210","703340","0.0-210.0","h9rm7sn1","","","","","",""
"1983.4000000000233","{""post-5"":3}","[0]","survey-likert","211","705325","0.0-211.0","h9rm7sn1","","","","","",""
"","","","call-function","212","705325","0.0-212.0","h9rm7sn1","","","","","",""
"null","","","video-keyboard-response","213","708388","0.0-213.0","h9rm7sn1","","","","null","Agent A","STIM_SET_1_REAL/1159572.bmp_pp71_L1_V1.0_scrambled_freeview_isoFalse_fps144.mp4"
"","","","call-function","214","708388","0.0-214.0","h9rm7sn1","","","","","",""
"2010.0400000000373","{""pre-1"":1}","[0]","survey-likert","215","710399","0.0-215.0","h9rm7sn1","","","","","",""
"2168.92499999993","{""pre-2"":0}","[0]","survey-likert","216","712569","0.0-216.0","h9rm7sn1","","","","","",""
"1167.4150000000373","{""pre-3"":1}","[0]","survey-likert","217","713738","0.0-217.0","h9rm7sn1","","","","","",""
"1216.1450000000186","{""post-5"":3}","[0]","survey-likert","218","714955","0.0-218.0","h9rm7sn1","","","","","",""
"","","","call-function","219","714955","0.0-219.0","h9rm7sn1","","","","","",""
"null","","","video-keyboard-response","220","718061","0.0-220.0","h9rm7sn1","","","","null","Agent A","STIM_SET_1_REAL/1591961.bmp_pp67_L2_V1.0_veridical_freeview_isoFalse_fps144.mp4"
"","","","call-function","221","718062","0.0-221.0","h9rm7sn1","","","","","",""
"2807.7449999999953","{""pre-1"":2}","[0]","survey-likert","222","720870","0.0-222.0","h9rm7sn1","","","","","",""
"1972.3399999999674","{""pre-2"":2}","[0]","survey-likert","223","722844","0.0-223.0","h9rm7sn1","","","","","",""
"1611.9800000000978","{""pre-3"":2}","[0]","survey-likert","224","724457","0.0-224.0","h9rm7sn1","","","","","",""
"2355.6199999999953","{""post-5"":1}","[0]","survey-likert","225","726813","0.0-225.0","h9rm7sn1","","","","","",""
"","","","call-function","226","726814","0.0-226.0","h9rm7sn1","","","","","",""
"null","","","video-keyboard-response","227","729904","0.0-227.0","h9rm7sn1","","","","null","Agent A","STIM_SET_1_REAL/285994.bmp_pp92_L3_V1.0_veridical_freeview_isoFalse_fps144.mp4"
"","","","call-function","228","729906","0.0-228.0","h9rm7sn1","","","","","",""
"2871.4899999999907","{""pre-1"":2}","[0]","survey-likert","229","732779","0.0-229.0","h9rm7sn1","","","","","",""
"4295.814999999944","{""pre-2"":3}","[0]","survey-likert","230","737076","0.0-230.0","h9rm7sn1","","","","","",""
"2048.7550000000047","{""pre-3"":2}","[0]","survey-likert","231","739126","0.0-231.0","h9rm7sn1","","","","","",""
"2179.5999999999767","{""post-5"":0}","[0]","survey-likert","232","741306","0.0-232.0","h9rm7sn1","","","","","",""
"","","","call-function","233","741307","0.0-233.0","h9rm7sn1","","","","","",""
"null","","","video-keyboard-response","234","744382","0.0-234.0","h9rm7sn1","","","","null","Agent A","STIM_SET_1_REAL/713684.bmp_pp85_L3_V1.0_veridical_freeview_isoFalse_fps144.mp4"
"","","","call-function","235","744383","0.0-235.0","h9rm7sn1","","","","","",""
"2229.8399999999674","{""pre-1"":1}","[0]","survey-likert","236","746614","0.0-236.0","h9rm7sn1","","","","","",""
"2922.945000000065","{""pre-2"":1}","[0]","survey-likert","237","749538","0.0-237.0","h9rm7sn1","","","","","",""
"1635.530000000028","{""pre-3"":1}","[0]","survey-likert","238","751175","0.0-238.0","h9rm7sn1","","","","","",""
"1616.5599999999395","{""post-5"":2}","[0]","survey-likert","239","752792","0.0-239.0","h9rm7sn1","","","","","",""
"","","","call-function","240","752793","0.0-240.0","h9rm7sn1","","","","","",""
"null","","","video-keyboard-response","241","755860","0.0-241.0","h9rm7sn1","","","","null","Agent A","STIM_SET_1_REAL/1592499.bmp_pp96_L2_V1.0_veridical_freeview_isoFalse_fps144.mp4"
"","","","call-function","242","755860","0.0-242.0","h9rm7sn1","","","","","",""
"2655.1650000000373","{""pre-1"":1}","[0]","survey-likert","243","758516","0.0-243.0","h9rm7sn1","","","","","",""
"1273.484999999986","{""pre-2"":1}","[0]","survey-likert","244","759791","0.0-244.0","h9rm7sn1","","","","","",""
"1107.0200000000186","{""pre-3"":1}","[0]","survey-likert","245","760899","0.0-245.0","h9rm7sn1","","","","","",""
"1141.2999999999302","{""post-5"":2}","[0]","survey-likert","246","762042","0.0-246.0","h9rm7sn1","","","","","",""
"","","","call-function","247","762042","0.0-247.0","h9rm7sn1","","","","","",""
"null","","","video-keyboard-response","248","765112","0.0-248.0","h9rm7sn1","","","","null","Agent A","STIM_SET_1_REAL/713135.bmp_pp54_L2_V1.0_veridical_freeview_isoFalse_fps144.mp4"
"","","","call-function","249","765113","0.0-249.0","h9rm7sn1","","","","","",""
"1953.1149999999907","{""pre-1"":1}","[0]","survey-likert","250","767067","0.0-250.0","h9rm7sn1","","","","","",""
"2072.954999999958","{""pre-2"":2}","[0]","survey-likert","251","769141","0.0-251.0","h9rm7sn1","","","","","",""
"1728.1599999999162","{""pre-3"":1}","[0]","survey-likert","252","770870","0.0-252.0","h9rm7sn1","","","","","",""
"1578.9049999999115","{""post-5"":1}","[0]","survey-likert","253","772450","0.0-253.0","h9rm7sn1","","","","","",""
"","","","call-function","254","772450","0.0-254.0","h9rm7sn1","","","","","",""
"null","","","video-keyboard-response","255","775522","0.0-255.0","h9rm7sn1","","","","null","Agent A","STIM_SET_1_REAL/1159675.bmp_pp77_L3_V1.0_veridical_freeview_isoFalse_fps144.mp4"
"","","","call-function","256","775523","0.0-256.0","h9rm7sn1","","","","","",""
"3717.7750000000233","{""pre-1"":2}","[0]","survey-likert","257","779241","0.0-257.0","h9rm7sn1","","","","","",""
"2465.355000000098","{""pre-2"":3}","[0]","survey-likert","258","781708","0.0-258.0","h9rm7sn1","","","","","",""
"1484.6849999999395","{""pre-3"":2}","[0]","survey-likert","259","783193","0.0-259.0","h9rm7sn1","","","","","",""
"1426.0100000000093","{""post-5"":0}","[0]","survey-likert","260","784620","0.0-260.0","h9rm7sn1","","","","","",""
"","","","call-function","261","784621","0.0-261.0","h9rm7sn1","","","","","",""
"null","","","video-keyboard-response","262","787709","0.0-262.0","h9rm7sn1","","","","null","Agent A","STIM_SET_1_REAL/1159447.bmp_pp70_L2_V1.0_veridical_freeview_isoFalse_fps144.mp4"
"","","","call-function","263","787709","0.0-263.0","h9rm7sn1","","","","","",""
"3113.314999999944","{""pre-1"":0}","[0]","survey-likert","264","790824","0.0-264.0","h9rm7sn1","","","","","",""
"1837.6650000000373","{""pre-2"":1}","[0]","survey-likert","265","792664","0.0-265.0","h9rm7sn1","","","","","",""
"2679.570000000065","{""pre-3"":1}","[0]","survey-likert","266","795346","0.0-266.0","h9rm7sn1","","","","","",""
"1685.609999999986","{""post-5"":3}","[0]","survey-likert","267","797033","0.0-267.0","h9rm7sn1","","","","","",""
"","","","call-function","268","797034","0.0-268.0","h9rm7sn1","","","","","",""
"null","","","video-keyboard-response","269","800115","0.0-269.0","h9rm7sn1","","","","null","Agent A","STIM_SET_1_REAL/1591994.bmp_pp69_L3_V1.0_scrambled_freeview_isoFalse_fps144.mp4"
"","","","call-function","270","800115","0.0-270.0","h9rm7sn1","","","","","",""
"2422.3950000000186","{""pre-1"":1}","[0]","survey-likert","271","802539","0.0-271.0","h9rm7sn1","","","","","",""
"1262.3050000000512","{""pre-2"":2}","[0]","survey-likert","272","803803","0.0-272.0","h9rm7sn1","","","","","",""
"1256.890000000014","{""pre-3"":2}","[0]","survey-likert","273","805061","0.0-273.0","h9rm7sn1","","","","","",""
"1652.3000000000466","{""post-5"":2}","[0]","survey-likert","274","806715","0.0-274.0","h9rm7sn1","","","","","",""
"","","","call-function","275","806715","0.0-275.0","h9rm7sn1","","","","","",""
"null","","","video-keyboard-response","276","809791","0.0-276.0","h9rm7sn1","","","","null","Agent A","STIM_SET_1_REAL/1591954.bmp_pp62_L2_V1.0_veridical_freeview_isoFalse_fps144.mp4"
"","","","call-function","277","809792","0.0-277.0","h9rm7sn1","","","","","",""
"2023.3699999999953","{""pre-1"":1}","[0]","survey-likert","278","811816","0.0-278.0","h9rm7sn1","","","","","",""
"1731.5499999999302","{""pre-2"":0}","[0]","survey-likert","279","813549","0.0-279.0","h9rm7sn1","","","","","",""
"1831.6199999999953","{""pre-3"":1}","[0]","survey-likert","280","815381","0.0-280.0","h9rm7sn1","","","","","",""
"1840.0749999999534","{""post-5"":3}","[0]","survey-likert","281","817223","0.0-281.0","h9rm7sn1","","","","","",""
"","","","call-function","282","817223","0.0-282.0","h9rm7sn1","","","","","",""
"null","","","video-keyboard-response","283","820305","0.0-283.0","h9rm7sn1","","","","null","Agent A","STIM_SET_1_REAL/1593041.bmp_pp58_L1_V1.0_scrambled_freeview_isoFalse_fps144.mp4"
"","","","call-function","284","820306","0.0-284.0","h9rm7sn1","","","","","",""
"2280.649999999907","{""pre-1"":1}","[0]","survey-likert","285","822587","0.0-285.0","h9rm7sn1","","","","","",""
"1429.0649999999441","{""pre-2"":2}","[0]","survey-likert","286","824019","0.0-286.0","h9rm7sn1","","","","","",""
"1588.5650000000605","{""pre-3"":1}","[0]","survey-likert","287","825608","0.0-287.0","h9rm7sn1","","","","","",""
"2422.079999999958","{""post-5"":2}","[0]","survey-likert","288","828031","0.0-288.0","h9rm7sn1","","","","","",""
"","","","call-function","289","828032","0.0-289.0","h9rm7sn1","","","","","",""
"null","","","video-keyboard-response","290","831118","0.0-290.0","h9rm7sn1","","","","null","Agent A","STIM_SET_1_REAL/1159813.bmp_pp79_L2_V1.0_scrambled_freeview_isoFalse_fps144.mp4"
"","","","call-function","291","831118","0.0-291.0","h9rm7sn1","","","","","",""
"3549.319999999949","{""pre-1"":0}","[0]","survey-likert","292","834668","0.0-292.0","h9rm7sn1","","","","","",""
"3076.8649999999907","{""pre-2"":0}","[0]","survey-likert","293","837746","0.0-293.0","h9rm7sn1","","","","","",""
"2452.375","{""pre-3"":0}","[0]","survey-likert","294","840200","0.0-294.0","h9rm7sn1","","","","","",""
"1297.5050000000047","{""post-5"":2}","[0]","survey-likert","295","841498","0.0-295.0","h9rm7sn1","","","","","",""
"","","","call-function","296","841499","0.0-296.0","h9rm7sn1","","","","","",""
"null","","","video-keyboard-response","297","844604","0.0-297.0","h9rm7sn1","","","","null","Agent A","STIM_SET_1_REAL/285905.bmp_pp57_L1_V1.0_scrambled_freeview_isoFalse_fps144.mp4"
"","","","call-function","298","844604","0.0-298.0","h9rm7sn1","","","","","",""
"2388.6199999999953","{""pre-1"":1}","[0]","survey-likert","299","846994","0.0-299.0","h9rm7sn1","","","","","",""
"2819.8300000000745","{""pre-2"":0}","[0]","survey-likert","300","849815","0.0-300.0","h9rm7sn1","","","","","",""
"2092.7949999999255","{""pre-3"":0}","[0]","survey-likert","301","851910","0.0-301.0","h9rm7sn1","","","","","",""
"2894.914999999921","{""post-5"":3}","[0]","survey-likert","302","854806","0.0-302.0","h9rm7sn1","","","","","",""
"14731.804999999935","","","instructions","303","869539","0.0-303.0","h9rm7sn1","[{""page_index"":0,""viewing_time"":4810.224999999977},{""page_index"":1,""viewing_time"":9086.890000000014},{""page_index"":2,""viewing_time"":834.0599999999395}]","","","","",""
"2992.0100000000093","","","instructions","304","872531","0.0-304.0","h9rm7sn1","[{""page_index"":0,""viewing_time"":1185.280000000028},{""page_index"":1,""viewing_time"":1164.704999999958},{""page_index"":2,""viewing_time"":641.9200000000419}]","","","","",""
"","","","call-function","305","872532","0.0-305.0","h9rm7sn1","","","","","",""
"null","","","video-keyboard-response","306","875602","0.0-306.0","h9rm7sn1","","","","null","Agent A","STIM_SET_1_REAL/1160168.bmp_pp53_L2_V1.0_scrambled_freeview_isoFalse_fps144.mp4"
"","","","call-function","307","875602","0.0-307.0","h9rm7sn1","","","","","",""
"1865.4049999999115","{""pre-1"":1}","[0]","survey-likert","308","877469","0.0-308.0","h9rm7sn1","","","","","",""
"1352.4750000000931","{""pre-2"":1}","[0]","survey-likert","309","878822","0.0-309.0","h9rm7sn1","","","","","",""
"2032.2550000000047","{""pre-3"":0}","[0]","survey-likert","310","880856","0.0-310.0","h9rm7sn1","","","","","",""
"2018.375","{""post-5"":2}","[0]","survey-likert","311","882876","0.0-311.0","h9rm7sn1","","","","","",""
"","","","call-function","312","882876","0.0-312.0","h9rm7sn1","","","","","",""
"null","","","video-keyboard-response","313","885948","0.0-313.0","h9rm7sn1","","","","null","Agent A","STIM_SET_1_REAL/713749.bmp_pp88_L2_V1.0_veridical_freeview_isoFalse_fps144.mp4"
"","","","call-function","314","885949","0.0-314.0","h9rm7sn1","","","","","",""
"2830.814999999944","{""pre-1"":2}","[0]","survey-likert","315","888780","0.0-315.0","h9rm7sn1","","","","","",""
"1408.5399999999208","{""pre-2"":2}","[0]","survey-likert","316","890190","0.0-316.0","h9rm7sn1","","","","","",""
"1326.1149999999907","{""pre-3"":2}","[0]","survey-likert","317","891518","0.0-317.0","h9rm7sn1","","","","","",""
"1522.9000000000233","{""post-5"":1}","[0]","survey-likert","318","893042","0.0-318.0","h9rm7sn1","","","","","",""
"","","","call-function","319","893042","0.0-319.0","h9rm7sn1","","","","","",""
"null","","","video-keyboard-response","320","896118","0.0-320.0","h9rm7sn1","","","","null","Agent A","STIM_SET_1_REAL/713707.bmp_pp154_L1_V1.0_veridical_freeview_isoFalse_fps144.mp4"
"","","","call-function","321","896119","0.0-321.0","h9rm7sn1","","","","","",""
"3598.3000000000466","{""pre-1"":2}","[0]","survey-likert","322","899718","0.0-322.0","h9rm7sn1","","","","","",""
"1464.905000000028","{""pre-2"":2}","[0]","survey-likert","323","901184","0.0-323.0","h9rm7sn1","","","","","",""
"2071.6049999999814","{""pre-3"":2}","[0]","survey-likert","324","903257","0.0-324.0","h9rm7sn1","","","","","",""
"1435.9649999999674","{""post-5"":1}","[0]","survey-likert","325","904694","0.0-325.0","h9rm7sn1","","","","","",""
"","","","call-function","326","904694","0.0-326.0","h9rm7sn1","","","","","",""
"null","","","video-keyboard-response","327","907766","0.0-327.0","h9rm7sn1","","","","null","Agent A","STIM_SET_1_REAL/1592657.bmp_pp98_L1_V1.0_scrambled_freeview_isoFalse_fps144.mp4"
"","","","call-function","328","907766","0.0-328.0","h9rm7sn1","","","","","",""
"3679.3950000000186","{""pre-1"":1}","[0]","survey-likert","329","911447","0.0-329.0","h9rm7sn1","","","","","",""
"2195.1500000000233","{""pre-2"":0}","[0]","survey-likert","330","913644","0.0-330.0","h9rm7sn1","","","","","",""
"2586.335000000079","{""pre-3"":0}","[0]","survey-likert","331","916232","0.0-331.0","h9rm7sn1","","","","","",""
"3103.8800000000047","{""post-5"":3}","[0]","survey-likert","332","919338","0.0-332.0","h9rm7sn1","","","","","",""
"","","","call-function","333","919338","0.0-333.0","h9rm7sn1","","","","","",""
"null","","","video-keyboard-response","334","922413","0.0-334.0","h9rm7sn1","","","","null","Agent A","STIM_SET_1_REAL/1591876.bmp_pp63_L1_V1.0_veridical_freeview_isoFalse_fps144.mp4"
"","","","call-function","335","922414","0.0-335.0","h9rm7sn1","","","","","",""
"1782.795000000042","{""pre-1"":1}","[0]","survey-likert","336","924198","0.0-336.0","h9rm7sn1","","","","","",""
"2109.2399999999907","{""pre-2"":2}","[0]","survey-likert","337","926308","0.0-337.0","h9rm7sn1","","","","","",""
"1301.780000000028","{""pre-3"":2}","[0]","survey-likert","338","927611","0.0-338.0","h9rm7sn1","","","","","",""
"1278.719999999972","{""post-5"":1}","[0]","survey-likert","339","928891","0.0-339.0","h9rm7sn1","","","","","",""
"","","","call-function","340","928892","0.0-340.0","h9rm7sn1","","","","","",""
"null","","","video-keyboard-response","341","931959","0.0-341.0","h9rm7sn1","","","","null","Agent A","STIM_SET_1_REAL/713513.bmp_pp62_L2_V1.0_veridical_freeview_isoFalse_fps144.mp4"
"","","","call-function","342","931960","0.0-342.0","h9rm7sn1","","","","","",""
"2135.9150000000373","{""pre-1"":2}","[0]","survey-likert","343","934097","0.0-343.0","h9rm7sn1","","","","","",""
"1175.6999999999534","{""pre-2"":2}","[0]","survey-likert","344","935274","0.0-344.0","h9rm7sn1","","","","","",""
"1409.0749999999534","{""pre-3"":2}","[0]","survey-likert","345","936684","0.0-345.0","h9rm7sn1","","","","","",""
"1781.1500000000233","{""post-5"":1}","[0]","survey-likert","346","938466","0.0-346.0","h9rm7sn1","","","","","",""
"","","","call-function","347","938466","0.0-347.0","h9rm7sn1","","","","","",""
"null","","","video-keyboard-response","348","941544","0.0-348.0","h9rm7sn1","","","","null","Agent A","STIM_SET_1_REAL/713620.bmp_pp65_L3_V1.0_scrambled_freeview_isoFalse_fps144.mp4"
"","","","call-function","349","941545","0.0-349.0","h9rm7sn1","","","","","",""
"2756.6999999999534","{""pre-1"":1}","[0]","survey-likert","350","944302","0.0-350.0","h9rm7sn1","","","","","",""
"1246.030000000028","{""pre-2"":2}","[0]","survey-likert","351","945550","0.0-351.0","h9rm7sn1","","","","","",""
"2325.5849999999627","{""pre-3"":1}","[0]","survey-likert","352","947877","0.0-352.0","h9rm7sn1","","","","","",""
"1239.2299999999814","{""post-5"":2}","[0]","survey-likert","353","949117","0.0-353.0","h9rm7sn1","","","","","",""
"","","","call-function","354","949118","0.0-354.0","h9rm7sn1","","","","","",""
"null","","","video-keyboard-response","355","952194","0.0-355.0","h9rm7sn1","","","","null","Agent A","STIM_SET_1_REAL/1591954.bmp_pp62_L2_V1.0_scrambled_freeview_isoFalse_fps144.mp4"
"","","","call-function","356","952195","0.0-356.0","h9rm7sn1","","","","","",""
"2942.0650000000605","{""pre-1"":1}","[0]","survey-likert","357","955138","0.0-357.0","h9rm7sn1","","","","","",""
"2282.8000000000466","{""pre-2"":1}","[0]","survey-likert","358","957421","0.0-358.0","h9rm7sn1","","","","","",""
"2611.4499999999534","{""pre-3"":1}","[0]","survey-likert","359","960034","0.0-359.0","h9rm7sn1","","","","","",""
"2564.4150000000373","{""post-5"":3}","[0]","survey-likert","360","962600","0.0-360.0","h9rm7sn1","","","","","",""
"","","","call-function","361","962601","0.0-361.0","h9rm7sn1","","","","","",""
"null","","","video-keyboard-response","362","965695","0.0-362.0","h9rm7sn1","","","","null","Agent A","STIM_SET_1_REAL/1592362.bmp_pp95_L2_V1.0_scrambled_freeview_isoFalse_fps144.mp4"
"","","","call-function","363","965695","0.0-363.0","h9rm7sn1","","","","","",""
"1918.2799999999115","{""pre-1"":2}","[0]","survey-likert","364","967614","0.0-364.0","h9rm7sn1","","","","","",""
"1422.6399999998976","{""pre-2"":2}","[0]","survey-likert","365","969038","0.0-365.0","h9rm7sn1","","","","","",""
"1219.8099999999395","{""pre-3"":2}","[0]","survey-likert","366","970259","0.0-366.0","h9rm7sn1","","","","","",""
"1361.25","{""post-5"":1}","[0]","survey-likert","367","971622","0.0-367.0","h9rm7sn1","","","","","",""
"","","","call-function","368","971622","0.0-368.0","h9rm7sn1","","","","","",""
"null","","","video-keyboard-response","369","974696","0.0-369.0","h9rm7sn1","","","","null","Agent A","STIM_SET_1_REAL/1593146.bmp_pp93_L1_V1.0_scrambled_freeview_isoFalse_fps144.mp4"
"","","","call-function","370","974697","0.0-370.0","h9rm7sn1","","","","","",""
"2843.1199999999953","{""pre-1"":1}","[0]","survey-likert","371","977541","0.0-371.0","h9rm7sn1","","","","","",""
"1725.3699999999953","{""pre-2"":2}","[0]","survey-likert","372","979268","0.0-372.0","h9rm7sn1","","","","","",""
"1176.9400000000605","{""pre-3"":2}","[0]","survey-likert","373","980446","0.0-373.0","h9rm7sn1","","","","","",""
"1601.1199999999953","{""post-5"":2}","[0]","survey-likert","374","982048","0.0-374.0","h9rm7sn1","","","","","",""
"","","","call-function","375","982048","0.0-375.0","h9rm7sn1","","","","","",""
"null","","","video-keyboard-response","376","985119","0.0-376.0","h9rm7sn1","","","","null","Agent A","STIM_SET_1_REAL/713135.bmp_pp54_L2_V1.0_scrambled_freeview_isoFalse_fps144.mp4"
"","","","call-function","377","985119","0.0-377.0","h9rm7sn1","","","","","",""
"2871.6999999999534","{""pre-1"":1}","[0]","survey-likert","378","987992","0.0-378.0","h9rm7sn1","","","","","",""
"2796.5650000000605","{""pre-2"":1}","[0]","survey-likert","379","990790","0.0-379.0","h9rm7sn1","","","","","",""
"1965.0100000000093","{""pre-3"":1}","[0]","survey-likert","380","992756","0.0-380.0","h9rm7sn1","","","","","",""
"2094.980000000098","{""post-5"":3}","[0]","survey-likert","381","994852","0.0-381.0","h9rm7sn1","","","","","",""
"","","","call-function","382","994852","0.0-382.0","h9rm7sn1","","","","","",""
"null","","","video-keyboard-response","383","997920","0.0-383.0","h9rm7sn1","","","","null","Agent A","STIM_SET_1_REAL/1592397.bmp_pp85_L3_V1.0_veridical_freeview_isoFalse_fps144.mp4"
"","","","call-function","384","997921","0.0-384.0","h9rm7sn1","","","","","",""
"2920.855000000098","{""pre-1"":1}","[0]","survey-likert","385","1000843","0.0-385.0","h9rm7sn1","","","","","",""
"1302.3800000000047","{""pre-2"":2}","[0]","survey-likert","386","1002146","0.0-386.0","h9rm7sn1","","","","","",""
"1224.7550000000047","{""pre-3"":2}","[0]","survey-likert","387","1003372","0.0-387.0","h9rm7sn1","","","","","",""
"1350.1050000000978","{""post-5"":1}","[0]","survey-likert","388","1004723","0.0-388.0","h9rm7sn1","","","","","",""
"","","","call-function","389","1004723","0.0-389.0","h9rm7sn1","","","","","",""
"null","","","video-keyboard-response","390","1007789","0.0-390.0","h9rm7sn1","","","","null","Agent A","STIM_SET_1_REAL/1159829.bmp_pp91_L3_V1.0_scrambled_freeview_isoFalse_fps144.mp4"
"","","","call-function","391","1007790","0.0-391.0","h9rm7sn1","","","","","",""
"2199.509999999893","{""pre-1"":2}","[0]","survey-likert","392","1009990","0.0-392.0","h9rm7sn1","","","","","",""
"1173.780000000028","{""pre-2"":2}","[0]","survey-likert","393","1011165","0.0-393.0","h9rm7sn1","","","","","",""
"1174.9649999999674","{""pre-3"":2}","[0]","survey-likert","394","1012341","0.0-394.0","h9rm7sn1","","","","","",""
"1134.6450000000186","{""post-5"":1}","[0]","survey-likert","395","1013477","0.0-395.0","h9rm7sn1","","","","","",""
"","","","call-function","396","1013477","0.0-396.0","h9rm7sn1","","","","","",""
"null","","","video-keyboard-response","397","1016574","0.0-397.0","h9rm7sn1","","","","null","Agent A","STIM_SET_1_REAL/713017.bmp_pp152_L2_V1.0_scrambled_freeview_isoFalse_fps144.mp4"
"","","","call-function","398","1016574","0.0-398.0","h9rm7sn1","","","","","",""
"1915.625","{""pre-1"":1}","[0]","survey-likert","399","1018491","0.0-399.0","h9rm7sn1","","","","","",""
"2872.234999999986","{""pre-2"":2}","[0]","survey-likert","400","1021364","0.0-400.0","h9rm7sn1","","","","","",""
"1810.625","{""pre-3"":1}","[0]","survey-likert","401","1023176","0.0-401.0","h9rm7sn1","","","","","",""
"1417.3950000000186","{""post-5"":3}","[0]","survey-likert","402","1024594","0.0-402.0","h9rm7sn1","","","","","",""
"","","","call-function","403","1024595","0.0-403.0","h9rm7sn1","","","","","",""
"null","","","video-keyboard-response","404","1027698","0.0-404.0","h9rm7sn1","","","","null","Agent A","STIM_SET_1_REAL/713681.bmp_pp86_L2_V1.0_veridical_freeview_isoFalse_fps144.mp4"
"","","","call-function","405","1027700","0.0-405.0","h9rm7sn1","","","","","",""
"2965.194999999949","{""pre-1"":2}","[0]","survey-likert","406","1030666","0.0-406.0","h9rm7sn1","","","","","",""
"1539.7850000000326","{""pre-2"":2}","[0]","survey-likert","407","1032208","0.0-407.0","h9rm7sn1","","","","","",""
"1414.5500000000466","{""pre-3"":1}","[0]","survey-likert","408","1033624","0.0-408.0","h9rm7sn1","","","","","",""
"2126.3399999999674","{""post-5"":2}","[0]","survey-likert","409","1035751","0.0-409.0","h9rm7sn1","","","","","",""
"","","","call-function","410","1035752","0.0-410.0","h9rm7sn1","","","","","",""
"null","","","video-keyboard-response","411","1038831","0.0-411.0","h9rm7sn1","","","","null","Agent A","STIM_SET_1_REAL/1592807.bmp_pp68_L1_V1.0_veridical_freeview_isoFalse_fps144.mp4"
"","","","call-function","412","1038832","0.0-412.0","h9rm7sn1","","","","","",""
"2539.8950000000186","{""pre-1"":1}","[0]","survey-likert","413","1041373","0.0-413.0","h9rm7sn1","","","","","",""
"1507.8499999999767","{""pre-2"":2}","[0]","survey-likert","414","1042882","0.0-414.0","h9rm7sn1","","","","","",""
"1967.3250000000698","{""pre-3"":2}","[0]","survey-likert","415","1044851","0.0-415.0","h9rm7sn1","","","","","",""
"2300.960000000079","{""post-5"":1}","[0]","survey-likert","416","1047153","0.0-416.0","h9rm7sn1","","","","","",""
"","","","call-function","417","1047153","0.0-417.0","h9rm7sn1","","","","","",""
"null","","","video-keyboard-response","418","1050212","0.0-418.0","h9rm7sn1","","","","null","Agent A","STIM_SET_1_REAL/285994.bmp_pp92_L3_V1.0_scrambled_freeview_isoFalse_fps144.mp4"
"","","","call-function","419","1050213","0.0-419.0","h9rm7sn1","","","","","",""
"3111.0149999998976","{""pre-1"":1}","[0]","survey-likert","420","1053325","0.0-420.0","h9rm7sn1","","","","","",""
"1728.9499999999534","{""pre-2"":2}","[0]","survey-likert","421","1055055","0.0-421.0","h9rm7sn1","","","","","",""
"1163.9250000000466","{""pre-3"":2}","[0]","survey-likert","422","1056220","0.0-422.0","h9rm7sn1","","","","","",""
"1458.3299999998417","{""post-5"":1}","[0]","survey-likert","423","1057679","0.0-423.0","h9rm7sn1","","","","","",""
"","","","call-function","424","1057680","0.0-424.0","h9rm7sn1","","","","","",""
"null","","","video-keyboard-response","425","1060745","0.0-425.0","h9rm7sn1","","","","null","Agent A","STIM_SET_1_REAL/1593035.bmp_pp94_L2_V1.0_veridical_freeview_isoFalse_fps144.mp4"
"","","","call-function","426","1060745","0.0-426.0","h9rm7sn1","","","","","",""
"2221.804999999935","{""pre-1"":1}","[0]","survey-likert","427","1062968","0.0-427.0","h9rm7sn1","","","","","",""
"1452.7700000000186","{""pre-2"":2}","[0]","survey-likert","428","1064422","0.0-428.0","h9rm7sn1","","","","","",""
"1571.1399999998976","{""pre-3"":3}","[0]","survey-likert","429","1065994","0.0-429.0","h9rm7sn1","","","","","",""
"2222.0200000000186","{""post-5"":0}","[0]","survey-likert","430","1068217","0.0-430.0","h9rm7sn1","","","","","",""
"","","","call-function","431","1068218","0.0-431.0","h9rm7sn1","","","","","",""
"null","","","video-keyboard-response","432","1071293","0.0-432.0","h9rm7sn1","","","","null","Agent A","STIM_SET_1_REAL/713593.bmp_pp64_L1_V1.0_veridical_freeview_isoFalse_fps144.mp4"
"","","","call-function","433","1071294","0.0-433.0","h9rm7sn1","","","","","",""
"3419.219999999972","{""pre-1"":2}","[0]","survey-likert","434","1074714","0.0-434.0","h9rm7sn1","","","","","",""
"2729.2600000000093","{""pre-2"":2}","[0]","survey-likert","435","1077444","0.0-435.0","h9rm7sn1","","","","","",""
"3958.5499999998137","{""pre-3"":2}","[0]","survey-likert","436","1081404","0.0-436.0","h9rm7sn1","","","","","",""
"1668.0499999998137","{""post-5"":1}","[0]","survey-likert","437","1083075","0.0-437.0","h9rm7sn1","","","","","",""
"","","","call-function","438","1083076","0.0-438.0","h9rm7sn1","","","","","",""
"null","","","video-keyboard-response","439","1086191","0.0-439.0","h9rm7sn1","","","","null","Agent A","STIM_SET_1_REAL/713681.bmp_pp86_L2_V1.0_scrambled_freeview_isoFalse_fps144.mp4"
"","","","call-function","440","1086191","0.0-440.0","h9rm7sn1","","","","","",""
"2614.394999999786","{""pre-1"":1}","[0]","survey-likert","441","1088807","0.0-441.0","h9rm7sn1","","","","","",""
"1391.9150000000373","{""pre-2"":1}","[0]","survey-likert","442","1090200","0.0-442.0","h9rm7sn1","","","","","",""
"1353.8549999999814","{""pre-3"":1}","[0]","survey-likert","443","1091555","0.0-443.0","h9rm7sn1","","","","","",""
"1309.8649999999907","{""post-5"":2}","[0]","survey-likert","444","1092866","0.0-444.0","h9rm7sn1","","","","","",""
"38400.20999999996","","","instructions","445","1131267","0.0-445.0","h9rm7sn1","[{""page_index"":0,""viewing_time"":2689.125},{""page_index"":1,""viewing_time"":21361.804999999935},{""page_index"":2,""viewing_time"":14349.110000000102}]","","","","",""
"2653.3249999999534","","","instructions","446","1133921","0.0-446.0","h9rm7sn1","[{""page_index"":0,""viewing_time"":839.2199999999721},{""page_index"":1,""viewing_time"":959.9549999998417},{""page_index"":2,""viewing_time"":854.0500000000466}]","","","","",""
"","","","call-function","447","1133921","0.0-447.0","h9rm7sn1","","","","","",""
"null","","","video-keyboard-response","448","1136995","0.0-448.0","h9rm7sn1","","","","null","Agent A","STIM_SET_1_REAL/1592657.bmp_pp98_L1_V1.0_veridical_freeview_isoFalse_fps144.mp4"
"","","","call-function","449","1136996","0.0-449.0","h9rm7sn1","","","","","",""
"2869.0450000001583","{""pre-1"":1}","[0]","survey-likert","450","1139866","0.0-450.0","h9rm7sn1","","","","","",""
"5071.635000000009","{""pre-2"":0}","[0]","survey-likert","451","1144938","0.0-451.0","h9rm7sn1","","","","","",""
"3791.0500000000466","{""pre-3"":0}","[0]","survey-likert","452","1148730","0.0-452.0","h9rm7sn1","","","","","",""
"2015.5450000001583","{""post-5"":2}","[0]","survey-likert","453","1150747","0.0-453.0","h9rm7sn1","","","","","",""
"","","","call-function","454","1150747","0.0-454.0","h9rm7sn1","","","","","",""
"null","","","video-keyboard-response","455","1153815","0.0-455.0","h9rm7sn1","","","","null","Agent A","STIM_SET_1_REAL/1592397.bmp_pp85_L3_V1.0_scrambled_freeview_isoFalse_fps144.mp4"
"","","","call-function","456","1153815","0.0-456.0","h9rm7sn1","","","","","",""
"2370.3649999999907","{""pre-1"":2}","[0]","survey-likert","457","1156186","0.0-457.0","h9rm7sn1","","","","","",""
"1591.1149999999907","{""pre-2"":3}","[0]","survey-likert","458","1157779","0.0-458.0","h9rm7sn1","","","","","",""
"1270.4499999999534","{""pre-3"":3}","[0]","survey-likert","459","1159050","0.0-459.0","h9rm7sn1","","","","","",""
"1167.934999999823","{""post-5"":0}","[0]","survey-likert","460","1160219","0.0-460.0","h9rm7sn1","","","","","",""
"","","","call-function","461","1160219","0.0-461.0","h9rm7sn1","","","","","",""
"null","","","video-keyboard-response","462","1163280","0.0-462.0","h9rm7sn1","","","","null","Agent A","STIM_SET_1_REAL/1592619.bmp_pp56_L3_V1.0_veridical_freeview_isoFalse_fps144.mp4"
"","","","call-function","463","1163280","0.0-463.0","h9rm7sn1","","","","","",""
"2955.689999999944","{""pre-1"":2}","[0]","survey-likert","464","1166237","0.0-464.0","h9rm7sn1","","","","","",""
"1418.125","{""pre-2"":1}","[0]","survey-likert","465","1167656","0.0-465.0","h9rm7sn1","","","","","",""
"1329.7100000001956","{""pre-3"":1}","[0]","survey-likert","466","1168987","0.0-466.0","h9rm7sn1","","","","","",""
"1441.3850000000093","{""post-5"":1}","[0]","survey-likert","467","1170429","0.0-467.0","h9rm7sn1","","","","","",""
"","","","call-function","468","1170430","0.0-468.0","h9rm7sn1","","","","","",""
"null","","","video-keyboard-response","469","1173496","0.0-469.0","h9rm7sn1","","","","null","Agent A","STIM_SET_1_REAL/1592934.bmp_pp63_L1_V1.0_veridical_freeview_isoFalse_fps144.mp4"
"","","","call-function","470","1173497","0.0-470.0","h9rm7sn1","","","","","",""
"2721.6149999999907","{""pre-1"":2}","[0]","survey-likert","471","1176221","0.0-471.0","h9rm7sn1","","","","","",""
"1432.6450000000186","{""pre-2"":1}","[0]","survey-likert","472","1177656","0.0-472.0","h9rm7sn1","","","","","",""
"1191.5750000001863","{""pre-3"":2}","[0]","survey-likert","473","1178849","0.0-473.0","h9rm7sn1","","","","","",""
"1827.6299999998882","{""post-5"":2}","[0]","survey-likert","474","1180678","0.0-474.0","h9rm7sn1","","","","","",""
"","","","call-function","475","1180678","0.0-475.0","h9rm7sn1","","","","","",""
"null","","","video-keyboard-response","476","1183754","0.0-476.0","h9rm7sn1","","","","null","Agent A","STIM_SET_1_REAL/1159675.bmp_pp77_L3_V1.0_scrambled_freeview_isoFalse_fps144.mp4"
"","","","call-function","477","1183755","0.0-477.0","h9rm7sn1","","","","","",""
"3454.605000000214","{""pre-1"":1}","[0]","survey-likert","478","1187211","0.0-478.0","h9rm7sn1","","","","","",""
"1423.3850000000093","{""pre-2"":2}","[0]","survey-likert","479","1188636","0.0-479.0","h9rm7sn1","","","","","",""
"2011.6149999999907","{""pre-3"":2}","[0]","survey-likert","480","1190648","0.0-480.0","h9rm7sn1","","","","","",""
"2651.475000000093","{""post-5"":1}","[0]","survey-likert","481","1193301","0.0-481.0","h9rm7sn1","","","","","",""
"","","","call-function","482","1193302","0.0-482.0","h9rm7sn1","","","","","",""
"null","","","video-keyboard-response","483","1196363","0.0-483.0","h9rm7sn1","","","","null","Agent A","STIM_SET_1_REAL/1592351.bmp_pp51_L1_V1.0_veridical_freeview_isoFalse_fps144.mp4"
"","","","call-function","484","1196364","0.0-484.0","h9rm7sn1","","","","","",""
"2087.4749999998603","{""pre-1"":1}","[0]","survey-likert","485","1198452","0.0-485.0","h9rm7sn1","","","","","",""
"1618.0449999999255","{""pre-2"":1}","[0]","survey-likert","486","1200071","0.0-486.0","h9rm7sn1","","","","","",""
"2165.3700000001118","{""pre-3"":2}","[0]","survey-likert","487","1202238","0.0-487.0","h9rm7sn1","","","","","",""
"2358.2099999999627","{""post-5"":1}","[0]","survey-likert","488","1204597","0.0-488.0","h9rm7sn1","","","","","",""
"","","","call-function","489","1204597","0.0-489.0","h9rm7sn1","","","","","",""
"null","","","video-keyboard-response","490","1207667","0.0-490.0","h9rm7sn1","","","","null","Agent A","STIM_SET_1_REAL/1592286.bmp_pp52_L1_V1.0_veridical_freeview_isoFalse_fps144.mp4"
"","","","call-function","491","1207667","0.0-491.0","h9rm7sn1","","","","","",""
"2711.0150000001304","{""pre-1"":2}","[0]","survey-likert","492","1210379","0.0-492.0","h9rm7sn1","","","","","",""
"1227.2249999998603","{""pre-2"":2}","[0]","survey-likert","493","1211607","0.0-493.0","h9rm7sn1","","","","","",""
"2156.0500000000466","{""pre-3"":1}","[0]","survey-likert","494","1213765","0.0-494.0","h9rm7sn1","","","","","",""
"1361.7399999999907","{""post-5"":2}","[0]","survey-likert","495","1215127","0.0-495.0","h9rm7sn1","","","","","",""
"","","","call-function","496","1215128","0.0-496.0","h9rm7sn1","","","","","",""
"null","","","video-keyboard-response","497","1218215","0.0-497.0","h9rm7sn1","","","","null","Agent A","STIM_SET_1_REAL/1593035.bmp_pp94_L2_V1.0_scrambled_freeview_isoFalse_fps144.mp4"
"","","","call-function","498","1218216","0.0-498.0","h9rm7sn1","","","","","",""
"2070.2600000000093","{""pre-1"":0}","[0]","survey-likert","499","1220288","0.0-499.0","h9rm7sn1","","","","","",""
"2589.784999999916","{""pre-2"":0}","[0]","survey-likert","500","1222880","0.0-500.0","h9rm7sn1","","","","","",""
"1183.4099999999162","{""pre-3"":0}","[0]","survey-likert","501","1224066","0.0-501.0","h9rm7sn1","","","","","",""
"1834.7399999999907","{""post-5"":3}","[0]","survey-likert","502","1225902","0.0-502.0","h9rm7sn1","","","","","",""
"","","","call-function","503","1225903","0.0-503.0","h9rm7sn1","","","","","",""
"null","","","video-keyboard-response","504","1228982","0.0-504.0","h9rm7sn1","","","","null","Agent A","STIM_SET_1_REAL/498253.bmp_pp67_L2_V1.0_scrambled_freeview_isoFalse_fps144.mp4"
"","","","call-function","505","1228983","0.0-505.0","h9rm7sn1","","","","","",""
"1864.3850000000093","{""pre-1"":1}","[0]","survey-likert","506","1230848","0.0-506.0","h9rm7sn1","","","","","",""
"1630.125","{""pre-2"":1}","[0]","survey-likert","507","1232480","0.0-507.0","h9rm7sn1","","","","","",""
"2167.9550000000745","{""pre-3"":1}","[0]","survey-likert","508","1234649","0.0-508.0","h9rm7sn1","","","","","",""
"1883.285000000149","{""post-5"":2}","[0]","survey-likert","509","1236533","0.0-509.0","h9rm7sn1","","","","","",""
"","","","call-function","510","1236534","0.0-510.0","h9rm7sn1","","","","","",""
"null","","","video-keyboard-response","511","1239609","0.0-511.0","h9rm7sn1","","","","null","Agent A","STIM_SET_1_REAL/713593.bmp_pp64_L1_V1.0_scrambled_freeview_isoFalse_fps144.mp4"
"","","","call-function","512","1239609","0.0-512.0","h9rm7sn1","","","","","",""
"3078.5749999999534","{""pre-1"":0}","[0]","survey-likert","513","1242689","0.0-513.0","h9rm7sn1","","","","","",""
"4334.35999999987","{""pre-2"":0}","[0]","survey-likert","514","1247024","0.0-514.0","h9rm7sn1","","","","","",""
"2848.564999999944","{""pre-3"":0}","[0]","survey-likert","515","1249874","0.0-515.0","h9rm7sn1","","","","","",""
"1821.625","{""post-5"":3}","[0]","survey-likert","516","1251697","0.0-516.0","h9rm7sn1","","","","","",""
"","","","call-function","517","1251697","0.0-517.0","h9rm7sn1","","","","","",""
"null","","","video-keyboard-response","518","1254758","0.0-518.0","h9rm7sn1","","","","null","Agent A","STIM_SET_1_REAL/286001.bmp_pp54_L2_V1.0_veridical_freeview_isoFalse_fps144.mp4"
"","","","call-function","519","1254758","0.0-519.0","h9rm7sn1","","","","","",""
"1550.155000000028","{""pre-1"":0}","[0]","survey-likert","520","1256309","0.0-520.0","h9rm7sn1","","","","","",""
"1788.5749999999534","{""pre-2"":0}","[0]","survey-likert","521","1258099","0.0-521.0","h9rm7sn1","","","","","",""
"1553.964999999851","{""pre-3"":0}","[0]","survey-likert","522","1259654","0.0-522.0","h9rm7sn1","","","","","",""
"1715.5549999999348","{""post-5"":3}","[0]","survey-likert","523","1261371","0.0-523.0","h9rm7sn1","","","","","",""
"","","","call-function","524","1261371","0.0-524.0","h9rm7sn1","","","","","",""
"null","","","video-keyboard-response","525","1264445","0.0-525.0","h9rm7sn1","","","","null","Agent A","STIM_SET_1_REAL/713211.bmp_pp100_L3_V1.0_veridical_freeview_isoFalse_fps144.mp4"
"","","","call-function","526","1264446","0.0-526.0","h9rm7sn1","","","","","",""
"1862.719999999972","{""pre-1"":2}","[0]","survey-likert","527","1266309","0.0-527.0","h9rm7sn1","","","","","",""
"2648.0049999998882","{""pre-2"":3}","[0]","survey-likert","528","1268959","0.0-528.0","h9rm7sn1","","","","","",""
"2112.5250000001397","{""pre-3"":3}","[0]","survey-likert","529","1271072","0.0-529.0","h9rm7sn1","","","","","",""
"1473.7250000000931","{""post-5"":0}","[0]","survey-likert","530","1272548","0.0-530.0","h9rm7sn1","","","","","",""
"","","","call-function","531","1272549","0.0-531.0","h9rm7sn1","","","","","",""
"null","","","video-keyboard-response","532","1275651","0.0-532.0","h9rm7sn1","","","","null","Agent A","STIM_SET_1_REAL/61537.bmp_pp73_L3_V1.0_scrambled_freeview_isoFalse_fps144.mp4"
"","","","call-function","533","1275651","0.0-533.0","h9rm7sn1","","","","","",""
"2144.5500000000466","{""pre-1"":1}","[0]","survey-likert","534","1277797","0.0-534.0","h9rm7sn1","","","","","",""
"4604.310000000056","{""pre-2"":0}","[0]","survey-likert","535","1282402","0.0-535.0","h9rm7sn1","","","","","",""
"5629.699999999953","{""pre-3"":1}","[0]","survey-likert","536","1288034","0.0-536.0","h9rm7sn1","","","","","",""
"1668.3950000000186","{""post-5"":3}","[0]","survey-likert","537","1289703","0.0-537.0","h9rm7sn1","","","","","",""
"","","","call-function","538","1289704","0.0-538.0","h9rm7sn1","","","","","",""
"null","","","video-keyboard-response","539","1292765","0.0-539.0","h9rm7sn1","","","","null","Agent A","STIM_SET_1_REAL/1159446.bmp_pp60_L3_V1.0_veridical_freeview_isoFalse_fps144.mp4"
"","","","call-function","540","1292766","0.0-540.0","h9rm7sn1","","","","","",""
"2390.4250000000466","{""pre-1"":2}","[0]","survey-likert","541","1295158","0.0-541.0","h9rm7sn1","","","","","",""
"1188.5049999998882","{""pre-2"":2}","[0]","survey-likert","542","1296347","0.0-542.0","h9rm7sn1","","","","","",""
"1400.9899999999907","{""pre-3"":2}","[0]","survey-likert","543","1297749","0.0-543.0","h9rm7sn1","","","","","",""
"1297.9150000000373","{""post-5"":1}","[0]","survey-likert","544","1299049","0.0-544.0","h9rm7sn1","","","","","",""
"","","","call-function","545","1299049","0.0-545.0","h9rm7sn1","","","","","",""
"null","","","video-keyboard-response","546","1302109","0.0-546.0","h9rm7sn1","","","","null","Agent A","STIM_SET_1_REAL/498170.bmp_pp153_L3_V1.0_veridical_freeview_isoFalse_fps144.mp4"
"","","","call-function","547","1302110","0.0-547.0","h9rm7sn1","","","","","",""
"3042.564999999944","{""pre-1"":1}","[0]","survey-likert","548","1305153","0.0-548.0","h9rm7sn1","","","","","",""
"1652.4500000001863","{""pre-2"":2}","[0]","survey-likert","549","1306807","0.0-549.0","h9rm7sn1","","","","","",""
"1252.469999999972","{""pre-3"":2}","[0]","survey-likert","550","1308060","0.0-550.0","h9rm7sn1","","","","","",""
"1784.809999999823","{""post-5"":1}","[0]","survey-likert","551","1309846","0.0-551.0","h9rm7sn1","","","","","",""
"","","","call-function","552","1309847","0.0-552.0","h9rm7sn1","","","","","",""
"null","","","video-keyboard-response","553","1312921","0.0-553.0","h9rm7sn1","","","","null","Agent A","STIM_SET_1_REAL/1159777.bmp_pp77_L3_V1.0_veridical_freeview_isoFalse_fps144.mp4"
"","","","call-function","554","1312922","0.0-554.0","h9rm7sn1","","","","","",""
"2272.9249999998137","{""pre-1"":2}","[0]","survey-likert","555","1315195","0.0-555.0","h9rm7sn1","","","","","",""
"1946.7050000000745","{""pre-2"":3}","[0]","survey-likert","556","1317143","0.0-556.0","h9rm7sn1","","","","","",""
"1455.2299999999814","{""pre-3"":3}","[0]","survey-likert","557","1318600","0.0-557.0","h9rm7sn1","","","","","",""
"1189.6100000001024","{""post-5"":0}","[0]","survey-likert","558","1319790","0.0-558.0","h9rm7sn1","","","","","",""
"","","","call-function","559","1319791","0.0-559.0","h9rm7sn1","","","","","",""
"null","","","video-keyboard-response","560","1322855","0.0-560.0","h9rm7sn1","","","","null","Agent A","STIM_SET_1_REAL/1592133.bmp_pp75_L1_V1.0_veridical_freeview_isoFalse_fps144.mp4"
"","","","call-function","561","1322855","0.0-561.0","h9rm7sn1","","","","","",""
"3285.940000000177","{""pre-1"":2}","[0]","survey-likert","562","1326143","0.0-562.0","h9rm7sn1","","","","","",""
"1418.7749999999069","{""pre-2"":2}","[0]","survey-likert","563","1327564","0.0-563.0","h9rm7sn1","","","","","",""
"1319.4199999999255","{""pre-3"":2}","[0]","survey-likert","564","1328885","0.0-564.0","h9rm7sn1","","","","","",""
"1072.75","{""post-5"":1}","[0]","survey-likert","565","1329959","0.0-565.0","h9rm7sn1","","","","","",""
"","","","call-function","566","1329960","0.0-566.0","h9rm7sn1","","","","","",""
"null","","","video-keyboard-response","567","1333028","0.0-567.0","h9rm7sn1","","","","null","Agent A","STIM_SET_1_REAL/1592727.bmp_pp59_L3_V1.0_veridical_freeview_isoFalse_fps144.mp4"
"","","","call-function","568","1333029","0.0-568.0","h9rm7sn1","","","","","",""
"2685.9850000001024","{""pre-1"":1}","[0]","survey-likert","569","1335716","0.0-569.0","h9rm7sn1","","","","","",""
"1461.094999999972","{""pre-2"":1}","[0]","survey-likert","570","1337178","0.0-570.0","h9rm7sn1","","","","","",""
"1657.719999999972","{""pre-3"":0}","[0]","survey-likert","571","1338837","0.0-571.0","h9rm7sn1","","","","","",""
"2639.969999999972","{""post-5"":3}","[0]","survey-likert","572","1341478","0.0-572.0","h9rm7sn1","","","","","",""
"","","","call-function","573","1341479","0.0-573.0","h9rm7sn1","","","","","",""
"null","","","video-keyboard-response","574","1344546","0.0-574.0","h9rm7sn1","","","","null","Agent A","STIM_SET_1_REAL/1159515.bmp_pp84_L3_V1.0_scrambled_freeview_isoFalse_fps144.mp4"
"","","","call-function","575","1344546","0.0-575.0","h9rm7sn1","","","","","",""
"2483.3649999999907","{""pre-1"":1}","[0]","survey-likert","576","1347030","0.0-576.0","h9rm7sn1","","","","","",""
"2026.5749999999534","{""pre-2"":1}","[0]","survey-likert","577","1349058","0.0-577.0","h9rm7sn1","","","","","",""
"1735.559999999823","{""pre-3"":1}","[0]","survey-likert","578","1350795","0.0-578.0","h9rm7sn1","","","","","",""
"1880.344999999972","{""post-5"":3}","[0]","survey-likert","579","1352676","0.0-579.0","h9rm7sn1","","","","","",""
"","","","call-function","580","1352677","0.0-580.0","h9rm7sn1","","","","","",""
"null","","","video-keyboard-response","581","1355737","0.0-581.0","h9rm7sn1","","","","null","Agent A","STIM_SET_1_REAL/1592133.bmp_pp75_L1_V1.0_scrambled_freeview_isoFalse_fps144.mp4"
"","","","call-function","582","1355737","0.0-582.0","h9rm7sn1","","","","","",""
"4189.435000000056","{""pre-1"":0}","[0]","survey-likert","583","1359928","0.0-583.0","h9rm7sn1","","","","","",""
"2273.899999999907","{""pre-2"":0}","[0]","survey-likert","584","1362202","0.0-584.0","h9rm7sn1","","","","","",""
"1765.6899999999441","{""pre-3"":0}","[0]","survey-likert","585","1363969","0.0-585.0","h9rm7sn1","","","","","",""
"1310.2549999998882","{""post-5"":3}","[0]","survey-likert","586","1365281","0.0-586.0","h9rm7sn1","","","","","",""
"28203.610000000102","","","instructions","587","1393485","0.0-587.0","h9rm7sn1","[{""page_index"":0,""viewing_time"":2501.160000000149},{""page_index"":1,""viewing_time"":24785.21499999985},{""page_index"":2,""viewing_time"":917.0449999999255}]","","","","",""
"2461.1200000001118","","","instructions","588","1395946","0.0-588.0","h9rm7sn1","[{""page_index"":0,""viewing_time"":835.8149999999441},{""page_index"":1,""viewing_time"":796.0100000000093},{""page_index"":2,""viewing_time"":829.190000000177}]","","","","",""
"","","","call-function","589","1395947","0.0-589.0","h9rm7sn1","","","","","",""
"null","","","video-keyboard-response","590","1399008","0.0-590.0","h9rm7sn1","","","","null","Agent A","STIM_SET_1_REAL/713779.bmp_pp152_L2_V1.0_veridical_freeview_isoFalse_fps144.mp4"
"","","","call-function","591","1399008","0.0-591.0","h9rm7sn1","","","","","",""
"1993.0200000000186","{""pre-1"":2}","[0]","survey-likert","592","1401004","0.0-592.0","h9rm7sn1","","","","","",""
"3379.804999999935","{""pre-2"":2}","[0]","survey-likert","593","1404386","0.0-593.0","h9rm7sn1","","","","","",""
"1445.8149999999441","{""pre-3"":1}","[0]","survey-likert","594","1405834","0.0-594.0","h9rm7sn1","","","","","",""
"1518.625","{""post-5"":2}","[0]","survey-likert","595","1407354","0.0-595.0","h9rm7sn1","","","","","",""
"","","","call-function","596","1407354","0.0-596.0","h9rm7sn1","","","","","",""
"null","","","video-keyboard-response","597","1410428","0.0-597.0","h9rm7sn1","","","","null","Agent A","STIM_SET_1_REAL/1159440.bmp_pp98_L1_V1.0_scrambled_freeview_isoFalse_fps144.mp4"
"","","","call-function","598","1410428","0.0-598.0","h9rm7sn1","","","","","",""
"2148.9849999998696","{""pre-1"":1}","[0]","survey-likert","599","1412579","0.0-599.0","h9rm7sn1","","","","","",""
"4950.165000000037","{""pre-2"":2}","[0]","survey-likert","600","1417530","0.0-600.0","h9rm7sn1","","","","","",""
"5638.655000000028","{""pre-3"":1}","[0]","survey-likert","601","1423170","0.0-601.0","h9rm7sn1","","","","","",""
"2762.274999999907","{""post-5"":1}","[0]","survey-likert","602","1425934","0.0-602.0","h9rm7sn1","","","","","",""
"","","","call-function","603","1425934","0.0-603.0","h9rm7sn1","","","","","",""
"null","","","video-keyboard-response","604","1428997","0.0-604.0","h9rm7sn1","","","","null","Agent A","STIM_SET_1_REAL/1592817.bmp_pp55_L3_V1.0_veridical_freeview_isoFalse_fps144.mp4"
"","","","call-function","605","1428998","0.0-605.0","h9rm7sn1","","","","","",""
"2295.6749999998137","{""pre-1"":1}","[0]","survey-likert","606","1431295","0.0-606.0","h9rm7sn1","","","","","",""
"3157.0550000001676","{""pre-2"":1}","[0]","survey-likert","607","1434453","0.0-607.0","h9rm7sn1","","","","","",""
"1863.6650000000373","{""pre-3"":0}","[0]","survey-likert","608","1436318","0.0-608.0","h9rm7sn1","","","","","",""
"2768.190000000177","{""post-5"":2}","[0]","survey-likert","609","1439087","0.0-609.0","h9rm7sn1","","","","","",""
"","","","call-function","610","1439088","0.0-610.0","h9rm7sn1","","","","","",""
"null","","","video-keyboard-response","611","1442155","0.0-611.0","h9rm7sn1","","","","null","Agent A","STIM_SET_1_REAL/1592727.bmp_pp59_L3_V1.0_scrambled_freeview_isoFalse_fps144.mp4"
"","","","call-function","612","1442156","0.0-612.0","h9rm7sn1","","","","","",""
"2729.8700000001118","{""pre-1"":0}","[0]","survey-likert","613","1444887","0.0-613.0","h9rm7sn1","","","","","",""
"1500.1850000000559","{""pre-2"":0}","[0]","survey-likert","614","1446389","0.0-614.0","h9rm7sn1","","","","","",""
"1662.3199999998324","{""pre-3"":0}","[0]","survey-likert","615","1448052","0.0-615.0","h9rm7sn1","","","","","",""
"1946.094999999972","{""post-5"":3}","[0]","survey-likert","616","1450000","0.0-616.0","h9rm7sn1","","","","","",""
"","","","call-function","617","1450000","0.0-617.0","h9rm7sn1","","","","","",""
"null","","","video-keyboard-response","618","1453075","0.0-618.0","h9rm7sn1","","","","null","Agent A","STIM_SET_1_REAL/498175.bmp_pp154_L1_V1.0_scrambled_freeview_isoFalse_fps144.mp4"
"","","","call-function","619","1453076","0.0-619.0","h9rm7sn1","","","","","",""
"4851.965000000084","{""pre-1"":1}","[0]","survey-likert","620","1457929","0.0-620.0","h9rm7sn1","","","","","",""
"4473.864999999991","{""pre-2"":0}","[0]","survey-likert","621","1462404","0.0-621.0","h9rm7sn1","","","","","",""
"5652.479999999981","{""pre-3"":0}","[0]","survey-likert","622","1468058","0.0-622.0","h9rm7sn1","","","","","",""
"6106.994999999879","{""post-5"":2}","[0]","survey-likert","623","1474167","0.0-623.0","h9rm7sn1","","","","","",""
"","","","call-function","624","1474168","0.0-624.0","h9rm7sn1","","","","","",""
"null","","","video-keyboard-response","625","1477231","0.0-625.0","h9rm7sn1","","","","null","Agent A","STIM_SET_1_REAL/1159446.bmp_pp60_L3_V1.0_scrambled_freeview_isoFalse_fps144.mp4"
"","","","call-function","626","1477232","0.0-626.0","h9rm7sn1","","","","","",""
"1790.2399999999907","{""pre-1"":0}","[0]","survey-likert","627","1479023","0.0-627.0","h9rm7sn1","","","","","",""
"2026.8500000000931","{""pre-2"":0}","[0]","survey-likert","628","1481051","0.0-628.0","h9rm7sn1","","","","","",""
"1479.030000000028","{""pre-3"":0}","[0]","survey-likert","629","1482531","0.0-629.0","h9rm7sn1","","","","","",""
"1928.5100000000093","{""post-5"":3}","[0]","survey-likert","630","1484461","0.0-630.0","h9rm7sn1","","","","","",""
"","","","call-function","631","1484462","0.0-631.0","h9rm7sn1","","","","","",""
"null","","","video-keyboard-response","632","1487538","0.0-632.0","h9rm7sn1","","","","null","Agent A","STIM_SET_1_REAL/713707.bmp_pp154_L1_V1.0_scrambled_freeview_isoFalse_fps144.mp4"
"","","","call-function","633","1487538","0.0-633.0","h9rm7sn1","","","","","",""
"2479.530000000028","{""pre-1"":0}","[0]","survey-likert","634","1490019","0.0-634.0","h9rm7sn1","","","","","",""
"1684.8400000000838","{""pre-2"":0}","[0]","survey-likert","635","1491705","0.0-635.0","h9rm7sn1","","","","","",""
"1987.7949999999255","{""pre-3"":1}","[0]","survey-likert","636","1493694","0.0-636.0","h9rm7sn1","","","","","",""
"2525.5149999998976","{""post-5"":3}","[0]","survey-likert","637","1496221","0.0-637.0","h9rm7sn1","","","","","",""
"","","","call-function","638","1496221","0.0-638.0","h9rm7sn1","","","","","",""
"null","","","video-keyboard-response","639","1499282","0.0-639.0","h9rm7sn1","","","","null","Agent A","STIM_SET_1_REAL/498170.bmp_pp153_L3_V1.0_scrambled_freeview_isoFalse_fps144.mp4"
"","","","call-function","640","1499283","0.0-640.0","h9rm7sn1","","","","","",""
"1857.7600000000093","{""pre-1"":2}","[0]","survey-likert","641","1501142","0.0-641.0","h9rm7sn1","","","","","",""
"1247.8700000001118","{""pre-2"":2}","[0]","survey-likert","642","1502391","0.0-642.0","h9rm7sn1","","","","","",""
"1722.910000000149","{""pre-3"":2}","[0]","survey-likert","643","1504115","0.0-643.0","h9rm7sn1","","","","","",""
"2074.9899999999907","{""post-5"":0}","[0]","survey-likert","644","1506191","0.0-644.0","h9rm7sn1","","","","","",""
"","","","call-function","645","1506191","0.0-645.0","h9rm7sn1","","","","","",""
"null","","","video-keyboard-response","646","1509252","0.0-646.0","h9rm7sn1","","","","null","Agent A","STIM_SET_1_REAL/498149.bmp_pp99_L2_V1.0_scrambled_freeview_isoFalse_fps144.mp4"
"","","","call-function","647","1509252","0.0-647.0","h9rm7sn1","","","","","",""
"1999.8899999998976","{""pre-1"":1}","[0]","survey-likert","648","1511253","0.0-648.0","h9rm7sn1","","","","","",""
"3685.4000000001397","{""pre-2"":0}","[0]","survey-likert","649","1514939","0.0-649.0","h9rm7sn1","","","","","",""
"2435.344999999972","{""pre-3"":0}","[0]","survey-likert","650","1517376","0.0-650.0","h9rm7sn1","","","","","",""
"2224.655000000028","{""post-5"":2}","[0]","survey-likert","651","1519602","0.0-651.0","h9rm7sn1","","","","","",""
"","","","call-function","652","1519604","0.0-652.0","h9rm7sn1","","","","","",""
"null","","","video-keyboard-response","653","1522714","0.0-653.0","h9rm7sn1","","","","null","Agent A","STIM_SET_1_REAL/1592372.bmp_pp76_L1_V1.0_veridical_freeview_isoFalse_fps144.mp4"
"","","","call-function","654","1522715","0.0-654.0","h9rm7sn1","","","","","",""
"2115.3350000001956","{""pre-1"":2}","[0]","survey-likert","655","1524831","0.0-655.0","h9rm7sn1","","","","","",""
"2223.9799999999814","{""pre-2"":3}","[0]","survey-likert","656","1527056","0.0-656.0","h9rm7sn1","","","","","",""
"1446.6299999998882","{""pre-3"":3}","[0]","survey-likert","657","1528504","0.0-657.0","h9rm7sn1","","","","","",""
"1592.535000000149","{""post-5"":0}","[0]","survey-likert","658","1530098","0.0-658.0","h9rm7sn1","","","","","",""
"","","","call-function","659","1530099","0.0-659.0","h9rm7sn1","","","","","",""
"null","","","video-keyboard-response","660","1533174","0.0-660.0","h9rm7sn1","","","","null","Agent A","STIM_SET_1_REAL/713760.bmp_pp81_L1_V1.0_scrambled_freeview_isoFalse_fps144.mp4"
"","","","call-function","661","1533175","0.0-661.0","h9rm7sn1","","","","","",""
"2239.9499999999534","{""pre-1"":0}","[0]","survey-likert","662","1535416","0.0-662.0","h9rm7sn1","","","","","",""
"3190.060000000056","{""pre-2"":1}","[0]","survey-likert","663","1538607","0.0-663.0","h9rm7sn1","","","","","",""
"1460.7150000000838","{""pre-3"":1}","[0]","survey-likert","664","1540069","0.0-664.0","h9rm7sn1","","","","","",""
"2483.285000000149","{""post-5"":2}","[0]","survey-likert","665","1542553","0.0-665.0","h9rm7sn1","","","","","",""
"","","","call-function","666","1542554","0.0-666.0","h9rm7sn1","","","","","",""
"null","","","video-keyboard-response","667","1545620","0.0-667.0","h9rm7sn1","","","","null","Agent A","STIM_SET_1_REAL/713513.bmp_pp62_L2_V1.0_scrambled_freeview_isoFalse_fps144.mp4"
"","","","call-function","668","1545620","0.0-668.0","h9rm7sn1","","","","","",""
"3148.7000000001863","{""pre-1"":0}","[0]","survey-likert","669","1548770","0.0-669.0","h9rm7sn1","","","","","",""
"1390.3499999998603","{""pre-2"":0}","[0]","survey-likert","670","1550162","0.0-670.0","h9rm7sn1","","","","","",""
"1531.8299999998417","{""pre-3"":0}","[0]","survey-likert","671","1551695","0.0-671.0","h9rm7sn1","","","","","",""
"2477.2399999999907","{""post-5"":3}","[0]","survey-likert","672","1554173","0.0-672.0","h9rm7sn1","","","","","",""
"","","","call-function","673","1554173","0.0-673.0","h9rm7sn1","","","","","",""
"null","","","video-keyboard-response","674","1557248","0.0-674.0","h9rm7sn1","","","","null","Agent A","STIM_SET_1_REAL/498253.bmp_pp67_L2_V1.0_veridical_freeview_isoFalse_fps144.mp4"
"","","","call-function","675","1557249","0.0-675.0","h9rm7sn1","","","","","",""
"2427.155000000028","{""pre-1"":2}","[0]","survey-likert","676","1559677","0.0-676.0","h9rm7sn1","","","","","",""
"1399.130000000121","{""pre-2"":2}","[0]","survey-likert","677","1561078","0.0-677.0","h9rm7sn1","","","","","",""
"1748.880000000121","{""pre-3"":2}","[0]","survey-likert","678","1562828","0.0-678.0","h9rm7sn1","","","","","",""
"1111.9750000000931","{""post-5"":1}","[0]","survey-likert","679","1563941","0.0-679.0","h9rm7sn1","","","","","",""
"","","","call-function","680","1563942","0.0-680.0","h9rm7sn1","","","","","",""
"null","","","video-keyboard-response","681","1567020","0.0-681.0","h9rm7sn1","","","","null","Agent A","STIM_SET_1_REAL/713666.bmp_pp97_L3_V1.0_veridical_freeview_isoFalse_fps144.mp4"
"","","","call-function","682","1567020","0.0-682.0","h9rm7sn1","","","","","",""
"9169.770000000019","{""pre-1"":1}","[0]","survey-likert","683","1576192","0.0-683.0","h9rm7sn1","","","","","",""
"6289.930000000168","{""pre-2"":2}","[0]","survey-likert","684","1582484","0.0-684.0","h9rm7sn1","","","","","",""
"1438.1699999999255","{""pre-3"":2}","[0]","survey-likert","685","1583924","0.0-685.0","h9rm7sn1","","","","","",""
"1281.5200000000186","{""post-5"":1}","[0]","survey-likert","686","1585207","0.0-686.0","h9rm7sn1","","","","","",""
"","","","call-function","687","1585208","0.0-687.0","h9rm7sn1","","","","","",""
"null","","","video-keyboard-response","688","1588284","0.0-688.0","h9rm7sn1","","","","null","Agent A","STIM_SET_1_REAL/1592804.bmp_pp91_L3_V1.0_scrambled_freeview_isoFalse_fps144.mp4"
"","","","call-function","689","1588285","0.0-689.0","h9rm7sn1","","","","","",""
"2013.5449999999255","{""pre-1"":0}","[0]","survey-likert","690","1590299","0.0-690.0","h9rm7sn1","","","","","",""
"1639.630000000121","{""pre-2"":0}","[0]","survey-likert","691","1591940","0.0-691.0","h9rm7sn1","","","","","",""
"1479.5600000000559","{""pre-3"":0}","[0]","survey-likert","692","1593421","0.0-692.0","h9rm7sn1","","","","","",""
"1596.9850000001024","{""post-5"":2}","[0]","survey-likert","693","1595019","0.0-693.0","h9rm7sn1","","","","","",""
"","","","call-function","694","1595020","0.0-694.0","h9rm7sn1","","","","","",""
"null","","","video-keyboard-response","695","1598082","0.0-695.0","h9rm7sn1","","","","null","Agent A","STIM_SET_1_REAL/1592890.bmp_pp82_L2_V1.0_veridical_freeview_isoFalse_fps144.mp4"
"","","","call-function","696","1598083","0.0-696.0","h9rm7sn1","","","","","",""
"2926.2450000001118","{""pre-1"":2}","[0]","survey-likert","697","1601010","0.0-697.0","h9rm7sn1","","","","","",""
"1494.0249999999069","{""pre-2"":3}","[0]","survey-likert","698","1602505","0.0-698.0","h9rm7sn1","","","","","",""
"1134.3250000001863","{""pre-3"":2}","[0]","survey-likert","699","1603641","0.0-699.0","h9rm7sn1","","","","","",""
"2401.9899999999907","{""post-5"":1}","[0]","survey-likert","700","1606044","0.0-700.0","h9rm7sn1","","","","","",""
"","","","call-function","701","1606044","0.0-701.0","h9rm7sn1","","","","","",""
"null","","","video-keyboard-response","702","1609116","0.0-702.0","h9rm7sn1","","","","null","Agent A","STIM_SET_1_REAL/1159829.bmp_pp91_L3_V1.0_veridical_freeview_isoFalse_fps144.mp4"
"","","","call-function","703","1609116","0.0-703.0","h9rm7sn1","","","","","",""
"2495.7650000001304","{""pre-1"":1}","[0]","survey-likert","704","1611613","0.0-704.0","h9rm7sn1","","","","","",""
"1231.875","{""pre-2"":2}","[0]","survey-likert","705","1612846","0.0-705.0","h9rm7sn1","","","","","",""
"1055.780000000028","{""pre-3"":2}","[0]","survey-likert","706","1613903","0.0-706.0","h9rm7sn1","","","","","",""
"1762.0100000000093","{""post-5"":1}","[0]","survey-likert","707","1615666","0.0-707.0","h9rm7sn1","","","","","",""
"","","","call-function","708","1615667","0.0-708.0","h9rm7sn1","","","","","",""
"null","","","video-keyboard-response","709","1618734","0.0-709.0","h9rm7sn1","","","","null","Agent A","STIM_SET_1_REAL/1592581.bmp_pp100_L3_V1.0_scrambled_freeview_isoFalse_fps144.mp4"
"","","","call-function","710","1618735","0.0-710.0","h9rm7sn1","","","","","",""
"2108.7900000000373","{""pre-1"":1}","[0]","survey-likert","711","1620845","0.0-711.0","h9rm7sn1","","","","","",""
"1254.719999999972","{""pre-2"":2}","[0]","survey-likert","712","1622102","0.0-712.0","h9rm7sn1","","","","","",""
"2043.0699999998324","{""pre-3"":1}","[0]","survey-likert","713","1624147","0.0-713.0","h9rm7sn1","","","","","",""
"1381.0449999999255","{""post-5"":1}","[0]","survey-likert","714","1625529","0.0-714.0","h9rm7sn1","","","","","",""
"","","","call-function","715","1625530","0.0-715.0","h9rm7sn1","","","","","",""
"null","","","video-keyboard-response","716","1628591","0.0-716.0","h9rm7sn1","","","","null","Agent A","STIM_SET_1_REAL/713403.bmp_pp80_L3_V1.0_veridical_freeview_isoFalse_fps144.mp4"
"","","","call-function","717","1628592","0.0-717.0","h9rm7sn1","","","","","",""
"7089.024999999907","{""pre-1"":1}","[0]","survey-likert","718","1635682","0.0-718.0","h9rm7sn1","","","","","",""
"1481.1149999999907","{""pre-2"":0}","[0]","survey-likert","719","1637164","0.0-719.0","h9rm7sn1","","","","","",""
"1616.214999999851","{""pre-3"":0}","[0]","survey-likert","720","1638782","0.0-720.0","h9rm7sn1","","","","","",""
"2982.1750000000466","{""post-5"":2}","[0]","survey-likert","721","1641765","0.0-721.0","h9rm7sn1","","","","","",""
"","","","call-function","722","1641766","0.0-722.0","h9rm7sn1","","","","","",""
"null","","","video-keyboard-response","723","1644834","0.0-723.0","h9rm7sn1","","","","null","Agent A","STIM_SET_1_REAL/1160168.bmp_pp53_L2_V1.0_veridical_freeview_isoFalse_fps144.mp4"
"","","","call-function","724","1644834","0.0-724.0","h9rm7sn1","","","","","",""
"1845.7700000000186","{""pre-1"":1}","[0]","survey-likert","725","1646681","0.0-725.0","h9rm7sn1","","","","","",""
"1141.719999999972","{""pre-2"":2}","[0]","survey-likert","726","1647824","0.0-726.0","h9rm7sn1","","","","","",""
"1627.0600000000559","{""pre-3"":1}","[0]","survey-likert","727","1649452","0.0-727.0","h9rm7sn1","","","","","",""
"1222.094999999972","{""post-5"":2}","[0]","survey-likert","728","1650675","0.0-728.0","h9rm7sn1","","","","","",""
"30219.36499999999","","","instructions","729","1680895","0.0-729.0","h9rm7sn1","[{""page_index"":0,""viewing_time"":19878.985000000102},{""page_index"":1,""viewing_time"":9524.23499999987},{""page_index"":2,""viewing_time"":815.9699999999721}]","","","","",""
"2134.1750000000466","","","instructions","730","1683030","0.0-730.0","h9rm7sn1","[{""page_index"":0,""viewing_time"":579.9899999999907},{""page_index"":1,""viewing_time"":928.9650000000838},{""page_index"":2,""viewing_time"":625.1199999998789}]","","","","",""
"","","","call-function","731","1683030","0.0-731.0","h9rm7sn1","","","","","",""
"null","","","video-keyboard-response","732","1686110","0.0-732.0","h9rm7sn1","","","","null","Agent A","STIM_SET_1_REAL/1591876.bmp_pp63_L1_V1.0_scrambled_freeview_isoFalse_fps144.mp4"
"","","","call-function","733","1686111","0.0-733.0","h9rm7sn1","","","","","",""
"1486.7299999999814","{""pre-1"":1}","[0]","survey-likert","734","1687598","0.0-734.0","h9rm7sn1","","","","","",""
"2665.4150000000373","{""pre-2"":0}","[0]","survey-likert","735","1690265","0.0-735.0","h9rm7sn1","","","","","",""
"2433.060000000056","{""pre-3"":0}","[0]","survey-likert","736","1692699","0.0-736.0","h9rm7sn1","","","","","",""
"1581.1850000000559","{""post-5"":3}","[0]","survey-likert","737","1694281","0.0-737.0","h9rm7sn1","","","","","",""
"","","","call-function","738","1694282","0.0-738.0","h9rm7sn1","","","","","",""
"null","","","video-keyboard-response","739","1697359","0.0-739.0","h9rm7sn1","","","","null","Agent A","STIM_SET_1_REAL/1159855.bmp_pp99_L2_V1.0_veridical_freeview_isoFalse_fps144.mp4"
"","","","call-function","740","1697361","0.0-740.0","h9rm7sn1","","","","","",""
"2232.404999999795","{""pre-1"":3}","[0]","survey-likert","741","1699595","0.0-741.0","h9rm7sn1","","","","","",""
"1436.6700000001583","{""pre-2"":3}","[0]","survey-likert","742","1701034","0.0-742.0","h9rm7sn1","","","","","",""
"1335.2399999999907","{""pre-3"":2}","[0]","survey-likert","743","1702372","0.0-743.0","h9rm7sn1","","","","","",""
"1480.1700000001583","{""post-5"":0}","[0]","survey-likert","744","1703854","0.0-744.0","h9rm7sn1","","","","","",""
"","","","call-function","745","1703854","0.0-745.0","h9rm7sn1","","","","","",""
"null","","","video-keyboard-response","746","1706933","0.0-746.0","h9rm7sn1","","","","null","Agent A","STIM_SET_1_REAL/1159777.bmp_pp77_L3_V1.0_scrambled_freeview_isoFalse_fps144.mp4"
"","","","call-function","747","1706934","0.0-747.0","h9rm7sn1","","","","","",""
"4731.314999999944","{""pre-1"":1}","[0]","survey-likert","748","1711667","0.0-748.0","h9rm7sn1","","","","","",""
"2678.2099999999627","{""pre-2"":1}","[0]","survey-likert","749","1714347","0.0-749.0","h9rm7sn1","","","","","",""
"1572.6049999999814","{""pre-3"":1}","[0]","survey-likert","750","1715921","0.0-750.0","h9rm7sn1","","","","","",""
"1370.6850000000559","{""post-5"":2}","[0]","survey-likert","751","1717292","0.0-751.0","h9rm7sn1","","","","","",""
"","","","call-function","752","1717293","0.0-752.0","h9rm7sn1","","","","","",""
"null","","","video-keyboard-response","753","1720357","0.0-753.0","h9rm7sn1","","","","null","Agent A","STIM_SET_1_REAL/286001.bmp_pp54_L2_V1.0_scrambled_freeview_isoFalse_fps144.mp4"
"","","","call-function","754","1720358","0.0-754.0","h9rm7sn1","","","","","",""
"3048.0799999998417","{""pre-1"":0}","[0]","survey-likert","755","1723407","0.0-755.0","h9rm7sn1","","","","","",""
"1333.6650000000373","{""pre-2"":0}","[0]","survey-likert","756","1724742","0.0-756.0","h9rm7sn1","","","","","",""
"1443.3600000001024","{""pre-3"":0}","[0]","survey-likert","757","1726187","0.0-757.0","h9rm7sn1","","","","","",""
"1961.7750000001397","{""post-5"":3}","[0]","survey-likert","758","1728150","0.0-758.0","h9rm7sn1","","","","","",""
"","","","call-function","759","1728150","0.0-759.0","h9rm7sn1","","","","","",""
"null","","","video-keyboard-response","760","1731224","0.0-760.0","h9rm7sn1","","","","null","Agent A","STIM_SET_1_REAL/713760.bmp_pp81_L1_V1.0_veridical_freeview_isoFalse_fps144.mp4"
"","","","call-function","761","1731225","0.0-761.0","h9rm7sn1","","","","","",""
"2952.570000000065","{""pre-1"":1}","[0]","survey-likert","762","1734178","0.0-762.0","h9rm7sn1","","","","","",""
"2533.600000000093","{""pre-2"":1}","[0]","survey-likert","763","1736713","0.0-763.0","h9rm7sn1","","","","","",""
"3400.185000000056","{""pre-3"":0}","[0]","survey-likert","764","1740114","0.0-764.0","h9rm7sn1","","","","","",""
"2307.0250000001397","{""post-5"":2}","[0]","survey-likert","765","1742423","0.0-765.0","h9rm7sn1","","","","","",""
"","","","call-function","766","1742423","0.0-766.0","h9rm7sn1","","","","","",""
"null","","","video-keyboard-response","767","1745504","0.0-767.0","h9rm7sn1","","","","null","Agent A","STIM_SET_1_REAL/1593041.bmp_pp58_L1_V1.0_veridical_freeview_isoFalse_fps144.mp4"
"","","","call-function","768","1745505","0.0-768.0","h9rm7sn1","","","","","",""
"1525.875","{""pre-1"":1}","[0]","survey-likert","769","1747031","0.0-769.0","h9rm7sn1","","","","","",""
"2374.7049999998417","{""pre-2"":2}","[0]","survey-likert","770","1749407","0.0-770.0","h9rm7sn1","","","","","",""
"1229.6699999999255","{""pre-3"":2}","[0]","survey-likert","771","1750638","0.0-771.0","h9rm7sn1","","","","","",""
"2210.0150000001304","{""post-5"":1}","[0]","survey-likert","772","1752849","0.0-772.0","h9rm7sn1","","","","","",""
"","","","call-function","773","1752850","0.0-773.0","h9rm7sn1","","","","","",""
"null","","","video-keyboard-response","774","1755946","0.0-774.0","h9rm7sn1","","","","null","Agent A","STIM_SET_1_REAL/1592934.bmp_pp63_L1_V1.0_scrambled_freeview_isoFalse_fps144.mp4"
"","","","call-function","775","1755948","0.0-775.0","h9rm7sn1","","","","","",""
"1581.5349999999162","{""pre-1"":1}","[0]","survey-likert","776","1757531","0.0-776.0","h9rm7sn1","","","","","",""
"2157.25","{""pre-2"":0}","[0]","survey-likert","777","1759690","0.0-777.0","h9rm7sn1","","","","","",""
"1386.4650000000838","{""pre-3"":0}","[0]","survey-likert","778","1761077","0.0-778.0","h9rm7sn1","","","","","",""
"1809.530000000028","{""post-5"":3}","[0]","survey-likert","779","1762888","0.0-779.0","h9rm7sn1","","","","","",""
"","","","call-function","780","1762889","0.0-780.0","h9rm7sn1","","","","","",""
"null","","","video-keyboard-response","781","1765968","0.0-781.0","h9rm7sn1","","","","null","Agent A","STIM_SET_1_REAL/498155.bmp_pp61_L2_V1.0_veridical_freeview_isoFalse_fps144.mp4"
"","","","call-function","782","1765968","0.0-782.0","h9rm7sn1","","","","","",""
"2577.9249999998137","{""pre-1"":1}","[0]","survey-likert","783","1768548","0.0-783.0","h9rm7sn1","","","","","",""
"1727.5149999998976","{""pre-2"":3}","[0]","survey-likert","784","1770276","0.0-784.0","h9rm7sn1","","","","","",""
"1709.1850000000559","{""pre-3"":2}","[0]","survey-likert","785","1771987","0.0-785.0","h9rm7sn1","","","","","",""
"1197.75","{""post-5"":1}","[0]","survey-likert","786","1773186","0.0-786.0","h9rm7sn1","","","","","",""
"","","","call-function","787","1773187","0.0-787.0","h9rm7sn1","","","","","",""
"null","","","video-keyboard-response","788","1776250","0.0-788.0","h9rm7sn1","","","","null","Agent A","STIM_SET_1_REAL/713089.bmp_pp60_L3_V1.0_scrambled_freeview_isoFalse_fps144.mp4"
"","","","call-function","789","1776251","0.0-789.0","h9rm7sn1","","","","","",""
"3423.2399999999907","{""pre-1"":2}","[0]","survey-likert","790","1779675","0.0-790.0","h9rm7sn1","","","","","",""
"5018.804999999935","{""pre-2"":1}","[0]","survey-likert","791","1784695","0.0-791.0","h9rm7sn1","","","","","",""
"3455.689999999944","{""pre-3"":1}","[0]","survey-likert","792","1788152","0.0-792.0","h9rm7sn1","","","","","",""
"4132.464999999851","{""post-5"":1}","[0]","survey-likert","793","1792286","0.0-793.0","h9rm7sn1","","","","","",""
"","","","call-function","794","1792287","0.0-794.0","h9rm7sn1","","","","","",""
"null","","","video-keyboard-response","795","1795349","0.0-795.0","h9rm7sn1","","","","null","Agent A","STIM_SET_1_REAL/1159882.bmp_pp61_L2_V1.0_scrambled_freeview_isoFalse_fps144.mp4"
"","","","call-function","796","1795350","0.0-796.0","h9rm7sn1","","","","","",""
"1906.2750000001397","{""pre-1"":1}","[0]","survey-likert","797","1797257","0.0-797.0","h9rm7sn1","","","","","",""
"1232.005000000121","{""pre-2"":2}","[0]","survey-likert","798","1798490","0.0-798.0","h9rm7sn1","","","","","",""
"1228.0200000000186","{""pre-3"":2}","[0]","survey-likert","799","1799720","0.0-799.0","h9rm7sn1","","","","","",""
"1212.2099999999627","{""post-5"":0}","[0]","survey-likert","800","1800933","0.0-800.0","h9rm7sn1","","","","","",""
"","","","call-function","801","1800934","0.0-801.0","h9rm7sn1","","","","","",""
"null","","","video-keyboard-response","802","1804005","0.0-802.0","h9rm7sn1","","","","null","Agent A","STIM_SET_1_REAL/285751.bmp_pp55_L3_V1.0_veridical_freeview_isoFalse_fps144.mp4"
"","","","call-function","803","1804006","0.0-803.0","h9rm7sn1","","","","","",""
"2598.3950000000186","{""pre-1"":3}","[0]","survey-likert","804","1806606","0.0-804.0","h9rm7sn1","","","","","",""
"1629.1650000000373","{""pre-2"":3}","[0]","survey-likert","805","1808237","0.0-805.0","h9rm7sn1","","","","","",""
"1970.345000000205","{""pre-3"":2}","[0]","survey-likert","806","1810210","0.0-806.0","h9rm7sn1","","","","","",""
"1579.8850000000093","{""post-5"":0}","[0]","survey-likert","807","1811791","0.0-807.0","h9rm7sn1","","","","","",""
"","","","call-function","808","1811792","0.0-808.0","h9rm7sn1","","","","","",""
"null","","","video-keyboard-response","809","1814852","0.0-809.0","h9rm7sn1","","","","null","Agent A","STIM_SET_1_REAL/1592817.bmp_pp55_L3_V1.0_scrambled_freeview_isoFalse_fps144.mp4"
"","","","call-function","810","1814853","0.0-810.0","h9rm7sn1","","","","","",""
"2260.215000000084","{""pre-1"":2}","[0]","survey-likert","811","1817114","0.0-811.0","h9rm7sn1","","","","","",""
"1295.494999999879","{""pre-2"":2}","[0]","survey-likert","812","1818411","0.0-812.0","h9rm7sn1","","","","","",""
"1240.0900000000838","{""pre-3"":1}","[0]","survey-likert","813","1819652","0.0-813.0","h9rm7sn1","","","","","",""
"1471.815000000177","{""post-5"":1}","[0]","survey-likert","814","1821126","0.0-814.0","h9rm7sn1","","","","","",""
"","","","call-function","815","1821127","0.0-815.0","h9rm7sn1","","","","","",""
"null","","","video-keyboard-response","816","1824189","0.0-816.0","h9rm7sn1","","","","null","Agent A","STIM_SET_1_REAL/1159621.bmp_pp92_L3_V1.0_veridical_freeview_isoFalse_fps144.mp4"
"","","","call-function","817","1824189","0.0-817.0","h9rm7sn1","","","","","",""
"2460.3599999998696","{""pre-1"":2}","[0]","survey-likert","818","1826651","0.0-818.0","h9rm7sn1","","","","","",""
"1582.5449999999255","{""pre-2"":2}","[0]","survey-likert","819","1828235","0.0-819.0","h9rm7sn1","","","","","",""
"2283.4850000001024","{""pre-3"":2}","[0]","survey-likert","820","1830519","0.0-820.0","h9rm7sn1","","","","","",""
"1164.619999999879","{""post-5"":1}","[0]","survey-likert","821","1831685","0.0-821.0","h9rm7sn1","","","","","",""
"","","","call-function","822","1831686","0.0-822.0","h9rm7sn1","","","","","",""
"null","","","video-keyboard-response","823","1834747","0.0-823.0","h9rm7sn1","","","","null","Agent A","STIM_SET_1_REAL/498149.bmp_pp99_L2_V1.0_veridical_freeview_isoFalse_fps144.mp4"
"","","","call-function","824","1834748","0.0-824.0","h9rm7sn1","","","","","",""
"3141.3600000001024","{""pre-1"":0}","[0]","survey-likert","825","1837891","0.0-825.0","h9rm7sn1","","","","","",""
"1714.344999999972","{""pre-2"":0}","[0]","survey-likert","826","1839606","0.0-826.0","h9rm7sn1","","","","","",""
"1280.8500000000931","{""pre-3"":0}","[0]","survey-likert","827","1840888","0.0-827.0","h9rm7sn1","","","","","",""
"1486.3100000000559","{""post-5"":3}","[0]","survey-likert","828","1842376","0.0-828.0","h9rm7sn1","","","","","",""
"","","","call-function","829","1842376","0.0-829.0","h9rm7sn1","","","","","",""
"null","","","video-keyboard-response","830","1845444","0.0-830.0","h9rm7sn1","","","","null","Agent A","STIM_SET_1_REAL/1592286.bmp_pp52_L1_V1.0_scrambled_freeview_isoFalse_fps144.mp4"
"","","","call-function","831","1845445","0.0-831.0","h9rm7sn1","","","","","",""
"2538.6099999998696","{""pre-1"":1}","[0]","survey-likert","832","1847985","0.0-832.0","h9rm7sn1","","","","","",""
"6455.5","{""pre-2"":1}","[0]","survey-likert","833","1854442","0.0-833.0","h9rm7sn1","","","","","",""
"2407.7349999998696","{""pre-3"":1}","[0]","survey-likert","834","1856852","0.0-834.0","h9rm7sn1","","","","","",""
"7077.784999999916","{""post-5"":0}","[0]","survey-likert","835","1863931","0.0-835.0","h9rm7sn1","","","","","",""
"","","","call-function","836","1863932","0.0-836.0","h9rm7sn1","","","","","",""
