"rt","responses","question_order","trial_type","trial_index","time_elapsed","internal_node_id","ID","view_history","value","stimulus","key_press","agent","image"
"100670.99","{""Experimenter"":[""Confirmed subject's identity (ID card)"",""Confirmed normal or corrected-to-normal vision"",""Obtained consent (signature and date)"",""Checked the test room lighting"",""Checked computer screen lighting"",""Checked distance from screen to chin rest (50cm)"",""Cleaned and adjusted chin rest"",""Counterbalanced the order of the tasks"",""Opened the experiment in Firefox"",""Made the experiment full screen"",""Encouraged subject to silence phone, put away distractors, etc.""]}","[0]","survey-multi-select","0","100680","0.0-0.0","hslw8wu3","","","","","",""
"44516.11499999999","","","instructions","1","145197","0.0-1.0","hslw8wu3","[{""page_index"":0,""viewing_time"":44515.95499999999}]","","","","",""
"9894.470000000001","{""Age"":2,""Sex"":1,""Gender"":1}","[0,1,2]","survey-likert","2","155094","0.0-2.0","hslw8wu3","","","","","",""
"1602.1299999999756","","","instructions","3","156697","0.0-3.0","hslw8wu3","[{""page_index"":0,""viewing_time"":1602.0299999999988}]","","","","",""
"7937.309999999998","","","instructions","4","164635","0.0-4.0","hslw8wu3","[{""page_index"":0,""viewing_time"":5417.299999999988},{""page_index"":1,""viewing_time"":2519.899999999994}]","","","","",""
"12390.774999999994","","","instructions","5","177026","0.0-5.0","hslw8wu3","[{""page_index"":0,""viewing_time"":3491.600000000006},{""page_index"":1,""viewing_time"":4593.190000000002},{""page_index"":2,""viewing_time"":4305.864999999991}]","","","","",""
"4879.454999999987","","","instructions","6","181906","0.0-6.0","hslw8wu3","[{""page_index"":0,""viewing_time"":4879.354999999981}]","","","","",""
"","","","call-function","7","181906","0.0-7.0","hslw8wu3","","","","","",""
"null","","","video-keyboard-response","8","184980","0.0-8.0","hslw8wu3","","","","null","",""
"","","","call-function","9","184980","0.0-9.0","hslw8wu3","","","","","",""
"31805.620000000024","","","instructions","10","216786","0.0-10.0","hslw8wu3","[{""page_index"":0,""viewing_time"":7077.445000000007},{""page_index"":1,""viewing_time"":4744.4100000000035},{""page_index"":2,""viewing_time"":1357.9349999999977},{""page_index"":3,""viewing_time"":18625.600000000006}]","","","","",""
"3427.0499999999884","","","instructions","11","220214","0.0-11.0","hslw8wu3","[{""page_index"":0,""viewing_time"":3426.944999999978}]","","","","",""
"","","","call-function","12","220214","0.0-12.0","hslw8wu3","","","","","",""
"null","","","video-keyboard-response","13","223287","0.0-13.0","hslw8wu3","","","","null","",""
"","","","call-function","14","223287","0.0-14.0","hslw8wu3","","","","","",""
"19622.669999999984","{""pre-1"":1}","[0]","survey-likert","15","242911","0.0-15.0","hslw8wu3","","","","","",""
"8596.38499999998","{""pre-2"":2}","[0]","survey-likert","16","251510","0.0-16.0","hslw8wu3","","","","","",""
"4873.9100000000035","{""pre-3"":2}","[0]","survey-likert","17","256385","0.0-17.0","hslw8wu3","","","","","",""
"4834.084999999992","{""post-5"":3}","[0]","survey-likert","18","261220","0.0-18.0","hslw8wu3","","","","","",""
"2376.0599999999977","","","instructions","19","263597","0.0-19.0","hslw8wu3","[{""page_index"":0,""viewing_time"":2375.3549999999814}]","","","","",""
"5186.975000000035","","","instructions","20","268784","0.0-20.0","hslw8wu3","[{""page_index"":0,""viewing_time"":5186.864999999991}]","","","","",""
"","","","call-function","21","268785","0.0-21.0","hslw8wu3","","","","","",""
"null","","","video-keyboard-response","22","271846","0.0-22.0","hslw8wu3","","","","null","Agent A","STIM_SET_1_REAL/713403.bmp_pp80_L3_V1.0_veridical_freeview_isoFalse_fps144.mp4"
"","","","call-function","23","271846","0.0-23.0","hslw8wu3","","","","","",""
"8094.229999999981","{""pre-1"":2}","[0]","survey-likert","24","279941","0.0-24.0","hslw8wu3","","","","","",""
"8969.414999999979","{""pre-2"":1}","[0]","survey-likert","25","288912","0.0-25.0","hslw8wu3","","","","","",""
"8424.86499999999","{""pre-3"":1}","[0]","survey-likert","26","297339","0.0-26.0","hslw8wu3","","","","","",""
"2823.8949999999604","{""post-5"":2}","[0]","survey-likert","27","300164","0.0-27.0","hslw8wu3","","","","","",""
"","","","call-function","28","300164","0.0-28.0","hslw8wu3","","","","","",""
"null","","","video-keyboard-response","29","303241","0.0-29.0","hslw8wu3","","","","null","Agent A","STIM_SET_1_REAL/1592804.bmp_pp91_L3_V1.0_scrambled_freeview_isoFalse_fps144.mp4"
"","","","call-function","30","303241","0.0-30.0","hslw8wu3","","","","","",""
"7227.020000000019","{""pre-1"":1}","[0]","survey-likert","31","310470","0.0-31.0","hslw8wu3","","","","","",""
"2218.195000000007","{""pre-2"":2}","[0]","survey-likert","32","312690","0.0-32.0","hslw8wu3","","","","","",""
"4297.484999999986","{""pre-3"":3}","[0]","survey-likert","33","316989","0.0-33.0","hslw8wu3","","","","","",""
"4752.885000000009","{""post-5"":1}","[0]","survey-likert","34","321743","0.0-34.0","hslw8wu3","","","","","",""
"","","","call-function","35","321743","0.0-35.0","hslw8wu3","","","","","",""
"null","","","video-keyboard-response","36","324803","0.0-36.0","hslw8wu3","","","","null","Agent A","STIM_SET_1_REAL/498149.bmp_pp99_L2_V1.0_scrambled_freeview_isoFalse_fps144.mp4"
"","","","call-function","37","324804","0.0-37.0","hslw8wu3","","","","","",""
"3937.234999999986","{""pre-1"":1}","[0]","survey-likert","38","328743","0.0-38.0","hslw8wu3","","","","","",""
"6593.570000000007","{""pre-2"":3}","[0]","survey-likert","39","335338","0.0-39.0","hslw8wu3","","","","","",""
"5447.739999999991","{""pre-3"":1}","[0]","survey-likert","40","340787","0.0-40.0","hslw8wu3","","","","","",""
"3168.960000000021","{""post-5"":2}","[0]","survey-likert","41","343957","0.0-41.0","hslw8wu3","","","","","",""
"","","","call-function","42","343957","0.0-42.0","hslw8wu3","","","","","",""
"null","","","video-keyboard-response","43","347027","0.0-43.0","hslw8wu3","","","","null","Agent A","STIM_SET_1_REAL/1159768.bmp_pp89_L1_V1.0_scrambled_freeview_isoFalse_fps144.mp4"
"","","","call-function","44","347028","0.0-44.0","hslw8wu3","","","","","",""
"5557.225000000035","{""pre-1"":0}","[0]","survey-likert","45","352586","0.0-45.0","hslw8wu3","","","","","",""
"2820.734999999986","{""pre-2"":2}","[0]","survey-likert","46","355408","0.0-46.0","hslw8wu3","","","","","",""
"2510.6199999999953","{""pre-3"":1}","[0]","survey-likert","47","357919","0.0-47.0","hslw8wu3","","","","","",""
"2729.5100000000093","{""post-5"":2}","[0]","survey-likert","48","360650","0.0-48.0","hslw8wu3","","","","","",""
"","","","call-function","49","360651","0.0-49.0","hslw8wu3","","","","","",""
"null","","","video-keyboard-response","50","363728","0.0-50.0","hslw8wu3","","","","null","Agent A","STIM_SET_1_REAL/713211.bmp_pp100_L3_V1.0_veridical_freeview_isoFalse_fps144.mp4"
"","","","call-function","51","363728","0.0-51.0","hslw8wu3","","","","","",""
"3591.9850000000442","{""pre-1"":2}","[0]","survey-likert","52","367321","0.0-52.0","hslw8wu3","","","","","",""
"4491.190000000002","{""pre-2"":3}","[0]","survey-likert","53","371814","0.0-53.0","hslw8wu3","","","","","",""
"15719.149999999965","{""pre-3"":2}","[0]","survey-likert","54","387534","0.0-54.0","hslw8wu3","","","","","",""
"3195.8850000000093","{""post-5"":1}","[0]","survey-likert","55","390732","0.0-55.0","hslw8wu3","","","","","",""
"","","","call-function","56","390732","0.0-56.0","hslw8wu3","","","","","",""
"null","","","video-keyboard-response","57","393794","0.0-57.0","hslw8wu3","","","","null","Agent A","STIM_SET_1_REAL/497950.bmp_pp151_L1_V1.0_scrambled_freeview_isoFalse_fps144.mp4"
"","","","call-function","58","393795","0.0-58.0","hslw8wu3","","","","","",""
"13155.400000000023","{""pre-1"":1}","[0]","survey-likert","59","406951","0.0-59.0","hslw8wu3","","","","","",""
"6227.565000000002","{""pre-2"":2}","[0]","survey-likert","60","413180","0.0-60.0","hslw8wu3","","","","","",""
"2340.2600000000093","{""pre-3"":2}","[0]","survey-likert","61","415521","0.0-61.0","hslw8wu3","","","","","",""
"1894.539999999979","{""post-5"":1}","[0]","survey-likert","62","417417","0.0-62.0","hslw8wu3","","","","","",""
"","","","call-function","63","417417","0.0-63.0","hslw8wu3","","","","","",""
"null","","","video-keyboard-response","64","420495","0.0-64.0","hslw8wu3","","","","null","Agent A","STIM_SET_1_REAL/1159855.bmp_pp99_L2_V1.0_scrambled_freeview_isoFalse_fps144.mp4"
"","","","call-function","65","420495","0.0-65.0","hslw8wu3","","","","","",""
"3729.9649999999674","{""pre-1"":0}","[0]","survey-likert","66","424227","0.0-66.0","hslw8wu3","","","","","",""
"2834.5650000000023","{""pre-2"":3}","[0]","survey-likert","67","427063","0.0-67.0","hslw8wu3","","","","","",""
"4215.585000000021","{""pre-3"":2}","[0]","survey-likert","68","431280","0.0-68.0","hslw8wu3","","","","","",""
"2028.3349999999627","{""post-5"":1}","[0]","survey-likert","69","433310","0.0-69.0","hslw8wu3","","","","","",""
"","","","call-function","70","433311","0.0-70.0","hslw8wu3","","","","","",""
"null","","","video-keyboard-response","71","436405","0.0-71.0","hslw8wu3","","","","null","Agent A","STIM_SET_1_REAL/1159813.bmp_pp79_L2_V1.0_veridical_freeview_isoFalse_fps144.mp4"
"","","","call-function","72","436406","0.0-72.0","hslw8wu3","","","","","",""
"8458.520000000019","{""pre-1"":2}","[0]","survey-likert","73","444865","0.0-73.0","hslw8wu3","","","","","",""
"2913.609999999986","{""pre-2"":1}","[0]","survey-likert","74","447780","0.0-74.0","hslw8wu3","","","","","",""
"2147.1999999999534","{""pre-3"":1}","[0]","survey-likert","75","449928","0.0-75.0","hslw8wu3","","","","","",""
"2066.5999999999767","{""post-5"":2}","[0]","survey-likert","76","451996","0.0-76.0","hslw8wu3","","","","","",""
"","","","call-function","77","451997","0.0-77.0","hslw8wu3","","","","","",""
"null","","","video-keyboard-response","78","455066","0.0-78.0","hslw8wu3","","","","null","Agent A","STIM_SET_1_REAL/1592727.bmp_pp59_L3_V1.0_veridical_freeview_isoFalse_fps144.mp4"
"","","","call-function","79","455067","0.0-79.0","hslw8wu3","","","","","",""
"3606.2849999999744","{""pre-1"":3}","[0]","survey-likert","80","458674","0.0-80.0","hslw8wu3","","","","","",""
"2860.414999999979","{""pre-2"":0}","[0]","survey-likert","81","461535","0.0-81.0","hslw8wu3","","","","","",""
"5409.60500000004","{""pre-3"":0}","[0]","survey-likert","82","466946","0.0-82.0","hslw8wu3","","","","","",""
"2283.795000000042","{""post-5"":3}","[0]","survey-likert","83","469231","0.0-83.0","hslw8wu3","","","","","",""
"","","","call-function","84","469231","0.0-84.0","hslw8wu3","","","","","",""
"null","","","video-keyboard-response","85","472307","0.0-85.0","hslw8wu3","","","","null","Agent A","STIM_SET_1_REAL/713666.bmp_pp97_L3_V1.0_veridical_freeview_isoFalse_fps144.mp4"
"","","","call-function","86","472307","0.0-86.0","hslw8wu3","","","","","",""
"3569.664999999979","{""pre-1"":1}","[0]","survey-likert","87","475878","0.0-87.0","hslw8wu3","","","","","",""
"1858.0299999999697","{""pre-2"":3}","[0]","survey-likert","88","477737","0.0-88.0","hslw8wu3","","","","","",""
"2326.1199999999953","{""pre-3"":2}","[0]","survey-likert","89","480064","0.0-89.0","hslw8wu3","","","","","",""
"2968.859999999986","{""post-5"":1}","[0]","survey-likert","90","483035","0.0-90.0","hslw8wu3","","","","","",""
"","","","call-function","91","483036","0.0-91.0","hslw8wu3","","","","","",""
"null","","","video-keyboard-response","92","486098","0.0-92.0","hslw8wu3","","","","null","Agent A","STIM_SET_1_REAL/1592351.bmp_pp51_L1_V1.0_scrambled_freeview_isoFalse_fps144.mp4"
"","","","call-function","93","486099","0.0-93.0","hslw8wu3","","","","","",""
"2209.070000000007","{""pre-1"":1}","[0]","survey-likert","94","488309","0.0-94.0","hslw8wu3","","","","","",""
"2726.125","{""pre-2"":2}","[0]","survey-likert","95","491037","0.0-95.0","hslw8wu3","","","","","",""
"1902.9550000000163","{""pre-3"":2}","[0]","survey-likert","96","492941","0.0-96.0","hslw8wu3","","","","","",""
"3299.9899999999907","{""post-5"":1}","[0]","survey-likert","97","496242","0.0-97.0","hslw8wu3","","","","","",""
"","","","call-function","98","496242","0.0-98.0","hslw8wu3","","","","","",""
"null","","","video-keyboard-response","99","499316","0.0-99.0","hslw8wu3","","","","null","Agent A","STIM_SET_1_REAL/713371.bmp_pp68_L1_V1.0_scrambled_freeview_isoFalse_fps144.mp4"
"","","","call-function","100","499317","0.0-100.0","hslw8wu3","","","","","",""
"6854.035000000033","{""pre-1"":0}","[0]","survey-likert","101","506172","0.0-101.0","hslw8wu3","","","","","",""
"2616.179999999993","{""pre-2"":3}","[0]","survey-likert","102","508789","0.0-102.0","hslw8wu3","","","","","",""
"4463.090000000026","{""pre-3"":3}","[0]","survey-likert","103","513253","0.0-103.0","hslw8wu3","","","","","",""
"2292.2399999999907","{""post-5"":1}","[0]","survey-likert","104","515546","0.0-104.0","hslw8wu3","","","","","",""
"","","","call-function","105","515547","0.0-105.0","hslw8wu3","","","","","",""
"null","","","video-keyboard-response","106","518612","0.0-106.0","hslw8wu3","","","","null","Agent A","STIM_SET_1_REAL/286001.bmp_pp54_L2_V1.0_veridical_freeview_isoFalse_fps144.mp4"
"","","","call-function","107","518612","0.0-107.0","hslw8wu3","","","","","",""
"2916.7700000000186","{""pre-1"":3}","[0]","survey-likert","108","521530","0.0-108.0","hslw8wu3","","","","","",""
"2812.634999999951","{""pre-2"":0}","[0]","survey-likert","109","524346","0.0-109.0","hslw8wu3","","","","","",""
"5470.465000000084","{""pre-3"":0}","[0]","survey-likert","110","529818","0.0-110.0","hslw8wu3","","","","","",""
"1998","{""post-5"":3}","[0]","survey-likert","111","531818","0.0-111.0","hslw8wu3","","","","","",""
"","","","call-function","112","531818","0.0-112.0","hslw8wu3","","","","","",""
"null","","","video-keyboard-response","113","534891","0.0-113.0","hslw8wu3","","","","null","Agent A","STIM_SET_1_REAL/285933.bmp_pp81_L1_V1.0_scrambled_freeview_isoFalse_fps144.mp4"
"","","","call-function","114","534892","0.0-114.0","hslw8wu3","","","","","",""
"3781.820000000065","{""pre-1"":2}","[0]","survey-likert","115","538675","0.0-115.0","hslw8wu3","","","","","",""
"3195.219999999972","{""pre-2"":0}","[0]","survey-likert","116","541871","0.0-116.0","hslw8wu3","","","","","",""
"2418.7200000000885","{""pre-3"":0}","[0]","survey-likert","117","544291","0.0-117.0","hslw8wu3","","","","","",""
"2021.0650000000605","{""post-5"":3}","[0]","survey-likert","118","546313","0.0-118.0","hslw8wu3","","","","","",""
"","","","call-function","119","546313","0.0-119.0","hslw8wu3","","","","","",""
"null","","","video-keyboard-response","120","549390","0.0-120.0","hslw8wu3","","","","null","Agent A","STIM_SET_1_REAL/713749.bmp_pp88_L2_V1.0_veridical_freeview_isoFalse_fps144.mp4"
"","","","call-function","121","549390","0.0-121.0","hslw8wu3","","","","","",""
"3273.100000000093","{""pre-1"":3}","[0]","survey-likert","122","552664","0.0-122.0","hslw8wu3","","","","","",""
"6140.139999999898","{""pre-2"":0}","[0]","survey-likert","123","558805","0.0-123.0","hslw8wu3","","","","","",""
"2395.7149999999674","{""pre-3"":0}","[0]","survey-likert","124","561202","0.0-124.0","hslw8wu3","","","","","",""
"2027.3250000000698","{""post-5"":3}","[0]","survey-likert","125","563230","0.0-125.0","hslw8wu3","","","","","",""
"","","","call-function","126","563231","0.0-126.0","hslw8wu3","","","","","",""
"null","","","video-keyboard-response","127","566293","0.0-127.0","hslw8wu3","","","","null","Agent A","STIM_SET_1_REAL/1592817.bmp_pp55_L3_V1.0_scrambled_freeview_isoFalse_fps144.mp4"
"","","","call-function","128","566293","0.0-128.0","hslw8wu3","","","","","",""
"2782.4250000000466","{""pre-1"":1}","[0]","survey-likert","129","569077","0.0-129.0","hslw8wu3","","","","","",""
"2080.664999999921","{""pre-2"":2}","[0]","survey-likert","130","571159","0.0-130.0","hslw8wu3","","","","","",""
"1931.015000000014","{""pre-3"":2}","[0]","survey-likert","131","573092","0.0-131.0","hslw8wu3","","","","","",""
"2090.009999999893","{""post-5"":1}","[0]","survey-likert","132","575183","0.0-132.0","hslw8wu3","","","","","",""
"","","","call-function","133","575184","0.0-133.0","hslw8wu3","","","","","",""
"null","","","video-keyboard-response","134","578254","0.0-134.0","hslw8wu3","","","","null","Agent A","STIM_SET_1_REAL/1592286.bmp_pp52_L1_V1.0_veridical_freeview_isoFalse_fps144.mp4"
"","","","call-function","135","578254","0.0-135.0","hslw8wu3","","","","","",""
"2647.695000000065","{""pre-1"":1}","[0]","survey-likert","136","580904","0.0-136.0","hslw8wu3","","","","","",""
"1711.030000000028","{""pre-2"":2}","[0]","survey-likert","137","582616","0.0-137.0","hslw8wu3","","","","","",""
"2445.32500000007","{""pre-3"":1}","[0]","survey-likert","138","585062","0.0-138.0","hslw8wu3","","","","","",""
"2747.679999999935","{""post-5"":0}","[0]","survey-likert","139","587811","0.0-139.0","hslw8wu3","","","","","",""
"","","","call-function","140","587812","0.0-140.0","hslw8wu3","","","","","",""
"null","","","video-keyboard-response","141","590881","0.0-141.0","hslw8wu3","","","","null","Agent A","STIM_SET_1_REAL/285933.bmp_pp81_L1_V1.0_veridical_freeview_isoFalse_fps144.mp4"
"","","","call-function","142","590882","0.0-142.0","hslw8wu3","","","","","",""
"5765.435000000056","{""pre-1"":2}","[0]","survey-likert","143","596648","0.0-143.0","hslw8wu3","","","","","",""
"4559.9049999999115","{""pre-2"":1}","[0]","survey-likert","144","601209","0.0-144.0","hslw8wu3","","","","","",""
"6595.135000000009","{""pre-3"":1}","[0]","survey-likert","145","607805","0.0-145.0","hslw8wu3","","","","","",""
"2261.9349999999395","{""post-5"":2}","[0]","survey-likert","146","610068","0.0-146.0","hslw8wu3","","","","","",""
"","","","call-function","147","610068","0.0-147.0","hslw8wu3","","","","","",""
"null","","","video-keyboard-response","148","613137","0.0-148.0","hslw8wu3","","","","null","Agent A","STIM_SET_1_REAL/1592397.bmp_pp85_L3_V1.0_scrambled_freeview_isoFalse_fps144.mp4"
"","","","call-function","149","613137","0.0-149.0","hslw8wu3","","","","","",""
"3154.664999999921","{""pre-1"":0}","[0]","survey-likert","150","616293","0.0-150.0","hslw8wu3","","","","","",""
"3223.1100000001024","{""pre-2"":3}","[0]","survey-likert","151","619517","0.0-151.0","hslw8wu3","","","","","",""
"2164.6650000000373","{""pre-3"":3}","[0]","survey-likert","152","621683","0.0-152.0","hslw8wu3","","","","","",""
"1994.920000000042","{""post-5"":0}","[0]","survey-likert","153","623680","0.0-153.0","hslw8wu3","","","","","",""
"","","","call-function","154","623681","0.0-154.0","hslw8wu3","","","","","",""
"null","","","video-keyboard-response","155","626759","0.0-155.0","hslw8wu3","","","","null","Agent A","STIM_SET_1_REAL/713684.bmp_pp85_L3_V1.0_veridical_freeview_isoFalse_fps144.mp4"
"","","","call-function","156","626760","0.0-156.0","hslw8wu3","","","","","",""
"3638.670000000042","{""pre-1"":3}","[0]","survey-likert","157","630399","0.0-157.0","hslw8wu3","","","","","",""
"4094.8950000000186","{""pre-2"":0}","[0]","survey-likert","158","634496","0.0-158.0","hslw8wu3","","","","","",""
"3090","{""pre-3"":0}","[0]","survey-likert","159","637587","0.0-159.0","hslw8wu3","","","","","",""
"1795.5950000000885","{""post-5"":3}","[0]","survey-likert","160","639384","0.0-160.0","hslw8wu3","","","","","",""
"3821.9049999999115","","","instructions","161","643207","0.0-161.0","hslw8wu3","[{""page_index"":0,""viewing_time"":1260.0849999999627},{""page_index"":1,""viewing_time"":1369.9599999999627},{""page_index"":2,""viewing_time"":1191.640000000014}]","","","","",""
"14228.594999999972","","","instructions","162","657436","0.0-162.0","hslw8wu3","[{""page_index"":0,""viewing_time"":946.4499999999534},{""page_index"":1,""viewing_time"":12650.415000000037},{""page_index"":2,""viewing_time"":631.625}]","","","","",""
"","","","call-function","163","657436","0.0-163.0","hslw8wu3","","","","","",""
"null","","","video-keyboard-response","164","660513","0.0-164.0","hslw8wu3","","","","null","Agent A","STIM_SET_1_REAL/1593146.bmp_pp93_L1_V1.0_scrambled_freeview_isoFalse_fps144.mp4"
"","","","call-function","165","660513","0.0-165.0","hslw8wu3","","","","","",""
"4747.430000000051","{""pre-1"":0}","[0]","survey-likert","166","665262","0.0-166.0","hslw8wu3","","","","","",""
"5120.2949999999255","{""pre-2"":2}","[0]","survey-likert","167","670383","0.0-167.0","hslw8wu3","","","","","",""
"2421.429999999935","{""pre-3"":2}","[0]","survey-likert","168","672806","0.0-168.0","hslw8wu3","","","","","",""
"3234.6699999999255","{""post-5"":0}","[0]","survey-likert","169","676041","0.0-169.0","hslw8wu3","","","","","",""
"","","","call-function","170","676042","0.0-170.0","hslw8wu3","","","","","",""
"null","","","video-keyboard-response","171","679110","0.0-171.0","hslw8wu3","","","","null","Agent A","STIM_SET_1_REAL/285905.bmp_pp57_L1_V1.0_veridical_freeview_isoFalse_fps144.mp4"
"","","","call-function","172","679111","0.0-172.0","hslw8wu3","","","","","",""
"3188.545000000042","{""pre-1"":0}","[0]","survey-likert","173","682300","0.0-173.0","hslw8wu3","","","","","",""
"4576.395000000019","{""pre-2"":3}","[0]","survey-likert","174","686879","0.0-174.0","hslw8wu3","","","","","",""
"4149.32500000007","{""pre-3"":2}","[0]","survey-likert","175","691029","0.0-175.0","hslw8wu3","","","","","",""
"3993.045000000042","{""post-5"":0}","[0]","survey-likert","176","695024","0.0-176.0","hslw8wu3","","","","","",""
"","","","call-function","177","695025","0.0-177.0","hslw8wu3","","","","","",""
"null","","","video-keyboard-response","178","698098","0.0-178.0","hslw8wu3","","","","null","Agent A","STIM_SET_1_REAL/1592362.bmp_pp95_L2_V1.0_veridical_freeview_isoFalse_fps144.mp4"
"","","","call-function","179","698098","0.0-179.0","hslw8wu3","","","","","",""
"4484.054999999935","{""pre-1"":0}","[0]","survey-likert","180","702583","0.0-180.0","hslw8wu3","","","","","",""
"2840.719999999972","{""pre-2"":3}","[0]","survey-likert","181","705425","0.0-181.0","hslw8wu3","","","","","",""
"2794.875","{""pre-3"":2}","[0]","survey-likert","182","708222","0.0-182.0","hslw8wu3","","","","","",""
"1690.9300000000512","{""post-5"":0}","[0]","survey-likert","183","709914","0.0-183.0","hslw8wu3","","","","","",""
"","","","call-function","184","709914","0.0-184.0","hslw8wu3","","","","","",""
"null","","","video-keyboard-response","185","713008","0.0-185.0","hslw8wu3","","","","null","Agent A","STIM_SET_1_REAL/1159813.bmp_pp79_L2_V1.0_scrambled_freeview_isoFalse_fps144.mp4"
"","","","call-function","186","713009","0.0-186.0","hslw8wu3","","","","","",""
"3639.4799999999814","{""pre-1"":2}","[0]","survey-likert","187","716649","0.0-187.0","hslw8wu3","","","","","",""
"4255.055000000051","{""pre-2"":0}","[0]","survey-likert","188","720905","0.0-188.0","hslw8wu3","","","","","",""
"3851.04999999993","{""pre-3"":0}","[0]","survey-likert","189","724757","0.0-189.0","hslw8wu3","","","","","",""
"1919.045000000042","{""post-5"":3}","[0]","survey-likert","190","726677","0.0-190.0","hslw8wu3","","","","","",""
"","","","call-function","191","726678","0.0-191.0","hslw8wu3","","","","","",""
"null","","","video-keyboard-response","192","729758","0.0-192.0","hslw8wu3","","","","null","Agent A","STIM_SET_1_REAL/1593041.bmp_pp58_L1_V1.0_scrambled_freeview_isoFalse_fps144.mp4"
"","","","call-function","193","729759","0.0-193.0","hslw8wu3","","","","","",""
"9597.235000000102","{""pre-1"":0}","[0]","survey-likert","194","739357","0.0-194.0","hslw8wu3","","","","","",""
"2639.2249999999767","{""pre-2"":2}","[0]","survey-likert","195","741997","0.0-195.0","hslw8wu3","","","","","",""
"1562.1500000000233","{""pre-3"":2}","[0]","survey-likert","196","743562","0.0-196.0","hslw8wu3","","","","","",""
"5166.175000000047","{""post-5"":1}","[0]","survey-likert","197","748729","0.0-197.0","hslw8wu3","","","","","",""
"","","","call-function","198","748730","0.0-198.0","hslw8wu3","","","","","",""
"null","","","video-keyboard-response","199","751791","0.0-199.0","hslw8wu3","","","","null","Agent A","STIM_SET_1_REAL/1159446.bmp_pp60_L3_V1.0_veridical_freeview_isoFalse_fps144.mp4"
"","","","call-function","200","751791","0.0-200.0","hslw8wu3","","","","","",""
"5789.604999999981","{""pre-1"":1}","[0]","survey-likert","201","757582","0.0-201.0","hslw8wu3","","","","","",""
"2486.3649999999907","{""pre-2"":2}","[0]","survey-likert","202","760069","0.0-202.0","hslw8wu3","","","","","",""
"1758.8950000000186","{""pre-3"":2}","[0]","survey-likert","203","761830","0.0-203.0","hslw8wu3","","","","","",""
"1780.3200000000652","{""post-5"":1}","[0]","survey-likert","204","763612","0.0-204.0","hslw8wu3","","","","","",""
"","","","call-function","205","763612","0.0-205.0","hslw8wu3","","","","","",""
"null","","","video-keyboard-response","206","766684","0.0-206.0","hslw8wu3","","","","null","Agent A","STIM_SET_1_REAL/285751.bmp_pp55_L3_V1.0_scrambled_freeview_isoFalse_fps144.mp4"
"","","","call-function","207","766685","0.0-207.0","hslw8wu3","","","","","",""
"2259.5","{""pre-1"":0}","[0]","survey-likert","208","768945","0.0-208.0","hslw8wu3","","","","","",""
"3100.670000000042","{""pre-2"":3}","[0]","survey-likert","209","772047","0.0-209.0","hslw8wu3","","","","","",""
"3547.9899999999907","{""pre-3"":3}","[0]","survey-likert","210","775596","0.0-210.0","hslw8wu3","","","","","",""
"2156.1900000000605","{""post-5"":0}","[0]","survey-likert","211","777754","0.0-211.0","hslw8wu3","","","","","",""
"","","","call-function","212","777754","0.0-212.0","hslw8wu3","","","","","",""
"null","","","video-keyboard-response","213","780825","0.0-213.0","hslw8wu3","","","","null","Agent A","STIM_SET_1_REAL/1159675.bmp_pp77_L3_V1.0_scrambled_freeview_isoFalse_fps144.mp4"
"","","","call-function","214","780825","0.0-214.0","hslw8wu3","","","","","",""
"3123.6549999999115","{""pre-1"":1}","[0]","survey-likert","215","783950","0.0-215.0","hslw8wu3","","","","","",""
"1668.2449999999953","{""pre-2"":2}","[0]","survey-likert","216","785619","0.0-216.0","hslw8wu3","","","","","",""
"1818.5","{""pre-3"":2}","[0]","survey-likert","217","787439","0.0-217.0","hslw8wu3","","","","","",""
"3426","{""post-5"":1}","[0]","survey-likert","218","790867","0.0-218.0","hslw8wu3","","","","","",""
"","","","call-function","219","790868","0.0-219.0","hslw8wu3","","","","","",""
"null","","","video-keyboard-response","220","793946","0.0-220.0","hslw8wu3","","","","null","Agent A","STIM_SET_1_REAL/498155.bmp_pp61_L2_V1.0_veridical_freeview_isoFalse_fps144.mp4"
"","","","call-function","221","793947","0.0-221.0","hslw8wu3","","","","","",""
"2851.3600000001024","{""pre-1"":0}","[0]","survey-likert","222","796800","0.0-222.0","hslw8wu3","","","","","",""
"2433.405000000028","{""pre-2"":3}","[0]","survey-likert","223","799235","0.0-223.0","hslw8wu3","","","","","",""
"2007.875","{""pre-3"":3}","[0]","survey-likert","224","801244","0.0-224.0","hslw8wu3","","","","","",""
"3216.9749999999767","{""post-5"":0}","[0]","survey-likert","225","804462","0.0-225.0","hslw8wu3","","","","","",""
"","","","call-function","226","804462","0.0-226.0","hslw8wu3","","","","","",""
"null","","","video-keyboard-response","227","807542","0.0-227.0","hslw8wu3","","","","null","Agent A","STIM_SET_1_REAL/713666.bmp_pp97_L3_V1.0_scrambled_freeview_isoFalse_fps144.mp4"
"","","","call-function","228","807542","0.0-228.0","hslw8wu3","","","","","",""
"3619.625","{""pre-1"":0}","[0]","survey-likert","229","811163","0.0-229.0","hslw8wu3","","","","","",""
"10995.43499999994","{""pre-2"":3}","[0]","survey-likert","230","822160","0.0-230.0","hslw8wu3","","","","","",""
"2375.9749999999767","{""pre-3"":3}","[0]","survey-likert","231","824538","0.0-231.0","hslw8wu3","","","","","",""
"2947.920000000042","{""post-5"":1}","[0]","survey-likert","232","827486","0.0-232.0","hslw8wu3","","","","","",""
"","","","call-function","233","827487","0.0-233.0","hslw8wu3","","","","","",""
"null","","","video-keyboard-response","234","830562","0.0-234.0","hslw8wu3","","","","null","Agent A","STIM_SET_1_REAL/712977.bmp_pp51_L1_V1.0_scrambled_freeview_isoFalse_fps144.mp4"
"","","","call-function","235","830562","0.0-235.0","hslw8wu3","","","","","",""
"4482.339999999967","{""pre-1"":2}","[0]","survey-likert","236","835045","0.0-236.0","hslw8wu3","","","","","",""
"3231.859999999986","{""pre-2"":2}","[0]","survey-likert","237","838278","0.0-237.0","hslw8wu3","","","","","",""
"6618.75","{""pre-3"":1}","[0]","survey-likert","238","844898","0.0-238.0","hslw8wu3","","","","","",""
"3046.215000000084","{""post-5"":2}","[0]","survey-likert","239","847946","0.0-239.0","hslw8wu3","","","","","",""
"","","","call-function","240","847947","0.0-240.0","hslw8wu3","","","","","",""
"null","","","video-keyboard-response","241","851009","0.0-241.0","hslw8wu3","","","","null","Agent A","STIM_SET_1_REAL/1159446.bmp_pp60_L3_V1.0_scrambled_freeview_isoFalse_fps144.mp4"
"","","","call-function","242","851010","0.0-242.0","hslw8wu3","","","","","",""
"3780.445000000065","{""pre-1"":2}","[0]","survey-likert","243","854791","0.0-243.0","hslw8wu3","","","","","",""
"4818.260000000009","{""pre-2"":2}","[0]","survey-likert","244","859611","0.0-244.0","hslw8wu3","","","","","",""
"9566.574999999953","{""pre-3"":1}","[0]","survey-likert","245","869179","0.0-245.0","hslw8wu3","","","","","",""
"4556.630000000005","{""post-5"":2}","[0]","survey-likert","246","873737","0.0-246.0","hslw8wu3","","","","","",""
"","","","call-function","247","873737","0.0-247.0","hslw8wu3","","","","","",""
"null","","","video-keyboard-response","248","876811","0.0-248.0","hslw8wu3","","","","null","Agent A","STIM_SET_1_REAL/713371.bmp_pp68_L1_V1.0_veridical_freeview_isoFalse_fps144.mp4"
"","","","call-function","249","876811","0.0-249.0","hslw8wu3","","","","","",""
"4589.284999999916","{""pre-1"":2}","[0]","survey-likert","250","881402","0.0-250.0","hslw8wu3","","","","","",""
"4788.280000000028","{""pre-2"":2}","[0]","survey-likert","251","886191","0.0-251.0","hslw8wu3","","","","","",""
"3090.1350000000093","{""pre-3"":2}","[0]","survey-likert","252","889282","0.0-252.0","hslw8wu3","","","","","",""
"2132.4649999999674","{""post-5"":1}","[0]","survey-likert","253","891416","0.0-253.0","hslw8wu3","","","","","",""
"","","","call-function","254","891416","0.0-254.0","hslw8wu3","","","","","",""
"null","","","video-keyboard-response","255","894483","0.0-255.0","hslw8wu3","","","","null","Agent A","STIM_SET_1_REAL/1592934.bmp_pp63_L1_V1.0_scrambled_freeview_isoFalse_fps144.mp4"
"","","","call-function","256","894484","0.0-256.0","hslw8wu3","","","","","",""
"4961.905000000028","{""pre-1"":0}","[0]","survey-likert","257","899446","0.0-257.0","hslw8wu3","","","","","",""
"2476.20000000007","{""pre-2"":0}","[0]","survey-likert","258","901924","0.0-258.0","hslw8wu3","","","","","",""
"3548.920000000042","{""pre-3"":1}","[0]","survey-likert","259","905474","0.0-259.0","hslw8wu3","","","","","",""
"2486.210000000079","{""post-5"":3}","[0]","survey-likert","260","907961","0.0-260.0","hslw8wu3","","","","","",""
"","","","call-function","261","907961","0.0-261.0","hslw8wu3","","","","","",""
"null","","","video-keyboard-response","262","911033","0.0-262.0","hslw8wu3","","","","null","Agent A","STIM_SET_1_REAL/1160168.bmp_pp53_L2_V1.0_veridical_freeview_isoFalse_fps144.mp4"
"","","","call-function","263","911034","0.0-263.0","hslw8wu3","","","","","",""
"3469.390000000014","{""pre-1"":0}","[0]","survey-likert","264","914505","0.0-264.0","hslw8wu3","","","","","",""
"2122.7149999999674","{""pre-2"":0}","[0]","survey-likert","265","916629","0.0-265.0","hslw8wu3","","","","","",""
"2341.57500000007","{""pre-3"":0}","[0]","survey-likert","266","918973","0.0-266.0","hslw8wu3","","","","","",""
"2174.7350000001024","{""post-5"":3}","[0]","survey-likert","267","921149","0.0-267.0","hslw8wu3","","","","","",""
"","","","call-function","268","921149","0.0-268.0","hslw8wu3","","","","","",""
"null","","","video-keyboard-response","269","924210","0.0-269.0","hslw8wu3","","","","null","Agent A","STIM_SET_1_REAL/1159572.bmp_pp71_L1_V1.0_veridical_freeview_isoFalse_fps144.mp4"
"","","","call-function","270","924211","0.0-270.0","hslw8wu3","","","","","",""
"2258.9100000000326","{""pre-1"":2}","[0]","survey-likert","271","926471","0.0-271.0","hslw8wu3","","","","","",""
"1397.8950000000186","{""pre-2"":3}","[0]","survey-likert","272","927870","0.0-272.0","hslw8wu3","","","","","",""
"1799.3099999999395","{""pre-3"":2}","[0]","survey-likert","273","929671","0.0-273.0","hslw8wu3","","","","","",""
"2034.2249999999767","{""post-5"":1}","[0]","survey-likert","274","931706","0.0-274.0","hslw8wu3","","","","","",""
"","","","call-function","275","931707","0.0-275.0","hslw8wu3","","","","","",""
"null","","","video-keyboard-response","276","934783","0.0-276.0","hslw8wu3","","","","null","Agent A","STIM_SET_1_REAL/713749.bmp_pp88_L2_V1.0_scrambled_freeview_isoFalse_fps144.mp4"
"","","","call-function","277","934783","0.0-277.0","hslw8wu3","","","","","",""
"3525.680000000051","{""pre-1"":3}","[0]","survey-likert","278","938310","0.0-278.0","hslw8wu3","","","","","",""
"3175.1549999999115","{""pre-2"":3}","[0]","survey-likert","279","941486","0.0-279.0","hslw8wu3","","","","","",""
"3197.5","{""pre-3"":2}","[0]","survey-likert","280","944684","0.0-280.0","hslw8wu3","","","","","",""
"2912.2750000000233","{""post-5"":0}","[0]","survey-likert","281","947598","0.0-281.0","hslw8wu3","","","","","",""
"","","","call-function","282","947598","0.0-282.0","hslw8wu3","","","","","",""
"null","","","video-keyboard-response","283","950674","0.0-283.0","hslw8wu3","","","","null","Agent A","STIM_SET_1_REAL/712977.bmp_pp51_L1_V1.0_veridical_freeview_isoFalse_fps144.mp4"
"","","","call-function","284","950674","0.0-284.0","hslw8wu3","","","","","",""
"1979.0550000000512","{""pre-1"":3}","[0]","survey-likert","285","952655","0.0-285.0","hslw8wu3","","","","","",""
"1581.4299999999348","{""pre-2"":3}","[0]","survey-likert","286","954238","0.0-286.0","hslw8wu3","","","","","",""
"2912.905000000028","{""pre-3"":2}","[0]","survey-likert","287","957153","0.0-287.0","hslw8wu3","","","","","",""
"1988.8800000000047","{""post-5"":1}","[0]","survey-likert","288","959143","0.0-288.0","hslw8wu3","","","","","",""
"","","","call-function","289","959144","0.0-289.0","hslw8wu3","","","","","",""
"null","","","video-keyboard-response","290","963625","0.0-290.0","hslw8wu3","","","","null","Agent A","STIM_SET_1_REAL/498155.bmp_pp61_L2_V1.0_scrambled_freeview_isoFalse_fps144.mp4"
"","","","call-function","291","963625","0.0-291.0","hslw8wu3","","","","","",""
"2471.859999999986","{""pre-1"":3}","[0]","survey-likert","292","966098","0.0-292.0","hslw8wu3","","","","","",""
"1647.984999999986","{""pre-2"":2}","[0]","survey-likert","293","967747","0.0-293.0","hslw8wu3","","","","","",""
"987.5699999999488","{""pre-3"":2}","[0]","survey-likert","294","968736","0.0-294.0","hslw8wu3","","","","","",""
"2390.5800000000745","{""post-5"":0}","[0]","survey-likert","295","971128","0.0-295.0","hslw8wu3","","","","","",""
"","","","call-function","296","971128","0.0-296.0","hslw8wu3","","","","","",""
"null","","","video-keyboard-response","297","974214","0.0-297.0","hslw8wu3","","","","null","Agent A","STIM_SET_1_REAL/1159515.bmp_pp84_L3_V1.0_scrambled_freeview_isoFalse_fps144.mp4"
"","","","call-function","298","974214","0.0-298.0","hslw8wu3","","","","","",""
"2877.5350000000326","{""pre-1"":0}","[0]","survey-likert","299","977093","0.0-299.0","hslw8wu3","","","","","",""
"3750.055000000051","{""pre-2"":1}","[0]","survey-likert","300","980844","0.0-300.0","hslw8wu3","","","","","",""
"2691.4649999999674","{""pre-3"":1}","[0]","survey-likert","301","983537","0.0-301.0","hslw8wu3","","","","","",""
"2886.445000000065","{""post-5"":3}","[0]","survey-likert","302","986424","0.0-302.0","hslw8wu3","","","","","",""
"3415.7700000000186","","","instructions","303","989840","0.0-303.0","hslw8wu3","[{""page_index"":0,""viewing_time"":2354.5950000000885},{""page_index"":1,""viewing_time"":674.9899999999907},{""page_index"":2,""viewing_time"":385.96999999997206}]","","","","",""
"594.0250000000233","","","instructions","304","990435","0.0-304.0","hslw8wu3","[{""page_index"":0,""viewing_time"":161.71500000008382},{""page_index"":1,""viewing_time"":231.04999999993015},{""page_index"":2,""viewing_time"":201.14500000001863}]","","","","",""
"","","","call-function","305","990436","0.0-305.0","hslw8wu3","","","","","",""
"null","","","video-keyboard-response","306","993510","0.0-306.0","hslw8wu3","","","","null","Agent A","STIM_SET_1_REAL/1592133.bmp_pp75_L1_V1.0_veridical_freeview_isoFalse_fps144.mp4"
"","","","call-function","307","993513","0.0-307.0","hslw8wu3","","","","","",""
"5364.375","{""pre-1"":2}","[0]","survey-likert","308","998878","0.0-308.0","hslw8wu3","","","","","",""
"1028.1649999999208","{""pre-2"":2}","[0]","survey-likert","309","999908","0.0-309.0","hslw8wu3","","","","","",""
"1863.484999999986","{""pre-3"":2}","[0]","survey-likert","310","1001773","0.0-310.0","hslw8wu3","","","","","",""
"1476.4299999999348","{""post-5"":1}","[0]","survey-likert","311","1003250","0.0-311.0","hslw8wu3","","","","","",""
"","","","call-function","312","1003251","0.0-312.0","hslw8wu3","","","","","",""
"null","","","video-keyboard-response","313","1006325","0.0-313.0","hslw8wu3","","","","null","Agent A","STIM_SET_1_REAL/1159784.bmp_pp73_L3_V1.0_scrambled_freeview_isoFalse_fps144.mp4"
"","","","call-function","314","1006326","0.0-314.0","hslw8wu3","","","","","",""
"3064.6750000000466","{""pre-1"":2}","[0]","survey-likert","315","1009391","0.0-315.0","hslw8wu3","","","","","",""
"923.9250000000466","{""pre-2"":2}","[0]","survey-likert","316","1010316","0.0-316.0","hslw8wu3","","","","","",""
"3011.3450000000885","{""pre-3"":2}","[0]","survey-likert","317","1013329","0.0-317.0","hslw8wu3","","","","","",""
"1885.8400000000838","{""post-5"":0}","[0]","survey-likert","318","1015216","0.0-318.0","hslw8wu3","","","","","",""
"","","","call-function","319","1015216","0.0-319.0","hslw8wu3","","","","","",""
"null","","","video-keyboard-response","320","1018295","0.0-320.0","hslw8wu3","","","","null","Agent A","STIM_SET_1_REAL/1592807.bmp_pp68_L1_V1.0_veridical_freeview_isoFalse_fps144.mp4"
"","","","call-function","321","1018296","0.0-321.0","hslw8wu3","","","","","",""
"2327.484999999986","{""pre-1"":0}","[0]","survey-likert","322","1020624","0.0-322.0","hslw8wu3","","","","","",""
"2173.95000000007","{""pre-2"":0}","[0]","survey-likert","323","1022799","0.0-323.0","hslw8wu3","","","","","",""
"1914.9949999999953","{""pre-3"":0}","[0]","survey-likert","324","1024715","0.0-324.0","hslw8wu3","","","","","",""
"2410.0050000000047","{""post-5"":3}","[0]","survey-likert","325","1027126","0.0-325.0","hslw8wu3","","","","","",""
"","","","call-function","326","1027126","0.0-326.0","hslw8wu3","","","","","",""
"null","","","video-keyboard-response","327","1030200","0.0-327.0","hslw8wu3","","","","null","Agent A","STIM_SET_1_REAL/498253.bmp_pp67_L2_V1.0_scrambled_freeview_isoFalse_fps144.mp4"
"","","","call-function","328","1030200","0.0-328.0","hslw8wu3","","","","","",""
"2694.1450000000186","{""pre-1"":3}","[0]","survey-likert","329","1032896","0.0-329.0","hslw8wu3","","","","","",""
"1395.545000000042","{""pre-2"":2}","[0]","survey-likert","330","1034293","0.0-330.0","hslw8wu3","","","","","",""
"2210.390000000014","{""pre-3"":2}","[0]","survey-likert","331","1036505","0.0-331.0","hslw8wu3","","","","","",""
"2155.6149999999907","{""post-5"":0}","[0]","survey-likert","332","1038662","0.0-332.0","hslw8wu3","","","","","",""
"","","","call-function","333","1038663","0.0-333.0","hslw8wu3","","","","","",""
"null","","","video-keyboard-response","334","1041739","0.0-334.0","hslw8wu3","","","","null","Agent A","STIM_SET_1_REAL/1160127.bmp_pp90_L2_V1.0_scrambled_freeview_isoFalse_fps144.mp4"
"","","","call-function","335","1041739","0.0-335.0","hslw8wu3","","","","","",""
"2706.7700000000186","{""pre-1"":2}","[0]","survey-likert","336","1044447","0.0-336.0","hslw8wu3","","","","","",""
"2704.04999999993","{""pre-2"":3}","[0]","survey-likert","337","1047152","0.0-337.0","hslw8wu3","","","","","",""
"2548.6149999998743","{""pre-3"":2}","[0]","survey-likert","338","1049702","0.0-338.0","hslw8wu3","","","","","",""
"1470.530000000028","{""post-5"":1}","[0]","survey-likert","339","1051174","0.0-339.0","hslw8wu3","","","","","",""
"","","","call-function","340","1051175","0.0-340.0","hslw8wu3","","","","","",""
"null","","","video-keyboard-response","341","1054252","0.0-341.0","hslw8wu3","","","","null","Agent A","STIM_SET_1_REAL/713620.bmp_pp65_L3_V1.0_veridical_freeview_isoFalse_fps144.mp4"
"","","","call-function","342","1054252","0.0-342.0","hslw8wu3","","","","","",""
"2544.0849999999627","{""pre-1"":1}","[0]","survey-likert","343","1056797","0.0-343.0","hslw8wu3","","","","","",""
"2224.340000000084","{""pre-2"":1}","[0]","survey-likert","344","1059023","0.0-344.0","hslw8wu3","","","","","",""
"2242.7450000001118","{""pre-3"":1}","[0]","survey-likert","345","1061267","0.0-345.0","hslw8wu3","","","","","",""
"2351.2450000001118","{""post-5"":2}","[0]","survey-likert","346","1063619","0.0-346.0","hslw8wu3","","","","","",""
"","","","call-function","347","1063619","0.0-347.0","hslw8wu3","","","","","",""
"null","","","video-keyboard-response","348","1068070","0.0-348.0","hslw8wu3","","","","null","Agent A","STIM_SET_1_REAL/1591876.bmp_pp63_L1_V1.0_scrambled_freeview_isoFalse_fps144.mp4"
"","","","call-function","349","1068071","0.0-349.0","hslw8wu3","","","","","",""
"6446.284999999916","{""pre-1"":3}","[0]","survey-likert","350","1074518","0.0-350.0","hslw8wu3","","","","","",""
"1662.594999999972","{""pre-2"":3}","[0]","survey-likert","351","1076182","0.0-351.0","hslw8wu3","","","","","",""
"5208.049999999814","{""pre-3"":3}","[0]","survey-likert","352","1081391","0.0-352.0","hslw8wu3","","","","","",""
"1461.0700000000652","{""post-5"":1}","[0]","survey-likert","353","1082853","0.0-353.0","hslw8wu3","","","","","",""
"","","","call-function","354","1082853","0.0-354.0","hslw8wu3","","","","","",""
"null","","","video-keyboard-response","355","1085915","0.0-355.0","hslw8wu3","","","","null","Agent A","STIM_SET_1_REAL/713089.bmp_pp60_L3_V1.0_scrambled_freeview_isoFalse_fps144.mp4"
"","","","call-function","356","1085917","0.0-356.0","hslw8wu3","","","","","",""
"3477.034999999916","{""pre-1"":3}","[0]","survey-likert","357","1089395","0.0-357.0","hslw8wu3","","","","","",""
"2876.7299999999814","{""pre-2"":2}","[0]","survey-likert","358","1092274","0.0-358.0","hslw8wu3","","","","","",""
"1965.375","{""pre-3"":2}","[0]","survey-likert","359","1094240","0.0-359.0","hslw8wu3","","","","","",""
"2106.8799999998882","{""post-5"":0}","[0]","survey-likert","360","1096348","0.0-360.0","hslw8wu3","","","","","",""
"","","","call-function","361","1096349","0.0-361.0","hslw8wu3","","","","","",""
"null","","","video-keyboard-response","362","1099409","0.0-362.0","hslw8wu3","","","","null","Agent A","STIM_SET_1_REAL/286001.bmp_pp54_L2_V1.0_scrambled_freeview_isoFalse_fps144.mp4"
"","","","call-function","363","1099410","0.0-363.0","hslw8wu3","","","","","",""
"3527.6149999999907","{""pre-1"":2}","[0]","survey-likert","364","1102938","0.0-364.0","hslw8wu3","","","","","",""
"1668.9950000001118","{""pre-2"":2}","[0]","survey-likert","365","1104608","0.0-365.0","hslw8wu3","","","","","",""
"4006.350000000093","{""pre-3"":3}","[0]","survey-likert","366","1108616","0.0-366.0","hslw8wu3","","","","","",""
"4246.7050000000745","{""post-5"":1}","[0]","survey-likert","367","1112864","0.0-367.0","hslw8wu3","","","","","",""
"","","","call-function","368","1112865","0.0-368.0","hslw8wu3","","","","","",""
"null","","","video-keyboard-response","369","1115925","0.0-369.0","hslw8wu3","","","","null","Agent A","STIM_SET_1_REAL/1159447.bmp_pp70_L2_V1.0_scrambled_freeview_isoFalse_fps144.mp4"
"","","","call-function","370","1115925","0.0-370.0","hslw8wu3","","","","","",""
"2691.6699999999255","{""pre-1"":1}","[0]","survey-likert","371","1118618","0.0-371.0","hslw8wu3","","","","","",""
"1633.8500000000931","{""pre-2"":1}","[0]","survey-likert","372","1120253","0.0-372.0","hslw8wu3","","","","","",""
"2690.655000000028","{""pre-3"":1}","[0]","survey-likert","373","1122945","0.0-373.0","hslw8wu3","","","","","",""
"2686.2350000001024","{""post-5"":2}","[0]","survey-likert","374","1125632","0.0-374.0","hslw8wu3","","","","","",""
"","","","call-function","375","1125633","0.0-375.0","hslw8wu3","","","","","",""
"null","","","video-keyboard-response","376","1130633","0.0-376.0","hslw8wu3","","","","null","Agent A","STIM_SET_1_REAL/1591961.bmp_pp67_L2_V1.0_scrambled_freeview_isoFalse_fps144.mp4"
"","","","call-function","377","1130634","0.0-377.0","hslw8wu3","","","","","",""
"1897.1800000001676","{""pre-1"":2}","[0]","survey-likert","378","1132533","0.0-378.0","hslw8wu3","","","","","",""
"2091.5049999998882","{""pre-2"":2}","[0]","survey-likert","379","1134626","0.0-379.0","hslw8wu3","","","","","",""
"2514.185000000056","{""pre-3"":2}","[0]","survey-likert","380","1137141","0.0-380.0","hslw8wu3","","","","","",""
"2049.0849999999627","{""post-5"":1}","[0]","survey-likert","381","1139192","0.0-381.0","hslw8wu3","","","","","",""
"","","","call-function","382","1139192","0.0-382.0","hslw8wu3","","","","","",""
"null","","","video-keyboard-response","383","1142272","0.0-383.0","hslw8wu3","","","","null","Agent A","STIM_SET_1_REAL/1160127.bmp_pp90_L2_V1.0_veridical_freeview_isoFalse_fps144.mp4"
"","","","call-function","384","1142273","0.0-384.0","hslw8wu3","","","","","",""
"2751.4150000000373","{""pre-1"":0}","[0]","survey-likert","385","1145025","0.0-385.0","hslw8wu3","","","","","",""
"2183.220000000205","{""pre-2"":0}","[0]","survey-likert","386","1147209","0.0-386.0","hslw8wu3","","","","","",""
"3897.340000000084","{""pre-3"":0}","[0]","survey-likert","387","1151108","0.0-387.0","hslw8wu3","","","","","",""
"1257.594999999972","{""post-5"":3}","[0]","survey-likert","388","1152367","0.0-388.0","hslw8wu3","","","","","",""
"","","","call-function","389","1152367","0.0-389.0","hslw8wu3","","","","","",""
"null","","","video-keyboard-response","390","1155446","0.0-390.0","hslw8wu3","","","","null","Agent A","STIM_SET_1_REAL/1592807.bmp_pp68_L1_V1.0_scrambled_freeview_isoFalse_fps144.mp4"
"","","","call-function","391","1155446","0.0-391.0","hslw8wu3","","","","","",""
"2325.0500000000466","{""pre-1"":1}","[0]","survey-likert","392","1157772","0.0-392.0","hslw8wu3","","","","","",""
"4019.8799999998882","{""pre-2"":0}","[0]","survey-likert","393","1161794","0.0-393.0","hslw8wu3","","","","","",""
"2264.3600000001024","{""pre-3"":0}","[0]","survey-likert","394","1164059","0.0-394.0","hslw8wu3","","","","","",""
"1621.8100000000559","{""post-5"":3}","[0]","survey-likert","395","1165682","0.0-395.0","hslw8wu3","","","","","",""
"","","","call-function","396","1165683","0.0-396.0","hslw8wu3","","","","","",""
"null","","","video-keyboard-response","397","1168749","0.0-397.0","hslw8wu3","","","","null","Agent A","STIM_SET_1_REAL/713513.bmp_pp62_L2_V1.0_veridical_freeview_isoFalse_fps144.mp4"
"","","","call-function","398","1168749","0.0-398.0","hslw8wu3","","","","","",""
"3563.8350000001956","{""pre-1"":1}","[0]","survey-likert","399","1172314","0.0-399.0","hslw8wu3","","","","","",""
"1989.1049999999814","{""pre-2"":1}","[0]","survey-likert","400","1174305","0.0-400.0","hslw8wu3","","","","","",""
"1388.8100000000559","{""pre-3"":1}","[0]","survey-likert","401","1175696","0.0-401.0","hslw8wu3","","","","","",""
"1806.844999999972","{""post-5"":3}","[0]","survey-likert","402","1177505","0.0-402.0","hslw8wu3","","","","","",""
"","","","call-function","403","1177505","0.0-403.0","hslw8wu3","","","","","",""
"null","","","video-keyboard-response","404","1180584","0.0-404.0","hslw8wu3","","","","null","Agent A","STIM_SET_1_REAL/713707.bmp_pp154_L1_V1.0_scrambled_freeview_isoFalse_fps144.mp4"
"","","","call-function","405","1180584","0.0-405.0","hslw8wu3","","","","","",""
"3108.340000000084","{""pre-1"":0}","[0]","survey-likert","406","1183694","0.0-406.0","hslw8wu3","","","","","",""
"3809.649999999907","{""pre-2"":0}","[0]","survey-likert","407","1187505","0.0-407.0","hslw8wu3","","","","","",""
"1388.4149999998044","{""pre-3"":0}","[0]","survey-likert","408","1188895","0.0-408.0","hslw8wu3","","","","","",""
"2383.4249999998137","{""post-5"":3}","[0]","survey-likert","409","1191279","0.0-409.0","hslw8wu3","","","","","",""
"","","","call-function","410","1191280","0.0-410.0","hslw8wu3","","","","","",""
"null","","","video-keyboard-response","411","1194348","0.0-411.0","hslw8wu3","","","","null","Agent A","STIM_SET_1_REAL/713017.bmp_pp152_L2_V1.0_scrambled_freeview_isoFalse_fps144.mp4"
"","","","call-function","412","1194348","0.0-412.0","hslw8wu3","","","","","",""
"4676.870000000112","{""pre-1"":2}","[0]","survey-likert","413","1199026","0.0-413.0","hslw8wu3","","","","","",""
"1757.1400000001304","{""pre-2"":1}","[0]","survey-likert","414","1200784","0.0-414.0","hslw8wu3","","","","","",""
"2912.0149999998976","{""pre-3"":1}","[0]","survey-likert","415","1203697","0.0-415.0","hslw8wu3","","","","","",""
"5721.989999999991","{""post-5"":1}","[0]","survey-likert","416","1209420","0.0-416.0","hslw8wu3","","","","","",""
"","","","call-function","417","1209421","0.0-417.0","hslw8wu3","","","","","",""
"null","","","video-keyboard-response","418","1212480","0.0-418.0","hslw8wu3","","","","null","Agent A","STIM_SET_1_REAL/1593035.bmp_pp94_L2_V1.0_scrambled_freeview_isoFalse_fps144.mp4"
"","","","call-function","419","1212480","0.0-419.0","hslw8wu3","","","","","",""
"3387.369999999879","{""pre-1"":2}","[0]","survey-likert","420","1215868","0.0-420.0","hslw8wu3","","","","","",""
"2299.715000000084","{""pre-2"":2}","[0]","survey-likert","421","1218169","0.0-421.0","hslw8wu3","","","","","",""
"1381.5849999999627","{""pre-3"":2}","[0]","survey-likert","422","1219552","0.0-422.0","hslw8wu3","","","","","",""
"2052.0049999998882","{""post-5"":1}","[0]","survey-likert","423","1221607","0.0-423.0","hslw8wu3","","","","","",""
"","","","call-function","424","1221607","0.0-424.0","hslw8wu3","","","","","",""
"null","","","video-keyboard-response","425","1224675","0.0-425.0","hslw8wu3","","","","null","Agent A","STIM_SET_1_REAL/1592499.bmp_pp96_L2_V1.0_scrambled_freeview_isoFalse_fps144.mp4"
"","","","call-function","426","1224676","0.0-426.0","hslw8wu3","","","","","",""
"6812.314999999944","{""pre-1"":1}","[0]","survey-likert","427","1231489","0.0-427.0","hslw8wu3","","","","","",""
"2300.255000000121","{""pre-2"":1}","[0]","survey-likert","428","1233791","0.0-428.0","hslw8wu3","","","","","",""
"987.6399999998976","{""pre-3"":1}","[0]","survey-likert","429","1234779","0.0-429.0","hslw8wu3","","","","","",""
"1483.2399999999907","{""post-5"":2}","[0]","survey-likert","430","1236264","0.0-430.0","hslw8wu3","","","","","",""
"","","","call-function","431","1236264","0.0-431.0","hslw8wu3","","","","","",""
"null","","","video-keyboard-response","432","1239336","0.0-432.0","hslw8wu3","","","","null","Agent A","STIM_SET_1_REAL/498149.bmp_pp99_L2_V1.0_veridical_freeview_isoFalse_fps144.mp4"
"","","","call-function","433","1239337","0.0-433.0","hslw8wu3","","","","","",""
"2221.1999999999534","{""pre-1"":2}","[0]","survey-likert","434","1241559","0.0-434.0","hslw8wu3","","","","","",""
"1275.2700000000186","{""pre-2"":2}","[0]","survey-likert","435","1242835","0.0-435.0","hslw8wu3","","","","","",""
"1016.8249999999534","{""pre-3"":2}","[0]","survey-likert","436","1243853","0.0-436.0","hslw8wu3","","","","","",""
"3782.064999999944","{""post-5"":1}","[0]","survey-likert","437","1247636","0.0-437.0","hslw8wu3","","","","","",""
"","","","call-function","438","1247637","0.0-438.0","hslw8wu3","","","","","",""
"null","","","video-keyboard-response","439","1250712","0.0-439.0","hslw8wu3","","","","null","Agent A","STIM_SET_1_REAL/1592619.bmp_pp56_L3_V1.0_scrambled_freeview_isoFalse_fps144.mp4"
"","","","call-function","440","1250712","0.0-440.0","hslw8wu3","","","","","",""
"3045.6350000000093","{""pre-1"":3}","[0]","survey-likert","441","1253759","0.0-441.0","hslw8wu3","","","","","",""
"922.1400000001304","{""pre-2"":2}","[0]","survey-likert","442","1254682","0.0-442.0","hslw8wu3","","","","","",""
"1503.6750000000466","{""pre-3"":2}","[0]","survey-likert","443","1256187","0.0-443.0","hslw8wu3","","","","","",""
"3249.0750000001863","{""post-5"":1}","[0]","survey-likert","444","1259437","0.0-444.0","hslw8wu3","","","","","",""
"2391.2099999999627","","","instructions","445","1261829","0.0-445.0","hslw8wu3","[{""page_index"":0,""viewing_time"":1309.0100000000093},{""page_index"":1,""viewing_time"":705.0949999999721},{""page_index"":2,""viewing_time"":376.8800000001211}]","","","","",""
"721.3200000000652","","","instructions","446","1262551","0.0-446.0","hslw8wu3","[{""page_index"":0,""viewing_time"":151.52000000001863},{""page_index"":1,""viewing_time"":125.11000000010245},{""page_index"":2,""viewing_time"":444.58499999996275}]","","","","",""
"","","","call-function","447","1262551","0.0-447.0","hslw8wu3","","","","","",""
"null","","","video-keyboard-response","448","1265619","0.0-448.0","hslw8wu3","","","","null","Agent A","STIM_SET_1_REAL/1159829.bmp_pp91_L3_V1.0_scrambled_freeview_isoFalse_fps144.mp4"
"","","","call-function","449","1265619","0.0-449.0","hslw8wu3","","","","","",""
"2339.5449999999255","{""pre-1"":3}","[0]","survey-likert","450","1267960","0.0-450.0","hslw8wu3","","","","","",""
"2661.2350000001024","{""pre-2"":3}","[0]","survey-likert","451","1270623","0.0-451.0","hslw8wu3","","","","","",""
"2937.090000000084","{""pre-3"":3}","[0]","survey-likert","452","1273562","0.0-452.0","hslw8wu3","","","","","",""
"2542.7099999999627","{""post-5"":1}","[0]","survey-likert","453","1276106","0.0-453.0","hslw8wu3","","","","","",""
"","","","call-function","454","1276107","0.0-454.0","hslw8wu3","","","","","",""
"null","","","video-keyboard-response","455","1279185","0.0-455.0","hslw8wu3","","","","null","Agent A","STIM_SET_1_REAL/1591994.bmp_pp69_L3_V1.0_veridical_freeview_isoFalse_fps144.mp4"
"","","","call-function","456","1279185","0.0-456.0","hslw8wu3","","","","","",""
"3690.9899999999907","{""pre-1"":0}","[0]","survey-likert","457","1282878","0.0-457.0","hslw8wu3","","","","","",""
"1526.1149999999907","{""pre-2"":0}","[0]","survey-likert","458","1284405","0.0-458.0","hslw8wu3","","","","","",""
"1411.7649999998976","{""pre-3"":0}","[0]","survey-likert","459","1285818","0.0-459.0","hslw8wu3","","","","","",""
"1326.4000000001397","{""post-5"":3}","[0]","survey-likert","460","1287145","0.0-460.0","hslw8wu3","","","","","",""
"","","","call-function","461","1287146","0.0-461.0","hslw8wu3","","","","","",""
"null","","","video-keyboard-response","462","1290241","0.0-462.0","hslw8wu3","","","","null","Agent A","STIM_SET_1_REAL/1592727.bmp_pp59_L3_V1.0_scrambled_freeview_isoFalse_fps144.mp4"
"","","","call-function","463","1290241","0.0-463.0","hslw8wu3","","","","","",""
"1577.1850000000559","{""pre-1"":2}","[0]","survey-likert","464","1291819","0.0-464.0","hslw8wu3","","","","","",""
"2082.100000000093","{""pre-2"":2}","[0]","survey-likert","465","1293903","0.0-465.0","hslw8wu3","","","","","",""
"1903.660000000149","{""pre-3"":2}","[0]","survey-likert","466","1295807","0.0-466.0","hslw8wu3","","","","","",""
"1810.1850000000559","{""post-5"":1}","[0]","survey-likert","467","1297620","0.0-467.0","hslw8wu3","","","","","",""
"","","","call-function","468","1297620","0.0-468.0","hslw8wu3","","","","","",""
"null","","","video-keyboard-response","469","1300697","0.0-469.0","hslw8wu3","","","","null","Agent A","STIM_SET_1_REAL/1159784.bmp_pp73_L3_V1.0_veridical_freeview_isoFalse_fps144.mp4"
"","","","call-function","470","1300698","0.0-470.0","hslw8wu3","","","","","",""
"2122.994999999879","{""pre-1"":3}","[0]","survey-likert","471","1302822","0.0-471.0","hslw8wu3","","","","","",""
"1530.6449999997858","{""pre-2"":2}","[0]","survey-likert","472","1304353","0.0-472.0","hslw8wu3","","","","","",""
"1666.0800000000745","{""pre-3"":2}","[0]","survey-likert","473","1306021","0.0-473.0","hslw8wu3","","","","","",""
"2863.465000000084","{""post-5"":0}","[0]","survey-likert","474","1308885","0.0-474.0","hslw8wu3","","","","","",""
"","","","call-function","475","1308886","0.0-475.0","hslw8wu3","","","","","",""
"null","","","video-keyboard-response","476","1311954","0.0-476.0","hslw8wu3","","","","null","Agent A","STIM_SET_1_REAL/1159440.bmp_pp98_L1_V1.0_scrambled_freeview_isoFalse_fps144.mp4"
"","","","call-function","477","1311955","0.0-477.0","hslw8wu3","","","","","",""
"2284.9850000001024","{""pre-1"":2}","[0]","survey-likert","478","1314241","0.0-478.0","hslw8wu3","","","","","",""
"1222.4600000001956","{""pre-2"":2}","[0]","survey-likert","479","1315466","0.0-479.0","hslw8wu3","","","","","",""
"3151.9199999999255","{""pre-3"":1}","[0]","survey-likert","480","1318619","0.0-480.0","hslw8wu3","","","","","",""
"3295.8850000000093","{""post-5"":1}","[0]","survey-likert","481","1321917","0.0-481.0","hslw8wu3","","","","","",""
"","","","call-function","482","1321917","0.0-482.0","hslw8wu3","","","","","",""
"null","","","video-keyboard-response","483","1324995","0.0-483.0","hslw8wu3","","","","null","Agent A","STIM_SET_1_REAL/713593.bmp_pp64_L1_V1.0_veridical_freeview_isoFalse_fps144.mp4"
"","","","call-function","484","1324995","0.0-484.0","hslw8wu3","","","","","",""
"1803.714999999851","{""pre-1"":3}","[0]","survey-likert","485","1326800","0.0-485.0","hslw8wu3","","","","","",""
"2469.715000000084","{""pre-2"":2}","[0]","survey-likert","486","1329271","0.0-486.0","hslw8wu3","","","","","",""
"2308.6049999999814","{""pre-3"":2}","[0]","survey-likert","487","1331581","0.0-487.0","hslw8wu3","","","","","",""
"2029.8499999998603","{""post-5"":1}","[0]","survey-likert","488","1333612","0.0-488.0","hslw8wu3","","","","","",""
"","","","call-function","489","1333612","0.0-489.0","hslw8wu3","","","","","",""
"null","","","video-keyboard-response","490","1336689","0.0-490.0","hslw8wu3","","","","null","Agent A","STIM_SET_1_REAL/1591954.bmp_pp62_L2_V1.0_veridical_freeview_isoFalse_fps144.mp4"
"","","","call-function","491","1336689","0.0-491.0","hslw8wu3","","","","","",""
"2258.3349999999627","{""pre-1"":3}","[0]","survey-likert","492","1338948","0.0-492.0","hslw8wu3","","","","","",""
"1975.7099999999627","{""pre-2"":3}","[0]","survey-likert","493","1340925","0.0-493.0","hslw8wu3","","","","","",""
"1604.4599999999627","{""pre-3"":3}","[0]","survey-likert","494","1342531","0.0-494.0","hslw8wu3","","","","","",""
"1867.8200000000652","{""post-5"":0}","[0]","survey-likert","495","1344400","0.0-495.0","hslw8wu3","","","","","",""
"","","","call-function","496","1344400","0.0-496.0","hslw8wu3","","","","","",""
"null","","","video-keyboard-response","497","1347477","0.0-497.0","hslw8wu3","","","","null","Agent A","STIM_SET_1_REAL/1159777.bmp_pp77_L3_V1.0_veridical_freeview_isoFalse_fps144.mp4"
"","","","call-function","498","1347477","0.0-498.0","hslw8wu3","","","","","",""
"4734.119999999879","{""pre-1"":2}","[0]","survey-likert","499","1352212","0.0-499.0","hslw8wu3","","","","","",""
"2092.5400000000373","{""pre-2"":1}","[0]","survey-likert","500","1354306","0.0-500.0","hslw8wu3","","","","","",""
"2001.5149999998976","{""pre-3"":1}","[0]","survey-likert","501","1356309","0.0-501.0","hslw8wu3","","","","","",""
"2346.030000000028","{""post-5"":1}","[0]","survey-likert","502","1358656","0.0-502.0","hslw8wu3","","","","","",""
"","","","call-function","503","1358656","0.0-503.0","hslw8wu3","","","","","",""
"null","","","video-keyboard-response","504","1361727","0.0-504.0","hslw8wu3","","","","null","Agent A","STIM_SET_1_REAL/285905.bmp_pp57_L1_V1.0_scrambled_freeview_isoFalse_fps144.mp4"
"","","","call-function","505","1361730","0.0-505.0","hslw8wu3","","","","","",""
"1776.1800000001676","{""pre-1"":3}","[0]","survey-likert","506","1363509","0.0-506.0","hslw8wu3","","","","","",""
"1783.344999999972","{""pre-2"":2}","[0]","survey-likert","507","1365294","0.0-507.0","hslw8wu3","","","","","",""
"2038.780000000028","{""pre-3"":2}","[0]","survey-likert","508","1367334","0.0-508.0","hslw8wu3","","","","","",""
"2190.0500000000466","{""post-5"":0}","[0]","survey-likert","509","1369525","0.0-509.0","hslw8wu3","","","","","",""
"","","","call-function","510","1369526","0.0-510.0","hslw8wu3","","","","","",""
"null","","","video-keyboard-response","511","1372585","0.0-511.0","hslw8wu3","","","","null","Agent A","STIM_SET_1_REAL/1592619.bmp_pp56_L3_V1.0_veridical_freeview_isoFalse_fps144.mp4"
"","","","call-function","512","1372585","0.0-512.0","hslw8wu3","","","","","",""
"4101.989999999991","{""pre-1"":3}","[0]","survey-likert","513","1376689","0.0-513.0","hslw8wu3","","","","","",""
"3893.0150000001304","{""pre-2"":2}","[0]","survey-likert","514","1380583","0.0-514.0","hslw8wu3","","","","","",""
"1518.1149999999907","{""pre-3"":2}","[0]","survey-likert","515","1382103","0.0-515.0","hslw8wu3","","","","","",""
"2209.2700000000186","{""post-5"":0}","[0]","survey-likert","516","1384313","0.0-516.0","hslw8wu3","","","","","",""
"","","","call-function","517","1384313","0.0-517.0","hslw8wu3","","","","","",""
"null","","","video-keyboard-response","518","1387376","0.0-518.0","hslw8wu3","","","","null","Agent A","STIM_SET_1_REAL/1159621.bmp_pp92_L3_V1.0_veridical_freeview_isoFalse_fps144.mp4"
"","","","call-function","519","1387376","0.0-519.0","hslw8wu3","","","","","",""
"3205.5149999998976","{""pre-1"":3}","[0]","survey-likert","520","1390583","0.0-520.0","hslw8wu3","","","","","",""
"1092.9199999999255","{""pre-2"":2}","[0]","survey-likert","521","1391676","0.0-521.0","hslw8wu3","","","","","",""
"1703.1399999998976","{""pre-3"":2}","[0]","survey-likert","522","1393381","0.0-522.0","hslw8wu3","","","","","",""
"1876.0549999999348","{""post-5"":1}","[0]","survey-likert","523","1395258","0.0-523.0","hslw8wu3","","","","","",""
"","","","call-function","524","1395258","0.0-524.0","hslw8wu3","","","","","",""
"null","","","video-keyboard-response","525","1398328","0.0-525.0","hslw8wu3","","","","null","Agent A","STIM_SET_1_REAL/1591961.bmp_pp67_L2_V1.0_veridical_freeview_isoFalse_fps144.mp4"
"","","","call-function","526","1398328","0.0-526.0","hslw8wu3","","","","","",""
"5076.385000000009","{""pre-1"":1}","[0]","survey-likert","527","1403406","0.0-527.0","hslw8wu3","","","","","",""
"1378.8649999999907","{""pre-2"":1}","[0]","survey-likert","528","1404786","0.0-528.0","hslw8wu3","","","","","",""
"2053.5149999998976","{""pre-3"":1}","[0]","survey-likert","529","1406841","0.0-529.0","hslw8wu3","","","","","",""
"1679.1799999999348","{""post-5"":3}","[0]","survey-likert","530","1408522","0.0-530.0","hslw8wu3","","","","","",""
"","","","call-function","531","1408523","0.0-531.0","hslw8wu3","","","","","",""
"null","","","video-keyboard-response","532","1411592","0.0-532.0","hslw8wu3","","","","null","Agent A","STIM_SET_1_REAL/1592362.bmp_pp95_L2_V1.0_scrambled_freeview_isoFalse_fps144.mp4"
"","","","call-function","533","1411593","0.0-533.0","hslw8wu3","","","","","",""
"1594.8649999999907","{""pre-1"":3}","[0]","survey-likert","534","1413189","0.0-534.0","hslw8wu3","","","","","",""
"1339.6000000000931","{""pre-2"":2}","[0]","survey-likert","535","1414530","0.0-535.0","hslw8wu3","","","","","",""
"1027.0549999999348","{""pre-3"":2}","[0]","survey-likert","536","1415558","0.0-536.0","hslw8wu3","","","","","",""
"1514.9799999999814","{""post-5"":1}","[0]","survey-likert","537","1417074","0.0-537.0","hslw8wu3","","","","","",""
"","","","call-function","538","1417074","0.0-538.0","hslw8wu3","","","","","",""
"null","","","video-keyboard-response","539","1420150","0.0-539.0","hslw8wu3","","","","null","Agent A","STIM_SET_1_REAL/1591876.bmp_pp63_L1_V1.0_veridical_freeview_isoFalse_fps144.mp4"
"","","","call-function","540","1420151","0.0-540.0","hslw8wu3","","","","","",""
"1712.9800000002142","{""pre-1"":3}","[0]","survey-likert","541","1421865","0.0-541.0","hslw8wu3","","","","","",""
"2507.3799999998882","{""pre-2"":3}","[0]","survey-likert","542","1424374","0.0-542.0","hslw8wu3","","","","","",""
"1564.8100000000559","{""pre-3"":3}","[0]","survey-likert","543","1425940","0.0-543.0","hslw8wu3","","","","","",""
"3391.6650000000373","{""post-5"":0}","[0]","survey-likert","544","1429332","0.0-544.0","hslw8wu3","","","","","",""
"","","","call-function","545","1429333","0.0-545.0","hslw8wu3","","","","","",""
"null","","","video-keyboard-response","546","1432419","0.0-546.0","hslw8wu3","","","","null","Agent A","STIM_SET_1_REAL/1592397.bmp_pp85_L3_V1.0_veridical_freeview_isoFalse_fps144.mp4"
"","","","call-function","547","1432419","0.0-547.0","hslw8wu3","","","","","",""
"1923.9549999998417","{""pre-1"":3}","[0]","survey-likert","548","1434344","0.0-548.0","hslw8wu3","","","","","",""
"1503.8900000001304","{""pre-2"":3}","[0]","survey-likert","549","1435849","0.0-549.0","hslw8wu3","","","","","",""
"1292.6350000000093","{""pre-3"":3}","[0]","survey-likert","550","1437143","0.0-550.0","hslw8wu3","","","","","",""
"2119.445000000065","{""post-5"":0}","[0]","survey-likert","551","1439264","0.0-551.0","hslw8wu3","","","","","",""
"","","","call-function","552","1439264","0.0-552.0","hslw8wu3","","","","","",""
"null","","","video-keyboard-response","553","1442338","0.0-553.0","hslw8wu3","","","","null","Agent A","STIM_SET_1_REAL/1592372.bmp_pp76_L1_V1.0_scrambled_freeview_isoFalse_fps144.mp4"
"","","","call-function","554","1442339","0.0-554.0","hslw8wu3","","","","","",""
"2545.5849999999627","{""pre-1"":1}","[0]","survey-likert","555","1444885","0.0-555.0","hslw8wu3","","","","","",""
"3011.4799999999814","{""pre-2"":1}","[0]","survey-likert","556","1447898","0.0-556.0","hslw8wu3","","","","","",""
"1420.5749999999534","{""pre-3"":1}","[0]","survey-likert","557","1449320","0.0-557.0","hslw8wu3","","","","","",""
"1276.1200000001118","{""post-5"":2}","[0]","survey-likert","558","1450598","0.0-558.0","hslw8wu3","","","","","",""
"","","","call-function","559","1450600","0.0-559.0","hslw8wu3","","","","","",""
"null","","","video-keyboard-response","560","1453702","0.0-560.0","hslw8wu3","","","","null","Agent A","STIM_SET_1_REAL/713684.bmp_pp85_L3_V1.0_scrambled_freeview_isoFalse_fps144.mp4"
"","","","call-function","561","1453703","0.0-561.0","hslw8wu3","","","","","",""
"2118.659999999916","{""pre-1"":0}","[0]","survey-likert","562","1455823","0.0-562.0","hslw8wu3","","","","","",""
"2398.070000000065","{""pre-2"":0}","[0]","survey-likert","563","1458222","0.0-563.0","hslw8wu3","","","","","",""
"1693.7100000001956","{""pre-3"":0}","[0]","survey-likert","564","1459917","0.0-564.0","hslw8wu3","","","","","",""
"1880.0649999999441","{""post-5"":3}","[0]","survey-likert","565","1461798","0.0-565.0","hslw8wu3","","","","","",""
"","","","call-function","566","1461799","0.0-566.0","hslw8wu3","","","","","",""
"null","","","video-keyboard-response","567","1464911","0.0-567.0","hslw8wu3","","","","null","Agent A","STIM_SET_1_REAL/61537.bmp_pp73_L3_V1.0_scrambled_freeview_isoFalse_fps144.mp4"
"","","","call-function","568","1464912","0.0-568.0","hslw8wu3","","","","","",""
"1602.0750000001863","{""pre-1"":3}","[0]","survey-likert","569","1466515","0.0-569.0","hslw8wu3","","","","","",""
"1190.1500000001397","{""pre-2"":3}","[0]","survey-likert","570","1467706","0.0-570.0","hslw8wu3","","","","","",""
"1520.5600000000559","{""pre-3"":3}","[0]","survey-likert","571","1469228","0.0-571.0","hslw8wu3","","","","","",""
"1592.9500000001863","{""post-5"":0}","[0]","survey-likert","572","1470822","0.0-572.0","hslw8wu3","","","","","",""
"","","","call-function","573","1470822","0.0-573.0","hslw8wu3","","","","","",""
"null","","","video-keyboard-response","574","1473883","0.0-574.0","hslw8wu3","","","","null","Agent A","STIM_SET_1_REAL/1592133.bmp_pp75_L1_V1.0_scrambled_freeview_isoFalse_fps144.mp4"
"","","","call-function","575","1473884","0.0-575.0","hslw8wu3","","","","","",""
"4686.125","{""pre-1"":2}","[0]","survey-likert","576","1478571","0.0-576.0","hslw8wu3","","","","","",""
"1592.5900000000838","{""pre-2"":2}","[0]","survey-likert","577","1480164","0.0-577.0","hslw8wu3","","","","","",""
"1018.3350000001956","{""pre-3"":2}","[0]","survey-likert","578","1481184","0.0-578.0","hslw8wu3","","","","","",""
"1228.8550000002142","{""post-5"":1}","[0]","survey-likert","579","1482414","0.0-579.0","hslw8wu3","","","","","",""
"","","","call-function","580","1482414","0.0-580.0","hslw8wu3","","","","","",""
"null","","","video-keyboard-response","581","1485473","0.0-581.0","hslw8wu3","","","","null","Agent A","STIM_SET_1_REAL/1159882.bmp_pp61_L2_V1.0_veridical_freeview_isoFalse_fps144.mp4"
"","","","call-function","582","1485474","0.0-582.0","hslw8wu3","","","","","",""
"3031.590000000084","{""pre-1"":1}","[0]","survey-likert","583","1488506","0.0-583.0","hslw8wu3","","","","","",""
"2078.939999999944","{""pre-2"":1}","[0]","survey-likert","584","1490586","0.0-584.0","hslw8wu3","","","","","",""
"1414.3249999999534","{""pre-3"":1}","[0]","survey-likert","585","1492002","0.0-585.0","hslw8wu3","","","","","",""
"1363.0649999999441","{""post-5"":2}","[0]","survey-likert","586","1493366","0.0-586.0","hslw8wu3","","","","","",""
"1680.3649999999907","","","instructions","587","1495047","0.0-587.0","hslw8wu3","[{""page_index"":0,""viewing_time"":961.4249999998137},{""page_index"":1,""viewing_time"":546.6350000000093},{""page_index"":2,""viewing_time"":172.12000000011176}]","","","","",""
"357.5","","","instructions","588","1495405","0.0-588.0","hslw8wu3","[{""page_index"":0,""viewing_time"":132.52000000001863},{""page_index"":1,""viewing_time"":129.00499999988824},{""page_index"":2,""viewing_time"":95.86000000010245}]","","","","",""
"","","","call-function","589","1495406","0.0-589.0","hslw8wu3","","","","","",""
"null","","","video-keyboard-response","590","1498563","0.0-590.0","hslw8wu3","","","","null","Agent A","STIM_SET_1_REAL/1159447.bmp_pp70_L2_V1.0_veridical_freeview_isoFalse_fps144.mp4"
"","","","call-function","591","1498564","0.0-591.0","hslw8wu3","","","","","",""
"3207.6149999999907","{""pre-1"":3}","[0]","survey-likert","592","1501773","0.0-592.0","hslw8wu3","","","","","",""
"1408.1950000000652","{""pre-2"":3}","[0]","survey-likert","593","1503183","0.0-593.0","hslw8wu3","","","","","",""
"1422.3500000000931","{""pre-3"":3}","[0]","survey-likert","594","1504607","0.0-594.0","hslw8wu3","","","","","",""
"1241.994999999879","{""post-5"":0}","[0]","survey-likert","595","1505850","0.0-595.0","hslw8wu3","","","","","",""
"","","","call-function","596","1505850","0.0-596.0","hslw8wu3","","","","","",""
"null","","","video-keyboard-response","597","1508911","0.0-597.0","hslw8wu3","","","","null","Agent A","STIM_SET_1_REAL/1592351.bmp_pp51_L1_V1.0_veridical_freeview_isoFalse_fps144.mp4"
"","","","call-function","598","1508911","0.0-598.0","hslw8wu3","","","","","",""
"1985.7249999998603","{""pre-1"":1}","[0]","survey-likert","599","1510898","0.0-599.0","hslw8wu3","","","","","",""
"2006.9750000000931","{""pre-2"":1}","[0]","survey-likert","600","1512906","0.0-600.0","hslw8wu3","","","","","",""
"850.3799999998882","{""pre-3"":1}","[0]","survey-likert","601","1513758","0.0-601.0","hslw8wu3","","","","","",""
"2174.810000000056","{""post-5"":3}","[0]","survey-likert","602","1515934","0.0-602.0","hslw8wu3","","","","","",""
"","","","call-function","603","1515934","0.0-603.0","hslw8wu3","","","","","",""
"null","","","video-keyboard-response","604","1519010","0.0-604.0","hslw8wu3","","","","null","Agent A","STIM_SET_1_REAL/713760.bmp_pp81_L1_V1.0_veridical_freeview_isoFalse_fps144.mp4"
"","","","call-function","605","1519011","0.0-605.0","hslw8wu3","","","","","",""
"2547.880000000121","{""pre-1"":1}","[0]","survey-likert","606","1521560","0.0-606.0","hslw8wu3","","","","","",""
"1341.994999999879","{""pre-2"":1}","[0]","survey-likert","607","1522903","0.0-607.0","hslw8wu3","","","","","",""
"1950.7650000001304","{""pre-3"":1}","[0]","survey-likert","608","1524855","0.0-608.0","hslw8wu3","","","","","",""
"1821.1050000002142","{""post-5"":3}","[0]","survey-likert","609","1526677","0.0-609.0","hslw8wu3","","","","","",""
"","","","call-function","610","1526678","0.0-610.0","hslw8wu3","","","","","",""
"null","","","video-keyboard-response","611","1529753","0.0-611.0","hslw8wu3","","","","null","Agent A","STIM_SET_1_REAL/713707.bmp_pp154_L1_V1.0_veridical_freeview_isoFalse_fps144.mp4"
"","","","call-function","612","1529753","0.0-612.0","hslw8wu3","","","","","",""
"2106.780000000028","{""pre-1"":0}","[0]","survey-likert","613","1531861","0.0-613.0","hslw8wu3","","","","","",""
"2548.100000000093","{""pre-2"":0}","[0]","survey-likert","614","1534411","0.0-614.0","hslw8wu3","","","","","",""
"1953.7150000000838","{""pre-3"":0}","[0]","survey-likert","615","1536366","0.0-615.0","hslw8wu3","","","","","",""
"1138.280000000028","{""post-5"":3}","[0]","survey-likert","616","1537505","0.0-616.0","hslw8wu3","","","","","",""
"","","","call-function","617","1537505","0.0-617.0","hslw8wu3","","","","","",""
"null","","","video-keyboard-response","618","1540604","0.0-618.0","hslw8wu3","","","","null","Agent A","STIM_SET_1_REAL/713403.bmp_pp80_L3_V1.0_scrambled_freeview_isoFalse_fps144.mp4"
"","","","call-function","619","1540605","0.0-619.0","hslw8wu3","","","","","",""
"1589.3200000000652","{""pre-1"":0}","[0]","survey-likert","620","1542196","0.0-620.0","hslw8wu3","","","","","",""
"1323.494999999879","{""pre-2"":0}","[0]","survey-likert","621","1543521","0.0-621.0","hslw8wu3","","","","","",""
"1425.6850000000559","{""pre-3"":0}","[0]","survey-likert","622","1544948","0.0-622.0","hslw8wu3","","","","","",""
"2325.255000000121","{""post-5"":3}","[0]","survey-likert","623","1547274","0.0-623.0","hslw8wu3","","","","","",""
"","","","call-function","624","1547275","0.0-624.0","hslw8wu3","","","","","",""
"null","","","video-keyboard-response","625","1550338","0.0-625.0","hslw8wu3","","","","null","Agent A","STIM_SET_1_REAL/1159572.bmp_pp71_L1_V1.0_scrambled_freeview_isoFalse_fps144.mp4"
"","","","call-function","626","1550338","0.0-626.0","hslw8wu3","","","","","",""
"4163.054999999935","{""pre-1"":1}","[0]","survey-likert","627","1554502","0.0-627.0","hslw8wu3","","","","","",""
"1914.8299999998417","{""pre-2"":1}","[0]","survey-likert","628","1556418","0.0-628.0","hslw8wu3","","","","","",""
"2032.2099999999627","{""pre-3"":1}","[0]","survey-likert","629","1558452","0.0-629.0","hslw8wu3","","","","","",""
"1418.7650000001304","{""post-5"":2}","[0]","survey-likert","630","1559872","0.0-630.0","hslw8wu3","","","","","",""
"","","","call-function","631","1559872","0.0-631.0","hslw8wu3","","","","","",""
"null","","","video-keyboard-response","632","1562964","0.0-632.0","hslw8wu3","","","","null","Agent A","STIM_SET_1_REAL/1592372.bmp_pp76_L1_V1.0_veridical_freeview_isoFalse_fps144.mp4"
"","","","call-function","633","1562964","0.0-633.0","hslw8wu3","","","","","",""
"1993.6850000000559","{""pre-1"":1}","[0]","survey-likert","634","1564959","0.0-634.0","hslw8wu3","","","","","",""
"974.0700000000652","{""pre-2"":1}","[0]","survey-likert","635","1565934","0.0-635.0","hslw8wu3","","","","","",""
"2254.369999999879","{""pre-3"":1}","[0]","survey-likert","636","1568190","0.0-636.0","hslw8wu3","","","","","",""
"1099.2699999997858","{""post-5"":2}","[0]","survey-likert","637","1569290","0.0-637.0","hslw8wu3","","","","","",""
"","","","call-function","638","1569290","0.0-638.0","hslw8wu3","","","","","",""
"null","","","video-keyboard-response","639","1572350","0.0-639.0","hslw8wu3","","","","null","Agent A","STIM_SET_1_REAL/285994.bmp_pp92_L3_V1.0_scrambled_freeview_isoFalse_fps144.mp4"
"","","","call-function","640","1572351","0.0-640.0","hslw8wu3","","","","","",""
"2261.7900000000373","{""pre-1"":3}","[0]","survey-likert","641","1574614","0.0-641.0","hslw8wu3","","","","","",""
"1360.1850000000559","{""pre-2"":3}","[0]","survey-likert","642","1575975","0.0-642.0","hslw8wu3","","","","","",""
"1120.8100000000559","{""pre-3"":3}","[0]","survey-likert","643","1577097","0.0-643.0","hslw8wu3","","","","","",""
"3343.965000000084","{""post-5"":1}","[0]","survey-likert","644","1580442","0.0-644.0","hslw8wu3","","","","","",""
"","","","call-function","645","1580442","0.0-645.0","hslw8wu3","","","","","",""
"null","","","video-keyboard-response","646","1583504","0.0-646.0","hslw8wu3","","","","null","Agent A","STIM_SET_1_REAL/1592817.bmp_pp55_L3_V1.0_veridical_freeview_isoFalse_fps144.mp4"
"","","","call-function","647","1583504","0.0-647.0","hslw8wu3","","","","","",""
"3465.7700000000186","{""pre-1"":0}","[0]","survey-likert","648","1586972","0.0-648.0","hslw8wu3","","","","","",""
"1360.344999999972","{""pre-2"":0}","[0]","survey-likert","649","1588334","0.0-649.0","hslw8wu3","","","","","",""
"1326.1749999998137","{""pre-3"":0}","[0]","survey-likert","650","1589662","0.0-650.0","hslw8wu3","","","","","",""
"1117.5199999997858","{""post-5"":3}","[0]","survey-likert","651","1590782","0.0-651.0","hslw8wu3","","","","","",""
"","","","call-function","652","1590782","0.0-652.0","hslw8wu3","","","","","",""
"null","","","video-keyboard-response","653","1593857","0.0-653.0","hslw8wu3","","","","null","Agent A","STIM_SET_1_REAL/1159855.bmp_pp99_L2_V1.0_veridical_freeview_isoFalse_fps144.mp4"
"","","","call-function","654","1593857","0.0-654.0","hslw8wu3","","","","","",""
"1414.5800000000745","{""pre-1"":3}","[0]","survey-likert","655","1595273","0.0-655.0","hslw8wu3","","","","","",""
"1309.7649999998976","{""pre-2"":3}","[0]","survey-likert","656","1596584","0.0-656.0","hslw8wu3","","","","","",""
"1826.1999999999534","{""pre-3"":3}","[0]","survey-likert","657","1598412","0.0-657.0","hslw8wu3","","","","","",""
"1344.6200000001118","{""post-5"":0}","[0]","survey-likert","658","1599758","0.0-658.0","hslw8wu3","","","","","",""
"","","","call-function","659","1599758","0.0-659.0","hslw8wu3","","","","","",""
"null","","","video-keyboard-response","660","1602843","0.0-660.0","hslw8wu3","","","","null","Agent A","STIM_SET_1_REAL/1592657.bmp_pp98_L1_V1.0_scrambled_freeview_isoFalse_fps144.mp4"
"","","","call-function","661","1602844","0.0-661.0","hslw8wu3","","","","","",""
"2874.5799999998417","{""pre-1"":1}","[0]","survey-likert","662","1605719","0.0-662.0","hslw8wu3","","","","","",""
"2227.0100000000093","{""pre-2"":1}","[0]","survey-likert","663","1607947","0.0-663.0","hslw8wu3","","","","","",""
"1116.2600000000093","{""pre-3"":1}","[0]","survey-likert","664","1609065","0.0-664.0","hslw8wu3","","","","","",""
"1606.4299999999348","{""post-5"":2}","[0]","survey-likert","665","1610672","0.0-665.0","hslw8wu3","","","","","",""
"","","","call-function","666","1610672","0.0-666.0","hslw8wu3","","","","","",""
"null","","","video-keyboard-response","667","1613750","0.0-667.0","hslw8wu3","","","","null","Agent A","STIM_SET_1_REAL/498111.bmp_pp88_L2_V1.0_scrambled_freeview_isoFalse_fps144.mp4"
"","","","call-function","668","1613751","0.0-668.0","hslw8wu3","","","","","",""
"2324.0799999998417","{""pre-1"":2}","[0]","survey-likert","669","1616076","0.0-669.0","hslw8wu3","","","","","",""
"1447.8600000001024","{""pre-2"":2}","[0]","survey-likert","670","1617525","0.0-670.0","hslw8wu3","","","","","",""
"1057.7099999999627","{""pre-3"":2}","[0]","survey-likert","671","1618584","0.0-671.0","hslw8wu3","","","","","",""
"1561.1400000001304","{""post-5"":1}","[0]","survey-likert","672","1620146","0.0-672.0","hslw8wu3","","","","","",""
"","","","call-function","673","1620146","0.0-673.0","hslw8wu3","","","","","",""
"null","","","video-keyboard-response","674","1623221","0.0-674.0","hslw8wu3","","","","null","Agent A","STIM_SET_1_REAL/498175.bmp_pp154_L1_V1.0_veridical_freeview_isoFalse_fps144.mp4"
"","","","call-function","675","1623221","0.0-675.0","hslw8wu3","","","","","",""
"5339.620000000112","{""pre-1"":2}","[0]","survey-likert","676","1628562","0.0-676.0","hslw8wu3","","","","","",""
"2464.064999999944","{""pre-2"":2}","[0]","survey-likert","677","1631028","0.0-677.0","hslw8wu3","","","","","",""
"3840.6699999999255","{""pre-3"":2}","[0]","survey-likert","678","1634870","0.0-678.0","hslw8wu3","","","","","",""
"1230.3950000000186","{""post-5"":1}","[0]","survey-likert","679","1636103","0.0-679.0","hslw8wu3","","","","","",""
"","","","call-function","680","1636104","0.0-680.0","hslw8wu3","","","","","",""
"null","","","video-keyboard-response","681","1639183","0.0-681.0","hslw8wu3","","","","null","Agent A","STIM_SET_1_REAL/1159675.bmp_pp77_L3_V1.0_veridical_freeview_isoFalse_fps144.mp4"
"","","","call-function","682","1639184","0.0-682.0","hslw8wu3","","","","","",""
"1853.3049999999348","{""pre-1"":1}","[0]","survey-likert","683","1641038","0.0-683.0","hslw8wu3","","","","","",""
"980.3500000000931","{""pre-2"":1}","[0]","survey-likert","684","1642020","0.0-684.0","hslw8wu3","","","","","",""
"1270.8999999999069","{""pre-3"":1}","[0]","survey-likert","685","1643292","0.0-685.0","hslw8wu3","","","","","",""
"1377.1400000001304","{""post-5"":2}","[0]","survey-likert","686","1644670","0.0-686.0","hslw8wu3","","","","","",""
"","","","call-function","687","1644671","0.0-687.0","hslw8wu3","","","","","",""
"null","","","video-keyboard-response","688","1647733","0.0-688.0","hslw8wu3","","","","null","Agent A","STIM_SET_1_REAL/498170.bmp_pp153_L3_V1.0_veridical_freeview_isoFalse_fps144.mp4"
"","","","call-function","689","1647734","0.0-689.0","hslw8wu3","","","","","",""
"2652.9599999999627","{""pre-1"":1}","[0]","survey-likert","690","1650388","0.0-690.0","hslw8wu3","","","","","",""
"1097.280000000028","{""pre-2"":1}","[0]","survey-likert","691","1651486","0.0-691.0","hslw8wu3","","","","","",""
"1037.8850000000093","{""pre-3"":1}","[0]","survey-likert","692","1652525","0.0-692.0","hslw8wu3","","","","","",""
"3410","{""post-5"":3}","[0]","survey-likert","693","1655936","0.0-693.0","hslw8wu3","","","","","",""
"","","","call-function","694","1655937","0.0-694.0","hslw8wu3","","","","","",""
"null","","","video-keyboard-response","695","1659006","0.0-695.0","hslw8wu3","","","","null","Agent A","STIM_SET_1_REAL/1159440.bmp_pp98_L1_V1.0_veridical_freeview_isoFalse_fps144.mp4"
"","","","call-function","696","1659006","0.0-696.0","hslw8wu3","","","","","",""
"4570.489999999991","{""pre-1"":1}","[0]","survey-likert","697","1663578","0.0-697.0","hslw8wu3","","","","","",""
"1080.0400000000373","{""pre-2"":1}","[0]","survey-likert","698","1664659","0.0-698.0","hslw8wu3","","","","","",""
"1399.9650000000838","{""pre-3"":1}","[0]","survey-likert","699","1666060","0.0-699.0","hslw8wu3","","","","","",""
"2244.8300000000745","{""post-5"":2}","[0]","survey-likert","700","1668306","0.0-700.0","hslw8wu3","","","","","",""
"","","","call-function","701","1668306","0.0-701.0","hslw8wu3","","","","","",""
"null","","","video-keyboard-response","702","1671378","0.0-702.0","hslw8wu3","","","","null","Agent A","STIM_SET_1_REAL/1592581.bmp_pp100_L3_V1.0_scrambled_freeview_isoFalse_fps144.mp4"
"","","","call-function","703","1671378","0.0-703.0","hslw8wu3","","","","","",""
"4572.970000000205","{""pre-1"":2}","[0]","survey-likert","704","1675952","0.0-704.0","hslw8wu3","","","","","",""
"896.0300000000279","{""pre-2"":2}","[0]","survey-likert","705","1676849","0.0-705.0","hslw8wu3","","","","","",""
"906.875","{""pre-3"":2}","[0]","survey-likert","706","1677757","0.0-706.0","hslw8wu3","","","","","",""
"1885","{""post-5"":1}","[0]","survey-likert","707","1679644","0.0-707.0","hslw8wu3","","","","","",""
"","","","call-function","708","1679645","0.0-708.0","hslw8wu3","","","","","",""
"null","","","video-keyboard-response","709","1682734","0.0-709.0","hslw8wu3","","","","null","Agent A","STIM_SET_1_REAL/713089.bmp_pp60_L3_V1.0_veridical_freeview_isoFalse_fps144.mp4"
"","","","call-function","710","1682735","0.0-710.0","hslw8wu3","","","","","",""
"2422.929999999935","{""pre-1"":3}","[0]","survey-likert","711","1685159","0.0-711.0","hslw8wu3","","","","","",""
"1349.2700000000186","{""pre-2"":3}","[0]","survey-likert","712","1686509","0.0-712.0","hslw8wu3","","","","","",""
"1492.0200000000186","{""pre-3"":3}","[0]","survey-likert","713","1688003","0.0-713.0","hslw8wu3","","","","","",""
"2058.3950000000186","{""post-5"":1}","[0]","survey-likert","714","1690062","0.0-714.0","hslw8wu3","","","","","",""
"","","","call-function","715","1690063","0.0-715.0","hslw8wu3","","","","","",""
"null","","","video-keyboard-response","716","1693137","0.0-716.0","hslw8wu3","","","","null","Agent A","STIM_SET_1_REAL/498175.bmp_pp154_L1_V1.0_scrambled_freeview_isoFalse_fps144.mp4"
"","","","call-function","717","1693137","0.0-717.0","hslw8wu3","","","","","",""
"1399.4149999998044","{""pre-1"":3}","[0]","survey-likert","718","1694538","0.0-718.0","hslw8wu3","","","","","",""
"1521.530000000028","{""pre-2"":3}","[0]","survey-likert","719","1696061","0.0-719.0","hslw8wu3","","","","","",""
"1635.969999999972","{""pre-3"":3}","[0]","survey-likert","720","1697698","0.0-720.0","hslw8wu3","","","","","",""
"2504.850000000093","{""post-5"":0}","[0]","survey-likert","721","1700204","0.0-721.0","hslw8wu3","","","","","",""
"","","","call-function","722","1700205","0.0-722.0","hslw8wu3","","","","","",""
"null","","","video-keyboard-response","723","1703280","0.0-723.0","hslw8wu3","","","","null","Agent A","STIM_SET_1_REAL/1159777.bmp_pp77_L3_V1.0_scrambled_freeview_isoFalse_fps144.mp4"
"","","","call-function","724","1703280","0.0-724.0","hslw8wu3","","","","","",""
"3293.8849999997765","{""pre-1"":2}","[0]","survey-likert","725","1706575","0.0-725.0","hslw8wu3","","","","","",""
"1081.6499999999069","{""pre-2"":2}","[0]","survey-likert","726","1707658","0.0-726.0","hslw8wu3","","","","","",""
"1027.2349999998696","{""pre-3"":2}","[0]","survey-likert","727","1708686","0.0-727.0","hslw8wu3","","","","","",""
"1421.9399999999441","{""post-5"":1}","[0]","survey-likert","728","1710109","0.0-728.0","hslw8wu3","","","","","",""
"1614.2600000000093","","","instructions","729","1711724","0.0-729.0","hslw8wu3","[{""page_index"":0,""viewing_time"":1178.9550000000745},{""page_index"":1,""viewing_time"":294.93499999982305},{""page_index"":2,""viewing_time"":140.20000000018626}]","","","","",""
"470.48500000010245","","","instructions","730","1712195","0.0-730.0","hslw8wu3","[{""page_index"":0,""viewing_time"":134.43500000005588},{""page_index"":1,""viewing_time"":215.18500000005588},{""page_index"":2,""viewing_time"":120.75499999988824}]","","","","",""
"","","","call-function","731","1712195","0.0-731.0","hslw8wu3","","","","","",""
"null","","","video-keyboard-response","732","1715272","0.0-732.0","hslw8wu3","","","","null","Agent A","STIM_SET_1_REAL/713620.bmp_pp65_L3_V1.0_scrambled_freeview_isoFalse_fps144.mp4"
"","","","call-function","733","1715273","0.0-733.0","hslw8wu3","","","","","",""
"1609.559999999823","{""pre-1"":2}","[0]","survey-likert","734","1716883","0.0-734.0","hslw8wu3","","","","","",""
"886.8549999999814","{""pre-2"":2}","[0]","survey-likert","735","1717771","0.0-735.0","hslw8wu3","","","","","",""
"1307.6000000000931","{""pre-3"":2}","[0]","survey-likert","736","1719081","0.0-736.0","hslw8wu3","","","","","",""
"2588.1350000000093","{""post-5"":1}","[0]","survey-likert","737","1721670","0.0-737.0","hslw8wu3","","","","","",""
"","","","call-function","738","1721670","0.0-738.0","hslw8wu3","","","","","",""
"null","","","video-keyboard-response","739","1724744","0.0-739.0","hslw8wu3","","","","null","Agent A","STIM_SET_1_REAL/61537.bmp_pp73_L3_V1.0_veridical_freeview_isoFalse_fps144.mp4"
"","","","call-function","740","1724745","0.0-740.0","hslw8wu3","","","","","",""
"3738.685000000056","{""pre-1"":2}","[0]","survey-likert","741","1728486","0.0-741.0","hslw8wu3","","","","","",""
"1641.4550000000745","{""pre-2"":2}","[0]","survey-likert","742","1730129","0.0-742.0","hslw8wu3","","","","","",""
"1723.5749999999534","{""pre-3"":2}","[0]","survey-likert","743","1731854","0.0-743.0","hslw8wu3","","","","","",""
"2035.3700000001118","{""post-5"":1}","[0]","survey-likert","744","1733891","0.0-744.0","hslw8wu3","","","","","",""
"","","","call-function","745","1733891","0.0-745.0","hslw8wu3","","","","","",""
"null","","","video-keyboard-response","746","1736960","0.0-746.0","hslw8wu3","","","","null","Agent A","STIM_SET_1_REAL/713513.bmp_pp62_L2_V1.0_scrambled_freeview_isoFalse_fps144.mp4"
"","","","call-function","747","1736961","0.0-747.0","hslw8wu3","","","","","",""
"2439.7000000001863","{""pre-1"":1}","[0]","survey-likert","748","1739401","0.0-748.0","hslw8wu3","","","","","",""
"1740.8249999999534","{""pre-2"":1}","[0]","survey-likert","749","1741144","0.0-749.0","hslw8wu3","","","","","",""
"1147.094999999972","{""pre-3"":1}","[0]","survey-likert","750","1742292","0.0-750.0","hslw8wu3","","","","","",""
"1352.1400000001304","{""post-5"":3}","[0]","survey-likert","751","1743646","0.0-751.0","hslw8wu3","","","","","",""
"","","","call-function","752","1743647","0.0-752.0","hslw8wu3","","","","","",""
"null","","","video-keyboard-response","753","1746716","0.0-753.0","hslw8wu3","","","","null","Agent A","STIM_SET_1_REAL/713135.bmp_pp54_L2_V1.0_veridical_freeview_isoFalse_fps144.mp4"
"","","","call-function","754","1746716","0.0-754.0","hslw8wu3","","","","","",""
"1631.5200000000186","{""pre-1"":2}","[0]","survey-likert","755","1748349","0.0-755.0","hslw8wu3","","","","","",""
"1366.9799999999814","{""pre-2"":2}","[0]","survey-likert","756","1749717","0.0-756.0","hslw8wu3","","","","","",""
"1260.8799999998882","{""pre-3"":2}","[0]","survey-likert","757","1750979","0.0-757.0","hslw8wu3","","","","","",""
"2638.0800000000745","{""post-5"":1}","[0]","survey-likert","758","1753618","0.0-758.0","hslw8wu3","","","","","",""
"","","","call-function","759","1753619","0.0-759.0","hslw8wu3","","","","","",""
"null","","","video-keyboard-response","760","1756688","0.0-760.0","hslw8wu3","","","","null","Agent A","STIM_SET_1_REAL/713796.bmp_pp84_L3_V1.0_veridical_freeview_isoFalse_fps144.mp4"
"","","","call-function","761","1756689","0.0-761.0","hslw8wu3","","","","","",""
"1956.594999999972","{""pre-1"":2}","[0]","survey-likert","762","1758646","0.0-762.0","hslw8wu3","","","","","",""
"1863.7999999998137","{""pre-2"":2}","[0]","survey-likert","763","1760511","0.0-763.0","hslw8wu3","","","","","",""
"1057.9150000000373","{""pre-3"":2}","[0]","survey-likert","764","1761570","0.0-764.0","hslw8wu3","","","","","",""
"1854.9399999999441","{""post-5"":1}","[0]","survey-likert","765","1763426","0.0-765.0","hslw8wu3","","","","","",""
"","","","call-function","766","1763427","0.0-766.0","hslw8wu3","","","","","",""
"null","","","video-keyboard-response","767","1766518","0.0-767.0","hslw8wu3","","","","null","Agent A","STIM_SET_1_REAL/713681.bmp_pp86_L2_V1.0_veridical_freeview_isoFalse_fps144.mp4"
"","","","call-function","768","1766519","0.0-768.0","hslw8wu3","","","","","",""
"2338.2549999998882","{""pre-1"":3}","[0]","survey-likert","769","1768858","0.0-769.0","hslw8wu3","","","","","",""
"1406.4950000001118","{""pre-2"":3}","[0]","survey-likert","770","1770267","0.0-770.0","hslw8wu3","","","","","",""
"1239.345000000205","{""pre-3"":3}","[0]","survey-likert","771","1771508","0.0-771.0","hslw8wu3","","","","","",""
"1338.375","{""post-5"":0}","[0]","survey-likert","772","1772848","0.0-772.0","hslw8wu3","","","","","",""
"","","","call-function","773","1772849","0.0-773.0","hslw8wu3","","","","","",""
"null","","","video-keyboard-response","774","1775914","0.0-774.0","hslw8wu3","","","","null","Agent A","STIM_SET_1_REAL/498170.bmp_pp153_L3_V1.0_scrambled_freeview_isoFalse_fps144.mp4"
"","","","call-function","775","1775915","0.0-775.0","hslw8wu3","","","","","",""
"3927.369999999879","{""pre-1"":2}","[0]","survey-likert","776","1779844","0.0-776.0","hslw8wu3","","","","","",""
"861.9599999999627","{""pre-2"":2}","[0]","survey-likert","777","1780707","0.0-777.0","hslw8wu3","","","","","",""
"1922.5800000000745","{""pre-3"":2}","[0]","survey-likert","778","1782631","0.0-778.0","hslw8wu3","","","","","",""
"2813.189999999944","{""post-5"":1}","[0]","survey-likert","779","1785445","0.0-779.0","hslw8wu3","","","","","",""
"","","","call-function","780","1785446","0.0-780.0","hslw8wu3","","","","","",""
"null","","","video-keyboard-response","781","1788516","0.0-781.0","hslw8wu3","","","","null","Agent A","STIM_SET_1_REAL/713796.bmp_pp84_L3_V1.0_scrambled_freeview_isoFalse_fps144.mp4"
"","","","call-function","782","1788517","0.0-782.0","hslw8wu3","","","","","",""
"1668.5400000000373","{""pre-1"":3}","[0]","survey-likert","783","1790186","0.0-783.0","hslw8wu3","","","","","",""
"1076.8400000000838","{""pre-2"":3}","[0]","survey-likert","784","1791264","0.0-784.0","hslw8wu3","","","","","",""
"1228.0700000000652","{""pre-3"":3}","[0]","survey-likert","785","1792494","0.0-785.0","hslw8wu3","","","","","",""
"1305.1450000000186","{""post-5"":0}","[0]","survey-likert","786","1793800","0.0-786.0","hslw8wu3","","","","","",""
"","","","call-function","787","1793800","0.0-787.0","hslw8wu3","","","","","",""
"null","","","video-keyboard-response","788","1796870","0.0-788.0","hslw8wu3","","","","null","Agent A","STIM_SET_1_REAL/713135.bmp_pp54_L2_V1.0_scrambled_freeview_isoFalse_fps144.mp4"
"","","","call-function","789","1796870","0.0-789.0","hslw8wu3","","","","","",""
"1706","{""pre-1"":3}","[0]","survey-likert","790","1798577","0.0-790.0","hslw8wu3","","","","","",""
"1277.8249999999534","{""pre-2"":3}","[0]","survey-likert","791","1799856","0.0-791.0","hslw8wu3","","","","","",""
"1423.904999999795","{""pre-3"":3}","[0]","survey-likert","792","1801281","0.0-792.0","hslw8wu3","","","","","",""
"4940.935000000056","{""post-5"":1}","[0]","survey-likert","793","1806223","0.0-793.0","hslw8wu3","","","","","",""
"","","","call-function","794","1806224","0.0-794.0","hslw8wu3","","","","","",""
"null","","","video-keyboard-response","795","1809298","0.0-795.0","hslw8wu3","","","","null","Agent A","STIM_SET_1_REAL/713211.bmp_pp100_L3_V1.0_scrambled_freeview_isoFalse_fps144.mp4"
"","","","call-function","796","1809300","0.0-796.0","hslw8wu3","","","","","",""
"5828.465000000084","{""pre-1"":2}","[0]","survey-likert","797","1815130","0.0-797.0","hslw8wu3","","","","","",""
"1644.3199999998324","{""pre-2"":2}","[0]","survey-likert","798","1816776","0.0-798.0","hslw8wu3","","","","","",""
"974.5449999999255","{""pre-3"":2}","[0]","survey-likert","799","1817752","0.0-799.0","hslw8wu3","","","","","",""
"1286.9899999999907","{""post-5"":1}","[0]","survey-likert","800","1819041","0.0-800.0","hslw8wu3","","","","","",""
"","","","call-function","801","1819041","0.0-801.0","hslw8wu3","","","","","",""
"null","","","video-keyboard-response","802","1822104","0.0-802.0","hslw8wu3","","","","null","Agent A","STIM_SET_1_REAL/285994.bmp_pp92_L3_V1.0_veridical_freeview_isoFalse_fps144.mp4"
"","","","call-function","803","1822105","0.0-803.0","hslw8wu3","","","","","",""
"1717.869999999879","{""pre-1"":3}","[0]","survey-likert","804","1823824","0.0-804.0","hslw8wu3","","","","","",""
"1329.7749999999069","{""pre-2"":3}","[0]","survey-likert","805","1825155","0.0-805.0","hslw8wu3","","","","","",""
"1393.2949999999255","{""pre-3"":3}","[0]","survey-likert","806","1826549","0.0-806.0","hslw8wu3","","","","","",""
"3990.195000000065","{""post-5"":0}","[0]","survey-likert","807","1830541","0.0-807.0","hslw8wu3","","","","","",""
"","","","call-function","808","1830541","0.0-808.0","hslw8wu3","","","","","",""
"null","","","video-keyboard-response","809","1833603","0.0-809.0","hslw8wu3","","","","null","Agent A","STIM_SET_1_REAL/497950.bmp_pp151_L1_V1.0_veridical_freeview_isoFalse_fps144.mp4"
"","","","call-function","810","1833604","0.0-810.0","hslw8wu3","","","","","",""
"1772.2900000000373","{""pre-1"":3}","[0]","survey-likert","811","1835377","0.0-811.0","hslw8wu3","","","","","",""
"1555.9399999999441","{""pre-2"":3}","[0]","survey-likert","812","1836935","0.0-812.0","hslw8wu3","","","","","",""
"1916.9200000001583","{""pre-3"":3}","[0]","survey-likert","813","1838853","0.0-813.0","hslw8wu3","","","","","",""
"1663.9350000000559","{""post-5"":1}","[0]","survey-likert","814","1840518","0.0-814.0","hslw8wu3","","","","","",""
"","","","call-function","815","1840519","0.0-815.0","hslw8wu3","","","","","",""
"null","","","video-keyboard-response","816","1843597","0.0-816.0","hslw8wu3","","","","null","Agent A","STIM_SET_1_REAL/1591954.bmp_pp62_L2_V1.0_scrambled_freeview_isoFalse_fps144.mp4"
"","","","call-function","817","1843598","0.0-817.0","hslw8wu3","","","","","",""
"1367.589999999851","{""pre-1"":3}","[0]","survey-likert","818","1844966","0.0-818.0","hslw8wu3","","","","","",""
"2072.560000000056","{""pre-2"":3}","[0]","survey-likert","819","1847040","0.0-819.0","hslw8wu3","","","","","",""
"2508.4000000001397","{""pre-3"":3}","[0]","survey-likert","820","1849549","0.0-820.0","hslw8wu3","","","","","",""
"2587.714999999851","{""post-5"":0}","[0]","survey-likert","821","1852138","0.0-821.0","hslw8wu3","","","","","",""
"","","","call-function","822","1852139","0.0-822.0","hslw8wu3","","","","","",""
"null","","","video-keyboard-response","823","1855206","0.0-823.0","hslw8wu3","","","","null","Agent A","STIM_SET_1_REAL/1593035.bmp_pp94_L2_V1.0_veridical_freeview_isoFalse_fps144.mp4"
"","","","call-function","824","1855206","0.0-824.0","hslw8wu3","","","","","",""
"2264.784999999916","{""pre-1"":1}","[0]","survey-likert","825","1857473","0.0-825.0","hslw8wu3","","","","","",""
"1092.2700000000186","{""pre-2"":1}","[0]","survey-likert","826","1858567","0.0-826.0","hslw8wu3","","","","","",""
"2782.869999999879","{""pre-3"":1}","[0]","survey-likert","827","1861352","0.0-827.0","hslw8wu3","","","","","",""
"1830.7600000000093","{""post-5"":3}","[0]","survey-likert","828","1863184","0.0-828.0","hslw8wu3","","","","","",""
"","","","call-function","829","1863185","0.0-829.0","hslw8wu3","","","","","",""
"null","","","video-keyboard-response","830","1866254","0.0-830.0","hslw8wu3","","","","null","Agent A","STIM_SET_1_REAL/1159768.bmp_pp89_L1_V1.0_veridical_freeview_isoFalse_fps144.mp4"
"","","","call-function","831","1866255","0.0-831.0","hslw8wu3","","","","","",""
"4925.690000000177","{""pre-1"":1}","[0]","survey-likert","832","1871182","0.0-832.0","hslw8wu3","","","","","",""
"2542.899999999907","{""pre-2"":1}","[0]","survey-likert","833","1873726","0.0-833.0","hslw8wu3","","","","","",""
"1731.559999999823","{""pre-3"":1}","[0]","survey-likert","834","1875458","0.0-834.0","hslw8wu3","","","","","",""
"3051.820000000065","{""post-5"":2}","[0]","survey-likert","835","1878512","0.0-835.0","hslw8wu3","","","","","",""
"","","","call-function","836","1878512","0.0-836.0","hslw8wu3","","","","","",""
