"rt","responses","question_order","trial_type","trial_index","time_elapsed","internal_node_id","ID","view_history","value","stimulus","key_press","agent","image"
"54719.840000000004","{""Experimenter"":[""Confirmed subject's identity (ID card)"",""Confirmed normal or corrected-to-normal vision"",""Obtained consent (signature and date)"",""Checked the test room lighting"",""Checked computer screen lighting"",""Checked distance from screen to chin rest (50cm)"",""Cleaned and adjusted chin rest"",""Counterbalanced the order of the tasks"",""Opened the experiment in Firefox"",""Made the experiment full screen"",""Encouraged subject to silence phone, put away distractors, etc.""]}","[0]","survey-multi-select","0","54731","0.0-0.0","mb7x2pfc","","","","","",""
"32107.965000000004","","","instructions","1","86840","0.0-1.0","mb7x2pfc","[{""page_index"":0,""viewing_time"":32107.814999999995}]","","","","",""
"10064.919999999998","{""Age"":3,""Sex"":1,""Gender"":1}","[0,1,2]","survey-likert","2","96907","0.0-2.0","mb7x2pfc","","","","","",""
"1409.0699999999924","","","instructions","3","98317","0.0-3.0","mb7x2pfc","[{""page_index"":0,""viewing_time"":1408.9550000000017}]","","","","",""
"8964.305000000008","","","instructions","4","107282","0.0-4.0","mb7x2pfc","[{""page_index"":0,""viewing_time"":5787.12000000001},{""page_index"":1,""viewing_time"":3177.074999999997}]","","","","",""
"9544.595000000001","","","instructions","5","116827","0.0-5.0","mb7x2pfc","[{""page_index"":0,""viewing_time"":2263.1100000000006},{""page_index"":1,""viewing_time"":3533.949999999997},{""page_index"":2,""viewing_time"":3747.4100000000035}]","","","","",""
"2382.1800000000076","","","instructions","6","119210","0.0-6.0","mb7x2pfc","[{""page_index"":0,""viewing_time"":2382.070000000007}]","","","","",""
"","","","call-function","7","119210","0.0-7.0","mb7x2pfc","","","","","",""
"null","","","video-keyboard-response","8","122304","0.0-8.0","mb7x2pfc","","","","null","",""
"","","","call-function","9","122305","0.0-9.0","mb7x2pfc","","","","","",""
"12572.580000000002","","","instructions","10","134878","0.0-10.0","mb7x2pfc","[{""page_index"":0,""viewing_time"":2995.3800000000047},{""page_index"":1,""viewing_time"":4384.369999999995},{""page_index"":2,""viewing_time"":1242.6800000000076},{""page_index"":3,""viewing_time"":3949.2550000000047}]","","","","",""
"1375.265000000014","","","instructions","11","136254","0.0-11.0","mb7x2pfc","[{""page_index"":0,""viewing_time"":1375.1650000000081}]","","","","",""
"","","","call-function","12","136255","0.0-12.0","mb7x2pfc","","","","","",""
"null","","","video-keyboard-response","13","139330","0.0-13.0","mb7x2pfc","","","","null","",""
"","","","call-function","14","139330","0.0-14.0","mb7x2pfc","","","","","",""
"15715.324999999983","{""pre-1"":0}","[0]","survey-likert","15","155047","0.0-15.0","mb7x2pfc","","","","","",""
"9915.964999999997","{""pre-2"":0}","[0]","survey-likert","16","164964","0.0-16.0","mb7x2pfc","","","","","",""
"5680.174999999988","{""pre-3"":0}","[0]","survey-likert","17","170645","0.0-17.0","mb7x2pfc","","","","","",""
"3190.5449999999837","{""post-5"":3}","[0]","survey-likert","18","173837","0.0-18.0","mb7x2pfc","","","","","",""
"919.2099999999919","","","instructions","19","174757","0.0-19.0","mb7x2pfc","[{""page_index"":0,""viewing_time"":919.0899999999965}]","","","","",""
"4990.734999999986","","","instructions","20","179748","0.0-20.0","mb7x2pfc","[{""page_index"":0,""viewing_time"":4990.625}]","","","","",""
"","","","call-function","21","179748","0.0-21.0","mb7x2pfc","","","","","",""
"null","","","video-keyboard-response","22","182811","0.0-22.0","mb7x2pfc","","","","null","Agent A","STIM_SET_1_REAL/1592817.bmp_pp55_L3_V1.0_veridical_freeview_isoFalse_fps144.mp4"
"","","","call-function","23","182812","0.0-23.0","mb7x2pfc","","","","","",""
"4206.779999999999","{""pre-1"":1}","[0]","survey-likert","24","187020","0.0-24.0","mb7x2pfc","","","","","",""
"2897.195000000007","{""pre-2"":1}","[0]","survey-likert","25","189918","0.0-25.0","mb7x2pfc","","","","","",""
"5337.764999999985","{""pre-3"":1}","[0]","survey-likert","26","195257","0.0-26.0","mb7x2pfc","","","","","",""
"6716.7699999999895","{""post-5"":2}","[0]","survey-likert","27","201975","0.0-27.0","mb7x2pfc","","","","","",""
"","","","call-function","28","201975","0.0-28.0","mb7x2pfc","","","","","",""
"null","","","video-keyboard-response","29","205036","0.0-29.0","mb7x2pfc","","","","null","Agent A","STIM_SET_1_REAL/713089.bmp_pp60_L3_V1.0_veridical_freeview_isoFalse_fps144.mp4"
"","","","call-function","30","205036","0.0-30.0","mb7x2pfc","","","","","",""
"5514.2300000000105","{""pre-1"":1}","[0]","survey-likert","31","210552","0.0-31.0","mb7x2pfc","","","","","",""
"5115.110000000015","{""pre-2"":2}","[0]","survey-likert","32","215669","0.0-32.0","mb7x2pfc","","","","","",""
"3620.8949999999895","{""pre-3"":2}","[0]","survey-likert","33","219291","0.0-33.0","mb7x2pfc","","","","","",""
"6316.3399999999965","{""post-5"":0}","[0]","survey-likert","34","225609","0.0-34.0","mb7x2pfc","","","","","",""
"","","","call-function","35","225610","0.0-35.0","mb7x2pfc","","","","","",""
"null","","","video-keyboard-response","36","228684","0.0-36.0","mb7x2pfc","","","","null","Agent A","STIM_SET_1_REAL/61537.bmp_pp73_L3_V1.0_scrambled_freeview_isoFalse_fps144.mp4"
"","","","call-function","37","228684","0.0-37.0","mb7x2pfc","","","","","",""
"6460.149999999994","{""pre-1"":0}","[0]","survey-likert","38","235145","0.0-38.0","mb7x2pfc","","","","","",""
"2457.7850000000035","{""pre-2"":1}","[0]","survey-likert","39","237605","0.0-39.0","mb7x2pfc","","","","","",""
"4882.914999999979","{""pre-3"":1}","[0]","survey-likert","40","242489","0.0-40.0","mb7x2pfc","","","","","",""
"2074.429999999993","{""post-5"":3}","[0]","survey-likert","41","244565","0.0-41.0","mb7x2pfc","","","","","",""
"","","","call-function","42","244565","0.0-42.0","mb7x2pfc","","","","","",""
"null","","","video-keyboard-response","43","247628","0.0-43.0","mb7x2pfc","","","","null","Agent A","STIM_SET_1_REAL/713681.bmp_pp86_L2_V1.0_veridical_freeview_isoFalse_fps144.mp4"
"","","","call-function","44","247628","0.0-44.0","mb7x2pfc","","","","","",""
"7320.8399999999965","{""pre-1"":2}","[0]","survey-likert","45","254950","0.0-45.0","mb7x2pfc","","","","","",""
"5224.170000000013","{""pre-2"":2}","[0]","survey-likert","46","260175","0.0-46.0","mb7x2pfc","","","","","",""
"5643.860000000015","{""pre-3"":1}","[0]","survey-likert","47","265820","0.0-47.0","mb7x2pfc","","","","","",""
"4380.580000000016","{""post-5"":1}","[0]","survey-likert","48","270202","0.0-48.0","mb7x2pfc","","","","","",""
"","","","call-function","49","270202","0.0-49.0","mb7x2pfc","","","","","",""
"null","","","video-keyboard-response","50","273262","0.0-50.0","mb7x2pfc","","","","null","Agent A","STIM_SET_1_REAL/285994.bmp_pp92_L3_V1.0_scrambled_freeview_isoFalse_fps144.mp4"
"","","","call-function","51","273262","0.0-51.0","mb7x2pfc","","","","","",""
"9038.665000000037","{""pre-1"":1}","[0]","survey-likert","52","282302","0.0-52.0","mb7x2pfc","","","","","",""
"2269.969999999972","{""pre-2"":0}","[0]","survey-likert","53","284573","0.0-53.0","mb7x2pfc","","","","","",""
"2437.1849999999977","{""pre-3"":0}","[0]","survey-likert","54","287011","0.0-54.0","mb7x2pfc","","","","","",""
"2440.3550000000396","{""post-5"":2}","[0]","survey-likert","55","289452","0.0-55.0","mb7x2pfc","","","","","",""
"","","","call-function","56","289453","0.0-56.0","mb7x2pfc","","","","","",""
"null","","","video-keyboard-response","57","292525","0.0-57.0","mb7x2pfc","","","","null","Agent A","STIM_SET_1_REAL/1160168.bmp_pp53_L2_V1.0_veridical_freeview_isoFalse_fps144.mp4"
"","","","call-function","58","292526","0.0-58.0","mb7x2pfc","","","","","",""
"2815.7350000000442","{""pre-1"":1}","[0]","survey-likert","59","295343","0.0-59.0","mb7x2pfc","","","","","",""
"4414.099999999977","{""pre-2"":2}","[0]","survey-likert","60","299759","0.0-60.0","mb7x2pfc","","","","","",""
"3623.4899999999907","{""pre-3"":1}","[0]","survey-likert","61","303384","0.0-61.0","mb7x2pfc","","","","","",""
"4433.950000000012","{""post-5"":1}","[0]","survey-likert","62","307820","0.0-62.0","mb7x2pfc","","","","","",""
"","","","call-function","63","307820","0.0-63.0","mb7x2pfc","","","","","",""
"null","","","video-keyboard-response","64","310888","0.0-64.0","mb7x2pfc","","","","null","Agent A","STIM_SET_1_REAL/713513.bmp_pp62_L2_V1.0_veridical_freeview_isoFalse_fps144.mp4"
"","","","call-function","65","310889","0.0-65.0","mb7x2pfc","","","","","",""
"2674.9500000000116","{""pre-1"":1}","[0]","survey-likert","66","313565","0.0-66.0","mb7x2pfc","","","","","",""
"10119.669999999984","{""pre-2"":2}","[0]","survey-likert","67","323685","0.0-67.0","mb7x2pfc","","","","","",""
"2953.6199999999953","{""pre-3"":2}","[0]","survey-likert","68","326640","0.0-68.0","mb7x2pfc","","","","","",""
"7849.859999999986","{""post-5"":1}","[0]","survey-likert","69","334492","0.0-69.0","mb7x2pfc","","","","","",""
"","","","call-function","70","334492","0.0-70.0","mb7x2pfc","","","","","",""
"null","","","video-keyboard-response","71","337585","0.0-71.0","mb7x2pfc","","","","null","Agent A","STIM_SET_1_REAL/1159813.bmp_pp79_L2_V1.0_scrambled_freeview_isoFalse_fps144.mp4"
"","","","call-function","72","337585","0.0-72.0","mb7x2pfc","","","","","",""
"4206.909999999974","{""pre-1"":2}","[0]","survey-likert","73","341793","0.0-73.0","mb7x2pfc","","","","","",""
"3372.929999999993","{""pre-2"":3}","[0]","survey-likert","74","345167","0.0-74.0","mb7x2pfc","","","","","",""
"2511.4199999999837","{""pre-3"":3}","[0]","survey-likert","75","347679","0.0-75.0","mb7x2pfc","","","","","",""
"2697.5750000000116","{""post-5"":0}","[0]","survey-likert","76","350378","0.0-76.0","mb7x2pfc","","","","","",""
"","","","call-function","77","350378","0.0-77.0","mb7x2pfc","","","","","",""
"null","","","video-keyboard-response","78","353440","0.0-78.0","mb7x2pfc","","","","null","Agent A","STIM_SET_1_REAL/498149.bmp_pp99_L2_V1.0_veridical_freeview_isoFalse_fps144.mp4"
"","","","call-function","79","353442","0.0-79.0","mb7x2pfc","","","","","",""
"4677.625","{""pre-1"":0}","[0]","survey-likert","80","358121","0.0-80.0","mb7x2pfc","","","","","",""
"2543.670000000042","{""pre-2"":1}","[0]","survey-likert","81","360666","0.0-81.0","mb7x2pfc","","","","","",""
"2244.5950000000303","{""pre-3"":1}","[0]","survey-likert","82","362913","0.0-82.0","mb7x2pfc","","","","","",""
"2638.0950000000303","{""post-5"":3}","[0]","survey-likert","83","365552","0.0-83.0","mb7x2pfc","","","","","",""
"","","","call-function","84","365553","0.0-84.0","mb7x2pfc","","","","","",""
"null","","","video-keyboard-response","85","368627","0.0-85.0","mb7x2pfc","","","","null","Agent A","STIM_SET_1_REAL/1159675.bmp_pp77_L3_V1.0_veridical_freeview_isoFalse_fps144.mp4"
"","","","call-function","86","368627","0.0-86.0","mb7x2pfc","","","","","",""
"5449.339999999967","{""pre-1"":3}","[0]","survey-likert","87","374077","0.0-87.0","mb7x2pfc","","","","","",""
"2390.0299999999697","{""pre-2"":3}","[0]","survey-likert","88","376468","0.0-88.0","mb7x2pfc","","","","","",""
"1296.9550000000163","{""pre-3"":3}","[0]","survey-likert","89","377766","0.0-89.0","mb7x2pfc","","","","","",""
"1776.7050000000163","{""post-5"":0}","[0]","survey-likert","90","379544","0.0-90.0","mb7x2pfc","","","","","",""
"","","","call-function","91","379545","0.0-91.0","mb7x2pfc","","","","","",""
"null","","","video-keyboard-response","92","382613","0.0-92.0","mb7x2pfc","","","","null","Agent A","STIM_SET_1_REAL/713017.bmp_pp152_L2_V1.0_veridical_freeview_isoFalse_fps144.mp4"
"","","","call-function","93","382613","0.0-93.0","mb7x2pfc","","","","","",""
"3299.9799999999814","{""pre-1"":0}","[0]","survey-likert","94","385914","0.0-94.0","mb7x2pfc","","","","","",""
"4637.284999999974","{""pre-2"":1}","[0]","survey-likert","95","390552","0.0-95.0","mb7x2pfc","","","","","",""
"1465.25","{""pre-3"":0}","[0]","survey-likert","96","392019","0.0-96.0","mb7x2pfc","","","","","",""
"2738.6500000000233","{""post-5"":2}","[0]","survey-likert","97","394758","0.0-97.0","mb7x2pfc","","","","","",""
"","","","call-function","98","394759","0.0-98.0","mb7x2pfc","","","","","",""
"null","","","video-keyboard-response","99","397839","0.0-99.0","mb7x2pfc","","","","null","Agent A","STIM_SET_1_REAL/1592727.bmp_pp59_L3_V1.0_scrambled_freeview_isoFalse_fps144.mp4"
"","","","call-function","100","397839","0.0-100.0","mb7x2pfc","","","","","",""
"3775.375","{""pre-1"":0}","[0]","survey-likert","101","401615","0.0-101.0","mb7x2pfc","","","","","",""
"2638.0950000000303","{""pre-2"":0}","[0]","survey-likert","102","404254","0.0-102.0","mb7x2pfc","","","","","",""
"1348.9749999999767","{""pre-3"":0}","[0]","survey-likert","103","405604","0.0-103.0","mb7x2pfc","","","","","",""
"3263.3150000000023","{""post-5"":3}","[0]","survey-likert","104","408869","0.0-104.0","mb7x2pfc","","","","","",""
"","","","call-function","105","408870","0.0-105.0","mb7x2pfc","","","","","",""
"null","","","video-keyboard-response","106","411949","0.0-106.0","mb7x2pfc","","","","null","Agent A","STIM_SET_1_REAL/285751.bmp_pp55_L3_V1.0_scrambled_freeview_isoFalse_fps144.mp4"
"","","","call-function","107","411950","0.0-107.0","mb7x2pfc","","","","","",""
"2782.8600000000442","{""pre-1"":1}","[0]","survey-likert","108","414734","0.0-108.0","mb7x2pfc","","","","","",""
"1927.6549999999697","{""pre-2"":2}","[0]","survey-likert","109","416663","0.0-109.0","mb7x2pfc","","","","","",""
"3127.7399999999907","{""pre-3"":1}","[0]","survey-likert","110","419792","0.0-110.0","mb7x2pfc","","","","","",""
"2062.6900000000023","{""post-5"":2}","[0]","survey-likert","111","421856","0.0-111.0","mb7x2pfc","","","","","",""
"","","","call-function","112","421856","0.0-112.0","mb7x2pfc","","","","","",""
"null","","","video-keyboard-response","113","424921","0.0-113.0","mb7x2pfc","","","","null","Agent A","STIM_SET_1_REAL/1159446.bmp_pp60_L3_V1.0_scrambled_freeview_isoFalse_fps144.mp4"
"","","","call-function","114","424921","0.0-114.0","mb7x2pfc","","","","","",""
"3856.3499999999767","{""pre-1"":1}","[0]","survey-likert","115","428779","0.0-115.0","mb7x2pfc","","","","","",""
"4905.395000000019","{""pre-2"":1}","[0]","survey-likert","116","433686","0.0-116.0","mb7x2pfc","","","","","",""
"1855.530000000028","{""pre-3"":1}","[0]","survey-likert","117","435542","0.0-117.0","mb7x2pfc","","","","","",""
"1842.509999999951","{""post-5"":2}","[0]","survey-likert","118","437386","0.0-118.0","mb7x2pfc","","","","","",""
"","","","call-function","119","437386","0.0-119.0","mb7x2pfc","","","","","",""
"null","","","video-keyboard-response","120","440476","0.0-120.0","mb7x2pfc","","","","null","Agent A","STIM_SET_1_REAL/1591994.bmp_pp69_L3_V1.0_scrambled_freeview_isoFalse_fps144.mp4"
"","","","call-function","121","440476","0.0-121.0","mb7x2pfc","","","","","",""
"5132.795000000042","{""pre-1"":1}","[0]","survey-likert","122","445610","0.0-122.0","mb7x2pfc","","","","","",""
"2083.0499999999884","{""pre-2"":2}","[0]","survey-likert","123","447694","0.0-123.0","mb7x2pfc","","","","","",""
"1040.3300000000163","{""pre-3"":2}","[0]","survey-likert","124","448737","0.0-124.0","mb7x2pfc","","","","","",""
"2452.5050000000047","{""post-5"":1}","[0]","survey-likert","125","451190","0.0-125.0","mb7x2pfc","","","","","",""
"","","","call-function","126","451190","0.0-126.0","mb7x2pfc","","","","","",""
"null","","","video-keyboard-response","127","454250","0.0-127.0","mb7x2pfc","","","","null","Agent A","STIM_SET_1_REAL/1592351.bmp_pp51_L1_V1.0_veridical_freeview_isoFalse_fps144.mp4"
"","","","call-function","128","454251","0.0-128.0","mb7x2pfc","","","","","",""
"3045.609999999986","{""pre-1"":0}","[0]","survey-likert","129","457297","0.0-129.0","mb7x2pfc","","","","","",""
"3125.945000000007","{""pre-2"":0}","[0]","survey-likert","130","460424","0.0-130.0","mb7x2pfc","","","","","",""
"1769.9799999999814","{""pre-3"":0}","[0]","survey-likert","131","462195","0.0-131.0","mb7x2pfc","","","","","",""
"2072.5199999999604","{""post-5"":3}","[0]","survey-likert","132","464269","0.0-132.0","mb7x2pfc","","","","","",""
"","","","call-function","133","464269","0.0-133.0","mb7x2pfc","","","","","",""
"null","","","video-keyboard-response","134","467375","0.0-134.0","mb7x2pfc","","","","null","Agent A","STIM_SET_1_REAL/1160168.bmp_pp53_L2_V1.0_scrambled_freeview_isoFalse_fps144.mp4"
"","","","call-function","135","467376","0.0-135.0","mb7x2pfc","","","","","",""
"3563.320000000007","{""pre-1"":1}","[0]","survey-likert","136","470941","0.0-136.0","mb7x2pfc","","","","","",""
"7175.830000000016","{""pre-2"":2}","[0]","survey-likert","137","478118","0.0-137.0","mb7x2pfc","","","","","",""
"2621.5299999999697","{""pre-3"":1}","[0]","survey-likert","138","480742","0.0-138.0","mb7x2pfc","","","","","",""
"3348.625","{""post-5"":2}","[0]","survey-likert","139","484092","0.0-139.0","mb7x2pfc","","","","","",""
"","","","call-function","140","484092","0.0-140.0","mb7x2pfc","","","","","",""
"null","","","video-keyboard-response","141","487156","0.0-141.0","mb7x2pfc","","","","null","Agent A","STIM_SET_1_REAL/1159447.bmp_pp70_L2_V1.0_scrambled_freeview_isoFalse_fps144.mp4"
"","","","call-function","142","487156","0.0-142.0","mb7x2pfc","","","","","",""
"3728.9799999999814","{""pre-1"":1}","[0]","survey-likert","143","490886","0.0-143.0","mb7x2pfc","","","","","",""
"2438.6650000000373","{""pre-2"":2}","[0]","survey-likert","144","493326","0.0-144.0","mb7x2pfc","","","","","",""
"1224.625","{""pre-3"":2}","[0]","survey-likert","145","494552","0.0-145.0","mb7x2pfc","","","","","",""
"2997.030000000028","{""post-5"":1}","[0]","survey-likert","146","497550","0.0-146.0","mb7x2pfc","","","","","",""
"","","","call-function","147","497551","0.0-147.0","mb7x2pfc","","","","","",""
"null","","","video-keyboard-response","148","500613","0.0-148.0","mb7x2pfc","","","","null","Agent A","STIM_SET_1_REAL/498170.bmp_pp153_L3_V1.0_scrambled_freeview_isoFalse_fps144.mp4"
"","","","call-function","149","500613","0.0-149.0","mb7x2pfc","","","","","",""
"4567.955000000016","{""pre-1"":0}","[0]","survey-likert","150","505182","0.0-150.0","mb7x2pfc","","","","","",""
"1613.445000000007","{""pre-2"":1}","[0]","survey-likert","151","506797","0.0-151.0","mb7x2pfc","","","","","",""
"2350.0999999999767","{""pre-3"":1}","[0]","survey-likert","152","509148","0.0-152.0","mb7x2pfc","","","","","",""
"1930.8949999999604","{""post-5"":1}","[0]","survey-likert","153","511080","0.0-153.0","mb7x2pfc","","","","","",""
"","","","call-function","154","511080","0.0-154.0","mb7x2pfc","","","","","",""
"null","","","video-keyboard-response","155","514145","0.0-155.0","mb7x2pfc","","","","null","Agent A","STIM_SET_1_REAL/1159621.bmp_pp92_L3_V1.0_scrambled_freeview_isoFalse_fps144.mp4"
"","","","call-function","156","514146","0.0-156.0","mb7x2pfc","","","","","",""
"4687.460000000021","{""pre-1"":1}","[0]","survey-likert","157","518834","0.0-157.0","mb7x2pfc","","","","","",""
"9088.305000000051","{""pre-2"":1}","[0]","survey-likert","158","527924","0.0-158.0","mb7x2pfc","","","","","",""
"960.8549999999814","{""pre-3"":1}","[0]","survey-likert","159","528886","0.0-159.0","mb7x2pfc","","","","","",""
"2828.969999999972","{""post-5"":2}","[0]","survey-likert","160","531716","0.0-160.0","mb7x2pfc","","","","","",""
"81006.19499999995","","","instructions","161","612723","0.0-161.0","mb7x2pfc","[{""page_index"":0,""viewing_time"":1817.0250000000233},{""page_index"":1,""viewing_time"":78334.03500000003},{""page_index"":2,""viewing_time"":854.9649999999674}]","","","","",""
"8910.854999999981","","","instructions","162","621635","0.0-162.0","mb7x2pfc","[{""page_index"":0,""viewing_time"":786.7149999999674},{""page_index"":1,""viewing_time"":7492.160000000033},{""page_index"":2,""viewing_time"":631.875}]","","","","",""
"","","","call-function","163","621636","0.0-163.0","mb7x2pfc","","","","","",""
"null","","","video-keyboard-response","164","624711","0.0-164.0","mb7x2pfc","","","","null","Agent A","STIM_SET_1_REAL/498111.bmp_pp88_L2_V1.0_scrambled_freeview_isoFalse_fps144.mp4"
"","","","call-function","165","624711","0.0-165.0","mb7x2pfc","","","","","",""
"10297.619999999995","{""pre-1"":2}","[0]","survey-likert","166","635010","0.0-166.0","mb7x2pfc","","","","","",""
"5168.274999999907","{""pre-2"":2}","[0]","survey-likert","167","640179","0.0-167.0","mb7x2pfc","","","","","",""
"1537.6799999999348","{""pre-3"":1}","[0]","survey-likert","168","641718","0.0-168.0","mb7x2pfc","","","","","",""
"1939.7750000000233","{""post-5"":1}","[0]","survey-likert","169","643659","0.0-169.0","mb7x2pfc","","","","","",""
"","","","call-function","170","643660","0.0-170.0","mb7x2pfc","","","","","",""
"null","","","video-keyboard-response","171","646722","0.0-171.0","mb7x2pfc","","","","null","Agent A","STIM_SET_1_REAL/713779.bmp_pp152_L2_V1.0_veridical_freeview_isoFalse_fps144.mp4"
"","","","call-function","172","646723","0.0-172.0","mb7x2pfc","","","","","",""
"4216.5299999999115","{""pre-1"":2}","[0]","survey-likert","173","650940","0.0-173.0","mb7x2pfc","","","","","",""
"4256.2050000000745","{""pre-2"":2}","[0]","survey-likert","174","655197","0.0-174.0","mb7x2pfc","","","","","",""
"1271.780000000028","{""pre-3"":1}","[0]","survey-likert","175","656470","0.0-175.0","mb7x2pfc","","","","","",""
"1983.859999999986","{""post-5"":1}","[0]","survey-likert","176","658455","0.0-176.0","mb7x2pfc","","","","","",""
"","","","call-function","177","658455","0.0-177.0","mb7x2pfc","","","","","",""
"null","","","video-keyboard-response","178","661524","0.0-178.0","mb7x2pfc","","","","null","Agent A","STIM_SET_1_REAL/285905.bmp_pp57_L1_V1.0_scrambled_freeview_isoFalse_fps144.mp4"
"","","","call-function","179","661524","0.0-179.0","mb7x2pfc","","","","","",""
"2003.2700000000186","{""pre-1"":0}","[0]","survey-likert","180","663529","0.0-180.0","mb7x2pfc","","","","","",""
"1622.0249999999069","{""pre-2"":0}","[0]","survey-likert","181","665153","0.0-181.0","mb7x2pfc","","","","","",""
"1943.2099999999627","{""pre-3"":0}","[0]","survey-likert","182","667097","0.0-182.0","mb7x2pfc","","","","","",""
"3035.2249999999767","{""post-5"":2}","[0]","survey-likert","183","670133","0.0-183.0","mb7x2pfc","","","","","",""
"","","","call-function","184","670133","0.0-184.0","mb7x2pfc","","","","","",""
"null","","","video-keyboard-response","185","673200","0.0-185.0","mb7x2pfc","","","","null","Agent A","STIM_SET_1_REAL/713403.bmp_pp80_L3_V1.0_veridical_freeview_isoFalse_fps144.mp4"
"","","","call-function","186","673200","0.0-186.0","mb7x2pfc","","","","","",""
"4155.569999999949","{""pre-1"":2}","[0]","survey-likert","187","677357","0.0-187.0","mb7x2pfc","","","","","",""
"11526.95000000007","{""pre-2"":2}","[0]","survey-likert","188","688885","0.0-188.0","mb7x2pfc","","","","","",""
"3315.75","{""pre-3"":2}","[0]","survey-likert","189","692203","0.0-189.0","mb7x2pfc","","","","","",""
"3517.1300000000047","{""post-5"":1}","[0]","survey-likert","190","695721","0.0-190.0","mb7x2pfc","","","","","",""
"","","","call-function","191","695722","0.0-191.0","mb7x2pfc","","","","","",""
"null","","","video-keyboard-response","192","698798","0.0-192.0","mb7x2pfc","","","","null","Agent A","STIM_SET_1_REAL/713749.bmp_pp88_L2_V1.0_scrambled_freeview_isoFalse_fps144.mp4"
"","","","call-function","193","698799","0.0-193.0","mb7x2pfc","","","","","",""
"6264.054999999935","{""pre-1"":1}","[0]","survey-likert","194","705064","0.0-194.0","mb7x2pfc","","","","","",""
"1607.2399999999907","{""pre-2"":1}","[0]","survey-likert","195","706672","0.0-195.0","mb7x2pfc","","","","","",""
"1957.8099999999395","{""pre-3"":0}","[0]","survey-likert","196","708631","0.0-196.0","mb7x2pfc","","","","","",""
"2287.8950000000186","{""post-5"":2}","[0]","survey-likert","197","710920","0.0-197.0","mb7x2pfc","","","","","",""
"","","","call-function","198","710921","0.0-198.0","mb7x2pfc","","","","","",""
"null","","","video-keyboard-response","199","713996","0.0-199.0","mb7x2pfc","","","","null","Agent A","STIM_SET_1_REAL/713620.bmp_pp65_L3_V1.0_veridical_freeview_isoFalse_fps144.mp4"
"","","","call-function","200","713997","0.0-200.0","mb7x2pfc","","","","","",""
"3368.5350000000326","{""pre-1"":3}","[0]","survey-likert","201","717366","0.0-201.0","mb7x2pfc","","","","","",""
"2283.0350000000326","{""pre-2"":3}","[0]","survey-likert","202","719650","0.0-202.0","mb7x2pfc","","","","","",""
"2505.4850000001024","{""pre-3"":2}","[0]","survey-likert","203","722157","0.0-203.0","mb7x2pfc","","","","","",""
"1745.9299999999348","{""post-5"":0}","[0]","survey-likert","204","723904","0.0-204.0","mb7x2pfc","","","","","",""
"","","","call-function","205","723904","0.0-205.0","mb7x2pfc","","","","","",""
"null","","","video-keyboard-response","206","726968","0.0-206.0","mb7x2pfc","","","","null","Agent A","STIM_SET_1_REAL/1592890.bmp_pp82_L2_V1.0_scrambled_freeview_isoFalse_fps144.mp4"
"","","","call-function","207","726968","0.0-207.0","mb7x2pfc","","","","","",""
"5340.819999999949","{""pre-1"":1}","[0]","survey-likert","208","732310","0.0-208.0","mb7x2pfc","","","","","",""
"2693.844999999972","{""pre-2"":1}","[0]","survey-likert","209","735005","0.0-209.0","mb7x2pfc","","","","","",""
"1955.045000000042","{""pre-3"":1}","[0]","survey-likert","210","736961","0.0-210.0","mb7x2pfc","","","","","",""
"1872.265000000014","{""post-5"":2}","[0]","survey-likert","211","738834","0.0-211.0","mb7x2pfc","","","","","",""
"","","","call-function","212","738835","0.0-212.0","mb7x2pfc","","","","","",""
"null","","","video-keyboard-response","213","741898","0.0-213.0","mb7x2pfc","","","","null","Agent A","STIM_SET_1_REAL/1159882.bmp_pp61_L2_V1.0_scrambled_freeview_isoFalse_fps144.mp4"
"","","","call-function","214","741898","0.0-214.0","mb7x2pfc","","","","","",""
"4179.625","{""pre-1"":3}","[0]","survey-likert","215","746079","0.0-215.0","mb7x2pfc","","","","","",""
"1839.5050000000047","{""pre-2"":3}","[0]","survey-likert","216","747920","0.0-216.0","mb7x2pfc","","","","","",""
"1165.3850000000093","{""pre-3"":3}","[0]","survey-likert","217","749087","0.0-217.0","mb7x2pfc","","","","","",""
"1465.0750000000698","{""post-5"":0}","[0]","survey-likert","218","750554","0.0-218.0","mb7x2pfc","","","","","",""
"","","","call-function","219","750554","0.0-219.0","mb7x2pfc","","","","","",""
"null","","","video-keyboard-response","220","753631","0.0-220.0","mb7x2pfc","","","","null","Agent A","STIM_SET_1_REAL/713620.bmp_pp65_L3_V1.0_scrambled_freeview_isoFalse_fps144.mp4"
"","","","call-function","221","753631","0.0-221.0","mb7x2pfc","","","","","",""
"1964.6900000000605","{""pre-1"":0}","[0]","survey-likert","222","755597","0.0-222.0","mb7x2pfc","","","","","",""
"1104.6199999999953","{""pre-2"":0}","[0]","survey-likert","223","756703","0.0-223.0","mb7x2pfc","","","","","",""
"1205.5900000000838","{""pre-3"":0}","[0]","survey-likert","224","757909","0.0-224.0","mb7x2pfc","","","","","",""
"2432.04999999993","{""post-5"":3}","[0]","survey-likert","225","760342","0.0-225.0","mb7x2pfc","","","","","",""
"","","","call-function","226","760343","0.0-226.0","mb7x2pfc","","","","","",""
"null","","","video-keyboard-response","227","763413","0.0-227.0","mb7x2pfc","","","","null","Agent A","STIM_SET_1_REAL/713796.bmp_pp84_L3_V1.0_scrambled_freeview_isoFalse_fps144.mp4"
"","","","call-function","228","763413","0.0-228.0","mb7x2pfc","","","","","",""
"8040.959999999963","{""pre-1"":2}","[0]","survey-likert","229","771455","0.0-229.0","mb7x2pfc","","","","","",""
"11623.785000000033","{""pre-2"":2}","[0]","survey-likert","230","783080","0.0-230.0","mb7x2pfc","","","","","",""
"1892.8349999999627","{""pre-3"":1}","[0]","survey-likert","231","784974","0.0-231.0","mb7x2pfc","","","","","",""
"1810.2099999999627","{""post-5"":1}","[0]","survey-likert","232","786785","0.0-232.0","mb7x2pfc","","","","","",""
"","","","call-function","233","786786","0.0-233.0","mb7x2pfc","","","","","",""
"null","","","video-keyboard-response","234","789847","0.0-234.0","mb7x2pfc","","","","null","Agent A","STIM_SET_1_REAL/1593035.bmp_pp94_L2_V1.0_veridical_freeview_isoFalse_fps144.mp4"
"","","","call-function","235","789848","0.0-235.0","mb7x2pfc","","","","","",""
"3651.420000000042","{""pre-1"":3}","[0]","survey-likert","236","793500","0.0-236.0","mb7x2pfc","","","","","",""
"1883.6049999999814","{""pre-2"":2}","[0]","survey-likert","237","795385","0.0-237.0","mb7x2pfc","","","","","",""
"945.6550000000279","{""pre-3"":2}","[0]","survey-likert","238","796332","0.0-238.0","mb7x2pfc","","","","","",""
"3331.140000000014","{""post-5"":0}","[0]","survey-likert","239","799664","0.0-239.0","mb7x2pfc","","","","","",""
"","","","call-function","240","799666","0.0-240.0","mb7x2pfc","","","","","",""
"null","","","video-keyboard-response","241","802740","0.0-241.0","mb7x2pfc","","","","null","Agent A","STIM_SET_1_REAL/1592581.bmp_pp100_L3_V1.0_scrambled_freeview_isoFalse_fps144.mp4"
"","","","call-function","242","802740","0.0-242.0","mb7x2pfc","","","","","",""
"3720.5250000000233","{""pre-1"":2}","[0]","survey-likert","243","806462","0.0-243.0","mb7x2pfc","","","","","",""
"1822.5800000000745","{""pre-2"":1}","[0]","survey-likert","244","808287","0.0-244.0","mb7x2pfc","","","","","",""
"1085.094999999972","{""pre-3"":1}","[0]","survey-likert","245","809373","0.0-245.0","mb7x2pfc","","","","","",""
"2756.8349999999627","{""post-5"":2}","[0]","survey-likert","246","812132","0.0-246.0","mb7x2pfc","","","","","",""
"","","","call-function","247","812132","0.0-247.0","mb7x2pfc","","","","","",""
"null","","","video-keyboard-response","248","815210","0.0-248.0","mb7x2pfc","","","","null","Agent A","STIM_SET_1_REAL/713684.bmp_pp85_L3_V1.0_veridical_freeview_isoFalse_fps144.mp4"
"","","","call-function","249","815211","0.0-249.0","mb7x2pfc","","","","","",""
"8003.285000000033","{""pre-1"":1}","[0]","survey-likert","250","823215","0.0-250.0","mb7x2pfc","","","","","",""
"2786.95000000007","{""pre-2"":1}","[0]","survey-likert","251","826003","0.0-251.0","mb7x2pfc","","","","","",""
"1034.6549999999115","{""pre-3"":1}","[0]","survey-likert","252","827039","0.0-252.0","mb7x2pfc","","","","","",""
"9065.609999999986","{""post-5"":0}","[0]","survey-likert","253","836106","0.0-253.0","mb7x2pfc","","","","","",""
"","","","call-function","254","836107","0.0-254.0","mb7x2pfc","","","","","",""
"null","","","video-keyboard-response","255","839198","0.0-255.0","mb7x2pfc","","","","null","Agent A","STIM_SET_1_REAL/1592499.bmp_pp96_L2_V1.0_veridical_freeview_isoFalse_fps144.mp4"
"","","","call-function","256","839199","0.0-256.0","mb7x2pfc","","","","","",""
"17078.91499999992","{""pre-1"":1}","[0]","survey-likert","257","856279","0.0-257.0","mb7x2pfc","","","","","",""
"2662.8499999999767","{""pre-2"":1}","[0]","survey-likert","258","858943","0.0-258.0","mb7x2pfc","","","","","",""
"1333.6899999999441","{""pre-3"":1}","[0]","survey-likert","259","860277","0.0-259.0","mb7x2pfc","","","","","",""
"10143.564999999944","{""post-5"":2}","[0]","survey-likert","260","870422","0.0-260.0","mb7x2pfc","","","","","",""
"","","","call-function","261","870422","0.0-261.0","mb7x2pfc","","","","","",""
"null","","","video-keyboard-response","262","875985","0.0-262.0","mb7x2pfc","","","","null","Agent A","STIM_SET_1_REAL/713760.bmp_pp81_L1_V1.0_veridical_freeview_isoFalse_fps144.mp4"
"","","","call-function","263","875985","0.0-263.0","mb7x2pfc","","","","","",""
"2880.5749999999534","{""pre-1"":3}","[0]","survey-likert","264","878867","0.0-264.0","mb7x2pfc","","","","","",""
"2375.8950000000186","{""pre-2"":3}","[0]","survey-likert","265","881244","0.0-265.0","mb7x2pfc","","","","","",""
"1323.2949999999255","{""pre-3"":3}","[0]","survey-likert","266","882568","0.0-266.0","mb7x2pfc","","","","","",""
"2224.204999999958","{""post-5"":0}","[0]","survey-likert","267","884793","0.0-267.0","mb7x2pfc","","","","","",""
"","","","call-function","268","884794","0.0-268.0","mb7x2pfc","","","","","",""
"null","","","video-keyboard-response","269","887863","0.0-269.0","mb7x2pfc","","","","null","Agent A","STIM_SET_1_REAL/1592286.bmp_pp52_L1_V1.0_veridical_freeview_isoFalse_fps144.mp4"
"","","","call-function","270","887864","0.0-270.0","mb7x2pfc","","","","","",""
"3699.899999999907","{""pre-1"":2}","[0]","survey-likert","271","891565","0.0-271.0","mb7x2pfc","","","","","",""
"5727.334999999963","{""pre-2"":2}","[0]","survey-likert","272","897295","0.0-272.0","mb7x2pfc","","","","","",""
"1427.6949999999488","{""pre-3"":1}","[0]","survey-likert","273","898725","0.0-273.0","mb7x2pfc","","","","","",""
"1936.3249999999534","{""post-5"":0}","[0]","survey-likert","274","900663","0.0-274.0","mb7x2pfc","","","","","",""
"","","","call-function","275","900664","0.0-275.0","mb7x2pfc","","","","","",""
"null","","","video-keyboard-response","276","903738","0.0-276.0","mb7x2pfc","","","","null","Agent A","STIM_SET_1_REAL/498253.bmp_pp67_L2_V1.0_veridical_freeview_isoFalse_fps144.mp4"
"","","","call-function","277","903739","0.0-277.0","mb7x2pfc","","","","","",""
"3397.030000000028","{""pre-1"":3}","[0]","survey-likert","278","907137","0.0-278.0","mb7x2pfc","","","","","",""
"1918.5050000000047","{""pre-2"":3}","[0]","survey-likert","279","909057","0.0-279.0","mb7x2pfc","","","","","",""
"1061.7249999999767","{""pre-3"":3}","[0]","survey-likert","280","910119","0.0-280.0","mb7x2pfc","","","","","",""
"1521.344999999972","{""post-5"":0}","[0]","survey-likert","281","911642","0.0-281.0","mb7x2pfc","","","","","",""
"","","","call-function","282","911642","0.0-282.0","mb7x2pfc","","","","","",""
"null","","","video-keyboard-response","283","916134","0.0-283.0","mb7x2pfc","","","","null","Agent A","STIM_SET_1_REAL/498170.bmp_pp153_L3_V1.0_veridical_freeview_isoFalse_fps144.mp4"
"","","","call-function","284","916134","0.0-284.0","mb7x2pfc","","","","","",""
"4160.265000000014","{""pre-1"":3}","[0]","survey-likert","285","920296","0.0-285.0","mb7x2pfc","","","","","",""
"2432.984999999986","{""pre-2"":2}","[0]","survey-likert","286","922730","0.0-286.0","mb7x2pfc","","","","","",""
"1105.0650000000605","{""pre-3"":2}","[0]","survey-likert","287","923836","0.0-287.0","mb7x2pfc","","","","","",""
"2769.310000000056","{""post-5"":0}","[0]","survey-likert","288","926606","0.0-288.0","mb7x2pfc","","","","","",""
"","","","call-function","289","926606","0.0-289.0","mb7x2pfc","","","","","",""
"null","","","video-keyboard-response","290","929684","0.0-290.0","mb7x2pfc","","","","null","Agent A","STIM_SET_1_REAL/713593.bmp_pp64_L1_V1.0_veridical_freeview_isoFalse_fps144.mp4"
"","","","call-function","291","929684","0.0-291.0","mb7x2pfc","","","","","",""
"5847.314999999944","{""pre-1"":3}","[0]","survey-likert","292","935533","0.0-292.0","mb7x2pfc","","","","","",""
"2732.0999999999767","{""pre-2"":3}","[0]","survey-likert","293","938266","0.0-293.0","mb7x2pfc","","","","","",""
"2015.2700000000186","{""pre-3"":3}","[0]","survey-likert","294","940282","0.0-294.0","mb7x2pfc","","","","","",""
"1781.109999999986","{""post-5"":0}","[0]","survey-likert","295","942064","0.0-295.0","mb7x2pfc","","","","","",""
"","","","call-function","296","942065","0.0-296.0","mb7x2pfc","","","","","",""
"null","","","video-keyboard-response","297","945125","0.0-297.0","mb7x2pfc","","","","null","Agent A","STIM_SET_1_REAL/1592890.bmp_pp82_L2_V1.0_veridical_freeview_isoFalse_fps144.mp4"
"","","","call-function","298","945125","0.0-298.0","mb7x2pfc","","","","","",""
"7530.369999999995","{""pre-1"":1}","[0]","survey-likert","299","952657","0.0-299.0","mb7x2pfc","","","","","",""
"6665.890000000014","{""pre-2"":1}","[0]","survey-likert","300","959325","0.0-300.0","mb7x2pfc","","","","","",""
"3104.759999999893","{""pre-3"":0}","[0]","survey-likert","301","962431","0.0-301.0","mb7x2pfc","","","","","",""
"3756.0849999999627","{""post-5"":1}","[0]","survey-likert","302","966189","0.0-302.0","mb7x2pfc","","","","","",""
"40288.53500000003","","","instructions","303","1006478","0.0-303.0","mb7x2pfc","[{""page_index"":0,""viewing_time"":3014.920000000042},{""page_index"":1,""viewing_time"":35978.69999999995},{""page_index"":2,""viewing_time"":1294.2299999999814}]","","","","",""
"4765.719999999972","","","instructions","304","1011244","0.0-304.0","mb7x2pfc","[{""page_index"":0,""viewing_time"":820.5849999999627},{""page_index"":1,""viewing_time"":2625.079999999958},{""page_index"":2,""viewing_time"":1319.9500000000698}]","","","","",""
"","","","call-function","305","1011245","0.0-305.0","mb7x2pfc","","","","","",""
"null","","","video-keyboard-response","306","1014306","0.0-306.0","mb7x2pfc","","","","null","Agent A","STIM_SET_1_REAL/1592133.bmp_pp75_L1_V1.0_veridical_freeview_isoFalse_fps144.mp4"
"","","","call-function","307","1014306","0.0-307.0","mb7x2pfc","","","","","",""
"2838.460000000079","{""pre-1"":2}","[0]","survey-likert","308","1017146","0.0-308.0","mb7x2pfc","","","","","",""
"2088.079999999958","{""pre-2"":2}","[0]","survey-likert","309","1019235","0.0-309.0","mb7x2pfc","","","","","",""
"2040.8499999999767","{""pre-3"":2}","[0]","survey-likert","310","1021277","0.0-310.0","mb7x2pfc","","","","","",""
"2611.2600000000093","{""post-5"":0}","[0]","survey-likert","311","1023890","0.0-311.0","mb7x2pfc","","","","","",""
"","","","call-function","312","1023890","0.0-312.0","mb7x2pfc","","","","","",""
"null","","","video-keyboard-response","313","1026965","0.0-313.0","mb7x2pfc","","","","null","Agent A","STIM_SET_1_REAL/713707.bmp_pp154_L1_V1.0_scrambled_freeview_isoFalse_fps144.mp4"
"","","","call-function","314","1026966","0.0-314.0","mb7x2pfc","","","","","",""
"3928.3800000000047","{""pre-1"":3}","[0]","survey-likert","315","1030895","0.0-315.0","mb7x2pfc","","","","","",""
"1518.920000000042","{""pre-2"":2}","[0]","survey-likert","316","1032415","0.0-316.0","mb7x2pfc","","","","","",""
"1187.734999999986","{""pre-3"":1}","[0]","survey-likert","317","1033604","0.0-317.0","mb7x2pfc","","","","","",""
"2552.329999999958","{""post-5"":0}","[0]","survey-likert","318","1036157","0.0-318.0","mb7x2pfc","","","","","",""
"","","","call-function","319","1036157","0.0-319.0","mb7x2pfc","","","","","",""
"null","","","video-keyboard-response","320","1039228","0.0-320.0","mb7x2pfc","","","","null","Agent A","STIM_SET_1_REAL/1592934.bmp_pp63_L1_V1.0_veridical_freeview_isoFalse_fps144.mp4"
"","","","call-function","321","1039228","0.0-321.0","mb7x2pfc","","","","","",""
"2980.8850000000093","{""pre-1"":1}","[0]","survey-likert","322","1042211","0.0-322.0","mb7x2pfc","","","","","",""
"1832.5599999999395","{""pre-2"":1}","[0]","survey-likert","323","1044045","0.0-323.0","mb7x2pfc","","","","","",""
"2980.414999999921","{""pre-3"":0}","[0]","survey-likert","324","1047028","0.0-324.0","mb7x2pfc","","","","","",""
"5468.214999999967","{""post-5"":2}","[0]","survey-likert","325","1052498","0.0-325.0","mb7x2pfc","","","","","",""
"","","","call-function","326","1052499","0.0-326.0","mb7x2pfc","","","","","",""
"null","","","video-keyboard-response","327","1055574","0.0-327.0","mb7x2pfc","","","","null","Agent A","STIM_SET_1_REAL/498111.bmp_pp88_L2_V1.0_veridical_freeview_isoFalse_fps144.mp4"
"","","","call-function","328","1055574","0.0-328.0","mb7x2pfc","","","","","",""
"2721.4150000000373","{""pre-1"":2}","[0]","survey-likert","329","1058297","0.0-329.0","mb7x2pfc","","","","","",""
"3076.0550000001676","{""pre-2"":2}","[0]","survey-likert","330","1061374","0.0-330.0","mb7x2pfc","","","","","",""
"872.7650000001304","{""pre-3"":1}","[0]","survey-likert","331","1062248","0.0-331.0","mb7x2pfc","","","","","",""
"2717.399999999907","{""post-5"":1}","[0]","survey-likert","332","1064967","0.0-332.0","mb7x2pfc","","","","","",""
"","","","call-function","333","1064967","0.0-333.0","mb7x2pfc","","","","","",""
"null","","","video-keyboard-response","334","1068044","0.0-334.0","mb7x2pfc","","","","null","Agent A","STIM_SET_1_REAL/713666.bmp_pp97_L3_V1.0_veridical_freeview_isoFalse_fps144.mp4"
"","","","call-function","335","1068045","0.0-335.0","mb7x2pfc","","","","","",""
"2627.7349999998696","{""pre-1"":3}","[0]","survey-likert","336","1070673","0.0-336.0","mb7x2pfc","","","","","",""
"920.5049999998882","{""pre-2"":2}","[0]","survey-likert","337","1071595","0.0-337.0","mb7x2pfc","","","","","",""
"1061.9550000000745","{""pre-3"":2}","[0]","survey-likert","338","1072658","0.0-338.0","mb7x2pfc","","","","","",""
"1554.7549999998882","{""post-5"":0}","[0]","survey-likert","339","1074214","0.0-339.0","mb7x2pfc","","","","","",""
"","","","call-function","340","1074215","0.0-340.0","mb7x2pfc","","","","","",""
"null","","","video-keyboard-response","341","1077277","0.0-341.0","mb7x2pfc","","","","null","Agent A","STIM_SET_1_REAL/1159572.bmp_pp71_L1_V1.0_scrambled_freeview_isoFalse_fps144.mp4"
"","","","call-function","342","1077277","0.0-342.0","mb7x2pfc","","","","","",""
"1830.839999999851","{""pre-1"":0}","[0]","survey-likert","343","1079109","0.0-343.0","mb7x2pfc","","","","","",""
"1271.5999999998603","{""pre-2"":0}","[0]","survey-likert","344","1080383","0.0-344.0","mb7x2pfc","","","","","",""
"1164.2650000001304","{""pre-3"":0}","[0]","survey-likert","345","1081548","0.0-345.0","mb7x2pfc","","","","","",""
"2200.7899999998044","{""post-5"":3}","[0]","survey-likert","346","1083750","0.0-346.0","mb7x2pfc","","","","","",""
"","","","call-function","347","1083750","0.0-347.0","mb7x2pfc","","","","","",""
"null","","","video-keyboard-response","348","1086827","0.0-348.0","mb7x2pfc","","","","null","Agent A","STIM_SET_1_REAL/1593146.bmp_pp93_L1_V1.0_veridical_freeview_isoFalse_fps144.mp4"
"","","","call-function","349","1086827","0.0-349.0","mb7x2pfc","","","","","",""
"5179.074999999953","{""pre-1"":2}","[0]","survey-likert","350","1092007","0.0-350.0","mb7x2pfc","","","","","",""
"1257.3050000001676","{""pre-2"":2}","[0]","survey-likert","351","1093265","0.0-351.0","mb7x2pfc","","","","","",""
"2302.4749999998603","{""pre-3"":2}","[0]","survey-likert","352","1095569","0.0-352.0","mb7x2pfc","","","","","",""
"2450.969999999972","{""post-5"":0}","[0]","survey-likert","353","1098021","0.0-353.0","mb7x2pfc","","","","","",""
"","","","call-function","354","1098021","0.0-354.0","mb7x2pfc","","","","","",""
"null","","","video-keyboard-response","355","1101131","0.0-355.0","mb7x2pfc","","","","null","Agent A","STIM_SET_1_REAL/1159440.bmp_pp98_L1_V1.0_veridical_freeview_isoFalse_fps144.mp4"
"","","","call-function","356","1101132","0.0-356.0","mb7x2pfc","","","","","",""
"2636.8850000000093","{""pre-1"":3}","[0]","survey-likert","357","1103771","0.0-357.0","mb7x2pfc","","","","","",""
"1296.6599999999162","{""pre-2"":2}","[0]","survey-likert","358","1105069","0.0-358.0","mb7x2pfc","","","","","",""
"940.3650000002235","{""pre-3"":2}","[0]","survey-likert","359","1106010","0.0-359.0","mb7x2pfc","","","","","",""
"3500.785000000149","{""post-5"":0}","[0]","survey-likert","360","1109512","0.0-360.0","mb7x2pfc","","","","","",""
"","","","call-function","361","1109513","0.0-361.0","mb7x2pfc","","","","","",""
"null","","","video-keyboard-response","362","1112575","0.0-362.0","mb7x2pfc","","","","null","Agent A","STIM_SET_1_REAL/1592133.bmp_pp75_L1_V1.0_scrambled_freeview_isoFalse_fps144.mp4"
"","","","call-function","363","1112576","0.0-363.0","mb7x2pfc","","","","","",""
"4570.649999999907","{""pre-1"":2}","[0]","survey-likert","364","1117147","0.0-364.0","mb7x2pfc","","","","","",""
"970.7950000001583","{""pre-2"":2}","[0]","survey-likert","365","1118119","0.0-365.0","mb7x2pfc","","","","","",""
"1510.2350000001024","{""pre-3"":2}","[0]","survey-likert","366","1119631","0.0-366.0","mb7x2pfc","","","","","",""
"2336.9599999999627","{""post-5"":1}","[0]","survey-likert","367","1121969","0.0-367.0","mb7x2pfc","","","","","",""
"","","","call-function","368","1121969","0.0-368.0","mb7x2pfc","","","","","",""
"null","","","video-keyboard-response","369","1125045","0.0-369.0","mb7x2pfc","","","","null","Agent A","STIM_SET_1_REAL/1159675.bmp_pp77_L3_V1.0_scrambled_freeview_isoFalse_fps144.mp4"
"","","","call-function","370","1125045","0.0-370.0","mb7x2pfc","","","","","",""
"1862.7099999999627","{""pre-1"":3}","[0]","survey-likert","371","1126909","0.0-371.0","mb7x2pfc","","","","","",""
"1106.9749999998603","{""pre-2"":2}","[0]","survey-likert","372","1128017","0.0-372.0","mb7x2pfc","","","","","",""
"1832.2099999999627","{""pre-3"":3}","[0]","survey-likert","373","1129850","0.0-373.0","mb7x2pfc","","","","","",""
"3100.7299999999814","{""post-5"":0}","[0]","survey-likert","374","1132952","0.0-374.0","mb7x2pfc","","","","","",""
"","","","call-function","375","1132952","0.0-375.0","mb7x2pfc","","","","","",""
"null","","","video-keyboard-response","376","1136020","0.0-376.0","mb7x2pfc","","","","null","Agent A","STIM_SET_1_REAL/1159515.bmp_pp84_L3_V1.0_scrambled_freeview_isoFalse_fps144.mp4"
"","","","call-function","377","1136020","0.0-377.0","mb7x2pfc","","","","","",""
"3863.6450000000186","{""pre-1"":1}","[0]","survey-likert","378","1139885","0.0-378.0","mb7x2pfc","","","","","",""
"1117.380000000121","{""pre-2"":2}","[0]","survey-likert","379","1141003","0.0-379.0","mb7x2pfc","","","","","",""
"1909.0849999999627","{""pre-3"":1}","[0]","survey-likert","380","1142913","0.0-380.0","mb7x2pfc","","","","","",""
"2330.875","{""post-5"":2}","[0]","survey-likert","381","1145245","0.0-381.0","mb7x2pfc","","","","","",""
"","","","call-function","382","1145245","0.0-382.0","mb7x2pfc","","","","","",""
"null","","","video-keyboard-response","383","1148324","0.0-383.0","mb7x2pfc","","","","null","Agent A","STIM_SET_1_REAL/713684.bmp_pp85_L3_V1.0_scrambled_freeview_isoFalse_fps144.mp4"
"","","","call-function","384","1148324","0.0-384.0","mb7x2pfc","","","","","",""
"2912.345000000205","{""pre-1"":1}","[0]","survey-likert","385","1151238","0.0-385.0","mb7x2pfc","","","","","",""
"1686.1799999999348","{""pre-2"":1}","[0]","survey-likert","386","1152925","0.0-386.0","mb7x2pfc","","","","","",""
"1688.0549999999348","{""pre-3"":1}","[0]","survey-likert","387","1154616","0.0-387.0","mb7x2pfc","","","","","",""
"4720.090000000084","{""post-5"":1}","[0]","survey-likert","388","1159337","0.0-388.0","mb7x2pfc","","","","","",""
"","","","call-function","389","1159338","0.0-389.0","mb7x2pfc","","","","","",""
"null","","","video-keyboard-response","390","1162399","0.0-390.0","mb7x2pfc","","","","null","Agent A","STIM_SET_1_REAL/498149.bmp_pp99_L2_V1.0_scrambled_freeview_isoFalse_fps144.mp4"
"","","","call-function","391","1162400","0.0-391.0","mb7x2pfc","","","","","",""
"5008","{""pre-1"":0}","[0]","survey-likert","392","1167409","0.0-392.0","mb7x2pfc","","","","","",""
"3549.094999999972","{""pre-2"":1}","[0]","survey-likert","393","1170959","0.0-393.0","mb7x2pfc","","","","","",""
"2085.2050000000745","{""pre-3"":1}","[0]","survey-likert","394","1173046","0.0-394.0","mb7x2pfc","","","","","",""
"1647.3300000000745","{""post-5"":2}","[0]","survey-likert","395","1174694","0.0-395.0","mb7x2pfc","","","","","",""
"","","","call-function","396","1174695","0.0-396.0","mb7x2pfc","","","","","",""
"null","","","video-keyboard-response","397","1177765","0.0-397.0","mb7x2pfc","","","","null","Agent A","STIM_SET_1_REAL/1592286.bmp_pp52_L1_V1.0_scrambled_freeview_isoFalse_fps144.mp4"
"","","","call-function","398","1177765","0.0-398.0","mb7x2pfc","","","","","",""
"3508.1750000000466","{""pre-1"":2}","[0]","survey-likert","399","1181274","0.0-399.0","mb7x2pfc","","","","","",""
"1602.1399999998976","{""pre-2"":1}","[0]","survey-likert","400","1182877","0.0-400.0","mb7x2pfc","","","","","",""
"1780.9249999998137","{""pre-3"":1}","[0]","survey-likert","401","1184659","0.0-401.0","mb7x2pfc","","","","","",""
"1174.75","{""post-5"":1}","[0]","survey-likert","402","1185835","0.0-402.0","mb7x2pfc","","","","","",""
"","","","call-function","403","1185835","0.0-403.0","mb7x2pfc","","","","","",""
"null","","","video-keyboard-response","404","1188901","0.0-404.0","mb7x2pfc","","","","null","Agent A","STIM_SET_1_REAL/1159829.bmp_pp91_L3_V1.0_veridical_freeview_isoFalse_fps144.mp4"
"","","","call-function","405","1188902","0.0-405.0","mb7x2pfc","","","","","",""
"5642.899999999907","{""pre-1"":0}","[0]","survey-likert","406","1194546","0.0-406.0","mb7x2pfc","","","","","",""
"1392.2150000000838","{""pre-2"":1}","[0]","survey-likert","407","1195939","0.0-407.0","mb7x2pfc","","","","","",""
"884.9899999999907","{""pre-3"":1}","[0]","survey-likert","408","1196826","0.0-408.0","mb7x2pfc","","","","","",""
"1712.3249999999534","{""post-5"":3}","[0]","survey-likert","409","1198539","0.0-409.0","mb7x2pfc","","","","","",""
"","","","call-function","410","1198540","0.0-410.0","mb7x2pfc","","","","","",""
"null","","","video-keyboard-response","411","1201617","0.0-411.0","mb7x2pfc","","","","null","Agent A","STIM_SET_1_REAL/498155.bmp_pp61_L2_V1.0_scrambled_freeview_isoFalse_fps144.mp4"
"","","","call-function","412","1201618","0.0-412.0","mb7x2pfc","","","","","",""
"5076.435000000056","{""pre-1"":2}","[0]","survey-likert","413","1206695","0.0-413.0","mb7x2pfc","","","","","",""
"2785.9499999999534","{""pre-2"":2}","[0]","survey-likert","414","1209482","0.0-414.0","mb7x2pfc","","","","","",""
"1046.470000000205","{""pre-3"":1}","[0]","survey-likert","415","1210530","0.0-415.0","mb7x2pfc","","","","","",""
"1752.4299999999348","{""post-5"":2}","[0]","survey-likert","416","1212283","0.0-416.0","mb7x2pfc","","","","","",""
"","","","call-function","417","1212284","0.0-417.0","mb7x2pfc","","","","","",""
"null","","","video-keyboard-response","418","1215375","0.0-418.0","mb7x2pfc","","","","null","Agent A","STIM_SET_1_REAL/1159572.bmp_pp71_L1_V1.0_veridical_freeview_isoFalse_fps144.mp4"
"","","","call-function","419","1215376","0.0-419.0","mb7x2pfc","","","","","",""
"10404.919999999925","{""pre-1"":3}","[0]","survey-likert","420","1225783","0.0-420.0","mb7x2pfc","","","","","",""
"2742.030000000028","{""pre-2"":2}","[0]","survey-likert","421","1228526","0.0-421.0","mb7x2pfc","","","","","",""
"1185.2549999998882","{""pre-3"":2}","[0]","survey-likert","422","1229713","0.0-422.0","mb7x2pfc","","","","","",""
"3009.875","{""post-5"":1}","[0]","survey-likert","423","1232724","0.0-423.0","mb7x2pfc","","","","","",""
"","","","call-function","424","1232724","0.0-424.0","mb7x2pfc","","","","","",""
"null","","","video-keyboard-response","425","1235805","0.0-425.0","mb7x2pfc","","","","null","Agent A","STIM_SET_1_REAL/1159446.bmp_pp60_L3_V1.0_veridical_freeview_isoFalse_fps144.mp4"
"","","","call-function","426","1235806","0.0-426.0","mb7x2pfc","","","","","",""
"3237.2000000001863","{""pre-1"":2}","[0]","survey-likert","427","1239044","0.0-427.0","mb7x2pfc","","","","","",""
"2495.5049999998882","{""pre-2"":2}","[0]","survey-likert","428","1241541","0.0-428.0","mb7x2pfc","","","","","",""
"2461.405000000028","{""pre-3"":2}","[0]","survey-likert","429","1244003","0.0-429.0","mb7x2pfc","","","","","",""
"2720.3549999999814","{""post-5"":1}","[0]","survey-likert","430","1246725","0.0-430.0","mb7x2pfc","","","","","",""
"","","","call-function","431","1246725","0.0-431.0","mb7x2pfc","","","","","",""
"null","","","video-keyboard-response","432","1249795","0.0-432.0","mb7x2pfc","","","","null","Agent A","STIM_SET_1_REAL/1592397.bmp_pp85_L3_V1.0_scrambled_freeview_isoFalse_fps144.mp4"
"","","","call-function","433","1249796","0.0-433.0","mb7x2pfc","","","","","",""
"2317.4899999999907","{""pre-1"":3}","[0]","survey-likert","434","1252114","0.0-434.0","mb7x2pfc","","","","","",""
"1403","{""pre-2"":2}","[0]","survey-likert","435","1253518","0.0-435.0","mb7x2pfc","","","","","",""
"932.8600000001024","{""pre-3"":2}","[0]","survey-likert","436","1254452","0.0-436.0","mb7x2pfc","","","","","",""
"1198.3400000000838","{""post-5"":0}","[0]","survey-likert","437","1255651","0.0-437.0","mb7x2pfc","","","","","",""
"","","","call-function","438","1255652","0.0-438.0","mb7x2pfc","","","","","",""
"null","","","video-keyboard-response","439","1258728","0.0-439.0","mb7x2pfc","","","","null","Agent A","STIM_SET_1_REAL/285751.bmp_pp55_L3_V1.0_veridical_freeview_isoFalse_fps144.mp4"
"","","","call-function","440","1258728","0.0-440.0","mb7x2pfc","","","","","",""
"6425.185000000056","{""pre-1"":3}","[0]","survey-likert","441","1265154","0.0-441.0","mb7x2pfc","","","","","",""
"1858.0449999999255","{""pre-2"":2}","[0]","survey-likert","442","1267013","0.0-442.0","mb7x2pfc","","","","","",""
"2494.7950000001583","{""pre-3"":1}","[0]","survey-likert","443","1269509","0.0-443.0","mb7x2pfc","","","","","",""
"2504.534999999916","{""post-5"":0}","[0]","survey-likert","444","1272015","0.0-444.0","mb7x2pfc","","","","","",""
"66660.73499999987","","","instructions","445","1338677","0.0-445.0","mb7x2pfc","[{""page_index"":0,""viewing_time"":1938.4099999999162},{""page_index"":1,""viewing_time"":64015.89000000013},{""page_index"":2,""viewing_time"":705.8649999999907}]","","","","",""
"2078.9550000000745","","","instructions","446","1340757","0.0-446.0","mb7x2pfc","[{""page_index"":0,""viewing_time"":637.8950000000186},{""page_index"":1,""viewing_time"":720.0549999999348},{""page_index"":2,""viewing_time"":720.9000000001397}]","","","","",""
"","","","call-function","447","1340758","0.0-447.0","mb7x2pfc","","","","","",""
"null","","","video-keyboard-response","448","1343835","0.0-448.0","mb7x2pfc","","","","null","Agent A","STIM_SET_1_REAL/1159777.bmp_pp77_L3_V1.0_veridical_freeview_isoFalse_fps144.mp4"
"","","","call-function","449","1343836","0.0-449.0","mb7x2pfc","","","","","",""
"3936.8850000000093","{""pre-1"":2}","[0]","survey-likert","450","1347774","0.0-450.0","mb7x2pfc","","","","","",""
"1253.3100000000559","{""pre-2"":2}","[0]","survey-likert","451","1349028","0.0-451.0","mb7x2pfc","","","","","",""
"985.9799999999814","{""pre-3"":2}","[0]","survey-likert","452","1350016","0.0-452.0","mb7x2pfc","","","","","",""
"2067.320000000065","{""post-5"":0}","[0]","survey-likert","453","1352084","0.0-453.0","mb7x2pfc","","","","","",""
"","","","call-function","454","1352085","0.0-454.0","mb7x2pfc","","","","","",""
"null","","","video-keyboard-response","455","1355150","0.0-455.0","mb7x2pfc","","","","null","Agent A","STIM_SET_1_REAL/286001.bmp_pp54_L2_V1.0_scrambled_freeview_isoFalse_fps144.mp4"
"","","","call-function","456","1355151","0.0-456.0","mb7x2pfc","","","","","",""
"1607.9799999999814","{""pre-1"":0}","[0]","survey-likert","457","1356760","0.0-457.0","mb7x2pfc","","","","","",""
"2360.5","{""pre-2"":0}","[0]","survey-likert","458","1359121","0.0-458.0","mb7x2pfc","","","","","",""
"918.7249999998603","{""pre-3"":0}","[0]","survey-likert","459","1360041","0.0-459.0","mb7x2pfc","","","","","",""
"3154.939999999944","{""post-5"":3}","[0]","survey-likert","460","1363197","0.0-460.0","mb7x2pfc","","","","","",""
"","","","call-function","461","1363198","0.0-461.0","mb7x2pfc","","","","","",""
"null","","","video-keyboard-response","462","1366263","0.0-462.0","mb7x2pfc","","","","null","Agent A","STIM_SET_1_REAL/713017.bmp_pp152_L2_V1.0_scrambled_freeview_isoFalse_fps144.mp4"
"","","","call-function","463","1366263","0.0-463.0","mb7x2pfc","","","","","",""
"3205.7350000001024","{""pre-1"":1}","[0]","survey-likert","464","1369470","0.0-464.0","mb7x2pfc","","","","","",""
"1900.8899999998976","{""pre-2"":0}","[0]","survey-likert","465","1371372","0.0-465.0","mb7x2pfc","","","","","",""
"2862.130000000121","{""pre-3"":0}","[0]","survey-likert","466","1374235","0.0-466.0","mb7x2pfc","","","","","",""
"1340.0849999999627","{""post-5"":3}","[0]","survey-likert","467","1375577","0.0-467.0","mb7x2pfc","","","","","",""
"","","","call-function","468","1375577","0.0-468.0","mb7x2pfc","","","","","",""
"null","","","video-keyboard-response","469","1378657","0.0-469.0","mb7x2pfc","","","","null","Agent A","STIM_SET_1_REAL/1592807.bmp_pp68_L1_V1.0_scrambled_freeview_isoFalse_fps144.mp4"
"","","","call-function","470","1378657","0.0-470.0","mb7x2pfc","","","","","",""
"1784.2299999999814","{""pre-1"":1}","[0]","survey-likert","471","1380442","0.0-471.0","mb7x2pfc","","","","","",""
"2346.7700000000186","{""pre-2"":1}","[0]","survey-likert","472","1382790","0.0-472.0","mb7x2pfc","","","","","",""
"994.2350000001024","{""pre-3"":1}","[0]","survey-likert","473","1383786","0.0-473.0","mb7x2pfc","","","","","",""
"3034.9499999999534","{""post-5"":2}","[0]","survey-likert","474","1386822","0.0-474.0","mb7x2pfc","","","","","",""
"","","","call-function","475","1386822","0.0-475.0","mb7x2pfc","","","","","",""
"null","","","video-keyboard-response","476","1389917","0.0-476.0","mb7x2pfc","","","","null","Agent A","STIM_SET_1_REAL/1159515.bmp_pp84_L3_V1.0_veridical_freeview_isoFalse_fps144.mp4"
"","","","call-function","477","1389918","0.0-477.0","mb7x2pfc","","","","","",""
"7318.23499999987","{""pre-1"":1}","[0]","survey-likert","478","1397238","0.0-478.0","mb7x2pfc","","","","","",""
"3463.744999999879","{""pre-2"":1}","[0]","survey-likert","479","1400704","0.0-479.0","mb7x2pfc","","","","","",""
"1456.0249999999069","{""pre-3"":0}","[0]","survey-likert","480","1402162","0.0-480.0","mb7x2pfc","","","","","",""
"3108.630000000121","{""post-5"":3}","[0]","survey-likert","481","1405272","0.0-481.0","mb7x2pfc","","","","","",""
"","","","call-function","482","1405273","0.0-482.0","mb7x2pfc","","","","","",""
"null","","","video-keyboard-response","483","1408338","0.0-483.0","mb7x2pfc","","","","null","Agent A","STIM_SET_1_REAL/1159621.bmp_pp92_L3_V1.0_veridical_freeview_isoFalse_fps144.mp4"
"","","","call-function","484","1408338","0.0-484.0","mb7x2pfc","","","","","",""
"2440.4249999998137","{""pre-1"":1}","[0]","survey-likert","485","1410780","0.0-485.0","mb7x2pfc","","","","","",""
"2265.8600000001024","{""pre-2"":1}","[0]","survey-likert","486","1413047","0.0-486.0","mb7x2pfc","","","","","",""
"814.5500000000466","{""pre-3"":1}","[0]","survey-likert","487","1413863","0.0-487.0","mb7x2pfc","","","","","",""
"1309.3149999999441","{""post-5"":2}","[0]","survey-likert","488","1415174","0.0-488.0","mb7x2pfc","","","","","",""
"","","","call-function","489","1415174","0.0-489.0","mb7x2pfc","","","","","",""
"null","","","video-keyboard-response","490","1418251","0.0-490.0","mb7x2pfc","","","","null","Agent A","STIM_SET_1_REAL/713707.bmp_pp154_L1_V1.0_veridical_freeview_isoFalse_fps144.mp4"
"","","","call-function","491","1418251","0.0-491.0","mb7x2pfc","","","","","",""
"4271.979999999981","{""pre-1"":2}","[0]","survey-likert","492","1422524","0.0-492.0","mb7x2pfc","","","","","",""
"4594.260000000009","{""pre-2"":2}","[0]","survey-likert","493","1427120","0.0-493.0","mb7x2pfc","","","","","",""
"889.7649999998976","{""pre-3"":1}","[0]","survey-likert","494","1428010","0.0-494.0","mb7x2pfc","","","","","",""
"2072.155000000028","{""post-5"":0}","[0]","survey-likert","495","1430084","0.0-495.0","mb7x2pfc","","","","","",""
"","","","call-function","496","1430084","0.0-496.0","mb7x2pfc","","","","","",""
"null","","","video-keyboard-response","497","1433154","0.0-497.0","mb7x2pfc","","","","null","Agent A","STIM_SET_1_REAL/713796.bmp_pp84_L3_V1.0_veridical_freeview_isoFalse_fps144.mp4"
"","","","call-function","498","1433154","0.0-498.0","mb7x2pfc","","","","","",""
"2909.7600000000093","{""pre-1"":1}","[0]","survey-likert","499","1436065","0.0-499.0","mb7x2pfc","","","","","",""
"2044.8649999999907","{""pre-2"":1}","[0]","survey-likert","500","1438111","0.0-500.0","mb7x2pfc","","","","","",""
"1944.7750000001397","{""pre-3"":1}","[0]","survey-likert","501","1440057","0.0-501.0","mb7x2pfc","","","","","",""
"1992.6850000000559","{""post-5"":1}","[0]","survey-likert","502","1442051","0.0-502.0","mb7x2pfc","","","","","",""
"","","","call-function","503","1442051","0.0-503.0","mb7x2pfc","","","","","",""
"null","","","video-keyboard-response","504","1445121","0.0-504.0","mb7x2pfc","","","","null","Agent A","STIM_SET_1_REAL/1159768.bmp_pp89_L1_V1.0_veridical_freeview_isoFalse_fps144.mp4"
"","","","call-function","505","1445121","0.0-505.0","mb7x2pfc","","","","","",""
"1916.875","{""pre-1"":2}","[0]","survey-likert","506","1447040","0.0-506.0","mb7x2pfc","","","","","",""
"1955.3299999998417","{""pre-2"":3}","[0]","survey-likert","507","1448997","0.0-507.0","mb7x2pfc","","","","","",""
"1635.1149999999907","{""pre-3"":3}","[0]","survey-likert","508","1450634","0.0-508.0","mb7x2pfc","","","","","",""
"1355.3999999999069","{""post-5"":0}","[0]","survey-likert","509","1451991","0.0-509.0","mb7x2pfc","","","","","",""
"","","","call-function","510","1451992","0.0-510.0","mb7x2pfc","","","","","",""
"null","","","video-keyboard-response","511","1455062","0.0-511.0","mb7x2pfc","","","","null","Agent A","STIM_SET_1_REAL/1592362.bmp_pp95_L2_V1.0_scrambled_freeview_isoFalse_fps144.mp4"
"","","","call-function","512","1455062","0.0-512.0","mb7x2pfc","","","","","",""
"4284.475000000093","{""pre-1"":2}","[0]","survey-likert","513","1459348","0.0-513.0","mb7x2pfc","","","","","",""
"2729.8349999999627","{""pre-2"":2}","[0]","survey-likert","514","1462079","0.0-514.0","mb7x2pfc","","","","","",""
"1026.655000000028","{""pre-3"":2}","[0]","survey-likert","515","1463107","0.0-515.0","mb7x2pfc","","","","","",""
"4896.354999999981","{""post-5"":1}","[0]","survey-likert","516","1468004","0.0-516.0","mb7x2pfc","","","","","",""
"","","","call-function","517","1468005","0.0-517.0","mb7x2pfc","","","","","",""
"null","","","video-keyboard-response","518","1471087","0.0-518.0","mb7x2pfc","","","","null","Agent A","STIM_SET_1_REAL/1593041.bmp_pp58_L1_V1.0_veridical_freeview_isoFalse_fps144.mp4"
"","","","call-function","519","1471088","0.0-519.0","mb7x2pfc","","","","","",""
"5346.155000000028","{""pre-1"":1}","[0]","survey-likert","520","1476435","0.0-520.0","mb7x2pfc","","","","","",""
"1428.969999999972","{""pre-2"":1}","[0]","survey-likert","521","1477865","0.0-521.0","mb7x2pfc","","","","","",""
"1246.6499999999069","{""pre-3"":0}","[0]","survey-likert","522","1479113","0.0-522.0","mb7x2pfc","","","","","",""
"2052.2900000000373","{""post-5"":2}","[0]","survey-likert","523","1481166","0.0-523.0","mb7x2pfc","","","","","",""
"","","","call-function","524","1481166","0.0-524.0","mb7x2pfc","","","","","",""
"null","","","video-keyboard-response","525","1484253","0.0-525.0","mb7x2pfc","","","","null","Agent A","STIM_SET_1_REAL/1592372.bmp_pp76_L1_V1.0_veridical_freeview_isoFalse_fps144.mp4"
"","","","call-function","526","1484254","0.0-526.0","mb7x2pfc","","","","","",""
"2296.4200000001583","{""pre-1"":2}","[0]","survey-likert","527","1486551","0.0-527.0","mb7x2pfc","","","","","",""
"978.5550000001676","{""pre-2"":2}","[0]","survey-likert","528","1487531","0.0-528.0","mb7x2pfc","","","","","",""
"1125.8249999999534","{""pre-3"":2}","[0]","survey-likert","529","1488658","0.0-529.0","mb7x2pfc","","","","","",""
"1066.940000000177","{""post-5"":0}","[0]","survey-likert","530","1489726","0.0-530.0","mb7x2pfc","","","","","",""
"","","","call-function","531","1489726","0.0-531.0","mb7x2pfc","","","","","",""
"null","","","video-keyboard-response","532","1492803","0.0-532.0","mb7x2pfc","","","","null","Agent A","STIM_SET_1_REAL/1159784.bmp_pp73_L3_V1.0_scrambled_freeview_isoFalse_fps144.mp4"
"","","","call-function","533","1492804","0.0-533.0","mb7x2pfc","","","","","",""
"2844.185000000056","{""pre-1"":0}","[0]","survey-likert","534","1495650","0.0-534.0","mb7x2pfc","","","","","",""
"1312.1500000001397","{""pre-2"":0}","[0]","survey-likert","535","1496964","0.0-535.0","mb7x2pfc","","","","","",""
"1318.785000000149","{""pre-3"":0}","[0]","survey-likert","536","1498284","0.0-536.0","mb7x2pfc","","","","","",""
"1573.0449999999255","{""post-5"":3}","[0]","survey-likert","537","1499858","0.0-537.0","mb7x2pfc","","","","","",""
"","","","call-function","538","1499859","0.0-538.0","mb7x2pfc","","","","","",""
"null","","","video-keyboard-response","539","1502959","0.0-539.0","mb7x2pfc","","","","null","Agent A","STIM_SET_1_REAL/1591954.bmp_pp62_L2_V1.0_scrambled_freeview_isoFalse_fps144.mp4"
"","","","call-function","540","1502959","0.0-540.0","mb7x2pfc","","","","","",""
"2604.969999999972","{""pre-1"":2}","[0]","survey-likert","541","1505565","0.0-541.0","mb7x2pfc","","","","","",""
"1830.3850000000093","{""pre-2"":3}","[0]","survey-likert","542","1507397","0.0-542.0","mb7x2pfc","","","","","",""
"1071.6599999999162","{""pre-3"":2}","[0]","survey-likert","543","1508470","0.0-543.0","mb7x2pfc","","","","","",""
"2391.8349999999627","{""post-5"":0}","[0]","survey-likert","544","1510863","0.0-544.0","mb7x2pfc","","","","","",""
"","","","call-function","545","1510864","0.0-545.0","mb7x2pfc","","","","","",""
"null","","","video-keyboard-response","546","1513941","0.0-546.0","mb7x2pfc","","","","null","Agent A","STIM_SET_1_REAL/1159777.bmp_pp77_L3_V1.0_scrambled_freeview_isoFalse_fps144.mp4"
"","","","call-function","547","1513942","0.0-547.0","mb7x2pfc","","","","","",""
"3023.649999999907","{""pre-1"":2}","[0]","survey-likert","548","1516966","0.0-548.0","mb7x2pfc","","","","","",""
"1601.375","{""pre-2"":2}","[0]","survey-likert","549","1518569","0.0-549.0","mb7x2pfc","","","","","",""
"3948.554999999935","{""pre-3"":2}","[0]","survey-likert","550","1522518","0.0-550.0","mb7x2pfc","","","","","",""
"2198.9799999999814","{""post-5"":0}","[0]","survey-likert","551","1524718","0.0-551.0","mb7x2pfc","","","","","",""
"","","","call-function","552","1524719","0.0-552.0","mb7x2pfc","","","","","",""
"null","","","video-keyboard-response","553","1527794","0.0-553.0","mb7x2pfc","","","","null","Agent A","STIM_SET_1_REAL/1592372.bmp_pp76_L1_V1.0_scrambled_freeview_isoFalse_fps144.mp4"
"","","","call-function","554","1527794","0.0-554.0","mb7x2pfc","","","","","",""
"4284.594999999972","{""pre-1"":0}","[0]","survey-likert","555","1532080","0.0-555.0","mb7x2pfc","","","","","",""
"3108.945000000065","{""pre-2"":1}","[0]","survey-likert","556","1535190","0.0-556.0","mb7x2pfc","","","","","",""
"2945.9250000000466","{""pre-3"":1}","[0]","survey-likert","557","1538137","0.0-557.0","mb7x2pfc","","","","","",""
"1753.2150000000838","{""post-5"":2}","[0]","survey-likert","558","1539891","0.0-558.0","mb7x2pfc","","","","","",""
"","","","call-function","559","1539892","0.0-559.0","mb7x2pfc","","","","","",""
"null","","","video-keyboard-response","560","1542983","0.0-560.0","mb7x2pfc","","","","null","Agent A","STIM_SET_1_REAL/1592499.bmp_pp96_L2_V1.0_scrambled_freeview_isoFalse_fps144.mp4"
"","","","call-function","561","1542984","0.0-561.0","mb7x2pfc","","","","","",""
"3633.2949999999255","{""pre-1"":1}","[0]","survey-likert","562","1546619","0.0-562.0","mb7x2pfc","","","","","",""
"1796.6949999998324","{""pre-2"":1}","[0]","survey-likert","563","1548417","0.0-563.0","mb7x2pfc","","","","","",""
"1619.5200000000186","{""pre-3"":1}","[0]","survey-likert","564","1550038","0.0-564.0","mb7x2pfc","","","","","",""
"2152.1999999999534","{""post-5"":3}","[0]","survey-likert","565","1552192","0.0-565.0","mb7x2pfc","","","","","",""
"","","","call-function","566","1552193","0.0-566.0","mb7x2pfc","","","","","",""
"null","","","video-keyboard-response","567","1555268","0.0-567.0","mb7x2pfc","","","","null","Agent A","STIM_SET_1_REAL/713135.bmp_pp54_L2_V1.0_scrambled_freeview_isoFalse_fps144.mp4"
"","","","call-function","568","1555268","0.0-568.0","mb7x2pfc","","","","","",""
"2103.8950000000186","{""pre-1"":0}","[0]","survey-likert","569","1557373","0.0-569.0","mb7x2pfc","","","","","",""
"1304.8349999999627","{""pre-2"":0}","[0]","survey-likert","570","1558679","0.0-570.0","mb7x2pfc","","","","","",""
"1466.9399999999441","{""pre-3"":0}","[0]","survey-likert","571","1560147","0.0-571.0","mb7x2pfc","","","","","",""
"1028.3199999998324","{""post-5"":3}","[0]","survey-likert","572","1561177","0.0-572.0","mb7x2pfc","","","","","",""
"","","","call-function","573","1561178","0.0-573.0","mb7x2pfc","","","","","",""
"null","","","video-keyboard-response","574","1564252","0.0-574.0","mb7x2pfc","","","","null","Agent A","STIM_SET_1_REAL/1591961.bmp_pp67_L2_V1.0_veridical_freeview_isoFalse_fps144.mp4"
"","","","call-function","575","1564252","0.0-575.0","mb7x2pfc","","","","","",""
"1599.4799999999814","{""pre-1"":2}","[0]","survey-likert","576","1565853","0.0-576.0","mb7x2pfc","","","","","",""
"1069.7450000001118","{""pre-2"":2}","[0]","survey-likert","577","1566924","0.0-577.0","mb7x2pfc","","","","","",""
"1506.530000000028","{""pre-3"":1}","[0]","survey-likert","578","1568431","0.0-578.0","mb7x2pfc","","","","","",""
"3673.3199999998324","{""post-5"":1}","[0]","survey-likert","579","1572106","0.0-579.0","mb7x2pfc","","","","","",""
"","","","call-function","580","1572106","0.0-580.0","mb7x2pfc","","","","","",""
"null","","","video-keyboard-response","581","1575179","0.0-581.0","mb7x2pfc","","","","null","Agent A","STIM_SET_1_REAL/712977.bmp_pp51_L1_V1.0_veridical_freeview_isoFalse_fps144.mp4"
"","","","call-function","582","1575180","0.0-582.0","mb7x2pfc","","","","","",""
"2914.149999999907","{""pre-1"":2}","[0]","survey-likert","583","1578095","0.0-583.0","mb7x2pfc","","","","","",""
"932.9249999998137","{""pre-2"":2}","[0]","survey-likert","584","1579029","0.0-584.0","mb7x2pfc","","","","","",""
"3233.179999999935","{""pre-3"":2}","[0]","survey-likert","585","1582263","0.0-585.0","mb7x2pfc","","","","","",""
"1376.8599999998696","{""post-5"":0}","[0]","survey-likert","586","1583641","0.0-586.0","mb7x2pfc","","","","","",""
"104690.95000000019","","","instructions","587","1688333","0.0-587.0","mb7x2pfc","[{""page_index"":0,""viewing_time"":1036.815000000177},{""page_index"":1,""viewing_time"":103094.99499999988},{""page_index"":2,""viewing_time"":558.9699999999721}]","","","","",""
"1744.4200000001583","","","instructions","588","1690078","0.0-588.0","mb7x2pfc","[{""page_index"":0,""viewing_time"":476.6350000000093},{""page_index"":1,""viewing_time"":697.7100000001956},{""page_index"":2,""viewing_time"":569.9749999998603}]","","","","",""
"","","","call-function","589","1690078","0.0-589.0","mb7x2pfc","","","","","",""
"null","","","video-keyboard-response","590","1693141","0.0-590.0","mb7x2pfc","","","","null","Agent A","STIM_SET_1_REAL/1593035.bmp_pp94_L2_V1.0_scrambled_freeview_isoFalse_fps144.mp4"
"","","","call-function","591","1693141","0.0-591.0","mb7x2pfc","","","","","",""
"3344.030000000028","{""pre-1"":2}","[0]","survey-likert","592","1696486","0.0-592.0","mb7x2pfc","","","","","",""
"1870.9849999998696","{""pre-2"":1}","[0]","survey-likert","593","1698358","0.0-593.0","mb7x2pfc","","","","","",""
"1533.0799999998417","{""pre-3"":0}","[0]","survey-likert","594","1699893","0.0-594.0","mb7x2pfc","","","","","",""
"1981.1950000000652","{""post-5"":2}","[0]","survey-likert","595","1701876","0.0-595.0","mb7x2pfc","","","","","",""
"","","","call-function","596","1701877","0.0-596.0","mb7x2pfc","","","","","",""
"null","","","video-keyboard-response","597","1704953","0.0-597.0","mb7x2pfc","","","","null","Agent A","STIM_SET_1_REAL/713760.bmp_pp81_L1_V1.0_scrambled_freeview_isoFalse_fps144.mp4"
"","","","call-function","598","1704953","0.0-598.0","mb7x2pfc","","","","","",""
"1929.4300000001676","{""pre-1"":0}","[0]","survey-likert","599","1706884","0.0-599.0","mb7x2pfc","","","","","",""
"1097.5999999998603","{""pre-2"":0}","[0]","survey-likert","600","1707983","0.0-600.0","mb7x2pfc","","","","","",""
"871.1049999999814","{""pre-3"":0}","[0]","survey-likert","601","1708855","0.0-601.0","mb7x2pfc","","","","","",""
"1264.1099999998696","{""post-5"":3}","[0]","survey-likert","602","1710120","0.0-602.0","mb7x2pfc","","","","","",""
"","","","call-function","603","1710121","0.0-603.0","mb7x2pfc","","","","","",""
"null","","","video-keyboard-response","604","1713190","0.0-604.0","mb7x2pfc","","","","null","Agent A","STIM_SET_1_REAL/285933.bmp_pp81_L1_V1.0_scrambled_freeview_isoFalse_fps144.mp4"
"","","","call-function","605","1713191","0.0-605.0","mb7x2pfc","","","","","",""
"2986.2899999998044","{""pre-1"":2}","[0]","survey-likert","606","1716178","0.0-606.0","mb7x2pfc","","","","","",""
"1017.6099999998696","{""pre-2"":1}","[0]","survey-likert","607","1717197","0.0-607.0","mb7x2pfc","","","","","",""
"1117.1099999998696","{""pre-3"":1}","[0]","survey-likert","608","1718315","0.0-608.0","mb7x2pfc","","","","","",""
"5074.1699999999255","{""post-5"":2}","[0]","survey-likert","609","1723390","0.0-609.0","mb7x2pfc","","","","","",""
"","","","call-function","610","1723391","0.0-610.0","mb7x2pfc","","","","","",""
"null","","","video-keyboard-response","611","1726455","0.0-611.0","mb7x2pfc","","","","null","Agent A","STIM_SET_1_REAL/286001.bmp_pp54_L2_V1.0_veridical_freeview_isoFalse_fps144.mp4"
"","","","call-function","612","1726455","0.0-612.0","mb7x2pfc","","","","","",""
"2178.820000000065","{""pre-1"":0}","[0]","survey-likert","613","1728636","0.0-613.0","mb7x2pfc","","","","","",""
"1221.1949999998324","{""pre-2"":0}","[0]","survey-likert","614","1729858","0.0-614.0","mb7x2pfc","","","","","",""
"1449.3100000000559","{""pre-3"":0}","[0]","survey-likert","615","1731308","0.0-615.0","mb7x2pfc","","","","","",""
"1274.4899999999907","{""post-5"":3}","[0]","survey-likert","616","1732584","0.0-616.0","mb7x2pfc","","","","","",""
"","","","call-function","617","1732584","0.0-617.0","mb7x2pfc","","","","","",""
"null","","","video-keyboard-response","618","1735660","0.0-618.0","mb7x2pfc","","","","null","Agent A","STIM_SET_1_REAL/1592804.bmp_pp91_L3_V1.0_veridical_freeview_isoFalse_fps144.mp4"
"","","","call-function","619","1735660","0.0-619.0","mb7x2pfc","","","","","",""
"3430.469999999972","{""pre-1"":2}","[0]","survey-likert","620","1739092","0.0-620.0","mb7x2pfc","","","","","",""
"1417.9799999999814","{""pre-2"":2}","[0]","survey-likert","621","1740511","0.0-621.0","mb7x2pfc","","","","","",""
"1114.3199999998324","{""pre-3"":2}","[0]","survey-likert","622","1741626","0.0-622.0","mb7x2pfc","","","","","",""
"1084.2299999999814","{""post-5"":1}","[0]","survey-likert","623","1742712","0.0-623.0","mb7x2pfc","","","","","",""
"","","","call-function","624","1742712","0.0-624.0","mb7x2pfc","","","","","",""
"null","","","video-keyboard-response","625","1745805","0.0-625.0","mb7x2pfc","","","","null","Agent A","STIM_SET_1_REAL/285994.bmp_pp92_L3_V1.0_veridical_freeview_isoFalse_fps144.mp4"
"","","","call-function","626","1745805","0.0-626.0","mb7x2pfc","","","","","",""
"3248.119999999879","{""pre-1"":3}","[0]","survey-likert","627","1749054","0.0-627.0","mb7x2pfc","","","","","",""
"1196.9450000000652","{""pre-2"":3}","[0]","survey-likert","628","1750252","0.0-628.0","mb7x2pfc","","","","","",""
"1112.0800000000745","{""pre-3"":3}","[0]","survey-likert","629","1751365","0.0-629.0","mb7x2pfc","","","","","",""
"2087.095000000205","{""post-5"":0}","[0]","survey-likert","630","1753454","0.0-630.0","mb7x2pfc","","","","","",""
"","","","call-function","631","1753456","0.0-631.0","mb7x2pfc","","","","","",""
"null","","","video-keyboard-response","632","1756561","0.0-632.0","mb7x2pfc","","","","null","Agent A","STIM_SET_1_REAL/713211.bmp_pp100_L3_V1.0_scrambled_freeview_isoFalse_fps144.mp4"
"","","","call-function","633","1756561","0.0-633.0","mb7x2pfc","","","","","",""
"6638.959999999963","{""pre-1"":1}","[0]","survey-likert","634","1763201","0.0-634.0","mb7x2pfc","","","","","",""
"1020.8549999999814","{""pre-2"":0}","[0]","survey-likert","635","1764223","0.0-635.0","mb7x2pfc","","","","","",""
"950.714999999851","{""pre-3"":0}","[0]","survey-likert","636","1765176","0.0-636.0","mb7x2pfc","","","","","",""
"3970.7249999998603","{""post-5"":2}","[0]","survey-likert","637","1769148","0.0-637.0","mb7x2pfc","","","","","",""
"","","","call-function","638","1769148","0.0-638.0","mb7x2pfc","","","","","",""
"null","","","video-keyboard-response","639","1772213","0.0-639.0","mb7x2pfc","","","","null","Agent A","STIM_SET_1_REAL/497950.bmp_pp151_L1_V1.0_veridical_freeview_isoFalse_fps144.mp4"
"","","","call-function","640","1772214","0.0-640.0","mb7x2pfc","","","","","",""
"4814.885000000009","{""pre-1"":1}","[0]","survey-likert","641","1777030","0.0-641.0","mb7x2pfc","","","","","",""
"1263.0900000000838","{""pre-2"":1}","[0]","survey-likert","642","1778294","0.0-642.0","mb7x2pfc","","","","","",""
"1203.8249999999534","{""pre-3"":1}","[0]","survey-likert","643","1779499","0.0-643.0","mb7x2pfc","","","","","",""
"1037.2299999999814","{""post-5"":2}","[0]","survey-likert","644","1780538","0.0-644.0","mb7x2pfc","","","","","",""
"","","","call-function","645","1780538","0.0-645.0","mb7x2pfc","","","","","",""
"null","","","video-keyboard-response","646","1783602","0.0-646.0","mb7x2pfc","","","","null","Agent A","STIM_SET_1_REAL/713403.bmp_pp80_L3_V1.0_scrambled_freeview_isoFalse_fps144.mp4"
"","","","call-function","647","1783602","0.0-647.0","mb7x2pfc","","","","","",""
"1504.005000000121","{""pre-1"":0}","[0]","survey-likert","648","1785107","0.0-648.0","mb7x2pfc","","","","","",""
"1966.4300000001676","{""pre-2"":0}","[0]","survey-likert","649","1787076","0.0-649.0","mb7x2pfc","","","","","",""
"1501.125","{""pre-3"":0}","[0]","survey-likert","650","1788578","0.0-650.0","mb7x2pfc","","","","","",""
"2642.2099999999627","{""post-5"":3}","[0]","survey-likert","651","1791221","0.0-651.0","mb7x2pfc","","","","","",""
"","","","call-function","652","1791222","0.0-652.0","mb7x2pfc","","","","","",""
"null","","","video-keyboard-response","653","1794282","0.0-653.0","mb7x2pfc","","","","null","Agent A","STIM_SET_1_REAL/1592619.bmp_pp56_L3_V1.0_scrambled_freeview_isoFalse_fps144.mp4"
"","","","call-function","654","1794282","0.0-654.0","mb7x2pfc","","","","","",""
"3467.594999999972","{""pre-1"":0}","[0]","survey-likert","655","1797751","0.0-655.0","mb7x2pfc","","","","","",""
"1131.0700000000652","{""pre-2"":0}","[0]","survey-likert","656","1798883","0.0-656.0","mb7x2pfc","","","","","",""
"829.2199999999721","{""pre-3"":0}","[0]","survey-likert","657","1799713","0.0-657.0","mb7x2pfc","","","","","",""
"4000.7949999999255","{""post-5"":3}","[0]","survey-likert","658","1803715","0.0-658.0","mb7x2pfc","","","","","",""
"","","","call-function","659","1803716","0.0-659.0","mb7x2pfc","","","","","",""
"null","","","video-keyboard-response","660","1806786","0.0-660.0","mb7x2pfc","","","","null","Agent A","STIM_SET_1_REAL/285905.bmp_pp57_L1_V1.0_veridical_freeview_isoFalse_fps144.mp4"
"","","","call-function","661","1806788","0.0-661.0","mb7x2pfc","","","","","",""
"1813.380000000121","{""pre-1"":2}","[0]","survey-likert","662","1808602","0.0-662.0","mb7x2pfc","","","","","",""
"1874.1899999999441","{""pre-2"":2}","[0]","survey-likert","663","1810477","0.0-663.0","mb7x2pfc","","","","","",""
"917.4799999999814","{""pre-3"":2}","[0]","survey-likert","664","1811396","0.0-664.0","mb7x2pfc","","","","","",""
"2846.4899999999907","{""post-5"":1}","[0]","survey-likert","665","1814245","0.0-665.0","mb7x2pfc","","","","","",""
"","","","call-function","666","1814246","0.0-666.0","mb7x2pfc","","","","","",""
"null","","","video-keyboard-response","667","1817326","0.0-667.0","mb7x2pfc","","","","null","Agent A","STIM_SET_1_REAL/1591954.bmp_pp62_L2_V1.0_veridical_freeview_isoFalse_fps144.mp4"
"","","","call-function","668","1817327","0.0-668.0","mb7x2pfc","","","","","",""
"2348.4950000001118","{""pre-1"":2}","[0]","survey-likert","669","1819676","0.0-669.0","mb7x2pfc","","","","","",""
"2558.0500000000466","{""pre-2"":2}","[0]","survey-likert","670","1822236","0.0-670.0","mb7x2pfc","","","","","",""
"941.5400000000373","{""pre-3"":1}","[0]","survey-likert","671","1823179","0.0-671.0","mb7x2pfc","","","","","",""
"2229.980000000214","{""post-5"":2}","[0]","survey-likert","672","1825410","0.0-672.0","mb7x2pfc","","","","","",""
"","","","call-function","673","1825410","0.0-673.0","mb7x2pfc","","","","","",""
"null","","","video-keyboard-response","674","1828476","0.0-674.0","mb7x2pfc","","","","null","Agent A","STIM_SET_1_REAL/1159829.bmp_pp91_L3_V1.0_scrambled_freeview_isoFalse_fps144.mp4"
"","","","call-function","675","1828476","0.0-675.0","mb7x2pfc","","","","","",""
"1932.219999999972","{""pre-1"":1}","[0]","survey-likert","676","1830410","0.0-676.0","mb7x2pfc","","","","","",""
"1037.75","{""pre-2"":0}","[0]","survey-likert","677","1831448","0.0-677.0","mb7x2pfc","","","","","",""
"1523.9950000001118","{""pre-3"":0}","[0]","survey-likert","678","1832974","0.0-678.0","mb7x2pfc","","","","","",""
"1164.530000000028","{""post-5"":2}","[0]","survey-likert","679","1834140","0.0-679.0","mb7x2pfc","","","","","",""
"","","","call-function","680","1834141","0.0-680.0","mb7x2pfc","","","","","",""
"null","","","video-keyboard-response","681","1837216","0.0-681.0","mb7x2pfc","","","","null","Agent A","STIM_SET_1_REAL/1159440.bmp_pp98_L1_V1.0_scrambled_freeview_isoFalse_fps144.mp4"
"","","","call-function","682","1837216","0.0-682.0","mb7x2pfc","","","","","",""
"4132.460000000196","{""pre-1"":1}","[0]","survey-likert","683","1841350","0.0-683.0","mb7x2pfc","","","","","",""
"1331.6500000001397","{""pre-2"":1}","[0]","survey-likert","684","1842682","0.0-684.0","mb7x2pfc","","","","","",""
"958.0549999999348","{""pre-3"":1}","[0]","survey-likert","685","1843641","0.0-685.0","mb7x2pfc","","","","","",""
"994.0200000000186","{""post-5"":2}","[0]","survey-likert","686","1844637","0.0-686.0","mb7x2pfc","","","","","",""
"","","","call-function","687","1844637","0.0-687.0","mb7x2pfc","","","","","",""
"null","","","video-keyboard-response","688","1847713","0.0-688.0","mb7x2pfc","","","","null","Agent A","STIM_SET_1_REAL/713593.bmp_pp64_L1_V1.0_scrambled_freeview_isoFalse_fps144.mp4"
"","","","call-function","689","1847713","0.0-689.0","mb7x2pfc","","","","","",""
"1617.9350000000559","{""pre-1"":0}","[0]","survey-likert","690","1849332","0.0-690.0","mb7x2pfc","","","","","",""
"1091.3249999999534","{""pre-2"":0}","[0]","survey-likert","691","1850425","0.0-691.0","mb7x2pfc","","","","","",""
"1106.8400000000838","{""pre-3"":0}","[0]","survey-likert","692","1851532","0.0-692.0","mb7x2pfc","","","","","",""
"1539.6750000000466","{""post-5"":3}","[0]","survey-likert","693","1853073","0.0-693.0","mb7x2pfc","","","","","",""
"","","","call-function","694","1853074","0.0-694.0","mb7x2pfc","","","","","",""
"null","","","video-keyboard-response","695","1856174","0.0-695.0","mb7x2pfc","","","","null","Agent A","STIM_SET_1_REAL/713513.bmp_pp62_L2_V1.0_scrambled_freeview_isoFalse_fps144.mp4"
"","","","call-function","696","1856174","0.0-696.0","mb7x2pfc","","","","","",""
"3561.7999999998137","{""pre-1"":2}","[0]","survey-likert","697","1859737","0.0-697.0","mb7x2pfc","","","","","",""
"1462.3249999999534","{""pre-2"":3}","[0]","survey-likert","698","1861201","0.0-698.0","mb7x2pfc","","","","","",""
"1402.8999999999069","{""pre-3"":2}","[0]","survey-likert","699","1862605","0.0-699.0","mb7x2pfc","","","","","",""
"2224.725000000093","{""post-5"":0}","[0]","survey-likert","700","1864830","0.0-700.0","mb7x2pfc","","","","","",""
"","","","call-function","701","1864831","0.0-701.0","mb7x2pfc","","","","","",""
"null","","","video-keyboard-response","702","1867933","0.0-702.0","mb7x2pfc","","","","null","Agent A","STIM_SET_1_REAL/498155.bmp_pp61_L2_V1.0_veridical_freeview_isoFalse_fps144.mp4"
"","","","call-function","703","1867935","0.0-703.0","mb7x2pfc","","","","","",""
"7228.364999999991","{""pre-1"":1}","[0]","survey-likert","704","1875165","0.0-704.0","mb7x2pfc","","","","","",""
"1850.7649999998976","{""pre-2"":1}","[0]","survey-likert","705","1877017","0.0-705.0","mb7x2pfc","","","","","",""
"1375.3649999999907","{""pre-3"":0}","[0]","survey-likert","706","1878394","0.0-706.0","mb7x2pfc","","","","","",""
"1497.7849999999162","{""post-5"":2}","[0]","survey-likert","707","1879893","0.0-707.0","mb7x2pfc","","","","","",""
"","","","call-function","708","1879894","0.0-708.0","mb7x2pfc","","","","","",""
"null","","","video-keyboard-response","709","1882956","0.0-709.0","mb7x2pfc","","","","null","Agent A","STIM_SET_1_REAL/1592351.bmp_pp51_L1_V1.0_scrambled_freeview_isoFalse_fps144.mp4"
"","","","call-function","710","1882956","0.0-710.0","mb7x2pfc","","","","","",""
"1653.2099999999627","{""pre-1"":0}","[0]","survey-likert","711","1884611","0.0-711.0","mb7x2pfc","","","","","",""
"1403.5600000000559","{""pre-2"":0}","[0]","survey-likert","712","1886016","0.0-712.0","mb7x2pfc","","","","","",""
"991.4950000001118","{""pre-3"":0}","[0]","survey-likert","713","1887009","0.0-713.0","mb7x2pfc","","","","","",""
"1395.1650000000373","{""post-5"":3}","[0]","survey-likert","714","1888405","0.0-714.0","mb7x2pfc","","","","","",""
"","","","call-function","715","1888406","0.0-715.0","mb7x2pfc","","","","","",""
"null","","","video-keyboard-response","716","1891482","0.0-716.0","mb7x2pfc","","","","null","Agent A","STIM_SET_1_REAL/1592807.bmp_pp68_L1_V1.0_veridical_freeview_isoFalse_fps144.mp4"
"","","","call-function","717","1891482","0.0-717.0","mb7x2pfc","","","","","",""
"3716.3600000001024","{""pre-1"":3}","[0]","survey-likert","718","1895199","0.0-718.0","mb7x2pfc","","","","","",""
"1867.3149999999441","{""pre-2"":3}","[0]","survey-likert","719","1897068","0.0-719.0","mb7x2pfc","","","","","",""
"1402.1750000000466","{""pre-3"":3}","[0]","survey-likert","720","1898471","0.0-720.0","mb7x2pfc","","","","","",""
"1928.2700000000186","{""post-5"":0}","[0]","survey-likert","721","1900402","0.0-721.0","mb7x2pfc","","","","","",""
"","","","call-function","722","1900402","0.0-722.0","mb7x2pfc","","","","","",""
"null","","","video-keyboard-response","723","1903473","0.0-723.0","mb7x2pfc","","","","null","Agent A","STIM_SET_1_REAL/1592397.bmp_pp85_L3_V1.0_veridical_freeview_isoFalse_fps144.mp4"
"","","","call-function","724","1903474","0.0-724.0","mb7x2pfc","","","","","",""
"2641.9850000001024","{""pre-1"":3}","[0]","survey-likert","725","1906117","0.0-725.0","mb7x2pfc","","","","","",""
"3276.25","{""pre-2"":3}","[0]","survey-likert","726","1909394","0.0-726.0","mb7x2pfc","","","","","",""
"1367.9250000000466","{""pre-3"":3}","[0]","survey-likert","727","1910763","0.0-727.0","mb7x2pfc","","","","","",""
"2010.2350000001024","{""post-5"":0}","[0]","survey-likert","728","1912775","0.0-728.0","mb7x2pfc","","","","","",""
"80293.51500000013","","","instructions","729","1993069","0.0-729.0","mb7x2pfc","[{""page_index"":0,""viewing_time"":1189.8249999999534},{""page_index"":1,""viewing_time"":1741.315000000177},{""page_index"":2,""viewing_time"":77361.73999999999}]","","","","",""
"5238.040000000037","","","instructions","730","1998309","0.0-730.0","mb7x2pfc","[{""page_index"":0,""viewing_time"":704.6300000001211},{""page_index"":1,""viewing_time"":2653.994999999879},{""page_index"":2,""viewing_time"":1879.3050000001676}]","","","","",""
"","","","call-function","731","1998310","0.0-731.0","mb7x2pfc","","","","","",""
"null","","","video-keyboard-response","732","2001386","0.0-732.0","mb7x2pfc","","","","null","Agent A","STIM_SET_1_REAL/61537.bmp_pp73_L3_V1.0_veridical_freeview_isoFalse_fps144.mp4"
"","","","call-function","733","2001386","0.0-733.0","mb7x2pfc","","","","","",""
"2347.715000000084","{""pre-1"":2}","[0]","survey-likert","734","2003735","0.0-734.0","mb7x2pfc","","","","","",""
"940.6049999999814","{""pre-2"":2}","[0]","survey-likert","735","2004677","0.0-735.0","mb7x2pfc","","","","","",""
"1116.8000000000466","{""pre-3"":2}","[0]","survey-likert","736","2005795","0.0-736.0","mb7x2pfc","","","","","",""
"985.6899999999441","{""post-5"":1}","[0]","survey-likert","737","2006782","0.0-737.0","mb7x2pfc","","","","","",""
"","","","call-function","738","2006782","0.0-738.0","mb7x2pfc","","","","","",""
"null","","","video-keyboard-response","739","2009861","0.0-739.0","mb7x2pfc","","","","null","Agent A","STIM_SET_1_REAL/1591876.bmp_pp63_L1_V1.0_scrambled_freeview_isoFalse_fps144.mp4"
"","","","call-function","740","2009862","0.0-740.0","mb7x2pfc","","","","","",""
"2650.929999999935","{""pre-1"":1}","[0]","survey-likert","741","2012514","0.0-741.0","mb7x2pfc","","","","","",""
"1615.1650000000373","{""pre-2"":0}","[0]","survey-likert","742","2014130","0.0-742.0","mb7x2pfc","","","","","",""
"1327.7900000000373","{""pre-3"":0}","[0]","survey-likert","743","2015459","0.0-743.0","mb7x2pfc","","","","","",""
"1160.7700000000186","{""post-5"":2}","[0]","survey-likert","744","2016621","0.0-744.0","mb7x2pfc","","","","","",""
"","","","call-function","745","2016621","0.0-745.0","mb7x2pfc","","","","","",""
"null","","","video-keyboard-response","746","2019685","0.0-746.0","mb7x2pfc","","","","null","Agent A","STIM_SET_1_REAL/713681.bmp_pp86_L2_V1.0_scrambled_freeview_isoFalse_fps144.mp4"
"","","","call-function","747","2019686","0.0-747.0","mb7x2pfc","","","","","",""
"2537.1299999998882","{""pre-1"":1}","[0]","survey-likert","748","2022224","0.0-748.0","mb7x2pfc","","","","","",""
"1754.8249999999534","{""pre-2"":1}","[0]","survey-likert","749","2023980","0.0-749.0","mb7x2pfc","","","","","",""
"1832.0600000000559","{""pre-3"":0}","[0]","survey-likert","750","2025814","0.0-750.0","mb7x2pfc","","","","","",""
"2660.6450000000186","{""post-5"":2}","[0]","survey-likert","751","2028476","0.0-751.0","mb7x2pfc","","","","","",""
"","","","call-function","752","2028476","0.0-752.0","mb7x2pfc","","","","","",""
"null","","","video-keyboard-response","753","2031552","0.0-753.0","mb7x2pfc","","","","null","Agent A","STIM_SET_1_REAL/1159855.bmp_pp99_L2_V1.0_scrambled_freeview_isoFalse_fps144.mp4"
"","","","call-function","754","2031552","0.0-754.0","mb7x2pfc","","","","","",""
"1740.125","{""pre-1"":0}","[0]","survey-likert","755","2033293","0.0-755.0","mb7x2pfc","","","","","",""
"1194.8599999998696","{""pre-2"":0}","[0]","survey-likert","756","2034489","0.0-756.0","mb7x2pfc","","","","","",""
"2234.405000000028","{""pre-3"":0}","[0]","survey-likert","757","2036725","0.0-757.0","mb7x2pfc","","","","","",""
"1994.9599999999627","{""post-5"":3}","[0]","survey-likert","758","2038721","0.0-758.0","mb7x2pfc","","","","","",""
"","","","call-function","759","2038722","0.0-759.0","mb7x2pfc","","","","","",""
"null","","","video-keyboard-response","760","2041863","0.0-760.0","mb7x2pfc","","","","null","Agent A","STIM_SET_1_REAL/713211.bmp_pp100_L3_V1.0_veridical_freeview_isoFalse_fps144.mp4"
"","","","call-function","761","2041864","0.0-761.0","mb7x2pfc","","","","","",""
"2852.1650000000373","{""pre-1"":2}","[0]","survey-likert","762","2044717","0.0-762.0","mb7x2pfc","","","","","",""
"4192.709999999963","{""pre-2"":2}","[0]","survey-likert","763","2048911","0.0-763.0","mb7x2pfc","","","","","",""
"3238.0849999999627","{""pre-3"":1}","[0]","survey-likert","764","2052151","0.0-764.0","mb7x2pfc","","","","","",""
"1585.9150000000373","{""post-5"":0}","[0]","survey-likert","765","2053739","0.0-765.0","mb7x2pfc","","","","","",""
"","","","call-function","766","2053740","0.0-766.0","mb7x2pfc","","","","","",""
"null","","","video-keyboard-response","767","2056817","0.0-767.0","mb7x2pfc","","","","null","Agent A","STIM_SET_1_REAL/713666.bmp_pp97_L3_V1.0_scrambled_freeview_isoFalse_fps144.mp4"
"","","","call-function","768","2056818","0.0-768.0","mb7x2pfc","","","","","",""
"2609.810000000056","{""pre-1"":1}","[0]","survey-likert","769","2059429","0.0-769.0","mb7x2pfc","","","","","",""
"4590.60999999987","{""pre-2"":0}","[0]","survey-likert","770","2064021","0.0-770.0","mb7x2pfc","","","","","",""
"971.184999999823","{""pre-3"":0}","[0]","survey-likert","771","2064993","0.0-771.0","mb7x2pfc","","","","","",""
"1805.4299999999348","{""post-5"":2}","[0]","survey-likert","772","2066800","0.0-772.0","mb7x2pfc","","","","","",""
"","","","call-function","773","2066800","0.0-773.0","mb7x2pfc","","","","","",""
"null","","","video-keyboard-response","774","2069864","0.0-774.0","mb7x2pfc","","","","null","Agent A","STIM_SET_1_REAL/713779.bmp_pp152_L2_V1.0_scrambled_freeview_isoFalse_fps144.mp4"
"","","","call-function","775","2069864","0.0-775.0","mb7x2pfc","","","","","",""
"14081.59999999986","{""pre-1"":1}","[0]","survey-likert","776","2083947","0.0-776.0","mb7x2pfc","","","","","",""
"2314.9499999999534","{""pre-2"":1}","[0]","survey-likert","777","2086263","0.0-777.0","mb7x2pfc","","","","","",""
"1177.7649999998976","{""pre-3"":0}","[0]","survey-likert","778","2087442","0.0-778.0","mb7x2pfc","","","","","",""
"1139.7300000002142","{""post-5"":2}","[0]","survey-likert","779","2088583","0.0-779.0","mb7x2pfc","","","","","",""
"","","","call-function","780","2088583","0.0-780.0","mb7x2pfc","","","","","",""
"null","","","video-keyboard-response","781","2091653","0.0-781.0","mb7x2pfc","","","","null","Agent A","STIM_SET_1_REAL/713135.bmp_pp54_L2_V1.0_veridical_freeview_isoFalse_fps144.mp4"
"","","","call-function","782","2091653","0.0-782.0","mb7x2pfc","","","","","",""
"2823.910000000149","{""pre-1"":1}","[0]","survey-likert","783","2094478","0.0-783.0","mb7x2pfc","","","","","",""
"891.8600000001024","{""pre-2"":1}","[0]","survey-likert","784","2095371","0.0-784.0","mb7x2pfc","","","","","",""
"1486.8049999999348","{""pre-3"":0}","[0]","survey-likert","785","2096859","0.0-785.0","mb7x2pfc","","","","","",""
"1586.9449999998324","{""post-5"":2}","[0]","survey-likert","786","2098447","0.0-786.0","mb7x2pfc","","","","","",""
"","","","call-function","787","2098448","0.0-787.0","mb7x2pfc","","","","","",""
"null","","","video-keyboard-response","788","2101532","0.0-788.0","mb7x2pfc","","","","null","Agent A","STIM_SET_1_REAL/1591961.bmp_pp67_L2_V1.0_scrambled_freeview_isoFalse_fps144.mp4"
"","","","call-function","789","2101532","0.0-789.0","mb7x2pfc","","","","","",""
"1896.4150000000373","{""pre-1"":0}","[0]","survey-likert","790","2103430","0.0-790.0","mb7x2pfc","","","","","",""
"1143.4350000000559","{""pre-2"":0}","[0]","survey-likert","791","2104576","0.0-791.0","mb7x2pfc","","","","","",""
"1353.8400000003166","{""pre-3"":0}","[0]","survey-likert","792","2105931","0.0-792.0","mb7x2pfc","","","","","",""
"1709.339999999851","{""post-5"":3}","[0]","survey-likert","793","2107642","0.0-793.0","mb7x2pfc","","","","","",""
"","","","call-function","794","2107643","0.0-794.0","mb7x2pfc","","","","","",""
"null","","","video-keyboard-response","795","2110719","0.0-795.0","mb7x2pfc","","","","null","Agent A","STIM_SET_1_REAL/498175.bmp_pp154_L1_V1.0_scrambled_freeview_isoFalse_fps144.mp4"
"","","","call-function","796","2110720","0.0-796.0","mb7x2pfc","","","","","",""
"2806.6049999999814","{""pre-1"":2}","[0]","survey-likert","797","2113528","0.0-797.0","mb7x2pfc","","","","","",""
"2060.2299999999814","{""pre-2"":2}","[0]","survey-likert","798","2115589","0.0-798.0","mb7x2pfc","","","","","",""
"2757.375","{""pre-3"":1}","[0]","survey-likert","799","2118348","0.0-799.0","mb7x2pfc","","","","","",""
"4972.629999999888","{""post-5"":0}","[0]","survey-likert","800","2123322","0.0-800.0","mb7x2pfc","","","","","",""
"","","","call-function","801","2123323","0.0-801.0","mb7x2pfc","","","","","",""
"null","","","video-keyboard-response","802","2126389","0.0-802.0","mb7x2pfc","","","","null","Agent A","STIM_SET_1_REAL/713089.bmp_pp60_L3_V1.0_scrambled_freeview_isoFalse_fps144.mp4"
"","","","call-function","803","2126390","0.0-803.0","mb7x2pfc","","","","","",""
"3433.4550000000745","{""pre-1"":2}","[0]","survey-likert","804","2129824","0.0-804.0","mb7x2pfc","","","","","",""
"924.8349999999627","{""pre-2"":1}","[0]","survey-likert","805","2130750","0.0-805.0","mb7x2pfc","","","","","",""
"895.4599999999627","{""pre-3"":1}","[0]","survey-likert","806","2131647","0.0-806.0","mb7x2pfc","","","","","",""
"2178.1749999998137","{""post-5"":0}","[0]","survey-likert","807","2133826","0.0-807.0","mb7x2pfc","","","","","",""
"","","","call-function","808","2133827","0.0-808.0","mb7x2pfc","","","","","",""
"null","","","video-keyboard-response","809","2136900","0.0-809.0","mb7x2pfc","","","","null","Agent A","STIM_SET_1_REAL/713371.bmp_pp68_L1_V1.0_scrambled_freeview_isoFalse_fps144.mp4"
"","","","call-function","810","2136901","0.0-810.0","mb7x2pfc","","","","","",""
"2550.0550000001676","{""pre-1"":1}","[0]","survey-likert","811","2139452","0.0-811.0","mb7x2pfc","","","","","",""
"1456.964999999851","{""pre-2"":0}","[0]","survey-likert","812","2140910","0.0-812.0","mb7x2pfc","","","","","",""
"1033.630000000354","{""pre-3"":0}","[0]","survey-likert","813","2141945","0.0-813.0","mb7x2pfc","","","","","",""
"1595.054999999702","{""post-5"":3}","[0]","survey-likert","814","2143541","0.0-814.0","mb7x2pfc","","","","","",""
"","","","call-function","815","2143542","0.0-815.0","mb7x2pfc","","","","","",""
"null","","","video-keyboard-response","816","2146618","0.0-816.0","mb7x2pfc","","","","null","Agent A","STIM_SET_1_REAL/1159855.bmp_pp99_L2_V1.0_veridical_freeview_isoFalse_fps144.mp4"
"","","","call-function","817","2146619","0.0-817.0","mb7x2pfc","","","","","",""
"3410.1650000000373","{""pre-1"":3}","[0]","survey-likert","818","2150031","0.0-818.0","mb7x2pfc","","","","","",""
"2215.1699999999255","{""pre-2"":3}","[0]","survey-likert","819","2152249","0.0-819.0","mb7x2pfc","","","","","",""
"2037.7099999999627","{""pre-3"":3}","[0]","survey-likert","820","2154288","0.0-820.0","mb7x2pfc","","","","","",""
"1126.1200000001118","{""post-5"":0}","[0]","survey-likert","821","2155415","0.0-821.0","mb7x2pfc","","","","","",""
"","","","call-function","822","2155416","0.0-822.0","mb7x2pfc","","","","","",""
"null","","","video-keyboard-response","823","2158492","0.0-823.0","mb7x2pfc","","","","null","Agent A","STIM_SET_1_REAL/712977.bmp_pp51_L1_V1.0_scrambled_freeview_isoFalse_fps144.mp4"
"","","","call-function","824","2158493","0.0-824.0","mb7x2pfc","","","","","",""
"5351.054999999702","{""pre-1"":1}","[0]","survey-likert","825","2163845","0.0-825.0","mb7x2pfc","","","","","",""
"1731.0500000002794","{""pre-2"":0}","[0]","survey-likert","826","2165577","0.0-826.0","mb7x2pfc","","","","","",""
"1992.1299999998882","{""pre-3"":0}","[0]","survey-likert","827","2167571","0.0-827.0","mb7x2pfc","","","","","",""
"2130.1650000000373","{""post-5"":3}","[0]","survey-likert","828","2169702","0.0-828.0","mb7x2pfc","","","","","",""
"","","","call-function","829","2169703","0.0-829.0","mb7x2pfc","","","","","",""
"null","","","video-keyboard-response","830","2172783","0.0-830.0","mb7x2pfc","","","","null","Agent A","STIM_SET_1_REAL/1593146.bmp_pp93_L1_V1.0_scrambled_freeview_isoFalse_fps144.mp4"
"","","","call-function","831","2172783","0.0-831.0","mb7x2pfc","","","","","",""
"2586.5400000000373","{""pre-1"":2}","[0]","survey-likert","832","2175371","0.0-832.0","mb7x2pfc","","","","","",""
"1804.2800000002608","{""pre-2"":2}","[0]","survey-likert","833","2177176","0.0-833.0","mb7x2pfc","","","","","",""
"1119.8150000004098","{""pre-3"":1}","[0]","survey-likert","834","2178297","0.0-834.0","mb7x2pfc","","","","","",""
"1817.9850000003353","{""post-5"":0}","[0]","survey-likert","835","2180116","0.0-835.0","mb7x2pfc","","","","","",""
"","","","call-function","836","2180117","0.0-836.0","mb7x2pfc","","","","","",""
