"rt","responses","question_order","trial_type","trial_index","time_elapsed","internal_node_id","ID","view_history","value","stimulus","key_press","agent","image"
"219416.565","{""Experimenter"":[""Confirmed subject's identity (ID card)"",""Confirmed normal or corrected-to-normal vision"",""Obtained consent (signature and date)"",""Checked the test room lighting"",""Checked computer screen lighting"",""Checked distance from screen to chin rest (50cm)"",""Cleaned and adjusted chin rest"",""Counterbalanced the order of the tasks"",""Opened the experiment in Firefox"",""Made the experiment full screen"",""Encouraged subject to silence phone, put away distractors, etc.""]}","[0]","survey-multi-select","0","219425","0.0-0.0","mmt4o8yy","","","","","",""
"32810.06","","","instructions","1","252237","0.0-1.0","mmt4o8yy","[{""page_index"":0,""viewing_time"":32809.905}]","","","","",""
"7498.420000000013","{""Age"":1,""Sex"":1,""Gender"":1}","[0,1,2]","survey-likert","2","259737","0.0-2.0","mmt4o8yy","","","","","",""
"1537.5899999999965","","","instructions","3","261275","0.0-3.0","mmt4o8yy","[{""page_index"":0,""viewing_time"":1537.4899999999907}]","","","","",""
"5320.695000000007","","","instructions","4","266596","0.0-4.0","mmt4o8yy","[{""page_index"":0,""viewing_time"":3604.5449999999837},{""page_index"":1,""viewing_time"":1716.030000000028}]","","","","",""
"10916.164999999979","","","instructions","5","277514","0.0-5.0","mmt4o8yy","[{""page_index"":0,""viewing_time"":1713.5849999999627},{""page_index"":1,""viewing_time"":3949.890000000014},{""page_index"":2,""viewing_time"":5252.094999999972}]","","","","",""
"2525.1650000000373","","","instructions","6","280040","0.0-6.0","mmt4o8yy","[{""page_index"":0,""viewing_time"":2525.055000000051}]","","","","",""
"","","","call-function","7","280041","0.0-7.0","mmt4o8yy","","","","","",""
"null","","","video-keyboard-response","8","283114","0.0-8.0","mmt4o8yy","","","","null","",""
"","","","call-function","9","283114","0.0-9.0","mmt4o8yy","","","","","",""
"8982.909999999974","","","instructions","10","292097","0.0-10.0","mmt4o8yy","[{""page_index"":0,""viewing_time"":3124.835000000021},{""page_index"":1,""viewing_time"":1723.0599999999977},{""page_index"":2,""viewing_time"":887.929999999993},{""page_index"":3,""viewing_time"":3246.9799999999814}]","","","","",""
"1212.905000000028","","","instructions","11","293311","0.0-11.0","mmt4o8yy","[{""page_index"":0,""viewing_time"":1212.7949999999837}]","","","","",""
"","","","call-function","12","293311","0.0-12.0","mmt4o8yy","","","","","",""
"null","","","video-keyboard-response","13","296388","0.0-13.0","mmt4o8yy","","","","null","",""
"","","","call-function","14","296388","0.0-14.0","mmt4o8yy","","","","","",""
"26883.42499999999","{""pre-1"":1}","[0]","survey-likert","15","323273","0.0-15.0","mmt4o8yy","","","","","",""
"13619.840000000026","{""pre-2"":2}","[0]","survey-likert","16","336894","0.0-16.0","mmt4o8yy","","","","","",""
"3994.6849999999977","{""pre-3"":1}","[0]","survey-likert","17","340890","0.0-17.0","mmt4o8yy","","","","","",""
"4068.274999999965","{""post-5"":2}","[0]","survey-likert","18","344959","0.0-18.0","mmt4o8yy","","","","","",""
"1285.1299999999464","","","instructions","19","346244","0.0-19.0","mmt4o8yy","[{""page_index"":0,""viewing_time"":1285.024999999965}]","","","","",""
"3828.030000000028","","","instructions","20","350073","0.0-20.0","mmt4o8yy","[{""page_index"":0,""viewing_time"":3827.8250000000116}]","","","","",""
"","","","call-function","21","350073","0.0-21.0","mmt4o8yy","","","","","",""
"null","","","video-keyboard-response","22","353149","0.0-22.0","mmt4o8yy","","","","null","Agent A","STIM_SET_1_REAL/1159784.bmp_pp73_L3_V1.0_scrambled_freeview_isoFalse_fps144.mp4"
"","","","call-function","23","353149","0.0-23.0","mmt4o8yy","","","","","",""
"5970.875","{""pre-1"":1}","[0]","survey-likert","24","359121","0.0-24.0","mmt4o8yy","","","","","",""
"5314.354999999981","{""pre-2"":1}","[0]","survey-likert","25","364436","0.0-25.0","mmt4o8yy","","","","","",""
"4835.739999999991","{""pre-3"":1}","[0]","survey-likert","26","369273","0.0-26.0","mmt4o8yy","","","","","",""
"2822.0050000000047","{""post-5"":3}","[0]","survey-likert","27","372096","0.0-27.0","mmt4o8yy","","","","","",""
"","","","call-function","28","372096","0.0-28.0","mmt4o8yy","","","","","",""
"null","","","video-keyboard-response","29","375163","0.0-29.0","mmt4o8yy","","","","null","Agent A","STIM_SET_1_REAL/713513.bmp_pp62_L2_V1.0_scrambled_freeview_isoFalse_fps144.mp4"
"","","","call-function","30","375163","0.0-30.0","mmt4o8yy","","","","","",""
"7877.544999999984","{""pre-1"":2}","[0]","survey-likert","31","383041","0.0-31.0","mmt4o8yy","","","","","",""
"2824.515000000014","{""pre-2"":1}","[0]","survey-likert","32","385867","0.0-32.0","mmt4o8yy","","","","","",""
"4936.079999999958","{""pre-3"":2}","[0]","survey-likert","33","390804","0.0-33.0","mmt4o8yy","","","","","",""
"9995.48000000004","{""post-5"":1}","[0]","survey-likert","34","400801","0.0-34.0","mmt4o8yy","","","","","",""
"","","","call-function","35","400802","0.0-35.0","mmt4o8yy","","","","","",""
"null","","","video-keyboard-response","36","403879","0.0-36.0","mmt4o8yy","","","","null","Agent A","STIM_SET_1_REAL/1592807.bmp_pp68_L1_V1.0_veridical_freeview_isoFalse_fps144.mp4"
"","","","call-function","37","403879","0.0-37.0","mmt4o8yy","","","","","",""
"5090.359999999986","{""pre-1"":3}","[0]","survey-likert","38","408971","0.0-38.0","mmt4o8yy","","","","","",""
"2896.734999999986","{""pre-2"":0}","[0]","survey-likert","39","411868","0.0-39.0","mmt4o8yy","","","","","",""
"5210.469999999972","{""pre-3"":0}","[0]","survey-likert","40","417081","0.0-40.0","mmt4o8yy","","","","","",""
"2992.905000000028","{""post-5"":3}","[0]","survey-likert","41","420075","0.0-41.0","mmt4o8yy","","","","","",""
"","","","call-function","42","420075","0.0-42.0","mmt4o8yy","","","","","",""
"null","","","video-keyboard-response","43","423153","0.0-43.0","mmt4o8yy","","","","null","Agent A","STIM_SET_1_REAL/713760.bmp_pp81_L1_V1.0_scrambled_freeview_isoFalse_fps144.mp4"
"","","","call-function","44","423154","0.0-44.0","mmt4o8yy","","","","","",""
"4068.7900000000373","{""pre-1"":2}","[0]","survey-likert","45","427224","0.0-45.0","mmt4o8yy","","","","","",""
"9439.200000000012","{""pre-2"":1}","[0]","survey-likert","46","436664","0.0-46.0","mmt4o8yy","","","","","",""
"2968.6599999999744","{""pre-3"":1}","[0]","survey-likert","47","439634","0.0-47.0","mmt4o8yy","","","","","",""
"4411.009999999951","{""post-5"":2}","[0]","survey-likert","48","444046","0.0-48.0","mmt4o8yy","","","","","",""
"","","","call-function","49","444046","0.0-49.0","mmt4o8yy","","","","","",""
"null","","","video-keyboard-response","50","447108","0.0-50.0","mmt4o8yy","","","","null","Agent A","STIM_SET_1_REAL/1159447.bmp_pp70_L2_V1.0_scrambled_freeview_isoFalse_fps144.mp4"
"","","","call-function","51","447108","0.0-51.0","mmt4o8yy","","","","","",""
"3449.259999999951","{""pre-1"":2}","[0]","survey-likert","52","450559","0.0-52.0","mmt4o8yy","","","","","",""
"8973.125","{""pre-2"":1}","[0]","survey-likert","53","459534","0.0-53.0","mmt4o8yy","","","","","",""
"5583.215000000026","{""pre-3"":1}","[0]","survey-likert","54","465118","0.0-54.0","mmt4o8yy","","","","","",""
"2361.875","{""post-5"":2}","[0]","survey-likert","55","467481","0.0-55.0","mmt4o8yy","","","","","",""
"","","","call-function","56","467482","0.0-56.0","mmt4o8yy","","","","","",""
"null","","","video-keyboard-response","57","470553","0.0-57.0","mmt4o8yy","","","","null","Agent A","STIM_SET_1_REAL/1159440.bmp_pp98_L1_V1.0_veridical_freeview_isoFalse_fps144.mp4"
"","","","call-function","58","470553","0.0-58.0","mmt4o8yy","","","","","",""
"8071.020000000019","{""pre-1"":2}","[0]","survey-likert","59","478625","0.0-59.0","mmt4o8yy","","","","","",""
"3726.054999999993","{""pre-2"":2}","[0]","survey-likert","60","482352","0.0-60.0","mmt4o8yy","","","","","",""
"3087.8699999999953","{""pre-3"":2}","[0]","survey-likert","61","485441","0.0-61.0","mmt4o8yy","","","","","",""
"2792.8800000000047","{""post-5"":2}","[0]","survey-likert","62","488235","0.0-62.0","mmt4o8yy","","","","","",""
"","","","call-function","63","488236","0.0-63.0","mmt4o8yy","","","","","",""
"null","","","video-keyboard-response","64","491303","0.0-64.0","mmt4o8yy","","","","null","Agent A","STIM_SET_1_REAL/1592286.bmp_pp52_L1_V1.0_veridical_freeview_isoFalse_fps144.mp4"
"","","","call-function","65","491303","0.0-65.0","mmt4o8yy","","","","","",""
"10801.825000000012","{""pre-1"":2}","[0]","survey-likert","66","502106","0.0-66.0","mmt4o8yy","","","","","",""
"2908.0100000000093","{""pre-2"":2}","[0]","survey-likert","67","505015","0.0-67.0","mmt4o8yy","","","","","",""
"2524.320000000007","{""pre-3"":2}","[0]","survey-likert","68","507540","0.0-68.0","mmt4o8yy","","","","","",""
"2462.0900000000256","{""post-5"":1}","[0]","survey-likert","69","510003","0.0-69.0","mmt4o8yy","","","","","",""
"","","","call-function","70","510004","0.0-70.0","mmt4o8yy","","","","","",""
"null","","","video-keyboard-response","71","513082","0.0-71.0","mmt4o8yy","","","","null","Agent A","STIM_SET_1_REAL/285751.bmp_pp55_L3_V1.0_scrambled_freeview_isoFalse_fps144.mp4"
"","","","call-function","72","513082","0.0-72.0","mmt4o8yy","","","","","",""
"9574.809999999998","{""pre-1"":2}","[0]","survey-likert","73","522658","0.0-73.0","mmt4o8yy","","","","","",""
"3474.420000000042","{""pre-2"":2}","[0]","survey-likert","74","526133","0.0-74.0","mmt4o8yy","","","","","",""
"2983.57500000007","{""pre-3"":1}","[0]","survey-likert","75","529118","0.0-75.0","mmt4o8yy","","","","","",""
"2240.609999999986","{""post-5"":2}","[0]","survey-likert","76","531361","0.0-76.0","mmt4o8yy","","","","","",""
"","","","call-function","77","531362","0.0-77.0","mmt4o8yy","","","","","",""
"null","","","video-keyboard-response","78","534443","0.0-78.0","mmt4o8yy","","","","null","Agent A","STIM_SET_1_REAL/713666.bmp_pp97_L3_V1.0_veridical_freeview_isoFalse_fps144.mp4"
"","","","call-function","79","534443","0.0-79.0","mmt4o8yy","","","","","",""
"3360.1149999999907","{""pre-1"":1}","[0]","survey-likert","80","537804","0.0-80.0","mmt4o8yy","","","","","",""
"4164.444999999949","{""pre-2"":3}","[0]","survey-likert","81","541970","0.0-81.0","mmt4o8yy","","","","","",""
"2209.1450000000186","{""pre-3"":3}","[0]","survey-likert","82","544180","0.0-82.0","mmt4o8yy","","","","","",""
"3195.8649999999907","{""post-5"":3}","[0]","survey-likert","83","547377","0.0-83.0","mmt4o8yy","","","","","",""
"","","","call-function","84","547378","0.0-84.0","mmt4o8yy","","","","","",""
"null","","","video-keyboard-response","85","550454","0.0-85.0","mmt4o8yy","","","","null","Agent A","STIM_SET_1_REAL/1159777.bmp_pp77_L3_V1.0_scrambled_freeview_isoFalse_fps144.mp4"
"","","","call-function","86","550454","0.0-86.0","mmt4o8yy","","","","","",""
"3767.0950000000885","{""pre-1"":3}","[0]","survey-likert","87","554223","0.0-87.0","mmt4o8yy","","","","","",""
"6619.515000000014","{""pre-2"":0}","[0]","survey-likert","88","560843","0.0-88.0","mmt4o8yy","","","","","",""
"11494.834999999963","{""pre-3"":0}","[0]","survey-likert","89","572339","0.0-89.0","mmt4o8yy","","","","","",""
"2535.1450000000186","{""post-5"":3}","[0]","survey-likert","90","574875","0.0-90.0","mmt4o8yy","","","","","",""
"","","","call-function","91","574875","0.0-91.0","mmt4o8yy","","","","","",""
"null","","","video-keyboard-response","92","577941","0.0-92.0","mmt4o8yy","","","","null","Agent A","STIM_SET_1_REAL/1592934.bmp_pp63_L1_V1.0_veridical_freeview_isoFalse_fps144.mp4"
"","","","call-function","93","577942","0.0-93.0","mmt4o8yy","","","","","",""
"6941.900000000023","{""pre-1"":2}","[0]","survey-likert","94","584884","0.0-94.0","mmt4o8yy","","","","","",""
"3799.719999999972","{""pre-2"":1}","[0]","survey-likert","95","588685","0.0-95.0","mmt4o8yy","","","","","",""
"3433.1049999999814","{""pre-3"":1}","[0]","survey-likert","96","592119","0.0-96.0","mmt4o8yy","","","","","",""
"2546.430000000051","{""post-5"":2}","[0]","survey-likert","97","594667","0.0-97.0","mmt4o8yy","","","","","",""
"","","","call-function","98","594668","0.0-98.0","mmt4o8yy","","","","","",""
"null","","","video-keyboard-response","99","597759","0.0-99.0","mmt4o8yy","","","","null","Agent A","STIM_SET_1_REAL/1159813.bmp_pp79_L2_V1.0_scrambled_freeview_isoFalse_fps144.mp4"
"","","","call-function","100","597760","0.0-100.0","mmt4o8yy","","","","","",""
"5484.95000000007","{""pre-1"":2}","[0]","survey-likert","101","603246","0.0-101.0","mmt4o8yy","","","","","",""
"2230.2900000000373","{""pre-2"":2}","[0]","survey-likert","102","605477","0.0-102.0","mmt4o8yy","","","","","",""
"2977.280000000028","{""pre-3"":1}","[0]","survey-likert","103","608456","0.0-103.0","mmt4o8yy","","","","","",""
"3133.1600000000326","{""post-5"":3}","[0]","survey-likert","104","611590","0.0-104.0","mmt4o8yy","","","","","",""
"","","","call-function","105","611590","0.0-105.0","mmt4o8yy","","","","","",""
"null","","","video-keyboard-response","106","614664","0.0-106.0","mmt4o8yy","","","","null","Agent A","STIM_SET_1_REAL/61537.bmp_pp73_L3_V1.0_scrambled_freeview_isoFalse_fps144.mp4"
"","","","call-function","107","614664","0.0-107.0","mmt4o8yy","","","","","",""
"4598.055000000051","{""pre-1"":3}","[0]","survey-likert","108","619264","0.0-108.0","mmt4o8yy","","","","","",""
"2530.9499999999534","{""pre-2"":0}","[0]","survey-likert","109","621796","0.0-109.0","mmt4o8yy","","","","","",""
"4946.489999999991","{""pre-3"":0}","[0]","survey-likert","110","626743","0.0-110.0","mmt4o8yy","","","","","",""
"2840.179999999935","{""post-5"":3}","[0]","survey-likert","111","629584","0.0-111.0","mmt4o8yy","","","","","",""
"","","","call-function","112","629585","0.0-112.0","mmt4o8yy","","","","","",""
"null","","","video-keyboard-response","113","632651","0.0-113.0","mmt4o8yy","","","","null","Agent A","STIM_SET_1_REAL/1592727.bmp_pp59_L3_V1.0_veridical_freeview_isoFalse_fps144.mp4"
"","","","call-function","114","632651","0.0-114.0","mmt4o8yy","","","","","",""
"3799.7900000000373","{""pre-1"":1}","[0]","survey-likert","115","636452","0.0-115.0","mmt4o8yy","","","","","",""
"2929.0500000000466","{""pre-2"":2}","[0]","survey-likert","116","639382","0.0-116.0","mmt4o8yy","","","","","",""
"3987.545000000042","{""pre-3"":3}","[0]","survey-likert","117","643371","0.0-117.0","mmt4o8yy","","","","","",""
"4108.515000000014","{""post-5"":1}","[0]","survey-likert","118","647480","0.0-118.0","mmt4o8yy","","","","","",""
"","","","call-function","119","647480","0.0-119.0","mmt4o8yy","","","","","",""
"null","","","video-keyboard-response","120","650550","0.0-120.0","mmt4o8yy","","","","null","Agent A","STIM_SET_1_REAL/1159829.bmp_pp91_L3_V1.0_scrambled_freeview_isoFalse_fps144.mp4"
"","","","call-function","121","650550","0.0-121.0","mmt4o8yy","","","","","",""
"7784.490000000107","{""pre-1"":1}","[0]","survey-likert","122","658336","0.0-122.0","mmt4o8yy","","","","","",""
"5940.0599999999395","{""pre-2"":3}","[0]","survey-likert","123","664278","0.0-123.0","mmt4o8yy","","","","","",""
"2745.5800000000745","{""pre-3"":3}","[0]","survey-likert","124","667025","0.0-124.0","mmt4o8yy","","","","","",""
"3303.7649999998976","{""post-5"":1}","[0]","survey-likert","125","670330","0.0-125.0","mmt4o8yy","","","","","",""
"","","","call-function","126","670331","0.0-126.0","mmt4o8yy","","","","","",""
"null","","","video-keyboard-response","127","673401","0.0-127.0","mmt4o8yy","","","","null","Agent A","STIM_SET_1_REAL/1159515.bmp_pp84_L3_V1.0_scrambled_freeview_isoFalse_fps144.mp4"
"","","","call-function","128","673402","0.0-128.0","mmt4o8yy","","","","","",""
"8678.985000000102","{""pre-1"":2}","[0]","survey-likert","129","682082","0.0-129.0","mmt4o8yy","","","","","",""
"5016.880000000005","{""pre-2"":2}","[0]","survey-likert","130","687099","0.0-130.0","mmt4o8yy","","","","","",""
"3510.164999999921","{""pre-3"":1}","[0]","survey-likert","131","690611","0.0-131.0","mmt4o8yy","","","","","",""
"2569.930000000051","{""post-5"":2}","[0]","survey-likert","132","693182","0.0-132.0","mmt4o8yy","","","","","",""
"","","","call-function","133","693182","0.0-133.0","mmt4o8yy","","","","","",""
"null","","","video-keyboard-response","134","696242","0.0-134.0","mmt4o8yy","","","","null","Agent A","STIM_SET_1_REAL/1592619.bmp_pp56_L3_V1.0_veridical_freeview_isoFalse_fps144.mp4"
"","","","call-function","135","696243","0.0-135.0","mmt4o8yy","","","","","",""
"9317","{""pre-1"":1}","[0]","survey-likert","136","705561","0.0-136.0","mmt4o8yy","","","","","",""
"5520.710000000079","{""pre-2"":1}","[0]","survey-likert","137","711082","0.0-137.0","mmt4o8yy","","","","","",""
"4966.334999999963","{""pre-3"":1}","[0]","survey-likert","138","716050","0.0-138.0","mmt4o8yy","","","","","",""
"3611.0650000000605","{""post-5"":2}","[0]","survey-likert","139","719662","0.0-139.0","mmt4o8yy","","","","","",""
"","","","call-function","140","719663","0.0-140.0","mmt4o8yy","","","","","",""
"null","","","video-keyboard-response","141","722738","0.0-141.0","mmt4o8yy","","","","null","Agent A","STIM_SET_1_REAL/1592657.bmp_pp98_L1_V1.0_veridical_freeview_isoFalse_fps144.mp4"
"","","","call-function","142","722739","0.0-142.0","mmt4o8yy","","","","","",""
"5064.630000000005","{""pre-1"":1}","[0]","survey-likert","143","727804","0.0-143.0","mmt4o8yy","","","","","",""
"6565.380000000005","{""pre-2"":2}","[0]","survey-likert","144","734371","0.0-144.0","mmt4o8yy","","","","","",""
"2655.219999999972","{""pre-3"":1}","[0]","survey-likert","145","737028","0.0-145.0","mmt4o8yy","","","","","",""
"2784.70000000007","{""post-5"":2}","[0]","survey-likert","146","739814","0.0-146.0","mmt4o8yy","","","","","",""
"","","","call-function","147","739815","0.0-147.0","mmt4o8yy","","","","","",""
"null","","","video-keyboard-response","148","742893","0.0-148.0","mmt4o8yy","","","","null","Agent A","STIM_SET_1_REAL/1591994.bmp_pp69_L3_V1.0_scrambled_freeview_isoFalse_fps144.mp4"
"","","","call-function","149","742893","0.0-149.0","mmt4o8yy","","","","","",""
"13842.17499999993","{""pre-1"":2}","[0]","survey-likert","150","756737","0.0-150.0","mmt4o8yy","","","","","",""
"9259.834999999963","{""pre-2"":1}","[0]","survey-likert","151","765998","0.0-151.0","mmt4o8yy","","","","","",""
"2874.3850000000093","{""pre-3"":1}","[0]","survey-likert","152","768873","0.0-152.0","mmt4o8yy","","","","","",""
"2474.32500000007","{""post-5"":2}","[0]","survey-likert","153","771348","0.0-153.0","mmt4o8yy","","","","","",""
"","","","call-function","154","771349","0.0-154.0","mmt4o8yy","","","","","",""
"null","","","video-keyboard-response","155","774420","0.0-155.0","mmt4o8yy","","","","null","Agent A","STIM_SET_1_REAL/1159768.bmp_pp89_L1_V1.0_veridical_freeview_isoFalse_fps144.mp4"
"","","","call-function","156","774420","0.0-156.0","mmt4o8yy","","","","","",""
"9633.705000000075","{""pre-1"":1}","[0]","survey-likert","157","784055","0.0-157.0","mmt4o8yy","","","","","",""
"5154.780000000028","{""pre-2"":2}","[0]","survey-likert","158","789210","0.0-158.0","mmt4o8yy","","","","","",""
"8667.069999999949","{""pre-3"":2}","[0]","survey-likert","159","797878","0.0-159.0","mmt4o8yy","","","","","",""
"7003.040000000037","{""post-5"":1}","[0]","survey-likert","160","804882","0.0-160.0","mmt4o8yy","","","","","",""
"44555.71999999997","","","instructions","161","849439","0.0-161.0","mmt4o8yy","[{""page_index"":0,""viewing_time"":1293.3049999999348},{""page_index"":1,""viewing_time"":42236.99000000011},{""page_index"":2,""viewing_time"":1025.25}]","","","","",""
"6658.464999999967","","","instructions","162","856097","0.0-162.0","mmt4o8yy","[{""page_index"":0,""viewing_time"":712.1199999999953},{""page_index"":1,""viewing_time"":5172.094999999972},{""page_index"":2,""viewing_time"":774.1350000000093}]","","","","",""
"","","","call-function","163","856098","0.0-163.0","mmt4o8yy","","","","","",""
"null","","","video-keyboard-response","164","859174","0.0-164.0","mmt4o8yy","","","","null","Agent A","STIM_SET_1_REAL/498253.bmp_pp67_L2_V1.0_scrambled_freeview_isoFalse_fps144.mp4"
"","","","call-function","165","859174","0.0-165.0","mmt4o8yy","","","","","",""
"12711.244999999995","{""pre-1"":2}","[0]","survey-likert","166","871886","0.0-166.0","mmt4o8yy","","","","","",""
"4957.045000000042","{""pre-2"":2}","[0]","survey-likert","167","876845","0.0-167.0","mmt4o8yy","","","","","",""
"4486.344999999972","{""pre-3"":2}","[0]","survey-likert","168","881332","0.0-168.0","mmt4o8yy","","","","","",""
"4164.9349999999395","{""post-5"":0}","[0]","survey-likert","169","885499","0.0-169.0","mmt4o8yy","","","","","",""
"","","","call-function","170","885500","0.0-170.0","mmt4o8yy","","","","","",""
"null","","","video-keyboard-response","171","888575","0.0-171.0","mmt4o8yy","","","","null","Agent A","STIM_SET_1_REAL/1160127.bmp_pp90_L2_V1.0_veridical_freeview_isoFalse_fps144.mp4"
"","","","call-function","172","888575","0.0-172.0","mmt4o8yy","","","","","",""
"2991.954999999958","{""pre-1"":2}","[0]","survey-likert","173","891568","0.0-173.0","mmt4o8yy","","","","","",""
"3600.420000000042","{""pre-2"":3}","[0]","survey-likert","174","895170","0.0-174.0","mmt4o8yy","","","","","",""
"3829.7850000000326","{""pre-3"":3}","[0]","survey-likert","175","899001","0.0-175.0","mmt4o8yy","","","","","",""
"3048.7750000000233","{""post-5"":0}","[0]","survey-likert","176","902051","0.0-176.0","mmt4o8yy","","","","","",""
"","","","call-function","177","902051","0.0-177.0","mmt4o8yy","","","","","",""
"null","","","video-keyboard-response","178","905127","0.0-178.0","mmt4o8yy","","","","null","Agent A","STIM_SET_1_REAL/1591876.bmp_pp63_L1_V1.0_scrambled_freeview_isoFalse_fps144.mp4"
"","","","call-function","179","905128","0.0-179.0","mmt4o8yy","","","","","",""
"3604.8499999999767","{""pre-1"":0}","[0]","survey-likert","180","908734","0.0-180.0","mmt4o8yy","","","","","",""
"2094.945000000065","{""pre-2"":0}","[0]","survey-likert","181","910829","0.0-181.0","mmt4o8yy","","","","","",""
"4215.789999999921","{""pre-3"":0}","[0]","survey-likert","182","915047","0.0-182.0","mmt4o8yy","","","","","",""
"2683.314999999944","{""post-5"":3}","[0]","survey-likert","183","917731","0.0-183.0","mmt4o8yy","","","","","",""
"","","","call-function","184","917731","0.0-184.0","mmt4o8yy","","","","","",""
"null","","","video-keyboard-response","185","920807","0.0-185.0","mmt4o8yy","","","","null","Agent A","STIM_SET_1_REAL/713371.bmp_pp68_L1_V1.0_scrambled_freeview_isoFalse_fps144.mp4"
"","","","call-function","186","920807","0.0-186.0","mmt4o8yy","","","","","",""
"4869.42499999993","{""pre-1"":0}","[0]","survey-likert","187","925677","0.0-187.0","mmt4o8yy","","","","","",""
"6138.520000000019","{""pre-2"":0}","[0]","survey-likert","188","931818","0.0-188.0","mmt4o8yy","","","","","",""
"2513.7249999999767","{""pre-3"":0}","[0]","survey-likert","189","934333","0.0-189.0","mmt4o8yy","","","","","",""
"1835.109999999986","{""post-5"":3}","[0]","survey-likert","190","936170","0.0-190.0","mmt4o8yy","","","","","",""
"","","","call-function","191","936171","0.0-191.0","mmt4o8yy","","","","","",""
"null","","","video-keyboard-response","192","939250","0.0-192.0","mmt4o8yy","","","","null","Agent A","STIM_SET_1_REAL/1592807.bmp_pp68_L1_V1.0_scrambled_freeview_isoFalse_fps144.mp4"
"","","","call-function","193","939250","0.0-193.0","mmt4o8yy","","","","","",""
"4313.579999999958","{""pre-1"":3}","[0]","survey-likert","194","943565","0.0-194.0","mmt4o8yy","","","","","",""
"3919.7850000000326","{""pre-2"":3}","[0]","survey-likert","195","947486","0.0-195.0","mmt4o8yy","","","","","",""
"1697.7550000000047","{""pre-3"":3}","[0]","survey-likert","196","949185","0.0-196.0","mmt4o8yy","","","","","",""
"2465.1500000000233","{""post-5"":0}","[0]","survey-likert","197","951651","0.0-197.0","mmt4o8yy","","","","","",""
"","","","call-function","198","951651","0.0-198.0","mmt4o8yy","","","","","",""
"null","","","video-keyboard-response","199","954724","0.0-199.0","mmt4o8yy","","","","null","Agent A","STIM_SET_1_REAL/1592372.bmp_pp76_L1_V1.0_scrambled_freeview_isoFalse_fps144.mp4"
"","","","call-function","200","954725","0.0-200.0","mmt4o8yy","","","","","",""
"3139.4899999999907","{""pre-1"":2}","[0]","survey-likert","201","957866","0.0-201.0","mmt4o8yy","","","","","",""
"2937.234999999986","{""pre-2"":1}","[0]","survey-likert","202","960804","0.0-202.0","mmt4o8yy","","","","","",""
"3527.0200000000186","{""pre-3"":1}","[0]","survey-likert","203","964332","0.0-203.0","mmt4o8yy","","","","","",""
"2932.6500000000233","{""post-5"":1}","[0]","survey-likert","204","967265","0.0-204.0","mmt4o8yy","","","","","",""
"","","","call-function","205","967266","0.0-205.0","mmt4o8yy","","","","","",""
"null","","","video-keyboard-response","206","970339","0.0-206.0","mmt4o8yy","","","","null","Agent A","STIM_SET_1_REAL/713760.bmp_pp81_L1_V1.0_veridical_freeview_isoFalse_fps144.mp4"
"","","","call-function","207","970339","0.0-207.0","mmt4o8yy","","","","","",""
"5109.550000000047","{""pre-1"":2}","[0]","survey-likert","208","975450","0.0-208.0","mmt4o8yy","","","","","",""
"3082.6350000000093","{""pre-2"":1}","[0]","survey-likert","209","978535","0.0-209.0","mmt4o8yy","","","","","",""
"2890.7600000000093","{""pre-3"":1}","[0]","survey-likert","210","981426","0.0-210.0","mmt4o8yy","","","","","",""
"2981.25","{""post-5"":1}","[0]","survey-likert","211","984409","0.0-211.0","mmt4o8yy","","","","","",""
"","","","call-function","212","984409","0.0-212.0","mmt4o8yy","","","","","",""
"null","","","video-keyboard-response","213","987476","0.0-213.0","mmt4o8yy","","","","null","Agent A","STIM_SET_1_REAL/1159829.bmp_pp91_L3_V1.0_veridical_freeview_isoFalse_fps144.mp4"
"","","","call-function","214","987476","0.0-214.0","mmt4o8yy","","","","","",""
"2951.7600000000093","{""pre-1"":3}","[0]","survey-likert","215","990429","0.0-215.0","mmt4o8yy","","","","","",""
"1603.6749999999302","{""pre-2"":3}","[0]","survey-likert","216","992034","0.0-216.0","mmt4o8yy","","","","","",""
"2827.8499999999767","{""pre-3"":3}","[0]","survey-likert","217","994862","0.0-217.0","mmt4o8yy","","","","","",""
"3857.0299999999115","{""post-5"":1}","[0]","survey-likert","218","998721","0.0-218.0","mmt4o8yy","","","","","",""
"","","","call-function","219","998722","0.0-219.0","mmt4o8yy","","","","","",""
"null","","","video-keyboard-response","220","1001817","0.0-220.0","mmt4o8yy","","","","null","Agent A","STIM_SET_1_REAL/1592351.bmp_pp51_L1_V1.0_veridical_freeview_isoFalse_fps144.mp4"
"","","","call-function","221","1001818","0.0-221.0","mmt4o8yy","","","","","",""
"7610.9400000000605","{""pre-1"":2}","[0]","survey-likert","222","1009430","0.0-222.0","mmt4o8yy","","","","","",""
"4365.560000000056","{""pre-2"":3}","[0]","survey-likert","223","1013797","0.0-223.0","mmt4o8yy","","","","","",""
"1516.1500000000233","{""pre-3"":3}","[0]","survey-likert","224","1015314","0.0-224.0","mmt4o8yy","","","","","",""
"4931.57500000007","{""post-5"":2}","[0]","survey-likert","225","1020247","0.0-225.0","mmt4o8yy","","","","","",""
"","","","call-function","226","1020247","0.0-226.0","mmt4o8yy","","","","","",""
"null","","","video-keyboard-response","227","1023308","0.0-227.0","mmt4o8yy","","","","null","Agent A","STIM_SET_1_REAL/498170.bmp_pp153_L3_V1.0_scrambled_freeview_isoFalse_fps144.mp4"
"","","","call-function","228","1023309","0.0-228.0","mmt4o8yy","","","","","",""
"7488.724999999977","{""pre-1"":2}","[0]","survey-likert","229","1030798","0.0-229.0","mmt4o8yy","","","","","",""
"2564.109999999986","{""pre-2"":2}","[0]","survey-likert","230","1033364","0.0-230.0","mmt4o8yy","","","","","",""
"2245.3699999999953","{""pre-3"":1}","[0]","survey-likert","231","1035610","0.0-231.0","mmt4o8yy","","","","","",""
"3396.850000000093","{""post-5"":2}","[0]","survey-likert","232","1039008","0.0-232.0","mmt4o8yy","","","","","",""
"","","","call-function","233","1039008","0.0-233.0","mmt4o8yy","","","","","",""
"null","","","video-keyboard-response","234","1042092","0.0-234.0","mmt4o8yy","","","","null","Agent A","STIM_SET_1_REAL/1593041.bmp_pp58_L1_V1.0_scrambled_freeview_isoFalse_fps144.mp4"
"","","","call-function","235","1042093","0.0-235.0","mmt4o8yy","","","","","",""
"11059.995000000112","{""pre-1"":2}","[0]","survey-likert","236","1053154","0.0-236.0","mmt4o8yy","","","","","",""
"7968.139999999898","{""pre-2"":1}","[0]","survey-likert","237","1061123","0.0-237.0","mmt4o8yy","","","","","",""
"2077.6350000000093","{""pre-3"":0}","[0]","survey-likert","238","1063203","0.0-238.0","mmt4o8yy","","","","","",""
"1775.8549999999814","{""post-5"":2}","[0]","survey-likert","239","1064979","0.0-239.0","mmt4o8yy","","","","","",""
"","","","call-function","240","1064980","0.0-240.0","mmt4o8yy","","","","","",""
"null","","","video-keyboard-response","241","1068068","0.0-241.0","mmt4o8yy","","","","null","Agent A","STIM_SET_1_REAL/1159813.bmp_pp79_L2_V1.0_veridical_freeview_isoFalse_fps144.mp4"
"","","","call-function","242","1068068","0.0-242.0","mmt4o8yy","","","","","",""
"4903.279999999795","{""pre-1"":3}","[0]","survey-likert","243","1072973","0.0-243.0","mmt4o8yy","","","","","",""
"2112.230000000214","{""pre-2"":2}","[0]","survey-likert","244","1075087","0.0-244.0","mmt4o8yy","","","","","",""
"3080.2099999999627","{""pre-3"":2}","[0]","survey-likert","245","1078169","0.0-245.0","mmt4o8yy","","","","","",""
"2404.3549999999814","{""post-5"":1}","[0]","survey-likert","246","1080575","0.0-246.0","mmt4o8yy","","","","","",""
"","","","call-function","247","1080576","0.0-247.0","mmt4o8yy","","","","","",""
"null","","","video-keyboard-response","248","1083639","0.0-248.0","mmt4o8yy","","","","null","Agent A","STIM_SET_1_REAL/498170.bmp_pp153_L3_V1.0_veridical_freeview_isoFalse_fps144.mp4"
"","","","call-function","249","1083640","0.0-249.0","mmt4o8yy","","","","","",""
"5935.550000000047","{""pre-1"":3}","[0]","survey-likert","250","1089576","0.0-250.0","mmt4o8yy","","","","","",""
"1477.3900000001304","{""pre-2"":3}","[0]","survey-likert","251","1091055","0.0-251.0","mmt4o8yy","","","","","",""
"1430.6149999999907","{""pre-3"":3}","[0]","survey-likert","252","1092486","0.0-252.0","mmt4o8yy","","","","","",""
"3289.5200000000186","{""post-5"":1}","[0]","survey-likert","253","1095777","0.0-253.0","mmt4o8yy","","","","","",""
"","","","call-function","254","1095778","0.0-254.0","mmt4o8yy","","","","","",""
"null","","","video-keyboard-response","255","1098853","0.0-255.0","mmt4o8yy","","","","null","Agent A","STIM_SET_1_REAL/1593146.bmp_pp93_L1_V1.0_scrambled_freeview_isoFalse_fps144.mp4"
"","","","call-function","256","1098854","0.0-256.0","mmt4o8yy","","","","","",""
"4673.014999999898","{""pre-1"":3}","[0]","survey-likert","257","1103528","0.0-257.0","mmt4o8yy","","","","","",""
"1725.9899999999907","{""pre-2"":3}","[0]","survey-likert","258","1105255","0.0-258.0","mmt4o8yy","","","","","",""
"1692.934999999823","{""pre-3"":3}","[0]","survey-likert","259","1106949","0.0-259.0","mmt4o8yy","","","","","",""
"10006.494999999879","{""post-5"":0}","[0]","survey-likert","260","1116956","0.0-260.0","mmt4o8yy","","","","","",""
"","","","call-function","261","1116957","0.0-261.0","mmt4o8yy","","","","","",""
"null","","","video-keyboard-response","262","1120024","0.0-262.0","mmt4o8yy","","","","null","Agent A","STIM_SET_1_REAL/713017.bmp_pp152_L2_V1.0_veridical_freeview_isoFalse_fps144.mp4"
"","","","call-function","263","1120024","0.0-263.0","mmt4o8yy","","","","","",""
"3503.6450000000186","{""pre-1"":3}","[0]","survey-likert","264","1123529","0.0-264.0","mmt4o8yy","","","","","",""
"1470.3200000000652","{""pre-2"":3}","[0]","survey-likert","265","1125000","0.0-265.0","mmt4o8yy","","","","","",""
"1505.6200000001118","{""pre-3"":3}","[0]","survey-likert","266","1126507","0.0-266.0","mmt4o8yy","","","","","",""
"1276.9650000000838","{""post-5"":0}","[0]","survey-likert","267","1127785","0.0-267.0","mmt4o8yy","","","","","",""
"","","","call-function","268","1127785","0.0-268.0","mmt4o8yy","","","","","",""
"null","","","video-keyboard-response","269","1130845","0.0-269.0","mmt4o8yy","","","","null","Agent A","STIM_SET_1_REAL/497950.bmp_pp151_L1_V1.0_scrambled_freeview_isoFalse_fps144.mp4"
"","","","call-function","270","1130845","0.0-270.0","mmt4o8yy","","","","","",""
"3375.6949999998324","{""pre-1"":1}","[0]","survey-likert","271","1134223","0.0-271.0","mmt4o8yy","","","","","",""
"2152.3549999999814","{""pre-2"":1}","[0]","survey-likert","272","1136377","0.0-272.0","mmt4o8yy","","","","","",""
"1270.969999999972","{""pre-3"":1}","[0]","survey-likert","273","1137649","0.0-273.0","mmt4o8yy","","","","","",""
"2636.2049999998417","{""post-5"":2}","[0]","survey-likert","274","1140288","0.0-274.0","mmt4o8yy","","","","","",""
"","","","call-function","275","1140289","0.0-275.0","mmt4o8yy","","","","","",""
"null","","","video-keyboard-response","276","1143363","0.0-276.0","mmt4o8yy","","","","null","Agent A","STIM_SET_1_REAL/498175.bmp_pp154_L1_V1.0_scrambled_freeview_isoFalse_fps144.mp4"
"","","","call-function","277","1143364","0.0-277.0","mmt4o8yy","","","","","",""
"2391.4250000000466","{""pre-1"":0}","[0]","survey-likert","278","1145757","0.0-278.0","mmt4o8yy","","","","","",""
"1906.9650000000838","{""pre-2"":0}","[0]","survey-likert","279","1147665","0.0-279.0","mmt4o8yy","","","","","",""
"1302.2099999999627","{""pre-3"":0}","[0]","survey-likert","280","1148968","0.0-280.0","mmt4o8yy","","","","","",""
"2149.625","{""post-5"":3}","[0]","survey-likert","281","1151119","0.0-281.0","mmt4o8yy","","","","","",""
"","","","call-function","282","1151120","0.0-282.0","mmt4o8yy","","","","","",""
"null","","","video-keyboard-response","283","1154197","0.0-283.0","mmt4o8yy","","","","null","Agent A","STIM_SET_1_REAL/713684.bmp_pp85_L3_V1.0_veridical_freeview_isoFalse_fps144.mp4"
"","","","call-function","284","1154197","0.0-284.0","mmt4o8yy","","","","","",""
"6645.260000000009","{""pre-1"":2}","[0]","survey-likert","285","1160843","0.0-285.0","mmt4o8yy","","","","","",""
"6524.784999999916","{""pre-2"":1}","[0]","survey-likert","286","1167369","0.0-286.0","mmt4o8yy","","","","","",""
"5682.185000000056","{""pre-3"":1}","[0]","survey-likert","287","1173052","0.0-287.0","mmt4o8yy","","","","","",""
"2440.689999999944","{""post-5"":2}","[0]","survey-likert","288","1175494","0.0-288.0","mmt4o8yy","","","","","",""
"","","","call-function","289","1175494","0.0-289.0","mmt4o8yy","","","","","",""
"null","","","video-keyboard-response","290","1178571","0.0-290.0","mmt4o8yy","","","","null","Agent A","STIM_SET_1_REAL/1159675.bmp_pp77_L3_V1.0_scrambled_freeview_isoFalse_fps144.mp4"
"","","","call-function","291","1178572","0.0-291.0","mmt4o8yy","","","","","",""
"4667.410000000149","{""pre-1"":3}","[0]","survey-likert","292","1183240","0.0-292.0","mmt4o8yy","","","","","",""
"1405.2349999998696","{""pre-2"":3}","[0]","survey-likert","293","1184647","0.0-293.0","mmt4o8yy","","","","","",""
"1355.6299999998882","{""pre-3"":3}","[0]","survey-likert","294","1186003","0.0-294.0","mmt4o8yy","","","","","",""
"2062.9000000001397","{""post-5"":1}","[0]","survey-likert","295","1188067","0.0-295.0","mmt4o8yy","","","","","",""
"","","","call-function","296","1188068","0.0-296.0","mmt4o8yy","","","","","",""
"null","","","video-keyboard-response","297","1191147","0.0-297.0","mmt4o8yy","","","","null","Agent A","STIM_SET_1_REAL/1159777.bmp_pp77_L3_V1.0_veridical_freeview_isoFalse_fps144.mp4"
"","","","call-function","298","1191147","0.0-298.0","mmt4o8yy","","","","","",""
"8198.25","{""pre-1"":2}","[0]","survey-likert","299","1199347","0.0-299.0","mmt4o8yy","","","","","",""
"1910.5749999999534","{""pre-2"":1}","[0]","survey-likert","300","1201259","0.0-300.0","mmt4o8yy","","","","","",""
"1176.6799999999348","{""pre-3"":1}","[0]","survey-likert","301","1202438","0.0-301.0","mmt4o8yy","","","","","",""
"1948.279999999795","{""post-5"":2}","[0]","survey-likert","302","1204387","0.0-302.0","mmt4o8yy","","","","","",""
"25456.580000000075","","","instructions","303","1229844","0.0-303.0","mmt4o8yy","[{""page_index"":0,""viewing_time"":1274.9799999999814},{""page_index"":1,""viewing_time"":23355.89000000013},{""page_index"":2,""viewing_time"":825.0749999999534}]","","","","",""
"5407.4199999999255","","","instructions","304","1235252","0.0-304.0","mmt4o8yy","[{""page_index"":0,""viewing_time"":782.9450000000652},{""page_index"":1,""viewing_time"":1656.1950000000652},{""page_index"":2,""viewing_time"":2968.1749999998137}]","","","","",""
"","","","call-function","305","1235253","0.0-305.0","mmt4o8yy","","","","","",""
"null","","","video-keyboard-response","306","1238317","0.0-306.0","mmt4o8yy","","","","null","Agent A","STIM_SET_1_REAL/1159621.bmp_pp92_L3_V1.0_veridical_freeview_isoFalse_fps144.mp4"
"","","","call-function","307","1238317","0.0-307.0","mmt4o8yy","","","","","",""
"11370.14000000013","{""pre-1"":0}","[0]","survey-likert","308","1249688","0.0-308.0","mmt4o8yy","","","","","",""
"1782.9150000000373","{""pre-2"":0}","[0]","survey-likert","309","1251472","0.0-309.0","mmt4o8yy","","","","","",""
"1793.255000000121","{""pre-3"":0}","[0]","survey-likert","310","1253267","0.0-310.0","mmt4o8yy","","","","","",""
"2272.0500000000466","{""post-5"":2}","[0]","survey-likert","311","1255540","0.0-311.0","mmt4o8yy","","","","","",""
"","","","call-function","312","1255540","0.0-312.0","mmt4o8yy","","","","","",""
"null","","","video-keyboard-response","313","1258615","0.0-313.0","mmt4o8yy","","","","null","Agent A","STIM_SET_1_REAL/1159855.bmp_pp99_L2_V1.0_veridical_freeview_isoFalse_fps144.mp4"
"","","","call-function","314","1258615","0.0-314.0","mmt4o8yy","","","","","",""
"2721.3349999999627","{""pre-1"":3}","[0]","survey-likert","315","1261337","0.0-315.0","mmt4o8yy","","","","","",""
"1294.5900000000838","{""pre-2"":3}","[0]","survey-likert","316","1262633","0.0-316.0","mmt4o8yy","","","","","",""
"1266.0900000000838","{""pre-3"":3}","[0]","survey-likert","317","1263900","0.0-317.0","mmt4o8yy","","","","","",""
"3044.9249999998137","{""post-5"":0}","[0]","survey-likert","318","1266946","0.0-318.0","mmt4o8yy","","","","","",""
"","","","call-function","319","1266947","0.0-319.0","mmt4o8yy","","","","","",""
"null","","","video-keyboard-response","320","1270006","0.0-320.0","mmt4o8yy","","","","null","Agent A","STIM_SET_1_REAL/1159572.bmp_pp71_L1_V1.0_veridical_freeview_isoFalse_fps144.mp4"
"","","","call-function","321","1270006","0.0-321.0","mmt4o8yy","","","","","",""
"6228.325000000186","{""pre-1"":2}","[0]","survey-likert","322","1276236","0.0-322.0","mmt4o8yy","","","","","",""
"2074.405000000028","{""pre-2"":2}","[0]","survey-likert","323","1278313","0.0-323.0","mmt4o8yy","","","","","",""
"2401.1399999998976","{""pre-3"":2}","[0]","survey-likert","324","1280715","0.0-324.0","mmt4o8yy","","","","","",""
"1640.7450000001118","{""post-5"":1}","[0]","survey-likert","325","1282357","0.0-325.0","mmt4o8yy","","","","","",""
"","","","call-function","326","1282358","0.0-326.0","mmt4o8yy","","","","","",""
"null","","","video-keyboard-response","327","1285433","0.0-327.0","mmt4o8yy","","","","null","Agent A","STIM_SET_1_REAL/713749.bmp_pp88_L2_V1.0_veridical_freeview_isoFalse_fps144.mp4"
"","","","call-function","328","1285434","0.0-328.0","mmt4o8yy","","","","","",""
"3365.5100000000093","{""pre-1"":3}","[0]","survey-likert","329","1288801","0.0-329.0","mmt4o8yy","","","","","",""
"1519.6149999999907","{""pre-2"":3}","[0]","survey-likert","330","1290321","0.0-330.0","mmt4o8yy","","","","","",""
"1712.8100000000559","{""pre-3"":3}","[0]","survey-likert","331","1292035","0.0-331.0","mmt4o8yy","","","","","",""
"3350.8700000001118","{""post-5"":0}","[0]","survey-likert","332","1295387","0.0-332.0","mmt4o8yy","","","","","",""
"","","","call-function","333","1295388","0.0-333.0","mmt4o8yy","","","","","",""
"null","","","video-keyboard-response","334","1298450","0.0-334.0","mmt4o8yy","","","","null","Agent A","STIM_SET_1_REAL/1159882.bmp_pp61_L2_V1.0_veridical_freeview_isoFalse_fps144.mp4"
"","","","call-function","335","1298451","0.0-335.0","mmt4o8yy","","","","","",""
"3420.2549999998882","{""pre-1"":3}","[0]","survey-likert","336","1301872","0.0-336.0","mmt4o8yy","","","","","",""
"1468.9850000001024","{""pre-2"":3}","[0]","survey-likert","337","1303342","0.0-337.0","mmt4o8yy","","","","","",""
"2912.899999999907","{""pre-3"":3}","[0]","survey-likert","338","1306256","0.0-338.0","mmt4o8yy","","","","","",""
"3293","{""post-5"":0}","[0]","survey-likert","339","1309550","0.0-339.0","mmt4o8yy","","","","","",""
"","","","call-function","340","1309550","0.0-340.0","mmt4o8yy","","","","","",""
"null","","","video-keyboard-response","341","1312612","0.0-341.0","mmt4o8yy","","","","null","Agent A","STIM_SET_1_REAL/286001.bmp_pp54_L2_V1.0_scrambled_freeview_isoFalse_fps144.mp4"
"","","","call-function","342","1312612","0.0-342.0","mmt4o8yy","","","","","",""
"5462.564999999944","{""pre-1"":3}","[0]","survey-likert","343","1318076","0.0-343.0","mmt4o8yy","","","","","",""
"2308.929999999935","{""pre-2"":2}","[0]","survey-likert","344","1320386","0.0-344.0","mmt4o8yy","","","","","",""
"1638.2350000001024","{""pre-3"":2}","[0]","survey-likert","345","1322026","0.0-345.0","mmt4o8yy","","","","","",""
"2995.9249999998137","{""post-5"":2}","[0]","survey-likert","346","1325023","0.0-346.0","mmt4o8yy","","","","","",""
"","","","call-function","347","1325024","0.0-347.0","mmt4o8yy","","","","","",""
"null","","","video-keyboard-response","348","1328089","0.0-348.0","mmt4o8yy","","","","null","Agent A","STIM_SET_1_REAL/285994.bmp_pp92_L3_V1.0_veridical_freeview_isoFalse_fps144.mp4"
"","","","call-function","349","1328089","0.0-349.0","mmt4o8yy","","","","","",""
"3799.030000000028","{""pre-1"":3}","[0]","survey-likert","350","1331889","0.0-350.0","mmt4o8yy","","","","","",""
"3947.8499999998603","{""pre-2"":3}","[0]","survey-likert","351","1335838","0.0-351.0","mmt4o8yy","","","","","",""
"2093.810000000056","{""pre-3"":3}","[0]","survey-likert","352","1337934","0.0-352.0","mmt4o8yy","","","","","",""
"2323.4950000001118","{""post-5"":1}","[0]","survey-likert","353","1340258","0.0-353.0","mmt4o8yy","","","","","",""
"","","","call-function","354","1340259","0.0-354.0","mmt4o8yy","","","","","",""
"null","","","video-keyboard-response","355","1343335","0.0-355.0","mmt4o8yy","","","","null","Agent A","STIM_SET_1_REAL/498111.bmp_pp88_L2_V1.0_veridical_freeview_isoFalse_fps144.mp4"
"","","","call-function","356","1343335","0.0-356.0","mmt4o8yy","","","","","",""
"9225.280000000028","{""pre-1"":2}","[0]","survey-likert","357","1352562","0.0-357.0","mmt4o8yy","","","","","",""
"1329.535000000149","{""pre-2"":2}","[0]","survey-likert","358","1353892","0.0-358.0","mmt4o8yy","","","","","",""
"1211.9399999999441","{""pre-3"":2}","[0]","survey-likert","359","1355105","0.0-359.0","mmt4o8yy","","","","","",""
"1852.535000000149","{""post-5"":2}","[0]","survey-likert","360","1356959","0.0-360.0","mmt4o8yy","","","","","",""
"","","","call-function","361","1356959","0.0-361.0","mmt4o8yy","","","","","",""
"null","","","video-keyboard-response","362","1360035","0.0-362.0","mmt4o8yy","","","","null","Agent A","STIM_SET_1_REAL/1160127.bmp_pp90_L2_V1.0_scrambled_freeview_isoFalse_fps144.mp4"
"","","","call-function","363","1360035","0.0-363.0","mmt4o8yy","","","","","",""
"3866.8799999998882","{""pre-1"":2}","[0]","survey-likert","364","1363903","0.0-364.0","mmt4o8yy","","","","","",""
"1201.065000000177","{""pre-2"":2}","[0]","survey-likert","365","1365105","0.0-365.0","mmt4o8yy","","","","","",""
"1313.1399999998976","{""pre-3"":2}","[0]","survey-likert","366","1366419","0.0-366.0","mmt4o8yy","","","","","",""
"2926.4550000000745","{""post-5"":1}","[0]","survey-likert","367","1369347","0.0-367.0","mmt4o8yy","","","","","",""
"","","","call-function","368","1369347","0.0-368.0","mmt4o8yy","","","","","",""
"null","","","video-keyboard-response","369","1372416","0.0-369.0","mmt4o8yy","","","","null","Agent A","STIM_SET_1_REAL/285905.bmp_pp57_L1_V1.0_veridical_freeview_isoFalse_fps144.mp4"
"","","","call-function","370","1372416","0.0-370.0","mmt4o8yy","","","","","",""
"3345.3850000000093","{""pre-1"":3}","[0]","survey-likert","371","1375763","0.0-371.0","mmt4o8yy","","","","","",""
"1191.6500000001397","{""pre-2"":3}","[0]","survey-likert","372","1376956","0.0-372.0","mmt4o8yy","","","","","",""
"1427.2949999999255","{""pre-3"":3}","[0]","survey-likert","373","1378385","0.0-373.0","mmt4o8yy","","","","","",""
"1581.0400000000373","{""post-5"":1}","[0]","survey-likert","374","1379968","0.0-374.0","mmt4o8yy","","","","","",""
"","","","call-function","375","1379969","0.0-375.0","mmt4o8yy","","","","","",""
"null","","","video-keyboard-response","376","1383045","0.0-376.0","mmt4o8yy","","","","null","Agent A","STIM_SET_1_REAL/713749.bmp_pp88_L2_V1.0_scrambled_freeview_isoFalse_fps144.mp4"
"","","","call-function","377","1383046","0.0-377.0","mmt4o8yy","","","","","",""
"2415.2949999999255","{""pre-1"":0}","[0]","survey-likert","378","1385462","0.0-378.0","mmt4o8yy","","","","","",""
"1252.5600000000559","{""pre-2"":0}","[0]","survey-likert","379","1386716","0.0-379.0","mmt4o8yy","","","","","",""
"2662.75","{""pre-3"":0}","[0]","survey-likert","380","1389380","0.0-380.0","mmt4o8yy","","","","","",""
"2692.494999999879","{""post-5"":3}","[0]","survey-likert","381","1392074","0.0-381.0","mmt4o8yy","","","","","",""
"","","","call-function","382","1392074","0.0-382.0","mmt4o8yy","","","","","",""
"null","","","video-keyboard-response","383","1395136","0.0-383.0","mmt4o8yy","","","","null","Agent A","STIM_SET_1_REAL/1593035.bmp_pp94_L2_V1.0_veridical_freeview_isoFalse_fps144.mp4"
"","","","call-function","384","1395136","0.0-384.0","mmt4o8yy","","","","","",""
"9049.520000000019","{""pre-1"":1}","[0]","survey-likert","385","1404187","0.0-385.0","mmt4o8yy","","","","","",""
"1108.8549999999814","{""pre-2"":1}","[0]","survey-likert","386","1405297","0.0-386.0","mmt4o8yy","","","","","",""
"1834.4850000001024","{""pre-3"":1}","[0]","survey-likert","387","1407132","0.0-387.0","mmt4o8yy","","","","","",""
"1640.2350000001024","{""post-5"":2}","[0]","survey-likert","388","1408773","0.0-388.0","mmt4o8yy","","","","","",""
"","","","call-function","389","1408774","0.0-389.0","mmt4o8yy","","","","","",""
"null","","","video-keyboard-response","390","1411841","0.0-390.0","mmt4o8yy","","","","null","Agent A","STIM_SET_1_REAL/1592362.bmp_pp95_L2_V1.0_scrambled_freeview_isoFalse_fps144.mp4"
"","","","call-function","391","1411842","0.0-391.0","mmt4o8yy","","","","","",""
"2996.9249999998137","{""pre-1"":2}","[0]","survey-likert","392","1414840","0.0-392.0","mmt4o8yy","","","","","",""
"1651.4300000001676","{""pre-2"":1}","[0]","survey-likert","393","1416493","0.0-393.0","mmt4o8yy","","","","","",""
"992.0900000000838","{""pre-3"":1}","[0]","survey-likert","394","1417486","0.0-394.0","mmt4o8yy","","","","","",""
"2813.4599999999627","{""post-5"":2}","[0]","survey-likert","395","1420300","0.0-395.0","mmt4o8yy","","","","","",""
"","","","call-function","396","1420300","0.0-396.0","mmt4o8yy","","","","","",""
"null","","","video-keyboard-response","397","1423381","0.0-397.0","mmt4o8yy","","","","null","Agent A","STIM_SET_1_REAL/1593041.bmp_pp58_L1_V1.0_veridical_freeview_isoFalse_fps144.mp4"
"","","","call-function","398","1423381","0.0-398.0","mmt4o8yy","","","","","",""
"3062.7900000000373","{""pre-1"":3}","[0]","survey-likert","399","1426446","0.0-399.0","mmt4o8yy","","","","","",""
"2445.25","{""pre-2"":3}","[0]","survey-likert","400","1428893","0.0-400.0","mmt4o8yy","","","","","",""
"1204.1450000000186","{""pre-3"":3}","[0]","survey-likert","401","1430099","0.0-401.0","mmt4o8yy","","","","","",""
"2621.1049999999814","{""post-5"":1}","[0]","survey-likert","402","1432722","0.0-402.0","mmt4o8yy","","","","","",""
"","","","call-function","403","1432722","0.0-403.0","mmt4o8yy","","","","","",""
"null","","","video-keyboard-response","404","1435801","0.0-404.0","mmt4o8yy","","","","null","Agent A","STIM_SET_1_REAL/713371.bmp_pp68_L1_V1.0_veridical_freeview_isoFalse_fps144.mp4"
"","","","call-function","405","1435802","0.0-405.0","mmt4o8yy","","","","","",""
"3432.5999999998603","{""pre-1"":3}","[0]","survey-likert","406","1439235","0.0-406.0","mmt4o8yy","","","","","",""
"1380.1950000000652","{""pre-2"":3}","[0]","survey-likert","407","1440616","0.0-407.0","mmt4o8yy","","","","","",""
"1154.0700000000652","{""pre-3"":3}","[0]","survey-likert","408","1441772","0.0-408.0","mmt4o8yy","","","","","",""
"1941.030000000028","{""post-5"":1}","[0]","survey-likert","409","1443714","0.0-409.0","mmt4o8yy","","","","","",""
"","","","call-function","410","1443714","0.0-410.0","mmt4o8yy","","","","","",""
"null","","","video-keyboard-response","411","1446776","0.0-411.0","mmt4o8yy","","","","null","Agent A","STIM_SET_1_REAL/497950.bmp_pp151_L1_V1.0_veridical_freeview_isoFalse_fps144.mp4"
"","","","call-function","412","1446776","0.0-412.0","mmt4o8yy","","","","","",""
"3078.340000000084","{""pre-1"":3}","[0]","survey-likert","413","1449855","0.0-413.0","mmt4o8yy","","","","","",""
"1795.1299999998882","{""pre-2"":3}","[0]","survey-likert","414","1451652","0.0-414.0","mmt4o8yy","","","","","",""
"6739.5","{""pre-3"":3}","[0]","survey-likert","415","1458392","0.0-415.0","mmt4o8yy","","","","","",""
"2783.910000000149","{""post-5"":0}","[0]","survey-likert","416","1461177","0.0-416.0","mmt4o8yy","","","","","",""
"","","","call-function","417","1461177","0.0-417.0","mmt4o8yy","","","","","",""
"null","","","video-keyboard-response","418","1464247","0.0-418.0","mmt4o8yy","","","","null","Agent A","STIM_SET_1_REAL/1592499.bmp_pp96_L2_V1.0_veridical_freeview_isoFalse_fps144.mp4"
"","","","call-function","419","1464247","0.0-419.0","mmt4o8yy","","","","","",""
"5414.804999999935","{""pre-1"":2}","[0]","survey-likert","420","1469663","0.0-420.0","mmt4o8yy","","","","","",""
"1580.535000000149","{""pre-2"":2}","[0]","survey-likert","421","1471244","0.0-421.0","mmt4o8yy","","","","","",""
"1423.9199999999255","{""pre-3"":2}","[0]","survey-likert","422","1472669","0.0-422.0","mmt4o8yy","","","","","",""
"1902.4149999998044","{""post-5"":1}","[0]","survey-likert","423","1474573","0.0-423.0","mmt4o8yy","","","","","",""
"","","","call-function","424","1474573","0.0-424.0","mmt4o8yy","","","","","",""
"null","","","video-keyboard-response","425","1477649","0.0-425.0","mmt4o8yy","","","","null","Agent A","STIM_SET_1_REAL/713620.bmp_pp65_L3_V1.0_scrambled_freeview_isoFalse_fps144.mp4"
"","","","call-function","426","1477649","0.0-426.0","mmt4o8yy","","","","","",""
"5256.074999999953","{""pre-1"":0}","[0]","survey-likert","427","1482907","0.0-427.0","mmt4o8yy","","","","","",""
"1427.2099999999627","{""pre-2"":0}","[0]","survey-likert","428","1484336","0.0-428.0","mmt4o8yy","","","","","",""
"2185.6450000000186","{""pre-3"":0}","[0]","survey-likert","429","1486523","0.0-429.0","mmt4o8yy","","","","","",""
"3995.7399999999907","{""post-5"":3}","[0]","survey-likert","430","1490520","0.0-430.0","mmt4o8yy","","","","","",""
"","","","call-function","431","1490521","0.0-431.0","mmt4o8yy","","","","","",""
"null","","","video-keyboard-response","432","1493597","0.0-432.0","mmt4o8yy","","","","null","Agent A","STIM_SET_1_REAL/1591994.bmp_pp69_L3_V1.0_veridical_freeview_isoFalse_fps144.mp4"
"","","","call-function","433","1493598","0.0-433.0","mmt4o8yy","","","","","",""
"5845.810000000056","{""pre-1"":1}","[0]","survey-likert","434","1499445","0.0-434.0","mmt4o8yy","","","","","",""
"3390.0400000000373","{""pre-2"":1}","[0]","survey-likert","435","1502836","0.0-435.0","mmt4o8yy","","","","","",""
"1202.3200000000652","{""pre-3"":1}","[0]","survey-likert","436","1504039","0.0-436.0","mmt4o8yy","","","","","",""
"2335.6800000001676","{""post-5"":3}","[0]","survey-likert","437","1506376","0.0-437.0","mmt4o8yy","","","","","",""
"","","","call-function","438","1506377","0.0-438.0","mmt4o8yy","","","","","",""
"null","","","video-keyboard-response","439","1509444","0.0-439.0","mmt4o8yy","","","","null","Agent A","STIM_SET_1_REAL/713513.bmp_pp62_L2_V1.0_veridical_freeview_isoFalse_fps144.mp4"
"","","","call-function","440","1509445","0.0-440.0","mmt4o8yy","","","","","",""
"4188.114999999991","{""pre-1"":2}","[0]","survey-likert","441","1513634","0.0-441.0","mmt4o8yy","","","","","",""
"2377.410000000149","{""pre-2"":2}","[0]","survey-likert","442","1516012","0.0-442.0","mmt4o8yy","","","","","",""
"3376.3300000000745","{""pre-3"":1}","[0]","survey-likert","443","1519390","0.0-443.0","mmt4o8yy","","","","","",""
"3875.0200000000186","{""post-5"":2}","[0]","survey-likert","444","1523266","0.0-444.0","mmt4o8yy","","","","","",""
"3330.8850000000093","","","instructions","445","1526598","0.0-445.0","mmt4o8yy","[{""page_index"":0,""viewing_time"":1711.5250000001397},{""page_index"":1,""viewing_time"":1016.7049999998417},{""page_index"":2,""viewing_time"":602.0300000000279}]","","","","",""
"31554.784999999916","","","instructions","446","1558154","0.0-446.0","mmt4o8yy","[{""page_index"":0,""viewing_time"":29722.674999999814},{""page_index"":1,""viewing_time"":1330.0450000001583},{""page_index"":2,""viewing_time"":501.95999999996275}]","","","","",""
"","","","call-function","447","1558155","0.0-447.0","mmt4o8yy","","","","","",""
"null","","","video-keyboard-response","448","1561223","0.0-448.0","mmt4o8yy","","","","null","Agent A","STIM_SET_1_REAL/1159515.bmp_pp84_L3_V1.0_veridical_freeview_isoFalse_fps144.mp4"
"","","","call-function","449","1561223","0.0-449.0","mmt4o8yy","","","","","",""
"3601.405000000028","{""pre-1"":0}","[0]","survey-likert","450","1564826","0.0-450.0","mmt4o8yy","","","","","",""
"1174.970000000205","{""pre-2"":0}","[0]","survey-likert","451","1566002","0.0-451.0","mmt4o8yy","","","","","",""
"1572.1850000000559","{""pre-3"":0}","[0]","survey-likert","452","1567575","0.0-452.0","mmt4o8yy","","","","","",""
"2429.8000000000466","{""post-5"":3}","[0]","survey-likert","453","1570006","0.0-453.0","mmt4o8yy","","","","","",""
"","","","call-function","454","1570006","0.0-454.0","mmt4o8yy","","","","","",""
"null","","","video-keyboard-response","455","1573067","0.0-455.0","mmt4o8yy","","","","null","Agent A","STIM_SET_1_REAL/286001.bmp_pp54_L2_V1.0_veridical_freeview_isoFalse_fps144.mp4"
"","","","call-function","456","1573068","0.0-456.0","mmt4o8yy","","","","","",""
"3151.8499999998603","{""pre-1"":1}","[0]","survey-likert","457","1576221","0.0-457.0","mmt4o8yy","","","","","",""
"2284.0399999998044","{""pre-2"":1}","[0]","survey-likert","458","1578506","0.0-458.0","mmt4o8yy","","","","","",""
"990.8350000001956","{""pre-3"":1}","[0]","survey-likert","459","1579498","0.0-459.0","mmt4o8yy","","","","","",""
"2216.939999999944","{""post-5"":2}","[0]","survey-likert","460","1581716","0.0-460.0","mmt4o8yy","","","","","",""
"","","","call-function","461","1581716","0.0-461.0","mmt4o8yy","","","","","",""
"null","","","video-keyboard-response","462","1584791","0.0-462.0","mmt4o8yy","","","","null","Agent A","STIM_SET_1_REAL/498155.bmp_pp61_L2_V1.0_scrambled_freeview_isoFalse_fps144.mp4"
"","","","call-function","463","1584791","0.0-463.0","mmt4o8yy","","","","","",""
"8122.435000000056","{""pre-1"":2}","[0]","survey-likert","464","1592915","0.0-464.0","mmt4o8yy","","","","","",""
"1362.0800000000745","{""pre-2"":2}","[0]","survey-likert","465","1594279","0.0-465.0","mmt4o8yy","","","","","",""
"2091.935000000056","{""pre-3"":1}","[0]","survey-likert","466","1596372","0.0-466.0","mmt4o8yy","","","","","",""
"1994.5349999999162","{""post-5"":2}","[0]","survey-likert","467","1598367","0.0-467.0","mmt4o8yy","","","","","",""
"","","","call-function","468","1598368","0.0-468.0","mmt4o8yy","","","","","",""
"null","","","video-keyboard-response","469","1601436","0.0-469.0","mmt4o8yy","","","","null","Agent A","STIM_SET_1_REAL/713135.bmp_pp54_L2_V1.0_veridical_freeview_isoFalse_fps144.mp4"
"","","","call-function","470","1601436","0.0-470.0","mmt4o8yy","","","","","",""
"8571.030000000028","{""pre-1"":2}","[0]","survey-likert","471","1610009","0.0-471.0","mmt4o8yy","","","","","",""
"1193.8700000001118","{""pre-2"":2}","[0]","survey-likert","472","1611204","0.0-472.0","mmt4o8yy","","","","","",""
"1191.1850000000559","{""pre-3"":2}","[0]","survey-likert","473","1612397","0.0-473.0","mmt4o8yy","","","","","",""
"2557.4199999999255","{""post-5"":1}","[0]","survey-likert","474","1614956","0.0-474.0","mmt4o8yy","","","","","",""
"","","","call-function","475","1614956","0.0-475.0","mmt4o8yy","","","","","",""
"null","","","video-keyboard-response","476","1618025","0.0-476.0","mmt4o8yy","","","","null","Agent A","STIM_SET_1_REAL/1592581.bmp_pp100_L3_V1.0_scrambled_freeview_isoFalse_fps144.mp4"
"","","","call-function","477","1618026","0.0-477.0","mmt4o8yy","","","","","",""
"4369.694999999832","{""pre-1"":0}","[0]","survey-likert","478","1622396","0.0-478.0","mmt4o8yy","","","","","",""
"1347.8700000001118","{""pre-2"":0}","[0]","survey-likert","479","1623746","0.0-479.0","mmt4o8yy","","","","","",""
"2122.3299999998417","{""pre-3"":0}","[0]","survey-likert","480","1625870","0.0-480.0","mmt4o8yy","","","","","",""
"2099.159999999916","{""post-5"":3}","[0]","survey-likert","481","1627970","0.0-481.0","mmt4o8yy","","","","","",""
"","","","call-function","482","1627971","0.0-482.0","mmt4o8yy","","","","","",""
"null","","","video-keyboard-response","483","1631037","0.0-483.0","mmt4o8yy","","","","null","Agent A","STIM_SET_1_REAL/1592581.bmp_pp100_L3_V1.0_veridical_freeview_isoFalse_fps144.mp4"
"","","","call-function","484","1631038","0.0-484.0","mmt4o8yy","","","","","",""
"8329.445000000065","{""pre-1"":2}","[0]","survey-likert","485","1639368","0.0-485.0","mmt4o8yy","","","","","",""
"1201.2549999998882","{""pre-2"":2}","[0]","survey-likert","486","1640570","0.0-486.0","mmt4o8yy","","","","","",""
"1067.3000000000466","{""pre-3"":2}","[0]","survey-likert","487","1641639","0.0-487.0","mmt4o8yy","","","","","",""
"1672.7949999999255","{""post-5"":1}","[0]","survey-likert","488","1643313","0.0-488.0","mmt4o8yy","","","","","",""
"","","","call-function","489","1643313","0.0-489.0","mmt4o8yy","","","","","",""
"null","","","video-keyboard-response","490","1646388","0.0-490.0","mmt4o8yy","","","","null","Agent A","STIM_SET_1_REAL/1593146.bmp_pp93_L1_V1.0_veridical_freeview_isoFalse_fps144.mp4"
"","","","call-function","491","1646388","0.0-491.0","mmt4o8yy","","","","","",""
"2548.429999999935","{""pre-1"":3}","[0]","survey-likert","492","1648938","0.0-492.0","mmt4o8yy","","","","","",""
"1158.9549999998417","{""pre-2"":3}","[0]","survey-likert","493","1650098","0.0-493.0","mmt4o8yy","","","","","",""
"1092.7750000001397","{""pre-3"":3}","[0]","survey-likert","494","1651192","0.0-494.0","mmt4o8yy","","","","","",""
"2225.839999999851","{""post-5"":0}","[0]","survey-likert","495","1653419","0.0-495.0","mmt4o8yy","","","","","",""
"","","","call-function","496","1653419","0.0-496.0","mmt4o8yy","","","","","",""
"null","","","video-keyboard-response","497","1656479","0.0-497.0","mmt4o8yy","","","","null","Agent A","STIM_SET_1_REAL/713089.bmp_pp60_L3_V1.0_veridical_freeview_isoFalse_fps144.mp4"
"","","","call-function","498","1656479","0.0-498.0","mmt4o8yy","","","","","",""
"8385.279999999795","{""pre-1"":2}","[0]","survey-likert","499","1664866","0.0-499.0","mmt4o8yy","","","","","",""
"884.4299999999348","{""pre-2"":2}","[0]","survey-likert","500","1665752","0.0-500.0","mmt4o8yy","","","","","",""
"2495.0449999999255","{""pre-3"":2}","[0]","survey-likert","501","1668249","0.0-501.0","mmt4o8yy","","","","","",""
"2759.7700000000186","{""post-5"":1}","[0]","survey-likert","502","1671010","0.0-502.0","mmt4o8yy","","","","","",""
"","","","call-function","503","1671011","0.0-503.0","mmt4o8yy","","","","","",""
"null","","","video-keyboard-response","504","1674081","0.0-504.0","mmt4o8yy","","","","null","Agent A","STIM_SET_1_REAL/1592362.bmp_pp95_L2_V1.0_veridical_freeview_isoFalse_fps144.mp4"
"","","","call-function","505","1674082","0.0-505.0","mmt4o8yy","","","","","",""
"3147.3350000001956","{""pre-1"":2}","[0]","survey-likert","506","1677230","0.0-506.0","mmt4o8yy","","","","","",""
"927.7700000000186","{""pre-2"":2}","[0]","survey-likert","507","1678159","0.0-507.0","mmt4o8yy","","","","","",""
"1219.375","{""pre-3"":2}","[0]","survey-likert","508","1679380","0.0-508.0","mmt4o8yy","","","","","",""
"1927.2349999998696","{""post-5"":1}","[0]","survey-likert","509","1681308","0.0-509.0","mmt4o8yy","","","","","",""
"","","","call-function","510","1681309","0.0-510.0","mmt4o8yy","","","","","",""
"null","","","video-keyboard-response","511","1684387","0.0-511.0","mmt4o8yy","","","","null","Agent A","STIM_SET_1_REAL/713211.bmp_pp100_L3_V1.0_veridical_freeview_isoFalse_fps144.mp4"
"","","","call-function","512","1684388","0.0-512.0","mmt4o8yy","","","","","",""
"2742.0150000001304","{""pre-1"":3}","[0]","survey-likert","513","1687131","0.0-513.0","mmt4o8yy","","","","","",""
"2173.149999999907","{""pre-2"":3}","[0]","survey-likert","514","1689305","0.0-514.0","mmt4o8yy","","","","","",""
"1165.8850000000093","{""pre-3"":3}","[0]","survey-likert","515","1690472","0.0-515.0","mmt4o8yy","","","","","",""
"5574.614999999991","{""post-5"":1}","[0]","survey-likert","516","1696047","0.0-516.0","mmt4o8yy","","","","","",""
"","","","call-function","517","1696048","0.0-517.0","mmt4o8yy","","","","","",""
"null","","","video-keyboard-response","518","1699109","0.0-518.0","mmt4o8yy","","","","null","Agent A","STIM_SET_1_REAL/1592890.bmp_pp82_L2_V1.0_veridical_freeview_isoFalse_fps144.mp4"
"","","","call-function","519","1699110","0.0-519.0","mmt4o8yy","","","","","",""
"2782.034999999916","{""pre-1"":3}","[0]","survey-likert","520","1701893","0.0-520.0","mmt4o8yy","","","","","",""
"1045.9399999999441","{""pre-2"":2}","[0]","survey-likert","521","1702940","0.0-521.0","mmt4o8yy","","","","","",""
"3839.9150000000373","{""pre-3"":2}","[0]","survey-likert","522","1706781","0.0-522.0","mmt4o8yy","","","","","",""
"3036.4499999999534","{""post-5"":0}","[0]","survey-likert","523","1709818","0.0-523.0","mmt4o8yy","","","","","",""
"","","","call-function","524","1709819","0.0-524.0","mmt4o8yy","","","","","",""
"null","","","video-keyboard-response","525","1712895","0.0-525.0","mmt4o8yy","","","","null","Agent A","STIM_SET_1_REAL/498175.bmp_pp154_L1_V1.0_veridical_freeview_isoFalse_fps144.mp4"
"","","","call-function","526","1712895","0.0-526.0","mmt4o8yy","","","","","",""
"8936.429999999935","{""pre-1"":3}","[0]","survey-likert","527","1721833","0.0-527.0","mmt4o8yy","","","","","",""
"1296.3999999999069","{""pre-2"":3}","[0]","survey-likert","528","1723132","0.0-528.0","mmt4o8yy","","","","","",""
"1343.2299999999814","{""pre-3"":3}","[0]","survey-likert","529","1724477","0.0-529.0","mmt4o8yy","","","","","",""
"4017.0999999998603","{""post-5"":0}","[0]","survey-likert","530","1728495","0.0-530.0","mmt4o8yy","","","","","",""
"","","","call-function","531","1728496","0.0-531.0","mmt4o8yy","","","","","",""
"null","","","video-keyboard-response","532","1731565","0.0-532.0","mmt4o8yy","","","","null","Agent A","STIM_SET_1_REAL/1592286.bmp_pp52_L1_V1.0_scrambled_freeview_isoFalse_fps144.mp4"
"","","","call-function","533","1731566","0.0-533.0","mmt4o8yy","","","","","",""
"2302.784999999916","{""pre-1"":0}","[0]","survey-likert","534","1733870","0.0-534.0","mmt4o8yy","","","","","",""
"3128.744999999879","{""pre-2"":0}","[0]","survey-likert","535","1737000","0.0-535.0","mmt4o8yy","","","","","",""
"2955.655000000028","{""pre-3"":0}","[0]","survey-likert","536","1739957","0.0-536.0","mmt4o8yy","","","","","",""
"2488.519999999786","{""post-5"":3}","[0]","survey-likert","537","1742447","0.0-537.0","mmt4o8yy","","","","","",""
"","","","call-function","538","1742448","0.0-538.0","mmt4o8yy","","","","","",""
"null","","","video-keyboard-response","539","1745518","0.0-539.0","mmt4o8yy","","","","null","Agent A","STIM_SET_1_REAL/1159440.bmp_pp98_L1_V1.0_scrambled_freeview_isoFalse_fps144.mp4"
"","","","call-function","540","1745518","0.0-540.0","mmt4o8yy","","","","","",""
"2021.6149999999907","{""pre-1"":0}","[0]","survey-likert","541","1747541","0.0-541.0","mmt4o8yy","","","","","",""
"1835.1650000000373","{""pre-2"":0}","[0]","survey-likert","542","1749377","0.0-542.0","mmt4o8yy","","","","","",""
"1115.469999999972","{""pre-3"":0}","[0]","survey-likert","543","1750494","0.0-543.0","mmt4o8yy","","","","","",""
"2901.8649999999907","{""post-5"":3}","[0]","survey-likert","544","1753397","0.0-544.0","mmt4o8yy","","","","","",""
"","","","call-function","545","1753398","0.0-545.0","mmt4o8yy","","","","","",""
"null","","","video-keyboard-response","546","1756458","0.0-546.0","mmt4o8yy","","","","null","Agent A","STIM_SET_1_REAL/1159446.bmp_pp60_L3_V1.0_scrambled_freeview_isoFalse_fps144.mp4"
"","","","call-function","547","1756458","0.0-547.0","mmt4o8yy","","","","","",""
"8174.949999999953","{""pre-1"":3}","[0]","survey-likert","548","1764634","0.0-548.0","mmt4o8yy","","","","","",""
"2687.8349999999627","{""pre-2"":2}","[0]","survey-likert","549","1767323","0.0-549.0","mmt4o8yy","","","","","",""
"1022.0150000001304","{""pre-3"":2}","[0]","survey-likert","550","1768346","0.0-550.0","mmt4o8yy","","","","","",""
"3654.380000000121","{""post-5"":0}","[0]","survey-likert","551","1772002","0.0-551.0","mmt4o8yy","","","","","",""
"","","","call-function","552","1772002","0.0-552.0","mmt4o8yy","","","","","",""
"null","","","video-keyboard-response","553","1775062","0.0-553.0","mmt4o8yy","","","","null","Agent A","STIM_SET_1_REAL/713403.bmp_pp80_L3_V1.0_veridical_freeview_isoFalse_fps144.mp4"
"","","","call-function","554","1775063","0.0-554.0","mmt4o8yy","","","","","",""
"4993.310000000056","{""pre-1"":3}","[0]","survey-likert","555","1780058","0.0-555.0","mmt4o8yy","","","","","",""
"1297.7749999999069","{""pre-2"":3}","[0]","survey-likert","556","1781357","0.0-556.0","mmt4o8yy","","","","","",""
"1707.4150000000373","{""pre-3"":3}","[0]","survey-likert","557","1783066","0.0-557.0","mmt4o8yy","","","","","",""
"3835.659999999916","{""post-5"":0}","[0]","survey-likert","558","1786903","0.0-558.0","mmt4o8yy","","","","","",""
"","","","call-function","559","1786903","0.0-559.0","mmt4o8yy","","","","","",""
"null","","","video-keyboard-response","560","1789980","0.0-560.0","mmt4o8yy","","","","null","Agent A","STIM_SET_1_REAL/1592804.bmp_pp91_L3_V1.0_veridical_freeview_isoFalse_fps144.mp4"
"","","","call-function","561","1789980","0.0-561.0","mmt4o8yy","","","","","",""
"2347.3700000001118","{""pre-1"":2}","[0]","survey-likert","562","1792329","0.0-562.0","mmt4o8yy","","","","","",""
"931.9850000001024","{""pre-2"":2}","[0]","survey-likert","563","1793262","0.0-563.0","mmt4o8yy","","","","","",""
"864.0849999999627","{""pre-3"":2}","[0]","survey-likert","564","1794128","0.0-564.0","mmt4o8yy","","","","","",""
"3682.935000000056","{""post-5"":1}","[0]","survey-likert","565","1797812","0.0-565.0","mmt4o8yy","","","","","",""
"","","","call-function","566","1797812","0.0-566.0","mmt4o8yy","","","","","",""
"null","","","video-keyboard-response","567","1800875","0.0-567.0","mmt4o8yy","","","","null","Agent A","STIM_SET_1_REAL/713403.bmp_pp80_L3_V1.0_scrambled_freeview_isoFalse_fps144.mp4"
"","","","call-function","568","1800875","0.0-568.0","mmt4o8yy","","","","","",""
"1963.6799999999348","{""pre-1"":0}","[0]","survey-likert","569","1802840","0.0-569.0","mmt4o8yy","","","","","",""
"1427.7700000000186","{""pre-2"":0}","[0]","survey-likert","570","1804269","0.0-570.0","mmt4o8yy","","","","","",""
"1586.905000000028","{""pre-3"":0}","[0]","survey-likert","571","1805857","0.0-571.0","mmt4o8yy","","","","","",""
"2295.820000000065","{""post-5"":3}","[0]","survey-likert","572","1808154","0.0-572.0","mmt4o8yy","","","","","",""
"","","","call-function","573","1808154","0.0-573.0","mmt4o8yy","","","","","",""
"null","","","video-keyboard-response","574","1811217","0.0-574.0","mmt4o8yy","","","","null","Agent A","STIM_SET_1_REAL/713681.bmp_pp86_L2_V1.0_veridical_freeview_isoFalse_fps144.mp4"
"","","","call-function","575","1811217","0.0-575.0","mmt4o8yy","","","","","",""
"8328.889999999898","{""pre-1"":3}","[0]","survey-likert","576","1819547","0.0-576.0","mmt4o8yy","","","","","",""
"1751.5400000000373","{""pre-2"":2}","[0]","survey-likert","577","1821300","0.0-577.0","mmt4o8yy","","","","","",""
"1831.0500000000466","{""pre-3"":2}","[0]","survey-likert","578","1823132","0.0-578.0","mmt4o8yy","","","","","",""
"5283.9550000000745","{""post-5"":1}","[0]","survey-likert","579","1828417","0.0-579.0","mmt4o8yy","","","","","",""
"","","","call-function","580","1828419","0.0-580.0","mmt4o8yy","","","","","",""
"null","","","video-keyboard-response","581","1831521","0.0-581.0","mmt4o8yy","","","","null","Agent A","STIM_SET_1_REAL/285933.bmp_pp81_L1_V1.0_scrambled_freeview_isoFalse_fps144.mp4"
"","","","call-function","582","1831521","0.0-582.0","mmt4o8yy","","","","","",""
"3183.2949999999255","{""pre-1"":3}","[0]","survey-likert","583","1834706","0.0-583.0","mmt4o8yy","","","","","",""
"1398.5800000000745","{""pre-2"":3}","[0]","survey-likert","584","1836106","0.0-584.0","mmt4o8yy","","","","","",""
"938.0600000000559","{""pre-3"":3}","[0]","survey-likert","585","1837045","0.0-585.0","mmt4o8yy","","","","","",""
"4862.550000000047","{""post-5"":0}","[0]","survey-likert","586","1841909","0.0-586.0","mmt4o8yy","","","","","",""
"14623.189999999944","","","instructions","587","1856533","0.0-587.0","mmt4o8yy","[{""page_index"":0,""viewing_time"":13472.794999999925},{""page_index"":1,""viewing_time"":530.0750000001863},{""page_index"":2,""viewing_time"":620.125}]","","","","",""
"1182.1049999999814","","","instructions","588","1857715","0.0-588.0","mmt4o8yy","[{""page_index"":0,""viewing_time"":414.9350000000559},{""page_index"":1,""viewing_time"":391.375},{""page_index"":2,""viewing_time"":375.6899999999441}]","","","","",""
"","","","call-function","589","1857716","0.0-589.0","mmt4o8yy","","","","","",""
"null","","","video-keyboard-response","590","1860777","0.0-590.0","mmt4o8yy","","","","null","Agent A","STIM_SET_1_REAL/498149.bmp_pp99_L2_V1.0_scrambled_freeview_isoFalse_fps144.mp4"
"","","","call-function","591","1860778","0.0-591.0","mmt4o8yy","","","","","",""
"2076.7949999999255","{""pre-1"":3}","[0]","survey-likert","592","1862855","0.0-592.0","mmt4o8yy","","","","","",""
"1224.6450000000186","{""pre-2"":3}","[0]","survey-likert","593","1864081","0.0-593.0","mmt4o8yy","","","","","",""
"2244.625","{""pre-3"":3}","[0]","survey-likert","594","1866327","0.0-594.0","mmt4o8yy","","","","","",""
"2613.435000000056","{""post-5"":0}","[0]","survey-likert","595","1868942","0.0-595.0","mmt4o8yy","","","","","",""
"","","","call-function","596","1868942","0.0-596.0","mmt4o8yy","","","","","",""
"null","","","video-keyboard-response","597","1872013","0.0-597.0","mmt4o8yy","","","","null","Agent A","STIM_SET_1_REAL/713017.bmp_pp152_L2_V1.0_scrambled_freeview_isoFalse_fps144.mp4"
"","","","call-function","598","1872013","0.0-598.0","mmt4o8yy","","","","","",""
"2320.530000000028","{""pre-1"":3}","[0]","survey-likert","599","1874335","0.0-599.0","mmt4o8yy","","","","","",""
"1674.8349999999627","{""pre-2"":3}","[0]","survey-likert","600","1876011","0.0-600.0","mmt4o8yy","","","","","",""
"1235.4150000000373","{""pre-3"":3}","[0]","survey-likert","601","1877248","0.0-601.0","mmt4o8yy","","","","","",""
"1389.3649999999907","{""post-5"":0}","[0]","survey-likert","602","1878638","0.0-602.0","mmt4o8yy","","","","","",""
"","","","call-function","603","1878638","0.0-603.0","mmt4o8yy","","","","","",""
"null","","","video-keyboard-response","604","1881719","0.0-604.0","mmt4o8yy","","","","null","Agent A","STIM_SET_1_REAL/498253.bmp_pp67_L2_V1.0_veridical_freeview_isoFalse_fps144.mp4"
"","","","call-function","605","1881719","0.0-605.0","mmt4o8yy","","","","","",""
"4773.415000000037","{""pre-1"":3}","[0]","survey-likert","606","1886494","0.0-606.0","mmt4o8yy","","","","","",""
"1451.5600000000559","{""pre-2"":3}","[0]","survey-likert","607","1887948","0.0-607.0","mmt4o8yy","","","","","",""
"1949.6149999999907","{""pre-3"":3}","[0]","survey-likert","608","1889899","0.0-608.0","mmt4o8yy","","","","","",""
"1779.219999999972","{""post-5"":0}","[0]","survey-likert","609","1891679","0.0-609.0","mmt4o8yy","","","","","",""
"","","","call-function","610","1891680","0.0-610.0","mmt4o8yy","","","","","",""
"null","","","video-keyboard-response","611","1894756","0.0-611.0","mmt4o8yy","","","","null","Agent A","STIM_SET_1_REAL/1591876.bmp_pp63_L1_V1.0_veridical_freeview_isoFalse_fps144.mp4"
"","","","call-function","612","1894757","0.0-612.0","mmt4o8yy","","","","","",""
"2427.810000000056","{""pre-1"":3}","[0]","survey-likert","613","1897186","0.0-613.0","mmt4o8yy","","","","","",""
"1975.970000000205","{""pre-2"":3}","[0]","survey-likert","614","1899163","0.0-614.0","mmt4o8yy","","","","","",""
"1205.7900000000373","{""pre-3"":3}","[0]","survey-likert","615","1900371","0.0-615.0","mmt4o8yy","","","","","",""
"1455.4150000000373","{""post-5"":0}","[0]","survey-likert","616","1901827","0.0-616.0","mmt4o8yy","","","","","",""
"","","","call-function","617","1901828","0.0-617.0","mmt4o8yy","","","","","",""
"null","","","video-keyboard-response","618","1904902","0.0-618.0","mmt4o8yy","","","","null","Agent A","STIM_SET_1_REAL/498111.bmp_pp88_L2_V1.0_scrambled_freeview_isoFalse_fps144.mp4"
"","","","call-function","619","1904903","0.0-619.0","mmt4o8yy","","","","","",""
"3544.965000000084","{""pre-1"":1}","[0]","survey-likert","620","1908449","0.0-620.0","mmt4o8yy","","","","","",""
"3130.8349999999627","{""pre-2"":2}","[0]","survey-likert","621","1911581","0.0-621.0","mmt4o8yy","","","","","",""
"1916.4750000000931","{""pre-3"":2}","[0]","survey-likert","622","1913499","0.0-622.0","mmt4o8yy","","","","","",""
"2167.4199999999255","{""post-5"":3}","[0]","survey-likert","623","1915667","0.0-623.0","mmt4o8yy","","","","","",""
"","","","call-function","624","1915668","0.0-624.0","mmt4o8yy","","","","","",""
"null","","","video-keyboard-response","625","1918741","0.0-625.0","mmt4o8yy","","","","null","Agent A","STIM_SET_1_REAL/1591961.bmp_pp67_L2_V1.0_scrambled_freeview_isoFalse_fps144.mp4"
"","","","call-function","626","1918741","0.0-626.0","mmt4o8yy","","","","","",""
"2726.684999999823","{""pre-1"":0}","[0]","survey-likert","627","1921469","0.0-627.0","mmt4o8yy","","","","","",""
"7046.4550000000745","{""pre-2"":0}","[0]","survey-likert","628","1928516","0.0-628.0","mmt4o8yy","","","","","",""
"4621.64000000013","{""pre-3"":0}","[0]","survey-likert","629","1933139","0.0-629.0","mmt4o8yy","","","","","",""
"1759.309999999823","{""post-5"":2}","[0]","survey-likert","630","1934899","0.0-630.0","mmt4o8yy","","","","","",""
"","","","call-function","631","1934900","0.0-631.0","mmt4o8yy","","","","","",""
"null","","","video-keyboard-response","632","1937969","0.0-632.0","mmt4o8yy","","","","null","Agent A","STIM_SET_1_REAL/713796.bmp_pp84_L3_V1.0_scrambled_freeview_isoFalse_fps144.mp4"
"","","","call-function","633","1937969","0.0-633.0","mmt4o8yy","","","","","",""
"2745.6350000000093","{""pre-1"":1}","[0]","survey-likert","634","1940716","0.0-634.0","mmt4o8yy","","","","","",""
"2360.8349999999627","{""pre-2"":1}","[0]","survey-likert","635","1943079","0.0-635.0","mmt4o8yy","","","","","",""
"2409.619999999879","{""pre-3"":1}","[0]","survey-likert","636","1945490","0.0-636.0","mmt4o8yy","","","","","",""
"3855.5400000000373","{""post-5"":2}","[0]","survey-likert","637","1949347","0.0-637.0","mmt4o8yy","","","","","",""
"","","","call-function","638","1949348","0.0-638.0","mmt4o8yy","","","","","",""
"null","","","video-keyboard-response","639","1952418","0.0-639.0","mmt4o8yy","","","","null","Agent A","STIM_SET_1_REAL/1160168.bmp_pp53_L2_V1.0_scrambled_freeview_isoFalse_fps144.mp4"
"","","","call-function","640","1952419","0.0-640.0","mmt4o8yy","","","","","",""
"2894.320000000065","{""pre-1"":2}","[0]","survey-likert","641","1955314","0.0-641.0","mmt4o8yy","","","","","",""
"1137.530000000028","{""pre-2"":2}","[0]","survey-likert","642","1956453","0.0-642.0","mmt4o8yy","","","","","",""
"1564.154999999795","{""pre-3"":2}","[0]","survey-likert","643","1958018","0.0-643.0","mmt4o8yy","","","","","",""
"1132.3000000000466","{""post-5"":1}","[0]","survey-likert","644","1959151","0.0-644.0","mmt4o8yy","","","","","",""
"","","","call-function","645","1959152","0.0-645.0","mmt4o8yy","","","","","",""
"null","","","video-keyboard-response","646","1962220","0.0-646.0","mmt4o8yy","","","","null","Agent A","STIM_SET_1_REAL/1159768.bmp_pp89_L1_V1.0_scrambled_freeview_isoFalse_fps144.mp4"
"","","","call-function","647","1962221","0.0-647.0","mmt4o8yy","","","","","",""
"3110.7049999998417","{""pre-1"":3}","[0]","survey-likert","648","1965332","0.0-648.0","mmt4o8yy","","","","","",""
"1389.3000000000466","{""pre-2"":3}","[0]","survey-likert","649","1966723","0.0-649.0","mmt4o8yy","","","","","",""
"1838.4250000000466","{""pre-3"":3}","[0]","survey-likert","650","1968562","0.0-650.0","mmt4o8yy","","","","","",""
"10223.520000000019","{""post-5"":0}","[0]","survey-likert","651","1978787","0.0-651.0","mmt4o8yy","","","","","",""
"","","","call-function","652","1978787","0.0-652.0","mmt4o8yy","","","","","",""
"null","","","video-keyboard-response","653","1981856","0.0-653.0","mmt4o8yy","","","","null","Agent A","STIM_SET_1_REAL/285905.bmp_pp57_L1_V1.0_scrambled_freeview_isoFalse_fps144.mp4"
"","","","call-function","654","1981856","0.0-654.0","mmt4o8yy","","","","","",""
"9067.629999999888","{""pre-1"":1}","[0]","survey-likert","655","1990925","0.0-655.0","mmt4o8yy","","","","","",""
"1063.3549999999814","{""pre-2"":1}","[0]","survey-likert","656","1991990","0.0-656.0","mmt4o8yy","","","","","",""
"955.625","{""pre-3"":1}","[0]","survey-likert","657","1992946","0.0-657.0","mmt4o8yy","","","","","",""
"1666.8100000000559","{""post-5"":2}","[0]","survey-likert","658","1994614","0.0-658.0","mmt4o8yy","","","","","",""
"","","","call-function","659","1994615","0.0-659.0","mmt4o8yy","","","","","",""
"null","","","video-keyboard-response","660","1997694","0.0-660.0","mmt4o8yy","","","","null","Agent A","STIM_SET_1_REAL/1591954.bmp_pp62_L2_V1.0_veridical_freeview_isoFalse_fps144.mp4"
"","","","call-function","661","1997694","0.0-661.0","mmt4o8yy","","","","","",""
"2717.2700000000186","{""pre-1"":3}","[0]","survey-likert","662","2000413","0.0-662.0","mmt4o8yy","","","","","",""
"3634.9950000001118","{""pre-2"":3}","[0]","survey-likert","663","2004051","0.0-663.0","mmt4o8yy","","","","","",""
"1507.035000000149","{""pre-3"":3}","[0]","survey-likert","664","2005559","0.0-664.0","mmt4o8yy","","","","","",""
"1535.8050000001676","{""post-5"":1}","[0]","survey-likert","665","2007097","0.0-665.0","mmt4o8yy","","","","","",""
"","","","call-function","666","2007097","0.0-666.0","mmt4o8yy","","","","","",""
"null","","","video-keyboard-response","667","2010159","0.0-667.0","mmt4o8yy","","","","null","Agent A","STIM_SET_1_REAL/713681.bmp_pp86_L2_V1.0_scrambled_freeview_isoFalse_fps144.mp4"
"","","","call-function","668","2010159","0.0-668.0","mmt4o8yy","","","","","",""
"7224.864999999991","{""pre-1"":2}","[0]","survey-likert","669","2017385","0.0-669.0","mmt4o8yy","","","","","",""
"1229.0349999999162","{""pre-2"":2}","[0]","survey-likert","670","2018616","0.0-670.0","mmt4o8yy","","","","","",""
"1106.5649999999441","{""pre-3"":2}","[0]","survey-likert","671","2019723","0.0-671.0","mmt4o8yy","","","","","",""
"1668.7900000000373","{""post-5"":1}","[0]","survey-likert","672","2021393","0.0-672.0","mmt4o8yy","","","","","",""
"","","","call-function","673","2021394","0.0-673.0","mmt4o8yy","","","","","",""
"null","","","video-keyboard-response","674","2024459","0.0-674.0","mmt4o8yy","","","","null","Agent A","STIM_SET_1_REAL/1159572.bmp_pp71_L1_V1.0_scrambled_freeview_isoFalse_fps144.mp4"
"","","","call-function","675","2024459","0.0-675.0","mmt4o8yy","","","","","",""
"3249.774999999907","{""pre-1"":2}","[0]","survey-likert","676","2027710","0.0-676.0","mmt4o8yy","","","","","",""
"1284.3149999999441","{""pre-2"":2}","[0]","survey-likert","677","2028995","0.0-677.0","mmt4o8yy","","","","","",""
"919.9350000000559","{""pre-3"":2}","[0]","survey-likert","678","2029916","0.0-678.0","mmt4o8yy","","","","","",""
"2331.8549999999814","{""post-5"":2}","[0]","survey-likert","679","2032250","0.0-679.0","mmt4o8yy","","","","","",""
"","","","call-function","680","2032250","0.0-680.0","mmt4o8yy","","","","","",""
"null","","","video-keyboard-response","681","2035313","0.0-681.0","mmt4o8yy","","","","null","Agent A","STIM_SET_1_REAL/1592133.bmp_pp75_L1_V1.0_scrambled_freeview_isoFalse_fps144.mp4"
"","","","call-function","682","2035313","0.0-682.0","mmt4o8yy","","","","","",""
"3340.909999999916","{""pre-1"":0}","[0]","survey-likert","683","2038655","0.0-683.0","mmt4o8yy","","","","","",""
"1387.155000000028","{""pre-2"":0}","[0]","survey-likert","684","2040043","0.0-684.0","mmt4o8yy","","","","","",""
"1207.565000000177","{""pre-3"":0}","[0]","survey-likert","685","2041252","0.0-685.0","mmt4o8yy","","","","","",""
"2127.4250000000466","{""post-5"":2}","[0]","survey-likert","686","2043380","0.0-686.0","mmt4o8yy","","","","","",""
"","","","call-function","687","2043381","0.0-687.0","mmt4o8yy","","","","","",""
"null","","","video-keyboard-response","688","2046457","0.0-688.0","mmt4o8yy","","","","null","Agent A","STIM_SET_1_REAL/1592657.bmp_pp98_L1_V1.0_scrambled_freeview_isoFalse_fps144.mp4"
"","","","call-function","689","2046458","0.0-689.0","mmt4o8yy","","","","","",""
"9347.550000000047","{""pre-1"":2}","[0]","survey-likert","690","2055806","0.0-690.0","mmt4o8yy","","","","","",""
"1969.8249999999534","{""pre-2"":2}","[0]","survey-likert","691","2057777","0.0-691.0","mmt4o8yy","","","","","",""
"1115.5400000000373","{""pre-3"":2}","[0]","survey-likert","692","2058894","0.0-692.0","mmt4o8yy","","","","","",""
"1540.0249999999069","{""post-5"":2}","[0]","survey-likert","693","2060435","0.0-693.0","mmt4o8yy","","","","","",""
"","","","call-function","694","2060435","0.0-694.0","mmt4o8yy","","","","","",""
"null","","","video-keyboard-response","695","2063520","0.0-695.0","mmt4o8yy","","","","null","Agent A","STIM_SET_1_REAL/713779.bmp_pp152_L2_V1.0_scrambled_freeview_isoFalse_fps144.mp4"
"","","","call-function","696","2063521","0.0-696.0","mmt4o8yy","","","","","",""
"2366.0400000000373","{""pre-1"":3}","[0]","survey-likert","697","2065889","0.0-697.0","mmt4o8yy","","","","","",""
"1524.3549999999814","{""pre-2"":3}","[0]","survey-likert","698","2067415","0.0-698.0","mmt4o8yy","","","","","",""
"1113.3899999998976","{""pre-3"":3}","[0]","survey-likert","699","2068530","0.0-699.0","mmt4o8yy","","","","","",""
"1720.6750000000466","{""post-5"":0}","[0]","survey-likert","700","2070253","0.0-700.0","mmt4o8yy","","","","","",""
"","","","call-function","701","2070254","0.0-701.0","mmt4o8yy","","","","","",""
"null","","","video-keyboard-response","702","2073318","0.0-702.0","mmt4o8yy","","","","null","Agent A","STIM_SET_1_REAL/1592619.bmp_pp56_L3_V1.0_scrambled_freeview_isoFalse_fps144.mp4"
"","","","call-function","703","2073318","0.0-703.0","mmt4o8yy","","","","","",""
"8436.379999999888","{""pre-1"":3}","[0]","survey-likert","704","2081756","0.0-704.0","mmt4o8yy","","","","","",""
"1370.244999999879","{""pre-2"":3}","[0]","survey-likert","705","2083127","0.0-705.0","mmt4o8yy","","","","","",""
"1302.1949999998324","{""pre-3"":3}","[0]","survey-likert","706","2084431","0.0-706.0","mmt4o8yy","","","","","",""
"1321.4750000000931","{""post-5"":1}","[0]","survey-likert","707","2085754","0.0-707.0","mmt4o8yy","","","","","",""
"","","","call-function","708","2085754","0.0-708.0","mmt4o8yy","","","","","",""
"null","","","video-keyboard-response","709","2088825","0.0-709.0","mmt4o8yy","","","","null","Agent A","STIM_SET_1_REAL/1592727.bmp_pp59_L3_V1.0_scrambled_freeview_isoFalse_fps144.mp4"
"","","","call-function","710","2088825","0.0-710.0","mmt4o8yy","","","","","",""
"3368.100000000093","{""pre-1"":1}","[0]","survey-likert","711","2092195","0.0-711.0","mmt4o8yy","","","","","",""
"2601.3300000000745","{""pre-2"":1}","[0]","survey-likert","712","2094797","0.0-712.0","mmt4o8yy","","","","","",""
"1577.630000000121","{""pre-3"":1}","[0]","survey-likert","713","2096376","0.0-713.0","mmt4o8yy","","","","","",""
"3089.9449999998324","{""post-5"":2}","[0]","survey-likert","714","2099467","0.0-714.0","mmt4o8yy","","","","","",""
"","","","call-function","715","2099467","0.0-715.0","mmt4o8yy","","","","","",""
"null","","","video-keyboard-response","716","2102545","0.0-716.0","mmt4o8yy","","","","null","Agent A","STIM_SET_1_REAL/712977.bmp_pp51_L1_V1.0_scrambled_freeview_isoFalse_fps144.mp4"
"","","","call-function","717","2102546","0.0-717.0","mmt4o8yy","","","","","",""
"3709.6049999999814","{""pre-1"":3}","[0]","survey-likert","718","2106256","0.0-718.0","mmt4o8yy","","","","","",""
"1190.654999999795","{""pre-2"":3}","[0]","survey-likert","719","2107448","0.0-719.0","mmt4o8yy","","","","","",""
"1388.589999999851","{""pre-3"":3}","[0]","survey-likert","720","2108838","0.0-720.0","mmt4o8yy","","","","","",""
"2411.0500000002794","{""post-5"":1}","[0]","survey-likert","721","2111250","0.0-721.0","mmt4o8yy","","","","","",""
"","","","call-function","722","2111251","0.0-722.0","mmt4o8yy","","","","","",""
"null","","","video-keyboard-response","723","2114315","0.0-723.0","mmt4o8yy","","","","null","Agent A","STIM_SET_1_REAL/713089.bmp_pp60_L3_V1.0_scrambled_freeview_isoFalse_fps144.mp4"
"","","","call-function","724","2114316","0.0-724.0","mmt4o8yy","","","","","",""
"5379.534999999683","{""pre-1"":2}","[0]","survey-likert","725","2119696","0.0-725.0","mmt4o8yy","","","","","",""
"927.2250000000931","{""pre-2"":2}","[0]","survey-likert","726","2120625","0.0-726.0","mmt4o8yy","","","","","",""
"2525.220000000205","{""pre-3"":2}","[0]","survey-likert","727","2123151","0.0-727.0","mmt4o8yy","","","","","",""
"1449.3349999999627","{""post-5"":1}","[0]","survey-likert","728","2124601","0.0-728.0","mmt4o8yy","","","","","",""
"23289.78500000015","","","instructions","729","2147892","0.0-729.0","mmt4o8yy","[{""page_index"":0,""viewing_time"":975.714999999851},{""page_index"":1,""viewing_time"":21827.900000000373},{""page_index"":2,""viewing_time"":486}]","","","","",""
"1201.6200000001118","","","instructions","730","2149094","0.0-730.0","mmt4o8yy","[{""page_index"":0,""viewing_time"":349.3300000000745},{""page_index"":1,""viewing_time"":430.01000000024214},{""page_index"":2,""viewing_time"":422.179999999702}]","","","","",""
"","","","call-function","731","2149094","0.0-731.0","mmt4o8yy","","","","","",""
"null","","","video-keyboard-response","732","2152168","0.0-732.0","mmt4o8yy","","","","null","Agent A","STIM_SET_1_REAL/1159784.bmp_pp73_L3_V1.0_veridical_freeview_isoFalse_fps144.mp4"
"","","","call-function","733","2152169","0.0-733.0","mmt4o8yy","","","","","",""
"2019.7650000001304","{""pre-1"":3}","[0]","survey-likert","734","2154190","0.0-734.0","mmt4o8yy","","","","","",""
"1332.7399999997579","{""pre-2"":3}","[0]","survey-likert","735","2155524","0.0-735.0","mmt4o8yy","","","","","",""
"1513.6650000000373","{""pre-3"":3}","[0]","survey-likert","736","2157040","0.0-736.0","mmt4o8yy","","","","","",""
"2804.8050000001676","{""post-5"":0}","[0]","survey-likert","737","2159846","0.0-737.0","mmt4o8yy","","","","","",""
"","","","call-function","738","2159847","0.0-738.0","mmt4o8yy","","","","","",""
"null","","","video-keyboard-response","739","2162923","0.0-739.0","mmt4o8yy","","","","null","Agent A","STIM_SET_1_REAL/713620.bmp_pp65_L3_V1.0_veridical_freeview_isoFalse_fps144.mp4"
"","","","call-function","740","2162923","0.0-740.0","mmt4o8yy","","","","","",""
"3304.6349999997765","{""pre-1"":3}","[0]","survey-likert","741","2166229","0.0-741.0","mmt4o8yy","","","","","",""
"1352.0250000003725","{""pre-2"":3}","[0]","survey-likert","742","2167582","0.0-742.0","mmt4o8yy","","","","","",""
"1281.820000000298","{""pre-3"":3}","[0]","survey-likert","743","2168865","0.0-743.0","mmt4o8yy","","","","","",""
"2186.364999999758","{""post-5"":1}","[0]","survey-likert","744","2171053","0.0-744.0","mmt4o8yy","","","","","",""
"","","","call-function","745","2171053","0.0-745.0","mmt4o8yy","","","","","",""
"null","","","video-keyboard-response","746","2174131","0.0-746.0","mmt4o8yy","","","","null","Agent A","STIM_SET_1_REAL/713707.bmp_pp154_L1_V1.0_scrambled_freeview_isoFalse_fps144.mp4"
"","","","call-function","747","2174131","0.0-747.0","mmt4o8yy","","","","","",""
"3232.6800000001676","{""pre-1"":3}","[0]","survey-likert","748","2177365","0.0-748.0","mmt4o8yy","","","","","",""
"1198.2650000001304","{""pre-2"":3}","[0]","survey-likert","749","2178565","0.0-749.0","mmt4o8yy","","","","","",""
"2444.0349999996834","{""pre-3"":3}","[0]","survey-likert","750","2181011","0.0-750.0","mmt4o8yy","","","","","",""
"1330.4550000000745","{""post-5"":0}","[0]","survey-likert","751","2182342","0.0-751.0","mmt4o8yy","","","","","",""
"","","","call-function","752","2182343","0.0-752.0","mmt4o8yy","","","","","",""
"null","","","video-keyboard-response","753","2185418","0.0-753.0","mmt4o8yy","","","","null","Agent A","STIM_SET_1_REAL/713684.bmp_pp85_L3_V1.0_scrambled_freeview_isoFalse_fps144.mp4"
"","","","call-function","754","2185419","0.0-754.0","mmt4o8yy","","","","","",""
"4481.695000000298","{""pre-1"":2}","[0]","survey-likert","755","2189902","0.0-755.0","mmt4o8yy","","","","","",""
"1614.6150000002235","{""pre-2"":2}","[0]","survey-likert","756","2191518","0.0-756.0","mmt4o8yy","","","","","",""
"1162.5800000000745","{""pre-3"":2}","[0]","survey-likert","757","2192681","0.0-757.0","mmt4o8yy","","","","","",""
"1384.9599999999627","{""post-5"":2}","[0]","survey-likert","758","2194067","0.0-758.0","mmt4o8yy","","","","","",""
"","","","call-function","759","2194068","0.0-759.0","mmt4o8yy","","","","","",""
"null","","","video-keyboard-response","760","2197145","0.0-760.0","mmt4o8yy","","","","null","Agent A","STIM_SET_1_REAL/713211.bmp_pp100_L3_V1.0_scrambled_freeview_isoFalse_fps144.mp4"
"","","","call-function","761","2197146","0.0-761.0","mmt4o8yy","","","","","",""
"4099.145000000019","{""pre-1"":2}","[0]","survey-likert","762","2201246","0.0-762.0","mmt4o8yy","","","","","",""
"2482.8700000001118","{""pre-2"":2}","[0]","survey-likert","763","2203730","0.0-763.0","mmt4o8yy","","","","","",""
"2723.2349999998696","{""pre-3"":2}","[0]","survey-likert","764","2206454","0.0-764.0","mmt4o8yy","","","","","",""
"2000.970000000205","{""post-5"":2}","[0]","survey-likert","765","2208456","0.0-765.0","mmt4o8yy","","","","","",""
"","","","call-function","766","2208457","0.0-766.0","mmt4o8yy","","","","","",""
"null","","","video-keyboard-response","767","2211555","0.0-767.0","mmt4o8yy","","","","null","Agent A","STIM_SET_1_REAL/1159621.bmp_pp92_L3_V1.0_scrambled_freeview_isoFalse_fps144.mp4"
"","","","call-function","768","2211556","0.0-768.0","mmt4o8yy","","","","","",""
"2248.4749999996275","{""pre-1"":1}","[0]","survey-likert","769","2213806","0.0-769.0","mmt4o8yy","","","","","",""
"4724.94000000041","{""pre-2"":0}","[0]","survey-likert","770","2218533","0.0-770.0","mmt4o8yy","","","","","",""
"1387.945000000298","{""pre-3"":0}","[0]","survey-likert","771","2219922","0.0-771.0","mmt4o8yy","","","","","",""
"3776.6400000001304","{""post-5"":2}","[0]","survey-likert","772","2223700","0.0-772.0","mmt4o8yy","","","","","",""
"","","","call-function","773","2223700","0.0-773.0","mmt4o8yy","","","","","",""
"null","","","video-keyboard-response","774","2226775","0.0-774.0","mmt4o8yy","","","","null","Agent A","STIM_SET_1_REAL/713593.bmp_pp64_L1_V1.0_veridical_freeview_isoFalse_fps144.mp4"
"","","","call-function","775","2226775","0.0-775.0","mmt4o8yy","","","","","",""
"2499.154999999795","{""pre-1"":3}","[0]","survey-likert","776","2229276","0.0-776.0","mmt4o8yy","","","","","",""
"929.9399999999441","{""pre-2"":3}","[0]","survey-likert","777","2230207","0.0-777.0","mmt4o8yy","","","","","",""
"2154.475000000093","{""pre-3"":3}","[0]","survey-likert","778","2232363","0.0-778.0","mmt4o8yy","","","","","",""
"1104.6299999998882","{""post-5"":2}","[0]","survey-likert","779","2233469","0.0-779.0","mmt4o8yy","","","","","",""
"","","","call-function","780","2233469","0.0-780.0","mmt4o8yy","","","","","",""
"null","","","video-keyboard-response","781","2236530","0.0-781.0","mmt4o8yy","","","","null","Agent A","STIM_SET_1_REAL/1592817.bmp_pp55_L3_V1.0_veridical_freeview_isoFalse_fps144.mp4"
"","","","call-function","782","2236530","0.0-782.0","mmt4o8yy","","","","","",""
"5364.4199999999255","{""pre-1"":3}","[0]","survey-likert","783","2241896","0.0-783.0","mmt4o8yy","","","","","",""
"1116.7150000003166","{""pre-2"":2}","[0]","survey-likert","784","2243014","0.0-784.0","mmt4o8yy","","","","","",""
"850.8149999999441","{""pre-3"":2}","[0]","survey-likert","785","2243865","0.0-785.0","mmt4o8yy","","","","","",""
"2017.1099999998696","{""post-5"":1}","[0]","survey-likert","786","2245884","0.0-786.0","mmt4o8yy","","","","","",""
"","","","call-function","787","2245884","0.0-787.0","mmt4o8yy","","","","","",""
"null","","","video-keyboard-response","788","2248954","0.0-788.0","mmt4o8yy","","","","null","Agent A","STIM_SET_1_REAL/1592499.bmp_pp96_L2_V1.0_scrambled_freeview_isoFalse_fps144.mp4"
"","","","call-function","789","2248954","0.0-789.0","mmt4o8yy","","","","","",""
"11125.419999999925","{""pre-1"":2}","[0]","survey-likert","790","2260080","0.0-790.0","mmt4o8yy","","","","","",""
"960.9699999997392","{""pre-2"":2}","[0]","survey-likert","791","2261043","0.0-791.0","mmt4o8yy","","","","","",""
"1455.6099999998696","{""pre-3"":2}","[0]","survey-likert","792","2262499","0.0-792.0","mmt4o8yy","","","","","",""
"1061.0400000000373","{""post-5"":1}","[0]","survey-likert","793","2263562","0.0-793.0","mmt4o8yy","","","","","",""
"","","","call-function","794","2263562","0.0-794.0","mmt4o8yy","","","","","",""
"null","","","video-keyboard-response","795","2266642","0.0-795.0","mmt4o8yy","","","","null","Agent A","STIM_SET_1_REAL/61537.bmp_pp73_L3_V1.0_veridical_freeview_isoFalse_fps144.mp4"
"","","","call-function","796","2266642","0.0-796.0","mmt4o8yy","","","","","",""
"2271.875","{""pre-1"":3}","[0]","survey-likert","797","2268915","0.0-797.0","mmt4o8yy","","","","","",""
"1196.3999999999069","{""pre-2"":3}","[0]","survey-likert","798","2270113","0.0-798.0","mmt4o8yy","","","","","",""
"1126.3599999998696","{""pre-3"":3}","[0]","survey-likert","799","2271240","0.0-799.0","mmt4o8yy","","","","","",""
"1707.345000000205","{""post-5"":0}","[0]","survey-likert","800","2272948","0.0-800.0","mmt4o8yy","","","","","",""
"","","","call-function","801","2272949","0.0-801.0","mmt4o8yy","","","","","",""
"null","","","video-keyboard-response","802","2276045","0.0-802.0","mmt4o8yy","","","","null","Agent A","STIM_SET_1_REAL/1592890.bmp_pp82_L2_V1.0_scrambled_freeview_isoFalse_fps144.mp4"
"","","","call-function","803","2276045","0.0-803.0","mmt4o8yy","","","","","",""
"4553.095000000205","{""pre-1"":3}","[0]","survey-likert","804","2280600","0.0-804.0","mmt4o8yy","","","","","",""
"1578.1299999998882","{""pre-2"":3}","[0]","survey-likert","805","2282180","0.0-805.0","mmt4o8yy","","","","","",""
"946.1949999998324","{""pre-3"":2}","[0]","survey-likert","806","2283129","0.0-806.0","mmt4o8yy","","","","","",""
"2072.714999999851","{""post-5"":1}","[0]","survey-likert","807","2285203","0.0-807.0","mmt4o8yy","","","","","",""
"","","","call-function","808","2285204","0.0-808.0","mmt4o8yy","","","","","",""
"null","","","video-keyboard-response","809","2288283","0.0-809.0","mmt4o8yy","","","","null","Agent A","STIM_SET_1_REAL/713666.bmp_pp97_L3_V1.0_scrambled_freeview_isoFalse_fps144.mp4"
"","","","call-function","810","2288284","0.0-810.0","mmt4o8yy","","","","","",""
"3854.4249999998137","{""pre-1"":2}","[0]","survey-likert","811","2292139","0.0-811.0","mmt4o8yy","","","","","",""
"2049.0699999998324","{""pre-2"":2}","[0]","survey-likert","812","2294190","0.0-812.0","mmt4o8yy","","","","","",""
"2058.935000000056","{""pre-3"":2}","[0]","survey-likert","813","2296250","0.0-813.0","mmt4o8yy","","","","","",""
"8098.929999999702","{""post-5"":2}","[0]","survey-likert","814","2304350","0.0-814.0","mmt4o8yy","","","","","",""
"","","","call-function","815","2304351","0.0-815.0","mmt4o8yy","","","","","",""
"null","","","video-keyboard-response","816","2307430","0.0-816.0","mmt4o8yy","","","","null","Agent A","STIM_SET_1_REAL/713707.bmp_pp154_L1_V1.0_veridical_freeview_isoFalse_fps144.mp4"
"","","","call-function","817","2307431","0.0-817.0","mmt4o8yy","","","","","",""
"2403.6650000000373","{""pre-1"":3}","[0]","survey-likert","818","2309835","0.0-818.0","mmt4o8yy","","","","","",""
"3040.064999999944","{""pre-2"":3}","[0]","survey-likert","819","2312877","0.0-819.0","mmt4o8yy","","","","","",""
"1564.589999999851","{""pre-3"":3}","[0]","survey-likert","820","2314442","0.0-820.0","mmt4o8yy","","","","","",""
"3399.8950000000186","{""post-5"":0}","[0]","survey-likert","821","2317843","0.0-821.0","mmt4o8yy","","","","","",""
"","","","call-function","822","2317844","0.0-822.0","mmt4o8yy","","","","","",""
"null","","","video-keyboard-response","823","2320914","0.0-823.0","mmt4o8yy","","","","null","Agent A","STIM_SET_1_REAL/713796.bmp_pp84_L3_V1.0_veridical_freeview_isoFalse_fps144.mp4"
"","","","call-function","824","2320915","0.0-824.0","mmt4o8yy","","","","","",""
"2964.904999999795","{""pre-1"":3}","[0]","survey-likert","825","2323881","0.0-825.0","mmt4o8yy","","","","","",""
"1552.4750000000931","{""pre-2"":3}","[0]","survey-likert","826","2325435","0.0-826.0","mmt4o8yy","","","","","",""
"1884.035000000149","{""pre-3"":3}","[0]","survey-likert","827","2327320","0.0-827.0","mmt4o8yy","","","","","",""
"4764.125","{""post-5"":1}","[0]","survey-likert","828","2332086","0.0-828.0","mmt4o8yy","","","","","",""
"","","","call-function","829","2332087","0.0-829.0","mmt4o8yy","","","","","",""
"null","","","video-keyboard-response","830","2335166","0.0-830.0","mmt4o8yy","","","","null","Agent A","STIM_SET_1_REAL/1159855.bmp_pp99_L2_V1.0_scrambled_freeview_isoFalse_fps144.mp4"
"","","","call-function","831","2335166","0.0-831.0","mmt4o8yy","","","","","",""
"2519.3300000000745","{""pre-1"":3}","[0]","survey-likert","832","2337686","0.0-832.0","mmt4o8yy","","","","","",""
"1337.1099999998696","{""pre-2"":3}","[0]","survey-likert","833","2339025","0.0-833.0","mmt4o8yy","","","","","",""
"1750.2800000002608","{""pre-3"":3}","[0]","survey-likert","834","2340777","0.0-834.0","mmt4o8yy","","","","","",""
"1231.6949999998324","{""post-5"":2}","[0]","survey-likert","835","2342010","0.0-835.0","mmt4o8yy","","","","","",""
"","","","call-function","836","2342010","0.0-836.0","mmt4o8yy","","","","","",""
