"rt","responses","question_order","trial_type","trial_index","time_elapsed","internal_node_id","ID","view_history","value","stimulus","key_press","agent","image"
"207019.345","{""Experimenter"":[""Confirmed subject's identity (ID card)"",""Confirmed normal or corrected-to-normal vision"",""Obtained consent (signature and date)"",""Checked the test room lighting"",""Checked computer screen lighting"",""Checked distance from screen to chin rest (50cm)"",""Cleaned and adjusted chin rest"",""Counterbalanced the order of the tasks"",""Opened the experiment in Firefox"",""Made the experiment full screen"",""Encouraged subject to silence phone, put away distractors, etc.""]}","[0]","survey-multi-select","0","207027","0.0-0.0","pwkqzjyl","","","","","",""
"18141.13500000001","","","instructions","1","225170","0.0-1.0","pwkqzjyl","[{""page_index"":0,""viewing_time"":18140.984999999986}]","","","","",""
"8674.940000000002","{""Age"":1,""Sex"":1,""Gender"":1}","[0,1,2]","survey-likert","2","233847","0.0-2.0","pwkqzjyl","","","","","",""
"1199.6650000000081","","","instructions","3","235047","0.0-3.0","pwkqzjyl","[{""page_index"":0,""viewing_time"":1199.5650000000023}]","","","","",""
"8358.584999999992","","","instructions","4","243406","0.0-4.0","pwkqzjyl","[{""page_index"":0,""viewing_time"":2548.8550000000105},{""page_index"":1,""viewing_time"":5809.584999999992}]","","","","",""
"10797.640000000014","","","instructions","5","254204","0.0-5.0","pwkqzjyl","[{""page_index"":0,""viewing_time"":1498.515000000014},{""page_index"":1,""viewing_time"":2022.0449999999837},{""page_index"":2,""viewing_time"":7276.9649999999965}]","","","","",""
"2935.685000000027","","","instructions","6","257141","0.0-6.0","pwkqzjyl","[{""page_index"":0,""viewing_time"":2935.5800000000163}]","","","","",""
"","","","call-function","7","257141","0.0-7.0","pwkqzjyl","","","","","",""
"null","","","video-keyboard-response","8","260215","0.0-8.0","pwkqzjyl","","","","null","",""
"","","","call-function","9","260216","0.0-9.0","pwkqzjyl","","","","","",""
"12310.190000000002","","","instructions","10","272527","0.0-10.0","pwkqzjyl","[{""page_index"":0,""viewing_time"":3297.6300000000047},{""page_index"":1,""viewing_time"":2538.344999999972},{""page_index"":2,""viewing_time"":1715.375},{""page_index"":3,""viewing_time"":4758.075000000012}]","","","","",""
"1715.5","","","instructions","11","274243","0.0-11.0","pwkqzjyl","[{""page_index"":0,""viewing_time"":1715.4000000000233}]","","","","",""
"","","","call-function","12","274244","0.0-12.0","pwkqzjyl","","","","","",""
"null","","","video-keyboard-response","13","277319","0.0-13.0","pwkqzjyl","","","","null","",""
"","","","call-function","14","277320","0.0-14.0","pwkqzjyl","","","","","",""
"28247.42499999999","{""pre-1"":0}","[0]","survey-likert","15","305570","0.0-15.0","pwkqzjyl","","","","","",""
"15445.729999999981","{""pre-2"":3}","[0]","survey-likert","16","321017","0.0-16.0","pwkqzjyl","","","","","",""
"5601.619999999995","{""pre-3"":2}","[0]","survey-likert","17","326620","0.0-17.0","pwkqzjyl","","","","","",""
"3212.2850000000326","{""post-5"":2}","[0]","survey-likert","18","329834","0.0-18.0","pwkqzjyl","","","","","",""
"1124.5449999999837","","","instructions","19","330959","0.0-19.0","pwkqzjyl","[{""page_index"":0,""viewing_time"":1124.304999999993}]","","","","",""
"3676.1350000000093","","","instructions","20","334635","0.0-20.0","pwkqzjyl","[{""page_index"":0,""viewing_time"":3676.024999999965}]","","","","",""
"","","","call-function","21","334636","0.0-21.0","pwkqzjyl","","","","","",""
"null","","","video-keyboard-response","22","337700","0.0-22.0","pwkqzjyl","","","","null","Agent A","STIM_SET_1_REAL/713403.bmp_pp80_L3_V1.0_veridical_freeview_isoFalse_fps144.mp4"
"","","","call-function","23","337701","0.0-23.0","pwkqzjyl","","","","","",""
"69028.60999999999","{""pre-1"":0}","[0]","survey-likert","24","406730","0.0-24.0","pwkqzjyl","","","","","",""
"3546.259999999951","{""pre-2"":2}","[0]","survey-likert","25","410278","0.0-25.0","pwkqzjyl","","","","","",""
"8211.790000000037","{""pre-3"":2}","[0]","survey-likert","26","418493","0.0-26.0","pwkqzjyl","","","","","",""
"4543.290000000037","{""post-5"":1}","[0]","survey-likert","27","423038","0.0-27.0","pwkqzjyl","","","","","",""
"","","","call-function","28","423039","0.0-28.0","pwkqzjyl","","","","","",""
"null","","","video-keyboard-response","29","426099","0.0-29.0","pwkqzjyl","","","","null","Agent A","STIM_SET_1_REAL/1159446.bmp_pp60_L3_V1.0_veridical_freeview_isoFalse_fps144.mp4"
"","","","call-function","30","426099","0.0-30.0","pwkqzjyl","","","","","",""
"3695.6900000000023","{""pre-1"":0}","[0]","survey-likert","31","429796","0.0-31.0","pwkqzjyl","","","","","",""
"20245.64499999996","{""pre-2"":2}","[0]","survey-likert","32","450043","0.0-32.0","pwkqzjyl","","","","","",""
"3166.914999999979","{""pre-3"":2}","[0]","survey-likert","33","453211","0.0-33.0","pwkqzjyl","","","","","",""
"3889.8550000000396","{""post-5"":0}","[0]","survey-likert","34","457103","0.0-34.0","pwkqzjyl","","","","","",""
"","","","call-function","35","457104","0.0-35.0","pwkqzjyl","","","","","",""
"null","","","video-keyboard-response","36","460181","0.0-36.0","pwkqzjyl","","","","null","Agent A","STIM_SET_1_REAL/1159855.bmp_pp99_L2_V1.0_scrambled_freeview_isoFalse_fps144.mp4"
"","","","call-function","37","460182","0.0-37.0","pwkqzjyl","","","","","",""
"4043.2600000000093","{""pre-1"":0}","[0]","survey-likert","38","464226","0.0-38.0","pwkqzjyl","","","","","",""
"6101.290000000037","{""pre-2"":0}","[0]","survey-likert","39","470328","0.0-39.0","pwkqzjyl","","","","","",""
"4155.479999999981","{""pre-3"":0}","[0]","survey-likert","40","474485","0.0-40.0","pwkqzjyl","","","","","",""
"3206.7000000000116","{""post-5"":3}","[0]","survey-likert","41","477694","0.0-41.0","pwkqzjyl","","","","","",""
"","","","call-function","42","477695","0.0-42.0","pwkqzjyl","","","","","",""
"null","","","video-keyboard-response","43","480758","0.0-43.0","pwkqzjyl","","","","null","Agent A","STIM_SET_1_REAL/497950.bmp_pp151_L1_V1.0_scrambled_freeview_isoFalse_fps144.mp4"
"","","","call-function","44","480758","0.0-44.0","pwkqzjyl","","","","","",""
"4434.534999999974","{""pre-1"":0}","[0]","survey-likert","45","485194","0.0-45.0","pwkqzjyl","","","","","",""
"6345.804999999993","{""pre-2"":1}","[0]","survey-likert","46","491542","0.0-46.0","pwkqzjyl","","","","","",""
"3340.25","{""pre-3"":0}","[0]","survey-likert","47","494883","0.0-47.0","pwkqzjyl","","","","","",""
"4718.820000000007","{""post-5"":2}","[0]","survey-likert","48","499603","0.0-48.0","pwkqzjyl","","","","","",""
"","","","call-function","49","499604","0.0-49.0","pwkqzjyl","","","","","",""
"null","","","video-keyboard-response","50","502666","0.0-50.0","pwkqzjyl","","","","null","Agent A","STIM_SET_1_REAL/1159572.bmp_pp71_L1_V1.0_scrambled_freeview_isoFalse_fps144.mp4"
"","","","call-function","51","502666","0.0-51.0","pwkqzjyl","","","","","",""
"4365.710000000021","{""pre-1"":0}","[0]","survey-likert","52","507033","0.0-52.0","pwkqzjyl","","","","","",""
"8197.86499999999","{""pre-2"":1}","[0]","survey-likert","53","515232","0.0-53.0","pwkqzjyl","","","","","",""
"5184.645000000019","{""pre-3"":0}","[0]","survey-likert","54","520418","0.0-54.0","pwkqzjyl","","","","","",""
"2381.905000000028","{""post-5"":2}","[0]","survey-likert","55","522801","0.0-55.0","pwkqzjyl","","","","","",""
"","","","call-function","56","522801","0.0-56.0","pwkqzjyl","","","","","",""
"null","","","video-keyboard-response","57","525875","0.0-57.0","pwkqzjyl","","","","null","Agent A","STIM_SET_1_REAL/1592372.bmp_pp76_L1_V1.0_veridical_freeview_isoFalse_fps144.mp4"
"","","","call-function","58","525875","0.0-58.0","pwkqzjyl","","","","","",""
"4361.984999999986","{""pre-1"":0}","[0]","survey-likert","59","530239","0.0-59.0","pwkqzjyl","","","","","",""
"7068.925000000047","{""pre-2"":1}","[0]","survey-likert","60","537309","0.0-60.0","pwkqzjyl","","","","","",""
"4600.594999999972","{""pre-3"":0}","[0]","survey-likert","61","541911","0.0-61.0","pwkqzjyl","","","","","",""
"2931.0299999999115","{""post-5"":2}","[0]","survey-likert","62","544844","0.0-62.0","pwkqzjyl","","","","","",""
"","","","call-function","63","544845","0.0-63.0","pwkqzjyl","","","","","",""
"null","","","video-keyboard-response","64","547920","0.0-64.0","pwkqzjyl","","","","null","Agent A","STIM_SET_1_REAL/1160127.bmp_pp90_L2_V1.0_scrambled_freeview_isoFalse_fps144.mp4"
"","","","call-function","65","547920","0.0-65.0","pwkqzjyl","","","","","",""
"2364.4649999999674","{""pre-1"":0}","[0]","survey-likert","66","550286","0.0-66.0","pwkqzjyl","","","","","",""
"6195.2200000000885","{""pre-2"":0}","[0]","survey-likert","67","556482","0.0-67.0","pwkqzjyl","","","","","",""
"4066.5100000000093","{""pre-3"":0}","[0]","survey-likert","68","560550","0.0-68.0","pwkqzjyl","","","","","",""
"2789.1350000000093","{""post-5"":2}","[0]","survey-likert","69","563341","0.0-69.0","pwkqzjyl","","","","","",""
"","","","call-function","70","563341","0.0-70.0","pwkqzjyl","","","","","",""
"null","","","video-keyboard-response","71","566409","0.0-71.0","pwkqzjyl","","","","null","Agent A","STIM_SET_1_REAL/1159829.bmp_pp91_L3_V1.0_scrambled_freeview_isoFalse_fps144.mp4"
"","","","call-function","72","566409","0.0-72.0","pwkqzjyl","","","","","",""
"9555.774999999907","{""pre-1"":0}","[0]","survey-likert","73","575966","0.0-73.0","pwkqzjyl","","","","","",""
"4185.109999999986","{""pre-2"":2}","[0]","survey-likert","74","580152","0.0-74.0","pwkqzjyl","","","","","",""
"6930.165000000037","{""pre-3"":1}","[0]","survey-likert","75","587083","0.0-75.0","pwkqzjyl","","","","","",""
"4296.864999999991","{""post-5"":1}","[0]","survey-likert","76","591382","0.0-76.0","pwkqzjyl","","","","","",""
"","","","call-function","77","591383","0.0-77.0","pwkqzjyl","","","","","",""
"null","","","video-keyboard-response","78","594452","0.0-78.0","pwkqzjyl","","","","null","Agent A","STIM_SET_1_REAL/713796.bmp_pp84_L3_V1.0_scrambled_freeview_isoFalse_fps144.mp4"
"","","","call-function","79","594453","0.0-79.0","pwkqzjyl","","","","","",""
"2351.679999999935","{""pre-1"":0}","[0]","survey-likert","80","596806","0.0-80.0","pwkqzjyl","","","","","",""
"2176.3549999999814","{""pre-2"":2}","[0]","survey-likert","81","598983","0.0-81.0","pwkqzjyl","","","","","",""
"4861.20000000007","{""pre-3"":2}","[0]","survey-likert","82","603846","0.0-82.0","pwkqzjyl","","","","","",""
"5323.255000000005","{""post-5"":0}","[0]","survey-likert","83","609170","0.0-83.0","pwkqzjyl","","","","","",""
"","","","call-function","84","609170","0.0-84.0","pwkqzjyl","","","","","",""
"null","","","video-keyboard-response","85","612234","0.0-85.0","pwkqzjyl","","","","null","Agent A","STIM_SET_1_REAL/498149.bmp_pp99_L2_V1.0_scrambled_freeview_isoFalse_fps144.mp4"
"","","","call-function","86","612235","0.0-86.0","pwkqzjyl","","","","","",""
"5896.170000000042","{""pre-1"":0}","[0]","survey-likert","87","618132","0.0-87.0","pwkqzjyl","","","","","",""
"9295.900000000023","{""pre-2"":3}","[0]","survey-likert","88","627429","0.0-88.0","pwkqzjyl","","","","","",""
"5001.474999999977","{""pre-3"":2}","[0]","survey-likert","89","632432","0.0-89.0","pwkqzjyl","","","","","",""
"3522.5400000000373","{""post-5"":1}","[0]","survey-likert","90","635955","0.0-90.0","pwkqzjyl","","","","","",""
"","","","call-function","91","635956","0.0-91.0","pwkqzjyl","","","","","",""
"null","","","video-keyboard-response","92","639032","0.0-92.0","pwkqzjyl","","","","null","Agent A","STIM_SET_1_REAL/713371.bmp_pp68_L1_V1.0_veridical_freeview_isoFalse_fps144.mp4"
"","","","call-function","93","639033","0.0-93.0","pwkqzjyl","","","","","",""
"2466","{""pre-1"":0}","[0]","survey-likert","94","641500","0.0-94.0","pwkqzjyl","","","","","",""
"3892.685000000056","{""pre-2"":2}","[0]","survey-likert","95","645394","0.0-95.0","pwkqzjyl","","","","","",""
"2472.5749999999534","{""pre-3"":2}","[0]","survey-likert","96","647869","0.0-96.0","pwkqzjyl","","","","","",""
"2925.774999999907","{""post-5"":0}","[0]","survey-likert","97","650796","0.0-97.0","pwkqzjyl","","","","","",""
"","","","call-function","98","650797","0.0-98.0","pwkqzjyl","","","","","",""
"null","","","video-keyboard-response","99","653867","0.0-99.0","pwkqzjyl","","","","null","Agent A","STIM_SET_1_REAL/713513.bmp_pp62_L2_V1.0_scrambled_freeview_isoFalse_fps144.mp4"
"","","","call-function","100","653867","0.0-100.0","pwkqzjyl","","","","","",""
"3891.875","{""pre-1"":0}","[0]","survey-likert","101","657760","0.0-101.0","pwkqzjyl","","","","","",""
"6882.270000000019","{""pre-2"":2}","[0]","survey-likert","102","664644","0.0-102.0","pwkqzjyl","","","","","",""
"3270.3549999999814","{""pre-3"":2}","[0]","survey-likert","103","667915","0.0-103.0","pwkqzjyl","","","","","",""
"3778.914999999921","{""post-5"":1}","[0]","survey-likert","104","671695","0.0-104.0","pwkqzjyl","","","","","",""
"","","","call-function","105","671696","0.0-105.0","pwkqzjyl","","","","","",""
"null","","","video-keyboard-response","106","674774","0.0-106.0","pwkqzjyl","","","","null","Agent A","STIM_SET_1_REAL/713211.bmp_pp100_L3_V1.0_veridical_freeview_isoFalse_fps144.mp4"
"","","","call-function","107","674775","0.0-107.0","pwkqzjyl","","","","","",""
"4463.130000000005","{""pre-1"":0}","[0]","survey-likert","108","679239","0.0-108.0","pwkqzjyl","","","","","",""
"9067.580000000075","{""pre-2"":1}","[0]","survey-likert","109","688307","0.0-109.0","pwkqzjyl","","","","","",""
"2930.015000000014","{""pre-3"":0}","[0]","survey-likert","110","691238","0.0-110.0","pwkqzjyl","","","","","",""
"4892.254999999888","{""post-5"":2}","[0]","survey-likert","111","696132","0.0-111.0","pwkqzjyl","","","","","",""
"","","","call-function","112","696133","0.0-112.0","pwkqzjyl","","","","","",""
"null","","","video-keyboard-response","113","699197","0.0-113.0","pwkqzjyl","","","","null","Agent A","STIM_SET_1_REAL/713779.bmp_pp152_L2_V1.0_veridical_freeview_isoFalse_fps144.mp4"
"","","","call-function","114","699198","0.0-114.0","pwkqzjyl","","","","","",""
"2142.6450000000186","{""pre-1"":0}","[0]","survey-likert","115","701341","0.0-115.0","pwkqzjyl","","","","","",""
"2487.7149999999674","{""pre-2"":1}","[0]","survey-likert","116","703830","0.0-116.0","pwkqzjyl","","","","","",""
"2480.0200000000186","{""pre-3"":0}","[0]","survey-likert","117","706312","0.0-117.0","pwkqzjyl","","","","","",""
"3207","{""post-5"":2}","[0]","survey-likert","118","709520","0.0-118.0","pwkqzjyl","","","","","",""
"","","","call-function","119","709520","0.0-119.0","pwkqzjyl","","","","","",""
"null","","","video-keyboard-response","120","712579","0.0-120.0","pwkqzjyl","","","","null","Agent A","STIM_SET_1_REAL/713089.bmp_pp60_L3_V1.0_veridical_freeview_isoFalse_fps144.mp4"
"","","","call-function","121","712580","0.0-121.0","pwkqzjyl","","","","","",""
"3568.4499999999534","{""pre-1"":0}","[0]","survey-likert","122","716149","0.0-122.0","pwkqzjyl","","","","","",""
"4017.2700000000186","{""pre-2"":3}","[0]","survey-likert","123","720168","0.0-123.0","pwkqzjyl","","","","","",""
"4075.7750000000233","{""pre-3"":3}","[0]","survey-likert","124","724245","0.0-124.0","pwkqzjyl","","","","","",""
"2906.1049999999814","{""post-5"":0}","[0]","survey-likert","125","727152","0.0-125.0","pwkqzjyl","","","","","",""
"","","","call-function","126","727152","0.0-126.0","pwkqzjyl","","","","","",""
"null","","","video-keyboard-response","127","730213","0.0-127.0","pwkqzjyl","","","","null","Agent A","STIM_SET_1_REAL/1159447.bmp_pp70_L2_V1.0_veridical_freeview_isoFalse_fps144.mp4"
"","","","call-function","128","730213","0.0-128.0","pwkqzjyl","","","","","",""
"4196.005000000005","{""pre-1"":0}","[0]","survey-likert","129","734410","0.0-129.0","pwkqzjyl","","","","","",""
"20191.75","{""pre-2"":2}","[0]","survey-likert","130","754603","0.0-130.0","pwkqzjyl","","","","","",""
"3271.3850000000093","{""pre-3"":1}","[0]","survey-likert","131","757877","0.0-131.0","pwkqzjyl","","","","","",""
"5984","{""post-5"":0}","[0]","survey-likert","132","763862","0.0-132.0","pwkqzjyl","","","","","",""
"","","","call-function","133","763863","0.0-133.0","pwkqzjyl","","","","","",""
"null","","","video-keyboard-response","134","766940","0.0-134.0","pwkqzjyl","","","","null","Agent A","STIM_SET_1_REAL/1159784.bmp_pp73_L3_V1.0_scrambled_freeview_isoFalse_fps144.mp4"
"","","","call-function","135","766940","0.0-135.0","pwkqzjyl","","","","","",""
"3377.0999999999767","{""pre-1"":0}","[0]","survey-likert","136","770319","0.0-136.0","pwkqzjyl","","","","","",""
"2258.859999999986","{""pre-2"":1}","[0]","survey-likert","137","772579","0.0-137.0","pwkqzjyl","","","","","",""
"2155.265000000014","{""pre-3"":0}","[0]","survey-likert","138","774735","0.0-138.0","pwkqzjyl","","","","","",""
"1598.9499999999534","{""post-5"":3}","[0]","survey-likert","139","776335","0.0-139.0","pwkqzjyl","","","","","",""
"","","","call-function","140","776336","0.0-140.0","pwkqzjyl","","","","","",""
"null","","","video-keyboard-response","141","779400","0.0-141.0","pwkqzjyl","","","","null","Agent A","STIM_SET_1_REAL/1592890.bmp_pp82_L2_V1.0_scrambled_freeview_isoFalse_fps144.mp4"
"","","","call-function","142","779400","0.0-142.0","pwkqzjyl","","","","","",""
"3981.180000000051","{""pre-1"":0}","[0]","survey-likert","143","783382","0.0-143.0","pwkqzjyl","","","","","",""
"9139.36499999999","{""pre-2"":2}","[0]","survey-likert","144","792523","0.0-144.0","pwkqzjyl","","","","","",""
"7523.810000000056","{""pre-3"":1}","[0]","survey-likert","145","800049","0.0-145.0","pwkqzjyl","","","","","",""
"3475.8300000000745","{""post-5"":1}","[0]","survey-likert","146","803526","0.0-146.0","pwkqzjyl","","","","","",""
"","","","call-function","147","803527","0.0-147.0","pwkqzjyl","","","","","",""
"null","","","video-keyboard-response","148","806594","0.0-148.0","pwkqzjyl","","","","null","Agent A","STIM_SET_1_REAL/1592581.bmp_pp100_L3_V1.0_scrambled_freeview_isoFalse_fps144.mp4"
"","","","call-function","149","806594","0.0-149.0","pwkqzjyl","","","","","",""
"3586.0050000000047","{""pre-1"":0}","[0]","survey-likert","150","810181","0.0-150.0","pwkqzjyl","","","","","",""
"13808.71000000008","{""pre-2"":2}","[0]","survey-likert","151","823991","0.0-151.0","pwkqzjyl","","","","","",""
"3533.524999999907","{""pre-3"":1}","[0]","survey-likert","152","827526","0.0-152.0","pwkqzjyl","","","","","",""
"2956.515000000014","{""post-5"":1}","[0]","survey-likert","153","830483","0.0-153.0","pwkqzjyl","","","","","",""
"","","","call-function","154","830484","0.0-154.0","pwkqzjyl","","","","","",""
"null","","","video-keyboard-response","155","833551","0.0-155.0","pwkqzjyl","","","","null","Agent A","STIM_SET_1_REAL/1592286.bmp_pp52_L1_V1.0_scrambled_freeview_isoFalse_fps144.mp4"
"","","","call-function","156","833551","0.0-156.0","pwkqzjyl","","","","","",""
"2616.829999999958","{""pre-1"":0}","[0]","survey-likert","157","836169","0.0-157.0","pwkqzjyl","","","","","",""
"4496.239999999991","{""pre-2"":0}","[0]","survey-likert","158","840666","0.0-158.0","pwkqzjyl","","","","","",""
"3197.2550000000047","{""pre-3"":0}","[0]","survey-likert","159","843865","0.0-159.0","pwkqzjyl","","","","","",""
"2760.435000000056","{""post-5"":2}","[0]","survey-likert","160","846627","0.0-160.0","pwkqzjyl","","","","","",""
"2867.9749999999767","","","instructions","161","849496","0.0-161.0","pwkqzjyl","[{""page_index"":0,""viewing_time"":1145.4149999999208},{""page_index"":1,""viewing_time"":871.0950000000885},{""page_index"":2,""viewing_time"":850.8399999999674}]","","","","",""
"1872.109999999986","","","instructions","162","851369","0.0-162.0","pwkqzjyl","[{""page_index"":0,""viewing_time"":846.5400000000373},{""page_index"":1,""viewing_time"":48.36999999999534},{""page_index"":2,""viewing_time"":977.1049999999814}]","","","","",""
"","","","call-function","163","851370","0.0-163.0","pwkqzjyl","","","","","",""
"null","","","video-keyboard-response","164","854431","0.0-164.0","pwkqzjyl","","","","null","Agent A","STIM_SET_1_REAL/286001.bmp_pp54_L2_V1.0_veridical_freeview_isoFalse_fps144.mp4"
"","","","call-function","165","854431","0.0-165.0","pwkqzjyl","","","","","",""
"2735.2050000000745","{""pre-1"":0}","[0]","survey-likert","166","857167","0.0-166.0","pwkqzjyl","","","","","",""
"4168.880000000005","{""pre-2"":0}","[0]","survey-likert","167","861337","0.0-167.0","pwkqzjyl","","","","","",""
"2577.0449999999255","{""pre-3"":0}","[0]","survey-likert","168","863916","0.0-168.0","pwkqzjyl","","","","","",""
"2716.905000000028","{""post-5"":3}","[0]","survey-likert","169","866634","0.0-169.0","pwkqzjyl","","","","","",""
"","","","call-function","170","866635","0.0-170.0","pwkqzjyl","","","","","",""
"null","","","video-keyboard-response","171","869725","0.0-171.0","pwkqzjyl","","","","null","Agent A","STIM_SET_1_REAL/1159813.bmp_pp79_L2_V1.0_veridical_freeview_isoFalse_fps144.mp4"
"","","","call-function","172","869726","0.0-172.0","pwkqzjyl","","","","","",""
"3665.7850000000326","{""pre-1"":0}","[0]","survey-likert","173","873392","0.0-173.0","pwkqzjyl","","","","","",""
"3249.9850000001024","{""pre-2"":2}","[0]","survey-likert","174","876643","0.0-174.0","pwkqzjyl","","","","","",""
"2436.140000000014","{""pre-3"":1}","[0]","survey-likert","175","879081","0.0-175.0","pwkqzjyl","","","","","",""
"9149.920000000042","{""post-5"":0}","[0]","survey-likert","176","888232","0.0-176.0","pwkqzjyl","","","","","",""
"","","","call-function","177","888232","0.0-177.0","pwkqzjyl","","","","","",""
"null","","","video-keyboard-response","178","891299","0.0-178.0","pwkqzjyl","","","","null","Agent A","STIM_SET_1_REAL/1159515.bmp_pp84_L3_V1.0_veridical_freeview_isoFalse_fps144.mp4"
"","","","call-function","179","891299","0.0-179.0","pwkqzjyl","","","","","",""
"8660.119999999995","{""pre-1"":0}","[0]","survey-likert","180","899961","0.0-180.0","pwkqzjyl","","","","","",""
"15219.795000000042","{""pre-2"":0}","[0]","survey-likert","181","915182","0.0-181.0","pwkqzjyl","","","","","",""
"1936.2399999999907","{""pre-3"":0}","[0]","survey-likert","182","917120","0.0-182.0","pwkqzjyl","","","","","",""
"2213.3349999999627","{""post-5"":2}","[0]","survey-likert","183","919335","0.0-183.0","pwkqzjyl","","","","","",""
"","","","call-function","184","919336","0.0-184.0","pwkqzjyl","","","","","",""
"null","","","video-keyboard-response","185","922410","0.0-185.0","pwkqzjyl","","","","null","Agent A","STIM_SET_1_REAL/1592657.bmp_pp98_L1_V1.0_veridical_freeview_isoFalse_fps144.mp4"
"","","","call-function","186","922410","0.0-186.0","pwkqzjyl","","","","","",""
"4840.449999999953","{""pre-1"":0}","[0]","survey-likert","187","927252","0.0-187.0","pwkqzjyl","","","","","",""
"2602.3800000000047","{""pre-2"":1}","[0]","survey-likert","188","929856","0.0-188.0","pwkqzjyl","","","","","",""
"1943.359999999986","{""pre-3"":1}","[0]","survey-likert","189","931800","0.0-189.0","pwkqzjyl","","","","","",""
"7544.334999999963","{""post-5"":1}","[0]","survey-likert","190","939346","0.0-190.0","pwkqzjyl","","","","","",""
"","","","call-function","191","939346","0.0-191.0","pwkqzjyl","","","","","",""
"null","","","video-keyboard-response","192","942425","0.0-192.0","pwkqzjyl","","","","null","Agent A","STIM_SET_1_REAL/712977.bmp_pp51_L1_V1.0_scrambled_freeview_isoFalse_fps144.mp4"
"","","","call-function","193","942426","0.0-193.0","pwkqzjyl","","","","","",""
"3896.390000000014","{""pre-1"":0}","[0]","survey-likert","194","946323","0.0-194.0","pwkqzjyl","","","","","",""
"3538.6600000000326","{""pre-2"":0}","[0]","survey-likert","195","949863","0.0-195.0","pwkqzjyl","","","","","",""
"5180.524999999907","{""pre-3"":0}","[0]","survey-likert","196","955044","0.0-196.0","pwkqzjyl","","","","","",""
"2604.515000000014","{""post-5"":1}","[0]","survey-likert","197","957650","0.0-197.0","pwkqzjyl","","","","","",""
"","","","call-function","198","957651","0.0-198.0","pwkqzjyl","","","","","",""
"null","","","video-keyboard-response","199","960721","0.0-199.0","pwkqzjyl","","","","null","Agent A","STIM_SET_1_REAL/1160168.bmp_pp53_L2_V1.0_veridical_freeview_isoFalse_fps144.mp4"
"","","","call-function","200","960722","0.0-200.0","pwkqzjyl","","","","","",""
"2739.179999999935","{""pre-1"":0}","[0]","survey-likert","201","963462","0.0-201.0","pwkqzjyl","","","","","",""
"4693.280000000028","{""pre-2"":0}","[0]","survey-likert","202","968157","0.0-202.0","pwkqzjyl","","","","","",""
"3387.9949999999953","{""pre-3"":0}","[0]","survey-likert","203","971547","0.0-203.0","pwkqzjyl","","","","","",""
"11132.560000000056","{""post-5"":3}","[0]","survey-likert","204","982682","0.0-204.0","pwkqzjyl","","","","","",""
"","","","call-function","205","982682","0.0-205.0","pwkqzjyl","","","","","",""
"null","","","video-keyboard-response","206","985758","0.0-206.0","pwkqzjyl","","","","null","Agent A","STIM_SET_1_REAL/1159675.bmp_pp77_L3_V1.0_veridical_freeview_isoFalse_fps144.mp4"
"","","","call-function","207","985758","0.0-207.0","pwkqzjyl","","","","","",""
"3693.394999999902","{""pre-1"":0}","[0]","survey-likert","208","989453","0.0-208.0","pwkqzjyl","","","","","",""
"11511.474999999977","{""pre-2"":2}","[0]","survey-likert","209","1000966","0.0-209.0","pwkqzjyl","","","","","",""
"2266.780000000028","{""pre-3"":1}","[0]","survey-likert","210","1003233","0.0-210.0","pwkqzjyl","","","","","",""
"3301.189999999944","{""post-5"":1}","[0]","survey-likert","211","1006536","0.0-211.0","pwkqzjyl","","","","","",""
"","","","call-function","212","1006537","0.0-212.0","pwkqzjyl","","","","","",""
"null","","","video-keyboard-response","213","1009605","0.0-213.0","pwkqzjyl","","","","null","Agent A","STIM_SET_1_REAL/1159515.bmp_pp84_L3_V1.0_scrambled_freeview_isoFalse_fps144.mp4"
"","","","call-function","214","1009605","0.0-214.0","pwkqzjyl","","","","","",""
"4115.010000000009","{""pre-1"":0}","[0]","survey-likert","215","1013721","0.0-215.0","pwkqzjyl","","","","","",""
"5096.094999999972","{""pre-2"":1}","[0]","survey-likert","216","1018818","0.0-216.0","pwkqzjyl","","","","","",""
"2227.969999999972","{""pre-3"":1}","[0]","survey-likert","217","1021047","0.0-217.0","pwkqzjyl","","","","","",""
"3369.310000000056","{""post-5"":2}","[0]","survey-likert","218","1024418","0.0-218.0","pwkqzjyl","","","","","",""
"","","","call-function","219","1024418","0.0-219.0","pwkqzjyl","","","","","",""
"null","","","video-keyboard-response","220","1027495","0.0-220.0","pwkqzjyl","","","","null","Agent A","STIM_SET_1_REAL/713620.bmp_pp65_L3_V1.0_veridical_freeview_isoFalse_fps144.mp4"
"","","","call-function","221","1027496","0.0-221.0","pwkqzjyl","","","","","",""
"4241.9400000000605","{""pre-1"":0}","[0]","survey-likert","222","1031740","0.0-222.0","pwkqzjyl","","","","","",""
"2247.5899999999674","{""pre-2"":2}","[0]","survey-likert","223","1033989","0.0-223.0","pwkqzjyl","","","","","",""
"2293.6450000000186","{""pre-3"":1}","[0]","survey-likert","224","1036283","0.0-224.0","pwkqzjyl","","","","","",""
"4135.060000000056","{""post-5"":1}","[0]","survey-likert","225","1040420","0.0-225.0","pwkqzjyl","","","","","",""
"","","","call-function","226","1040420","0.0-226.0","pwkqzjyl","","","","","",""
"null","","","video-keyboard-response","227","1043488","0.0-227.0","pwkqzjyl","","","","null","Agent A","STIM_SET_1_REAL/1592286.bmp_pp52_L1_V1.0_veridical_freeview_isoFalse_fps144.mp4"
"","","","call-function","228","1043488","0.0-228.0","pwkqzjyl","","","","","",""
"4494.704999999958","{""pre-1"":0}","[0]","survey-likert","229","1047984","0.0-229.0","pwkqzjyl","","","","","",""
"2062.914999999921","{""pre-2"":2}","[0]","survey-likert","230","1050048","0.0-230.0","pwkqzjyl","","","","","",""
"4247.620000000112","{""pre-3"":1}","[0]","survey-likert","231","1054297","0.0-231.0","pwkqzjyl","","","","","",""
"4394.97499999986","{""post-5"":1}","[0]","survey-likert","232","1058693","0.0-232.0","pwkqzjyl","","","","","",""
"","","","call-function","233","1058693","0.0-233.0","pwkqzjyl","","","","","",""
"null","","","video-keyboard-response","234","1061773","0.0-234.0","pwkqzjyl","","","","null","Agent A","STIM_SET_1_REAL/1593146.bmp_pp93_L1_V1.0_scrambled_freeview_isoFalse_fps144.mp4"
"","","","call-function","235","1061773","0.0-235.0","pwkqzjyl","","","","","",""
"2650.5699999998324","{""pre-1"":0}","[0]","survey-likert","236","1064425","0.0-236.0","pwkqzjyl","","","","","",""
"2374.814999999944","{""pre-2"":2}","[0]","survey-likert","237","1066801","0.0-237.0","pwkqzjyl","","","","","",""
"2410.189999999944","{""pre-3"":1}","[0]","survey-likert","238","1069212","0.0-238.0","pwkqzjyl","","","","","",""
"3128.4549999998417","{""post-5"":1}","[0]","survey-likert","239","1072341","0.0-239.0","pwkqzjyl","","","","","",""
"","","","call-function","240","1072342","0.0-240.0","pwkqzjyl","","","","","",""
"null","","","video-keyboard-response","241","1075403","0.0-241.0","pwkqzjyl","","","","null","Agent A","STIM_SET_1_REAL/498170.bmp_pp153_L3_V1.0_veridical_freeview_isoFalse_fps144.mp4"
"","","","call-function","242","1075404","0.0-242.0","pwkqzjyl","","","","","",""
"2462.2099999999627","{""pre-1"":0}","[0]","survey-likert","243","1077868","0.0-243.0","pwkqzjyl","","","","","",""
"2387.2549999998882","{""pre-2"":1}","[0]","survey-likert","244","1080257","0.0-244.0","pwkqzjyl","","","","","",""
"1967.9850000001024","{""pre-3"":0}","[0]","survey-likert","245","1082226","0.0-245.0","pwkqzjyl","","","","","",""
"2385.6699999999255","{""post-5"":1}","[0]","survey-likert","246","1084612","0.0-246.0","pwkqzjyl","","","","","",""
"","","","call-function","247","1084613","0.0-247.0","pwkqzjyl","","","","","",""
"null","","","video-keyboard-response","248","1087688","0.0-248.0","pwkqzjyl","","","","null","Agent A","STIM_SET_1_REAL/498253.bmp_pp67_L2_V1.0_scrambled_freeview_isoFalse_fps144.mp4"
"","","","call-function","249","1087688","0.0-249.0","pwkqzjyl","","","","","",""
"2180.0999999998603","{""pre-1"":0}","[0]","survey-likert","250","1089869","0.0-250.0","pwkqzjyl","","","","","",""
"8555.425000000047","{""pre-2"":1}","[0]","survey-likert","251","1098426","0.0-251.0","pwkqzjyl","","","","","",""
"5146.215000000084","{""pre-3"":0}","[0]","survey-likert","252","1103573","0.0-252.0","pwkqzjyl","","","","","",""
"2933.5250000001397","{""post-5"":2}","[0]","survey-likert","253","1106508","0.0-253.0","pwkqzjyl","","","","","",""
"","","","call-function","254","1106509","0.0-254.0","pwkqzjyl","","","","","",""
"null","","","video-keyboard-response","255","1109582","0.0-255.0","pwkqzjyl","","","","null","Agent A","STIM_SET_1_REAL/498253.bmp_pp67_L2_V1.0_veridical_freeview_isoFalse_fps144.mp4"
"","","","call-function","256","1109582","0.0-256.0","pwkqzjyl","","","","","",""
"4048.7399999999907","{""pre-1"":0}","[0]","survey-likert","257","1113632","0.0-257.0","pwkqzjyl","","","","","",""
"5194.979999999981","{""pre-2"":1}","[0]","survey-likert","258","1118828","0.0-258.0","pwkqzjyl","","","","","",""
"2812.554999999935","{""pre-3"":1}","[0]","survey-likert","259","1121643","0.0-259.0","pwkqzjyl","","","","","",""
"4353.510000000009","{""post-5"":1}","[0]","survey-likert","260","1125998","0.0-260.0","pwkqzjyl","","","","","",""
"","","","call-function","261","1125999","0.0-261.0","pwkqzjyl","","","","","",""
"null","","","video-keyboard-response","262","1129076","0.0-262.0","pwkqzjyl","","","","null","Agent A","STIM_SET_1_REAL/1593146.bmp_pp93_L1_V1.0_veridical_freeview_isoFalse_fps144.mp4"
"","","","call-function","263","1129076","0.0-263.0","pwkqzjyl","","","","","",""
"3252.255000000121","{""pre-1"":0}","[0]","survey-likert","264","1132330","0.0-264.0","pwkqzjyl","","","","","",""
"2110.2299999999814","{""pre-2"":2}","[0]","survey-likert","265","1134441","0.0-265.0","pwkqzjyl","","","","","",""
"2113.5400000000373","{""pre-3"":1}","[0]","survey-likert","266","1136556","0.0-266.0","pwkqzjyl","","","","","",""
"1705.005000000121","{""post-5"":1}","[0]","survey-likert","267","1138262","0.0-267.0","pwkqzjyl","","","","","",""
"","","","call-function","268","1138263","0.0-268.0","pwkqzjyl","","","","","",""
"null","","","video-keyboard-response","269","1141338","0.0-269.0","pwkqzjyl","","","","null","Agent A","STIM_SET_1_REAL/1159784.bmp_pp73_L3_V1.0_veridical_freeview_isoFalse_fps144.mp4"
"","","","call-function","270","1141339","0.0-270.0","pwkqzjyl","","","","","",""
"2890.9899999999907","{""pre-1"":0}","[0]","survey-likert","271","1144230","0.0-271.0","pwkqzjyl","","","","","",""
"4351.280000000028","{""pre-2"":0}","[0]","survey-likert","272","1148584","0.0-272.0","pwkqzjyl","","","","","",""
"2353.25","{""pre-3"":0}","[0]","survey-likert","273","1150938","0.0-273.0","pwkqzjyl","","","","","",""
"4385.879999999888","{""post-5"":2}","[0]","survey-likert","274","1155325","0.0-274.0","pwkqzjyl","","","","","",""
"","","","call-function","275","1155326","0.0-275.0","pwkqzjyl","","","","","",""
"null","","","video-keyboard-response","276","1158402","0.0-276.0","pwkqzjyl","","","","null","Agent A","STIM_SET_1_REAL/498111.bmp_pp88_L2_V1.0_veridical_freeview_isoFalse_fps144.mp4"
"","","","call-function","277","1158402","0.0-277.0","pwkqzjyl","","","","","",""
"3469.75","{""pre-1"":0}","[0]","survey-likert","278","1161873","0.0-278.0","pwkqzjyl","","","","","",""
"6487.244999999879","{""pre-2"":0}","[0]","survey-likert","279","1168361","0.0-279.0","pwkqzjyl","","","","","",""
"2951.6500000001397","{""pre-3"":0}","[0]","survey-likert","280","1171314","0.0-280.0","pwkqzjyl","","","","","",""
"3587.8549999999814","{""post-5"":1}","[0]","survey-likert","281","1174903","0.0-281.0","pwkqzjyl","","","","","",""
"","","","call-function","282","1174905","0.0-282.0","pwkqzjyl","","","","","",""
"null","","","video-keyboard-response","283","1177967","0.0-283.0","pwkqzjyl","","","","null","Agent A","STIM_SET_1_REAL/286001.bmp_pp54_L2_V1.0_scrambled_freeview_isoFalse_fps144.mp4"
"","","","call-function","284","1177967","0.0-284.0","pwkqzjyl","","","","","",""
"2038.4150000000373","{""pre-1"":0}","[0]","survey-likert","285","1180007","0.0-285.0","pwkqzjyl","","","","","",""
"5091.795000000158","{""pre-2"":1}","[0]","survey-likert","286","1185100","0.0-286.0","pwkqzjyl","","","","","",""
"2397.475000000093","{""pre-3"":0}","[0]","survey-likert","287","1187498","0.0-287.0","pwkqzjyl","","","","","",""
"21469.59999999986","{""post-5"":1}","[0]","survey-likert","288","1208969","0.0-288.0","pwkqzjyl","","","","","",""
"","","","call-function","289","1208970","0.0-289.0","pwkqzjyl","","","","","",""
"null","","","video-keyboard-response","290","1212043","0.0-290.0","pwkqzjyl","","","","null","Agent A","STIM_SET_1_REAL/713760.bmp_pp81_L1_V1.0_scrambled_freeview_isoFalse_fps144.mp4"
"","","","call-function","291","1212044","0.0-291.0","pwkqzjyl","","","","","",""
"1964.1999999999534","{""pre-1"":0}","[0]","survey-likert","292","1214009","0.0-292.0","pwkqzjyl","","","","","",""
"1223.5549999999348","{""pre-2"":2}","[0]","survey-likert","293","1215234","0.0-293.0","pwkqzjyl","","","","","",""
"1801.7549999998882","{""pre-3"":2}","[0]","survey-likert","294","1217037","0.0-294.0","pwkqzjyl","","","","","",""
"2377.3349999999627","{""post-5"":0}","[0]","survey-likert","295","1219415","0.0-295.0","pwkqzjyl","","","","","",""
"","","","call-function","296","1219416","0.0-296.0","pwkqzjyl","","","","","",""
"null","","","video-keyboard-response","297","1222495","0.0-297.0","pwkqzjyl","","","","null","Agent A","STIM_SET_1_REAL/1591876.bmp_pp63_L1_V1.0_scrambled_freeview_isoFalse_fps144.mp4"
"","","","call-function","298","1222495","0.0-298.0","pwkqzjyl","","","","","",""
"6786.260000000009","{""pre-1"":0}","[0]","survey-likert","299","1229283","0.0-299.0","pwkqzjyl","","","","","",""
"3654.899999999907","{""pre-2"":1}","[0]","survey-likert","300","1232940","0.0-300.0","pwkqzjyl","","","","","",""
"2804.4849999998696","{""pre-3"":0}","[0]","survey-likert","301","1235746","0.0-301.0","pwkqzjyl","","","","","",""
"3102.605000000214","{""post-5"":1}","[0]","survey-likert","302","1238850","0.0-302.0","pwkqzjyl","","","","","",""
"33623.22999999998","","","instructions","303","1272474","0.0-303.0","pwkqzjyl","[{""page_index"":0,""viewing_time"":955.0050000001211},{""page_index"":1,""viewing_time"":2214.5999999998603},{""page_index"":2,""viewing_time"":30452.99500000011}]","","","","",""
"9304.395000000019","","","instructions","304","1281779","0.0-304.0","pwkqzjyl","[{""page_index"":0,""viewing_time"":782.1450000000186},{""page_index"":1,""viewing_time"":7176.23499999987},{""page_index"":2,""viewing_time"":1345.910000000149}]","","","","",""
"","","","call-function","305","1281780","0.0-305.0","pwkqzjyl","","","","","",""
"null","","","video-keyboard-response","306","1284855","0.0-306.0","pwkqzjyl","","","","null","Agent A","STIM_SET_1_REAL/498111.bmp_pp88_L2_V1.0_scrambled_freeview_isoFalse_fps144.mp4"
"","","","call-function","307","1284855","0.0-307.0","pwkqzjyl","","","","","",""
"5167.854999999981","{""pre-1"":0}","[0]","survey-likert","308","1290024","0.0-308.0","pwkqzjyl","","","","","",""
"5972.784999999916","{""pre-2"":1}","[0]","survey-likert","309","1295998","0.0-309.0","pwkqzjyl","","","","","",""
"3905.6149999999907","{""pre-3"":0}","[0]","survey-likert","310","1299905","0.0-310.0","pwkqzjyl","","","","","",""
"3215.875","{""post-5"":1}","[0]","survey-likert","311","1303122","0.0-311.0","pwkqzjyl","","","","","",""
"","","","call-function","312","1303123","0.0-312.0","pwkqzjyl","","","","","",""
"null","","","video-keyboard-response","313","1306195","0.0-313.0","pwkqzjyl","","","","null","Agent A","STIM_SET_1_REAL/1159768.bmp_pp89_L1_V1.0_scrambled_freeview_isoFalse_fps144.mp4"
"","","","call-function","314","1306195","0.0-314.0","pwkqzjyl","","","","","",""
"4735.570000000065","{""pre-1"":0}","[0]","survey-likert","315","1310931","0.0-315.0","pwkqzjyl","","","","","",""
"8314.770000000019","{""pre-2"":3}","[0]","survey-likert","316","1319247","0.0-316.0","pwkqzjyl","","","","","",""
"2322.320000000065","{""pre-3"":2}","[0]","survey-likert","317","1321571","0.0-317.0","pwkqzjyl","","","","","",""
"5479.410000000149","{""post-5"":0}","[0]","survey-likert","318","1327052","0.0-318.0","pwkqzjyl","","","","","",""
"","","","call-function","319","1327053","0.0-319.0","pwkqzjyl","","","","","",""
"null","","","video-keyboard-response","320","1330123","0.0-320.0","pwkqzjyl","","","","null","Agent A","STIM_SET_1_REAL/713017.bmp_pp152_L2_V1.0_scrambled_freeview_isoFalse_fps144.mp4"
"","","","call-function","321","1330124","0.0-321.0","pwkqzjyl","","","","","",""
"3050.910000000149","{""pre-1"":0}","[0]","survey-likert","322","1333175","0.0-322.0","pwkqzjyl","","","","","",""
"7600.260000000009","{""pre-2"":2}","[0]","survey-likert","323","1340777","0.0-323.0","pwkqzjyl","","","","","",""
"5541.785000000149","{""pre-3"":1}","[0]","survey-likert","324","1346320","0.0-324.0","pwkqzjyl","","","","","",""
"4049.5049999998882","{""post-5"":1}","[0]","survey-likert","325","1350371","0.0-325.0","pwkqzjyl","","","","","",""
"","","","call-function","326","1350371","0.0-326.0","pwkqzjyl","","","","","",""
"null","","","video-keyboard-response","327","1353447","0.0-327.0","pwkqzjyl","","","","null","Agent A","STIM_SET_1_REAL/713684.bmp_pp85_L3_V1.0_scrambled_freeview_isoFalse_fps144.mp4"
"","","","call-function","328","1353447","0.0-328.0","pwkqzjyl","","","","","",""
"2260.6350000000093","{""pre-1"":0}","[0]","survey-likert","329","1355709","0.0-329.0","pwkqzjyl","","","","","",""
"2370.0100000000093","{""pre-2"":0}","[0]","survey-likert","330","1358080","0.0-330.0","pwkqzjyl","","","","","",""
"1510.4650000000838","{""pre-3"":0}","[0]","survey-likert","331","1359592","0.0-331.0","pwkqzjyl","","","","","",""
"1963.9849999998696","{""post-5"":2}","[0]","survey-likert","332","1361557","0.0-332.0","pwkqzjyl","","","","","",""
"","","","call-function","333","1361557","0.0-333.0","pwkqzjyl","","","","","",""
"null","","","video-keyboard-response","334","1364618","0.0-334.0","pwkqzjyl","","","","null","Agent A","STIM_SET_1_REAL/1592351.bmp_pp51_L1_V1.0_veridical_freeview_isoFalse_fps144.mp4"
"","","","call-function","335","1364619","0.0-335.0","pwkqzjyl","","","","","",""
"2325.5200000000186","{""pre-1"":0}","[0]","survey-likert","336","1366945","0.0-336.0","pwkqzjyl","","","","","",""
"5849.550000000047","{""pre-2"":1}","[0]","survey-likert","337","1372796","0.0-337.0","pwkqzjyl","","","","","",""
"1878.8949999997858","{""pre-3"":0}","[0]","survey-likert","338","1374676","0.0-338.0","pwkqzjyl","","","","","",""
"3109.3600000001024","{""post-5"":2}","[0]","survey-likert","339","1377787","0.0-339.0","pwkqzjyl","","","","","",""
"","","","call-function","340","1377787","0.0-340.0","pwkqzjyl","","","","","",""
"null","","","video-keyboard-response","341","1380855","0.0-341.0","pwkqzjyl","","","","null","Agent A","STIM_SET_1_REAL/285933.bmp_pp81_L1_V1.0_scrambled_freeview_isoFalse_fps144.mp4"
"","","","call-function","342","1380856","0.0-342.0","pwkqzjyl","","","","","",""
"2465.630000000121","{""pre-1"":0}","[0]","survey-likert","343","1383323","0.0-343.0","pwkqzjyl","","","","","",""
"1705.1850000000559","{""pre-2"":2}","[0]","survey-likert","344","1385030","0.0-344.0","pwkqzjyl","","","","","",""
"3250.965000000084","{""pre-3"":2}","[0]","survey-likert","345","1388283","0.0-345.0","pwkqzjyl","","","","","",""
"1807.7299999999814","{""post-5"":1}","[0]","survey-likert","346","1390092","0.0-346.0","pwkqzjyl","","","","","",""
"","","","call-function","347","1390093","0.0-347.0","pwkqzjyl","","","","","",""
"null","","","video-keyboard-response","348","1393169","0.0-348.0","pwkqzjyl","","","","null","Agent A","STIM_SET_1_REAL/713707.bmp_pp154_L1_V1.0_veridical_freeview_isoFalse_fps144.mp4"
"","","","call-function","349","1393170","0.0-349.0","pwkqzjyl","","","","","",""
"2456.4950000001118","{""pre-1"":0}","[0]","survey-likert","350","1395627","0.0-350.0","pwkqzjyl","","","","","",""
"1606.1149999999907","{""pre-2"":0}","[0]","survey-likert","351","1397235","0.0-351.0","pwkqzjyl","","","","","",""
"1367.7350000001024","{""pre-3"":0}","[0]","survey-likert","352","1398604","0.0-352.0","pwkqzjyl","","","","","",""
"1735.8400000000838","{""post-5"":2}","[0]","survey-likert","353","1400341","0.0-353.0","pwkqzjyl","","","","","",""
"","","","call-function","354","1400341","0.0-354.0","pwkqzjyl","","","","","",""
"null","","","video-keyboard-response","355","1403413","0.0-355.0","pwkqzjyl","","","","null","Agent A","STIM_SET_1_REAL/713796.bmp_pp84_L3_V1.0_veridical_freeview_isoFalse_fps144.mp4"
"","","","call-function","356","1403414","0.0-356.0","pwkqzjyl","","","","","",""
"2234.820000000065","{""pre-1"":0}","[0]","survey-likert","357","1405649","0.0-357.0","pwkqzjyl","","","","","",""
"1950.1099999998696","{""pre-2"":2}","[0]","survey-likert","358","1407600","0.0-358.0","pwkqzjyl","","","","","",""
"1466.0699999998324","{""pre-3"":1}","[0]","survey-likert","359","1409068","0.0-359.0","pwkqzjyl","","","","","",""
"5058.969999999972","{""post-5"":1}","[0]","survey-likert","360","1414128","0.0-360.0","pwkqzjyl","","","","","",""
"","","","call-function","361","1414128","0.0-361.0","pwkqzjyl","","","","","",""
"null","","","video-keyboard-response","362","1417189","0.0-362.0","pwkqzjyl","","","","null","Agent A","STIM_SET_1_REAL/1592619.bmp_pp56_L3_V1.0_veridical_freeview_isoFalse_fps144.mp4"
"","","","call-function","363","1417189","0.0-363.0","pwkqzjyl","","","","","",""
"2318.9599999999627","{""pre-1"":0}","[0]","survey-likert","364","1419509","0.0-364.0","pwkqzjyl","","","","","",""
"4772.175000000047","{""pre-2"":1}","[0]","survey-likert","365","1424282","0.0-365.0","pwkqzjyl","","","","","",""
"2777.4850000001024","{""pre-3"":0}","[0]","survey-likert","366","1427061","0.0-366.0","pwkqzjyl","","","","","",""
"2906.899999999907","{""post-5"":2}","[0]","survey-likert","367","1429969","0.0-367.0","pwkqzjyl","","","","","",""
"","","","call-function","368","1429971","0.0-368.0","pwkqzjyl","","","","","",""
"null","","","video-keyboard-response","369","1433035","0.0-369.0","pwkqzjyl","","","","null","Agent A","STIM_SET_1_REAL/713681.bmp_pp86_L2_V1.0_veridical_freeview_isoFalse_fps144.mp4"
"","","","call-function","370","1433035","0.0-370.0","pwkqzjyl","","","","","",""
"2065.434999999823","{""pre-1"":0}","[0]","survey-likert","371","1435102","0.0-371.0","pwkqzjyl","","","","","",""
"3753.0999999998603","{""pre-2"":3}","[0]","survey-likert","372","1438856","0.0-372.0","pwkqzjyl","","","","","",""
"2245.839999999851","{""pre-3"":2}","[0]","survey-likert","373","1441103","0.0-373.0","pwkqzjyl","","","","","",""
"6375.304999999935","{""post-5"":0}","[0]","survey-likert","374","1447480","0.0-374.0","pwkqzjyl","","","","","",""
"","","","call-function","375","1447480","0.0-375.0","pwkqzjyl","","","","","",""
"null","","","video-keyboard-response","376","1450548","0.0-376.0","pwkqzjyl","","","","null","Agent A","STIM_SET_1_REAL/1592581.bmp_pp100_L3_V1.0_veridical_freeview_isoFalse_fps144.mp4"
"","","","call-function","377","1450549","0.0-377.0","pwkqzjyl","","","","","",""
"2680.090000000084","{""pre-1"":0}","[0]","survey-likert","378","1453230","0.0-378.0","pwkqzjyl","","","","","",""
"2559.3300000000745","{""pre-2"":2}","[0]","survey-likert","379","1455791","0.0-379.0","pwkqzjyl","","","","","",""
"3641.5500000000466","{""pre-3"":2}","[0]","survey-likert","380","1459433","0.0-380.0","pwkqzjyl","","","","","",""
"3044.875","{""post-5"":0}","[0]","survey-likert","381","1462479","0.0-381.0","pwkqzjyl","","","","","",""
"","","","call-function","382","1462480","0.0-382.0","pwkqzjyl","","","","","",""
"null","","","video-keyboard-response","383","1465567","0.0-383.0","pwkqzjyl","","","","null","Agent A","STIM_SET_1_REAL/1592807.bmp_pp68_L1_V1.0_scrambled_freeview_isoFalse_fps144.mp4"
"","","","call-function","384","1465568","0.0-384.0","pwkqzjyl","","","","","",""
"2276.8649999999907","{""pre-1"":0}","[0]","survey-likert","385","1467846","0.0-385.0","pwkqzjyl","","","","","",""
"1741.8549999999814","{""pre-2"":1}","[0]","survey-likert","386","1469589","0.0-386.0","pwkqzjyl","","","","","",""
"1466.4749999998603","{""pre-3"":0}","[0]","survey-likert","387","1471056","0.0-387.0","pwkqzjyl","","","","","",""
"3456.785000000149","{""post-5"":2}","[0]","survey-likert","388","1474514","0.0-388.0","pwkqzjyl","","","","","",""
"","","","call-function","389","1474514","0.0-389.0","pwkqzjyl","","","","","",""
"null","","","video-keyboard-response","390","1477592","0.0-390.0","pwkqzjyl","","","","null","Agent A","STIM_SET_1_REAL/1591954.bmp_pp62_L2_V1.0_scrambled_freeview_isoFalse_fps144.mp4"
"","","","call-function","391","1477592","0.0-391.0","pwkqzjyl","","","","","",""
"1843.7650000001304","{""pre-1"":0}","[0]","survey-likert","392","1479437","0.0-392.0","pwkqzjyl","","","","","",""
"2519.5100000000093","{""pre-2"":1}","[0]","survey-likert","393","1481958","0.0-393.0","pwkqzjyl","","","","","",""
"1425.3549999999814","{""pre-3"":0}","[0]","survey-likert","394","1483384","0.0-394.0","pwkqzjyl","","","","","",""
"2535.9950000001118","{""post-5"":2}","[0]","survey-likert","395","1485921","0.0-395.0","pwkqzjyl","","","","","",""
"","","","call-function","396","1485921","0.0-396.0","pwkqzjyl","","","","","",""
"null","","","video-keyboard-response","397","1489010","0.0-397.0","pwkqzjyl","","","","null","Agent A","STIM_SET_1_REAL/713089.bmp_pp60_L3_V1.0_scrambled_freeview_isoFalse_fps144.mp4"
"","","","call-function","398","1489011","0.0-398.0","pwkqzjyl","","","","","",""
"1935.3899999998976","{""pre-1"":0}","[0]","survey-likert","399","1490948","0.0-399.0","pwkqzjyl","","","","","",""
"1950.3400000000838","{""pre-2"":1}","[0]","survey-likert","400","1492899","0.0-400.0","pwkqzjyl","","","","","",""
"2261.965000000084","{""pre-3"":0}","[0]","survey-likert","401","1495163","0.0-401.0","pwkqzjyl","","","","","",""
"9557.429999999935","{""post-5"":2}","[0]","survey-likert","402","1504721","0.0-402.0","pwkqzjyl","","","","","",""
"","","","call-function","403","1504722","0.0-403.0","pwkqzjyl","","","","","",""
"null","","","video-keyboard-response","404","1507798","0.0-404.0","pwkqzjyl","","","","null","Agent A","STIM_SET_1_REAL/1592619.bmp_pp56_L3_V1.0_scrambled_freeview_isoFalse_fps144.mp4"
"","","","call-function","405","1507799","0.0-405.0","pwkqzjyl","","","","","",""
"2123.2399999999907","{""pre-1"":0}","[0]","survey-likert","406","1509923","0.0-406.0","pwkqzjyl","","","","","",""
"3386.9799999999814","{""pre-2"":1}","[0]","survey-likert","407","1513312","0.0-407.0","pwkqzjyl","","","","","",""
"3458.590000000084","{""pre-3"":0}","[0]","survey-likert","408","1516772","0.0-408.0","pwkqzjyl","","","","","",""
"5846.774999999907","{""post-5"":3}","[0]","survey-likert","409","1522620","0.0-409.0","pwkqzjyl","","","","","",""
"","","","call-function","410","1522620","0.0-410.0","pwkqzjyl","","","","","",""
"null","","","video-keyboard-response","411","1525682","0.0-411.0","pwkqzjyl","","","","null","Agent A","STIM_SET_1_REAL/1159621.bmp_pp92_L3_V1.0_veridical_freeview_isoFalse_fps144.mp4"
"","","","call-function","412","1525682","0.0-412.0","pwkqzjyl","","","","","",""
"2054.7949999999255","{""pre-1"":0}","[0]","survey-likert","413","1527738","0.0-413.0","pwkqzjyl","","","","","",""
"2735.2600000000093","{""pre-2"":2}","[0]","survey-likert","414","1530474","0.0-414.0","pwkqzjyl","","","","","",""
"1654.2050000000745","{""pre-3"":1}","[0]","survey-likert","415","1532130","0.0-415.0","pwkqzjyl","","","","","",""
"4872.744999999879","{""post-5"":0}","[0]","survey-likert","416","1537004","0.0-416.0","pwkqzjyl","","","","","",""
"","","","call-function","417","1537004","0.0-417.0","pwkqzjyl","","","","","",""
"null","","","video-keyboard-response","418","1540067","0.0-418.0","pwkqzjyl","","","","null","Agent A","STIM_SET_1_REAL/1592817.bmp_pp55_L3_V1.0_scrambled_freeview_isoFalse_fps144.mp4"
"","","","call-function","419","1540068","0.0-419.0","pwkqzjyl","","","","","",""
"13839.444999999832","{""pre-1"":0}","[0]","survey-likert","420","1553909","0.0-420.0","pwkqzjyl","","","","","",""
"3319.535000000149","{""pre-2"":1}","[0]","survey-likert","421","1557230","0.0-421.0","pwkqzjyl","","","","","",""
"1601.309999999823","{""pre-3"":0}","[0]","survey-likert","422","1558832","0.0-422.0","pwkqzjyl","","","","","",""
"2640.1750000000466","{""post-5"":2}","[0]","survey-likert","423","1561474","0.0-423.0","pwkqzjyl","","","","","",""
"","","","call-function","424","1561474","0.0-424.0","pwkqzjyl","","","","","",""
"null","","","video-keyboard-response","425","1564549","0.0-425.0","pwkqzjyl","","","","null","Agent A","STIM_SET_1_REAL/1592807.bmp_pp68_L1_V1.0_veridical_freeview_isoFalse_fps144.mp4"
"","","","call-function","426","1564550","0.0-426.0","pwkqzjyl","","","","","",""
"2775.939999999944","{""pre-1"":0}","[0]","survey-likert","427","1567327","0.0-427.0","pwkqzjyl","","","","","",""
"1854.285000000149","{""pre-2"":3}","[0]","survey-likert","428","1569182","0.0-428.0","pwkqzjyl","","","","","",""
"1596.9549999998417","{""pre-3"":1}","[0]","survey-likert","429","1570781","0.0-429.0","pwkqzjyl","","","","","",""
"3380.3649999999907","{""post-5"":0}","[0]","survey-likert","430","1574162","0.0-430.0","pwkqzjyl","","","","","",""
"","","","call-function","431","1574163","0.0-431.0","pwkqzjyl","","","","","",""
"null","","","video-keyboard-response","432","1577237","0.0-432.0","pwkqzjyl","","","","null","Agent A","STIM_SET_1_REAL/713684.bmp_pp85_L3_V1.0_veridical_freeview_isoFalse_fps144.mp4"
"","","","call-function","433","1577237","0.0-433.0","pwkqzjyl","","","","","",""
"3340.314999999944","{""pre-1"":0}","[0]","survey-likert","434","1580579","0.0-434.0","pwkqzjyl","","","","","",""
"10475.800000000047","{""pre-2"":1}","[0]","survey-likert","435","1591056","0.0-435.0","pwkqzjyl","","","","","",""
"2699.030000000028","{""pre-3"":0}","[0]","survey-likert","436","1593756","0.0-436.0","pwkqzjyl","","","","","",""
"1304.3050000001676","{""post-5"":2}","[0]","survey-likert","437","1595061","0.0-437.0","pwkqzjyl","","","","","",""
"","","","call-function","438","1595062","0.0-438.0","pwkqzjyl","","","","","",""
"null","","","video-keyboard-response","439","1598132","0.0-439.0","pwkqzjyl","","","","null","Agent A","STIM_SET_1_REAL/713135.bmp_pp54_L2_V1.0_veridical_freeview_isoFalse_fps144.mp4"
"","","","call-function","440","1598132","0.0-440.0","pwkqzjyl","","","","","",""
"1879.1450000000186","{""pre-1"":0}","[0]","survey-likert","441","1600012","0.0-441.0","pwkqzjyl","","","","","",""
"1900.035000000149","{""pre-2"":3}","[0]","survey-likert","442","1601913","0.0-442.0","pwkqzjyl","","","","","",""
"2055.9150000000373","{""pre-3"":2}","[0]","survey-likert","443","1603971","0.0-443.0","pwkqzjyl","","","","","",""
"4923.15000000014","{""post-5"":0}","[0]","survey-likert","444","1608896","0.0-444.0","pwkqzjyl","","","","","",""
"34576.74499999988","","","instructions","445","1643474","0.0-445.0","pwkqzjyl","[{""page_index"":0,""viewing_time"":33229.72499999986},{""page_index"":1,""viewing_time"":703.5849999999627},{""page_index"":2,""viewing_time"":642.8600000001024}]","","","","",""
"3081.935000000056","","","instructions","446","1646556","0.0-446.0","pwkqzjyl","[{""page_index"":0,""viewing_time"":620.875},{""page_index"":1,""viewing_time"":1840.8850000000093},{""page_index"":2,""viewing_time"":620.0500000000466}]","","","","",""
"","","","call-function","447","1646557","0.0-447.0","pwkqzjyl","","","","","",""
"null","","","video-keyboard-response","448","1649629","0.0-448.0","pwkqzjyl","","","","null","Agent A","STIM_SET_1_REAL/1159440.bmp_pp98_L1_V1.0_scrambled_freeview_isoFalse_fps144.mp4"
"","","","call-function","449","1649630","0.0-449.0","pwkqzjyl","","","","","",""
"2210.875","{""pre-1"":0}","[0]","survey-likert","450","1651842","0.0-450.0","pwkqzjyl","","","","","",""
"4418.939999999944","{""pre-2"":2}","[0]","survey-likert","451","1656262","0.0-451.0","pwkqzjyl","","","","","",""
"1378.3599999998696","{""pre-3"":1}","[0]","survey-likert","452","1657641","0.0-452.0","pwkqzjyl","","","","","",""
"2752.5849999999627","{""post-5"":1}","[0]","survey-likert","453","1660395","0.0-453.0","pwkqzjyl","","","","","",""
"","","","call-function","454","1660396","0.0-454.0","pwkqzjyl","","","","","",""
"null","","","video-keyboard-response","455","1663474","0.0-455.0","pwkqzjyl","","","","null","Agent A","STIM_SET_1_REAL/1592804.bmp_pp91_L3_V1.0_scrambled_freeview_isoFalse_fps144.mp4"
"","","","call-function","456","1663475","0.0-456.0","pwkqzjyl","","","","","",""
"1918.7699999997858","{""pre-1"":0}","[0]","survey-likert","457","1665395","0.0-457.0","pwkqzjyl","","","","","",""
"1293.8999999999069","{""pre-2"":1}","[0]","survey-likert","458","1666690","0.0-458.0","pwkqzjyl","","","","","",""
"1208.0649999999441","{""pre-3"":0}","[0]","survey-likert","459","1667899","0.0-459.0","pwkqzjyl","","","","","",""
"1521.8300000000745","{""post-5"":1}","[0]","survey-likert","460","1669422","0.0-460.0","pwkqzjyl","","","","","",""
"","","","call-function","461","1669422","0.0-461.0","pwkqzjyl","","","","","",""
"null","","","video-keyboard-response","462","1672503","0.0-462.0","pwkqzjyl","","","","null","Agent A","STIM_SET_1_REAL/1593041.bmp_pp58_L1_V1.0_veridical_freeview_isoFalse_fps144.mp4"
"","","","call-function","463","1672504","0.0-463.0","pwkqzjyl","","","","","",""
"1611.6149999999907","{""pre-1"":0}","[0]","survey-likert","464","1674116","0.0-464.0","pwkqzjyl","","","","","",""
"2019.155000000028","{""pre-2"":0}","[0]","survey-likert","465","1676137","0.0-465.0","pwkqzjyl","","","","","",""
"2284.7900000000373","{""pre-3"":0}","[0]","survey-likert","466","1678422","0.0-466.0","pwkqzjyl","","","","","",""
"1855.0549999999348","{""post-5"":2}","[0]","survey-likert","467","1680279","0.0-467.0","pwkqzjyl","","","","","",""
"","","","call-function","468","1680279","0.0-468.0","pwkqzjyl","","","","","",""
"null","","","video-keyboard-response","469","1683353","0.0-469.0","pwkqzjyl","","","","null","Agent A","STIM_SET_1_REAL/1592372.bmp_pp76_L1_V1.0_scrambled_freeview_isoFalse_fps144.mp4"
"","","","call-function","470","1683354","0.0-470.0","pwkqzjyl","","","","","",""
"3067.005000000121","{""pre-1"":0}","[0]","survey-likert","471","1686422","0.0-471.0","pwkqzjyl","","","","","",""
"1434.0749999999534","{""pre-2"":2}","[0]","survey-likert","472","1687857","0.0-472.0","pwkqzjyl","","","","","",""
"1744.6049999999814","{""pre-3"":0}","[0]","survey-likert","473","1689603","0.0-473.0","pwkqzjyl","","","","","",""
"2553.625","{""post-5"":1}","[0]","survey-likert","474","1692158","0.0-474.0","pwkqzjyl","","","","","",""
"","","","call-function","475","1692159","0.0-475.0","pwkqzjyl","","","","","",""
"null","","","video-keyboard-response","476","1695263","0.0-476.0","pwkqzjyl","","","","null","Agent A","STIM_SET_1_REAL/713211.bmp_pp100_L3_V1.0_scrambled_freeview_isoFalse_fps144.mp4"
"","","","call-function","477","1695264","0.0-477.0","pwkqzjyl","","","","","",""
"2064.1350000000093","{""pre-1"":0}","[0]","survey-likert","478","1697329","0.0-478.0","pwkqzjyl","","","","","",""
"3887.9000000001397","{""pre-2"":2}","[0]","survey-likert","479","1701219","0.0-479.0","pwkqzjyl","","","","","",""
"1586.405000000028","{""pre-3"":1}","[0]","survey-likert","480","1702808","0.0-480.0","pwkqzjyl","","","","","",""
"8227.534999999916","{""post-5"":1}","[0]","survey-likert","481","1711037","0.0-481.0","pwkqzjyl","","","","","",""
"","","","call-function","482","1711037","0.0-482.0","pwkqzjyl","","","","","",""
"null","","","video-keyboard-response","483","1714106","0.0-483.0","pwkqzjyl","","","","null","Agent A","STIM_SET_1_REAL/285933.bmp_pp81_L1_V1.0_veridical_freeview_isoFalse_fps144.mp4"
"","","","call-function","484","1714106","0.0-484.0","pwkqzjyl","","","","","",""
"2257.465000000084","{""pre-1"":0}","[0]","survey-likert","485","1716365","0.0-485.0","pwkqzjyl","","","","","",""
"3101.839999999851","{""pre-2"":3}","[0]","survey-likert","486","1719468","0.0-486.0","pwkqzjyl","","","","","",""
"1381.780000000028","{""pre-3"":1}","[0]","survey-likert","487","1720850","0.0-487.0","pwkqzjyl","","","","","",""
"3164.9899999999907","{""post-5"":1}","[0]","survey-likert","488","1724017","0.0-488.0","pwkqzjyl","","","","","",""
"","","","call-function","489","1724017","0.0-489.0","pwkqzjyl","","","","","",""
"null","","","video-keyboard-response","490","1727086","0.0-490.0","pwkqzjyl","","","","null","Agent A","STIM_SET_1_REAL/1592727.bmp_pp59_L3_V1.0_scrambled_freeview_isoFalse_fps144.mp4"
"","","","call-function","491","1727086","0.0-491.0","pwkqzjyl","","","","","",""
"3074.2050000000745","{""pre-1"":0}","[0]","survey-likert","492","1730161","0.0-492.0","pwkqzjyl","","","","","",""
"4125.405000000028","{""pre-2"":2}","[0]","survey-likert","493","1734288","0.0-493.0","pwkqzjyl","","","","","",""
"6488.584999999963","{""pre-3"":1}","[0]","survey-likert","494","1740777","0.0-494.0","pwkqzjyl","","","","","",""
"1687.2849999999162","{""post-5"":1}","[0]","survey-likert","495","1742466","0.0-495.0","pwkqzjyl","","","","","",""
"","","","call-function","496","1742466","0.0-496.0","pwkqzjyl","","","","","",""
"null","","","video-keyboard-response","497","1745541","0.0-497.0","pwkqzjyl","","","","null","Agent A","STIM_SET_1_REAL/713371.bmp_pp68_L1_V1.0_scrambled_freeview_isoFalse_fps144.mp4"
"","","","call-function","498","1745542","0.0-498.0","pwkqzjyl","","","","","",""
"1771.9449999998324","{""pre-1"":0}","[0]","survey-likert","499","1747315","0.0-499.0","pwkqzjyl","","","","","",""
"1254.5249999999069","{""pre-2"":1}","[0]","survey-likert","500","1748571","0.0-500.0","pwkqzjyl","","","","","",""
"2507.1200000001118","{""pre-3"":0}","[0]","survey-likert","501","1751080","0.0-501.0","pwkqzjyl","","","","","",""
"1795.3000000000466","{""post-5"":1}","[0]","survey-likert","502","1752877","0.0-502.0","pwkqzjyl","","","","","",""
"","","","call-function","503","1752878","0.0-503.0","pwkqzjyl","","","","","",""
"null","","","video-keyboard-response","504","1755947","0.0-504.0","pwkqzjyl","","","","null","Agent A","STIM_SET_1_REAL/1159768.bmp_pp89_L1_V1.0_veridical_freeview_isoFalse_fps144.mp4"
"","","","call-function","505","1755948","0.0-505.0","pwkqzjyl","","","","","",""
"2294.7299999999814","{""pre-1"":0}","[0]","survey-likert","506","1758244","0.0-506.0","pwkqzjyl","","","","","",""
"1738.910000000149","{""pre-2"":2}","[0]","survey-likert","507","1759984","0.0-507.0","pwkqzjyl","","","","","",""
"1423.4849999998696","{""pre-3"":0}","[0]","survey-likert","508","1761409","0.0-508.0","pwkqzjyl","","","","","",""
"2083.875","{""post-5"":1}","[0]","survey-likert","509","1763494","0.0-509.0","pwkqzjyl","","","","","",""
"","","","call-function","510","1763494","0.0-510.0","pwkqzjyl","","","","","",""
"null","","","video-keyboard-response","511","1766554","0.0-511.0","pwkqzjyl","","","","null","Agent A","STIM_SET_1_REAL/713779.bmp_pp152_L2_V1.0_scrambled_freeview_isoFalse_fps144.mp4"
"","","","call-function","512","1766554","0.0-512.0","pwkqzjyl","","","","","",""
"1800.6899999999441","{""pre-1"":0}","[0]","survey-likert","513","1768356","0.0-513.0","pwkqzjyl","","","","","",""
"1377.75","{""pre-2"":1}","[0]","survey-likert","514","1769735","0.0-514.0","pwkqzjyl","","","","","",""
"1144.339999999851","{""pre-3"":0}","[0]","survey-likert","515","1770880","0.0-515.0","pwkqzjyl","","","","","",""
"1340.6450000000186","{""post-5"":1}","[0]","survey-likert","516","1772222","0.0-516.0","pwkqzjyl","","","","","",""
"","","","call-function","517","1772223","0.0-517.0","pwkqzjyl","","","","","",""
"null","","","video-keyboard-response","518","1775295","0.0-518.0","pwkqzjyl","","","","null","Agent A","STIM_SET_1_REAL/713760.bmp_pp81_L1_V1.0_veridical_freeview_isoFalse_fps144.mp4"
"","","","call-function","519","1775296","0.0-519.0","pwkqzjyl","","","","","",""
"1535.7899999998044","{""pre-1"":0}","[0]","survey-likert","520","1776833","0.0-520.0","pwkqzjyl","","","","","",""
"1127.9499999999534","{""pre-2"":2}","[0]","survey-likert","521","1777962","0.0-521.0","pwkqzjyl","","","","","",""
"2248.9300000001676","{""pre-3"":2}","[0]","survey-likert","522","1780212","0.0-522.0","pwkqzjyl","","","","","",""
"3649.7700000000186","{""post-5"":0}","[0]","survey-likert","523","1783862","0.0-523.0","pwkqzjyl","","","","","",""
"","","","call-function","524","1783863","0.0-524.0","pwkqzjyl","","","","","",""
"null","","","video-keyboard-response","525","1786950","0.0-525.0","pwkqzjyl","","","","null","Agent A","STIM_SET_1_REAL/1159813.bmp_pp79_L2_V1.0_scrambled_freeview_isoFalse_fps144.mp4"
"","","","call-function","526","1786951","0.0-526.0","pwkqzjyl","","","","","",""
"3477.105000000214","{""pre-1"":0}","[0]","survey-likert","527","1790429","0.0-527.0","pwkqzjyl","","","","","",""
"1465.8000000000466","{""pre-2"":1}","[0]","survey-likert","528","1791895","0.0-528.0","pwkqzjyl","","","","","",""
"1321.9799999999814","{""pre-3"":0}","[0]","survey-likert","529","1793218","0.0-529.0","pwkqzjyl","","","","","",""
"1488.2099999999627","{""post-5"":1}","[0]","survey-likert","530","1794708","0.0-530.0","pwkqzjyl","","","","","",""
"","","","call-function","531","1794708","0.0-531.0","pwkqzjyl","","","","","",""
"null","","","video-keyboard-response","532","1797809","0.0-532.0","pwkqzjyl","","","","null","Agent A","STIM_SET_1_REAL/61537.bmp_pp73_L3_V1.0_veridical_freeview_isoFalse_fps144.mp4"
"","","","call-function","533","1797809","0.0-533.0","pwkqzjyl","","","","","",""
"2473.6200000001118","{""pre-1"":0}","[0]","survey-likert","534","1800285","0.0-534.0","pwkqzjyl","","","","","",""
"1392.4650000000838","{""pre-2"":1}","[0]","survey-likert","535","1801679","0.0-535.0","pwkqzjyl","","","","","",""
"1624.4850000001024","{""pre-3"":0}","[0]","survey-likert","536","1803305","0.0-536.0","pwkqzjyl","","","","","",""
"1386.7600000000093","{""post-5"":1}","[0]","survey-likert","537","1804693","0.0-537.0","pwkqzjyl","","","","","",""
"","","","call-function","538","1804694","0.0-538.0","pwkqzjyl","","","","","",""
"null","","","video-keyboard-response","539","1807766","0.0-539.0","pwkqzjyl","","","","null","Agent A","STIM_SET_1_REAL/713135.bmp_pp54_L2_V1.0_scrambled_freeview_isoFalse_fps144.mp4"
"","","","call-function","540","1807767","0.0-540.0","pwkqzjyl","","","","","",""
"2076.0800000000745","{""pre-1"":0}","[0]","survey-likert","541","1809844","0.0-541.0","pwkqzjyl","","","","","",""
"2644.8799999998882","{""pre-2"":1}","[0]","survey-likert","542","1812490","0.0-542.0","pwkqzjyl","","","","","",""
"1813.7250000000931","{""pre-3"":0}","[0]","survey-likert","543","1814305","0.0-543.0","pwkqzjyl","","","","","",""
"1702.375","{""post-5"":1}","[0]","survey-likert","544","1816009","0.0-544.0","pwkqzjyl","","","","","",""
"","","","call-function","545","1816010","0.0-545.0","pwkqzjyl","","","","","",""
"null","","","video-keyboard-response","546","1819087","0.0-546.0","pwkqzjyl","","","","null","Agent A","STIM_SET_1_REAL/713666.bmp_pp97_L3_V1.0_veridical_freeview_isoFalse_fps144.mp4"
"","","","call-function","547","1819088","0.0-547.0","pwkqzjyl","","","","","",""
"2415.7399999999907","{""pre-1"":0}","[0]","survey-likert","548","1821504","0.0-548.0","pwkqzjyl","","","","","",""
"3099.189999999944","{""pre-2"":1}","[0]","survey-likert","549","1824605","0.0-549.0","pwkqzjyl","","","","","",""
"1412.3349999999627","{""pre-3"":1}","[0]","survey-likert","550","1826018","0.0-550.0","pwkqzjyl","","","","","",""
"2353.1650000000373","{""post-5"":1}","[0]","survey-likert","551","1828372","0.0-551.0","pwkqzjyl","","","","","",""
"","","","call-function","552","1828373","0.0-552.0","pwkqzjyl","","","","","",""
"null","","","video-keyboard-response","553","1831443","0.0-553.0","pwkqzjyl","","","","null","Agent A","STIM_SET_1_REAL/1592727.bmp_pp59_L3_V1.0_veridical_freeview_isoFalse_fps144.mp4"
"","","","call-function","554","1831443","0.0-554.0","pwkqzjyl","","","","","",""
"2465.100000000093","{""pre-1"":0}","[0]","survey-likert","555","1833909","0.0-555.0","pwkqzjyl","","","","","",""
"3265.715000000084","{""pre-2"":2}","[0]","survey-likert","556","1837176","0.0-556.0","pwkqzjyl","","","","","",""
"1714.1850000000559","{""pre-3"":1}","[0]","survey-likert","557","1838891","0.0-557.0","pwkqzjyl","","","","","",""
"1490.7049999998417","{""post-5"":1}","[0]","survey-likert","558","1840383","0.0-558.0","pwkqzjyl","","","","","",""
"","","","call-function","559","1840383","0.0-559.0","pwkqzjyl","","","","","",""
"null","","","video-keyboard-response","560","1843445","0.0-560.0","pwkqzjyl","","","","null","Agent A","STIM_SET_1_REAL/1592890.bmp_pp82_L2_V1.0_veridical_freeview_isoFalse_fps144.mp4"
"","","","call-function","561","1843446","0.0-561.0","pwkqzjyl","","","","","",""
"2317.034999999916","{""pre-1"":0}","[0]","survey-likert","562","1845764","0.0-562.0","pwkqzjyl","","","","","",""
"1953.7150000000838","{""pre-2"":1}","[0]","survey-likert","563","1847719","0.0-563.0","pwkqzjyl","","","","","",""
"2045.6649999998044","{""pre-3"":0}","[0]","survey-likert","564","1849766","0.0-564.0","pwkqzjyl","","","","","",""
"1643.2700000000186","{""post-5"":2}","[0]","survey-likert","565","1851411","0.0-565.0","pwkqzjyl","","","","","",""
"","","","call-function","566","1851412","0.0-566.0","pwkqzjyl","","","","","",""
"null","","","video-keyboard-response","567","1854522","0.0-567.0","pwkqzjyl","","","","null","Agent A","STIM_SET_1_REAL/1593041.bmp_pp58_L1_V1.0_scrambled_freeview_isoFalse_fps144.mp4"
"","","","call-function","568","1854522","0.0-568.0","pwkqzjyl","","","","","",""
"1794.719999999972","{""pre-1"":0}","[0]","survey-likert","569","1856318","0.0-569.0","pwkqzjyl","","","","","",""
"1978.9899999999907","{""pre-2"":1}","[0]","survey-likert","570","1858298","0.0-570.0","pwkqzjyl","","","","","",""
"1527.2600000000093","{""pre-3"":0}","[0]","survey-likert","571","1859827","0.0-571.0","pwkqzjyl","","","","","",""
"1506.5250000001397","{""post-5"":2}","[0]","survey-likert","572","1861335","0.0-572.0","pwkqzjyl","","","","","",""
"","","","call-function","573","1861335","0.0-573.0","pwkqzjyl","","","","","",""
"null","","","video-keyboard-response","574","1864410","0.0-574.0","pwkqzjyl","","","","null","Agent A","STIM_SET_1_REAL/1160127.bmp_pp90_L2_V1.0_veridical_freeview_isoFalse_fps144.mp4"
"","","","call-function","575","1864411","0.0-575.0","pwkqzjyl","","","","","",""
"1686.5250000001397","{""pre-1"":0}","[0]","survey-likert","576","1866099","0.0-576.0","pwkqzjyl","","","","","",""
"1356.6599999999162","{""pre-2"":2}","[0]","survey-likert","577","1867457","0.0-577.0","pwkqzjyl","","","","","",""
"1277.375","{""pre-3"":2}","[0]","survey-likert","578","1868736","0.0-578.0","pwkqzjyl","","","","","",""
"2250.9599999999627","{""post-5"":0}","[0]","survey-likert","579","1870988","0.0-579.0","pwkqzjyl","","","","","",""
"","","","call-function","580","1870988","0.0-580.0","pwkqzjyl","","","","","",""
"null","","","video-keyboard-response","581","1874064","0.0-581.0","pwkqzjyl","","","","null","Agent A","STIM_SET_1_REAL/1591994.bmp_pp69_L3_V1.0_scrambled_freeview_isoFalse_fps144.mp4"
"","","","call-function","582","1874064","0.0-582.0","pwkqzjyl","","","","","",""
"3658.320000000065","{""pre-1"":0}","[0]","survey-likert","583","1877724","0.0-583.0","pwkqzjyl","","","","","",""
"3815.7450000001118","{""pre-2"":0}","[0]","survey-likert","584","1881541","0.0-584.0","pwkqzjyl","","","","","",""
"1117.0849999999627","{""pre-3"":0}","[0]","survey-likert","585","1882659","0.0-585.0","pwkqzjyl","","","","","",""
"2964.4150000000373","{""post-5"":3}","[0]","survey-likert","586","1885625","0.0-586.0","pwkqzjyl","","","","","",""
"24599.790000000037","","","instructions","587","1910225","0.0-587.0","pwkqzjyl","[{""page_index"":0,""viewing_time"":23742.705000000075},{""page_index"":1,""viewing_time"":428.2949999999255},{""page_index"":2,""viewing_time"":428.6050000002142}]","","","","",""
"1897.255000000121","","","instructions","588","1912123","0.0-588.0","pwkqzjyl","[{""page_index"":0,""viewing_time"":507.5800000000745},{""page_index"":1,""viewing_time"":810.4199999999255},{""page_index"":2,""viewing_time"":579.0949999999721}]","","","","",""
"","","","call-function","589","1912123","0.0-589.0","pwkqzjyl","","","","","",""
"null","","","video-keyboard-response","590","1915199","0.0-590.0","pwkqzjyl","","","","null","Agent A","STIM_SET_1_REAL/285751.bmp_pp55_L3_V1.0_veridical_freeview_isoFalse_fps144.mp4"
"","","","call-function","591","1915200","0.0-591.0","pwkqzjyl","","","","","",""
"2016.3249999999534","{""pre-1"":0}","[0]","survey-likert","592","1917217","0.0-592.0","pwkqzjyl","","","","","",""
"2236.7399999999907","{""pre-2"":3}","[0]","survey-likert","593","1919455","0.0-593.0","pwkqzjyl","","","","","",""
"1508.5449999999255","{""pre-3"":2}","[0]","survey-likert","594","1920965","0.0-594.0","pwkqzjyl","","","","","",""
"1593.214999999851","{""post-5"":1}","[0]","survey-likert","595","1922559","0.0-595.0","pwkqzjyl","","","","","",""
"","","","call-function","596","1922559","0.0-596.0","pwkqzjyl","","","","","",""
"null","","","video-keyboard-response","597","1925629","0.0-597.0","pwkqzjyl","","","","null","Agent A","STIM_SET_1_REAL/1591961.bmp_pp67_L2_V1.0_scrambled_freeview_isoFalse_fps144.mp4"
"","","","call-function","598","1925631","0.0-598.0","pwkqzjyl","","","","","",""
"2182.9150000000373","{""pre-1"":0}","[0]","survey-likert","599","1927815","0.0-599.0","pwkqzjyl","","","","","",""
"4265.315000000177","{""pre-2"":2}","[0]","survey-likert","600","1932082","0.0-600.0","pwkqzjyl","","","","","",""
"2839.5849999999627","{""pre-3"":1}","[0]","survey-likert","601","1934923","0.0-601.0","pwkqzjyl","","","","","",""
"1990.6999999999534","{""post-5"":0}","[0]","survey-likert","602","1936915","0.0-602.0","pwkqzjyl","","","","","",""
"","","","call-function","603","1936916","0.0-603.0","pwkqzjyl","","","","","",""
"null","","","video-keyboard-response","604","1939990","0.0-604.0","pwkqzjyl","","","","null","Agent A","STIM_SET_1_REAL/713749.bmp_pp88_L2_V1.0_scrambled_freeview_isoFalse_fps144.mp4"
"","","","call-function","605","1939990","0.0-605.0","pwkqzjyl","","","","","",""
"1610.2549999998882","{""pre-1"":0}","[0]","survey-likert","606","1941602","0.0-606.0","pwkqzjyl","","","","","",""
"1374.190000000177","{""pre-2"":3}","[0]","survey-likert","607","1942977","0.0-607.0","pwkqzjyl","","","","","",""
"1252.2350000001024","{""pre-3"":2}","[0]","survey-likert","608","1944231","0.0-608.0","pwkqzjyl","","","","","",""
"1272.3600000001024","{""post-5"":0}","[0]","survey-likert","609","1945505","0.0-609.0","pwkqzjyl","","","","","",""
"","","","call-function","610","1945505","0.0-610.0","pwkqzjyl","","","","","",""
"null","","","video-keyboard-response","611","1948565","0.0-611.0","pwkqzjyl","","","","null","Agent A","STIM_SET_1_REAL/498170.bmp_pp153_L3_V1.0_scrambled_freeview_isoFalse_fps144.mp4"
"","","","call-function","612","1948566","0.0-612.0","pwkqzjyl","","","","","",""
"3505.8349999999627","{""pre-1"":0}","[0]","survey-likert","613","1952073","0.0-613.0","pwkqzjyl","","","","","",""
"2099.320000000065","{""pre-2"":1}","[0]","survey-likert","614","1954173","0.0-614.0","pwkqzjyl","","","","","",""
"1904.5400000000373","{""pre-3"":0}","[0]","survey-likert","615","1956079","0.0-615.0","pwkqzjyl","","","","","",""
"2364.1200000001118","{""post-5"":2}","[0]","survey-likert","616","1958444","0.0-616.0","pwkqzjyl","","","","","",""
"","","","call-function","617","1958445","0.0-617.0","pwkqzjyl","","","","","",""
"null","","","video-keyboard-response","618","1961521","0.0-618.0","pwkqzjyl","","","","null","Agent A","STIM_SET_1_REAL/1591994.bmp_pp69_L3_V1.0_veridical_freeview_isoFalse_fps144.mp4"
"","","","call-function","619","1961521","0.0-619.0","pwkqzjyl","","","","","",""
"1979.8950000000186","{""pre-1"":0}","[0]","survey-likert","620","1963502","0.0-620.0","pwkqzjyl","","","","","",""
"1419.6950000000652","{""pre-2"":1}","[0]","survey-likert","621","1964923","0.0-621.0","pwkqzjyl","","","","","",""
"2714.445000000065","{""pre-3"":0}","[0]","survey-likert","622","1967639","0.0-622.0","pwkqzjyl","","","","","",""
"2912.4150000000373","{""post-5"":2}","[0]","survey-likert","623","1970552","0.0-623.0","pwkqzjyl","","","","","",""
"","","","call-function","624","1970553","0.0-624.0","pwkqzjyl","","","","","",""
"null","","","video-keyboard-response","625","1973647","0.0-625.0","pwkqzjyl","","","","null","Agent A","STIM_SET_1_REAL/713513.bmp_pp62_L2_V1.0_veridical_freeview_isoFalse_fps144.mp4"
"","","","call-function","626","1973649","0.0-626.0","pwkqzjyl","","","","","",""
"1784.1400000001304","{""pre-1"":0}","[0]","survey-likert","627","1975434","0.0-627.0","pwkqzjyl","","","","","",""
"1895.4799999999814","{""pre-2"":2}","[0]","survey-likert","628","1977331","0.0-628.0","pwkqzjyl","","","","","",""
"1428.815000000177","{""pre-3"":2}","[0]","survey-likert","629","1978761","0.0-629.0","pwkqzjyl","","","","","",""
"1774.9750000000931","{""post-5"":0}","[0]","survey-likert","630","1980537","0.0-630.0","pwkqzjyl","","","","","",""
"","","","call-function","631","1980538","0.0-631.0","pwkqzjyl","","","","","",""
"null","","","video-keyboard-response","632","1983603","0.0-632.0","pwkqzjyl","","","","null","Agent A","STIM_SET_1_REAL/1159572.bmp_pp71_L1_V1.0_veridical_freeview_isoFalse_fps144.mp4"
"","","","call-function","633","1983604","0.0-633.0","pwkqzjyl","","","","","",""
"4819.494999999879","{""pre-1"":0}","[0]","survey-likert","634","1988424","0.0-634.0","pwkqzjyl","","","","","",""
"3047.060000000056","{""pre-2"":2}","[0]","survey-likert","635","1991473","0.0-635.0","pwkqzjyl","","","","","",""
"1603.3700000001118","{""pre-3"":0}","[0]","survey-likert","636","1993078","0.0-636.0","pwkqzjyl","","","","","",""
"4572.979999999981","{""post-5"":0}","[0]","survey-likert","637","1997652","0.0-637.0","pwkqzjyl","","","","","",""
"","","","call-function","638","1997652","0.0-638.0","pwkqzjyl","","","","","",""
"null","","","video-keyboard-response","639","2000727","0.0-639.0","pwkqzjyl","","","","null","Agent A","STIM_SET_1_REAL/713707.bmp_pp154_L1_V1.0_scrambled_freeview_isoFalse_fps144.mp4"
"","","","call-function","640","2000727","0.0-640.0","pwkqzjyl","","","","","",""
"1858.410000000149","{""pre-1"":0}","[0]","survey-likert","641","2002587","0.0-641.0","pwkqzjyl","","","","","",""
"1484.5800000000745","{""pre-2"":1}","[0]","survey-likert","642","2004072","0.0-642.0","pwkqzjyl","","","","","",""
"1110.8000000000466","{""pre-3"":0}","[0]","survey-likert","643","2005184","0.0-643.0","pwkqzjyl","","","","","",""
"1899.6049999999814","{""post-5"":2}","[0]","survey-likert","644","2007085","0.0-644.0","pwkqzjyl","","","","","",""
"","","","call-function","645","2007086","0.0-645.0","pwkqzjyl","","","","","",""
"null","","","video-keyboard-response","646","2010154","0.0-646.0","pwkqzjyl","","","","null","Agent A","STIM_SET_1_REAL/285905.bmp_pp57_L1_V1.0_scrambled_freeview_isoFalse_fps144.mp4"
"","","","call-function","647","2010154","0.0-647.0","pwkqzjyl","","","","","",""
"1719.4899999999907","{""pre-1"":0}","[0]","survey-likert","648","2011875","0.0-648.0","pwkqzjyl","","","","","",""
"1972.4299999999348","{""pre-2"":1}","[0]","survey-likert","649","2013848","0.0-649.0","pwkqzjyl","","","","","",""
"1935.5399999998044","{""pre-3"":0}","[0]","survey-likert","650","2015785","0.0-650.0","pwkqzjyl","","","","","",""
"1825.6949999998324","{""post-5"":1}","[0]","survey-likert","651","2017612","0.0-651.0","pwkqzjyl","","","","","",""
"","","","call-function","652","2017614","0.0-652.0","pwkqzjyl","","","","","",""
"null","","","video-keyboard-response","653","2020682","0.0-653.0","pwkqzjyl","","","","null","Agent A","STIM_SET_1_REAL/1592934.bmp_pp63_L1_V1.0_scrambled_freeview_isoFalse_fps144.mp4"
"","","","call-function","654","2020683","0.0-654.0","pwkqzjyl","","","","","",""
"2487.130000000121","{""pre-1"":0}","[0]","survey-likert","655","2023171","0.0-655.0","pwkqzjyl","","","","","",""
"1041.9849999998696","{""pre-2"":1}","[0]","survey-likert","656","2024214","0.0-656.0","pwkqzjyl","","","","","",""
"2417.1450000000186","{""pre-3"":0}","[0]","survey-likert","657","2026633","0.0-657.0","pwkqzjyl","","","","","",""
"3035.4150000000373","{""post-5"":2}","[0]","survey-likert","658","2029670","0.0-658.0","pwkqzjyl","","","","","",""
"","","","call-function","659","2029671","0.0-659.0","pwkqzjyl","","","","","",""
"null","","","video-keyboard-response","660","2032746","0.0-660.0","pwkqzjyl","","","","null","Agent A","STIM_SET_1_REAL/713593.bmp_pp64_L1_V1.0_scrambled_freeview_isoFalse_fps144.mp4"
"","","","call-function","661","2032747","0.0-661.0","pwkqzjyl","","","","","",""
"1560.8899999998976","{""pre-1"":0}","[0]","survey-likert","662","2034309","0.0-662.0","pwkqzjyl","","","","","",""
"2547.064999999944","{""pre-2"":2}","[0]","survey-likert","663","2036857","0.0-663.0","pwkqzjyl","","","","","",""
"1130.3100000000559","{""pre-3"":1}","[0]","survey-likert","664","2037989","0.0-664.0","pwkqzjyl","","","","","",""
"2399.185000000056","{""post-5"":0}","[0]","survey-likert","665","2040389","0.0-665.0","pwkqzjyl","","","","","",""
"","","","call-function","666","2040390","0.0-666.0","pwkqzjyl","","","","","",""
"null","","","video-keyboard-response","667","2043457","0.0-667.0","pwkqzjyl","","","","null","Agent A","STIM_SET_1_REAL/1592397.bmp_pp85_L3_V1.0_scrambled_freeview_isoFalse_fps144.mp4"
"","","","call-function","668","2043458","0.0-668.0","pwkqzjyl","","","","","",""
"2188.5400000000373","{""pre-1"":0}","[0]","survey-likert","669","2045647","0.0-669.0","pwkqzjyl","","","","","",""
"1762.9650000000838","{""pre-2"":3}","[0]","survey-likert","670","2047412","0.0-670.0","pwkqzjyl","","","","","",""
"1640.8700000001118","{""pre-3"":2}","[0]","survey-likert","671","2049054","0.0-671.0","pwkqzjyl","","","","","",""
"1478.2099999999627","{""post-5"":0}","[0]","survey-likert","672","2050533","0.0-672.0","pwkqzjyl","","","","","",""
"","","","call-function","673","2050534","0.0-673.0","pwkqzjyl","","","","","",""
"null","","","video-keyboard-response","674","2053594","0.0-674.0","pwkqzjyl","","","","null","Agent A","STIM_SET_1_REAL/1159882.bmp_pp61_L2_V1.0_veridical_freeview_isoFalse_fps144.mp4"
"","","","call-function","675","2053595","0.0-675.0","pwkqzjyl","","","","","",""
"2625.1450000000186","{""pre-1"":0}","[0]","survey-likert","676","2056221","0.0-676.0","pwkqzjyl","","","","","",""
"6798.655000000028","{""pre-2"":1}","[0]","survey-likert","677","2063021","0.0-677.0","pwkqzjyl","","","","","",""
"1483.5","{""pre-3"":0}","[0]","survey-likert","678","2064506","0.0-678.0","pwkqzjyl","","","","","",""
"4288.754999999888","{""post-5"":0}","[0]","survey-likert","679","2068796","0.0-679.0","pwkqzjyl","","","","","",""
"","","","call-function","680","2068797","0.0-680.0","pwkqzjyl","","","","","",""
"null","","","video-keyboard-response","681","2071887","0.0-681.0","pwkqzjyl","","","","null","Agent A","STIM_SET_1_REAL/713403.bmp_pp80_L3_V1.0_scrambled_freeview_isoFalse_fps144.mp4"
"","","","call-function","682","2071889","0.0-682.0","pwkqzjyl","","","","","",""
"2719.7399999999907","{""pre-1"":0}","[0]","survey-likert","683","2074610","0.0-683.0","pwkqzjyl","","","","","",""
"3026.435000000056","{""pre-2"":2}","[0]","survey-likert","684","2077638","0.0-684.0","pwkqzjyl","","","","","",""
"1690.9599999999627","{""pre-3"":1}","[0]","survey-likert","685","2079330","0.0-685.0","pwkqzjyl","","","","","",""
"2126.284999999916","{""post-5"":0}","[0]","survey-likert","686","2081458","0.0-686.0","pwkqzjyl","","","","","",""
"","","","call-function","687","2081458","0.0-687.0","pwkqzjyl","","","","","",""
"null","","","video-keyboard-response","688","2084535","0.0-688.0","pwkqzjyl","","","","null","Agent A","STIM_SET_1_REAL/713593.bmp_pp64_L1_V1.0_veridical_freeview_isoFalse_fps144.mp4"
"","","","call-function","689","2084536","0.0-689.0","pwkqzjyl","","","","","",""
"1985.8049999999348","{""pre-1"":0}","[0]","survey-likert","690","2086522","0.0-690.0","pwkqzjyl","","","","","",""
"2373.0999999998603","{""pre-2"":3}","[0]","survey-likert","691","2088897","0.0-691.0","pwkqzjyl","","","","","",""
"1866.714999999851","{""pre-3"":2}","[0]","survey-likert","692","2090765","0.0-692.0","pwkqzjyl","","","","","",""
"1386.0249999999069","{""post-5"":0}","[0]","survey-likert","693","2092152","0.0-693.0","pwkqzjyl","","","","","",""
"","","","call-function","694","2092152","0.0-694.0","pwkqzjyl","","","","","",""
"null","","","video-keyboard-response","695","2095223","0.0-695.0","pwkqzjyl","","","","null","Agent A","STIM_SET_1_REAL/1592397.bmp_pp85_L3_V1.0_veridical_freeview_isoFalse_fps144.mp4"
"","","","call-function","696","2095223","0.0-696.0","pwkqzjyl","","","","","",""
"1788.9650000000838","{""pre-1"":0}","[0]","survey-likert","697","2097013","0.0-697.0","pwkqzjyl","","","","","",""
"1789.8950000000186","{""pre-2"":0}","[0]","survey-likert","698","2098804","0.0-698.0","pwkqzjyl","","","","","",""
"1671.1200000001118","{""pre-3"":0}","[0]","survey-likert","699","2100476","0.0-699.0","pwkqzjyl","","","","","",""
"1574.7600000002421","{""post-5"":2}","[0]","survey-likert","700","2102052","0.0-700.0","pwkqzjyl","","","","","",""
"","","","call-function","701","2102053","0.0-701.0","pwkqzjyl","","","","","",""
"null","","","video-keyboard-response","702","2105123","0.0-702.0","pwkqzjyl","","","","null","Agent A","STIM_SET_1_REAL/285905.bmp_pp57_L1_V1.0_veridical_freeview_isoFalse_fps144.mp4"
"","","","call-function","703","2105124","0.0-703.0","pwkqzjyl","","","","","",""
"1670.1650000000373","{""pre-1"":0}","[0]","survey-likert","704","2106795","0.0-704.0","pwkqzjyl","","","","","",""
"2051.814999999944","{""pre-2"":3}","[0]","survey-likert","705","2108848","0.0-705.0","pwkqzjyl","","","","","",""
"2287.260000000242","{""pre-3"":2}","[0]","survey-likert","706","2111136","0.0-706.0","pwkqzjyl","","","","","",""
"2129.7450000001118","{""post-5"":0}","[0]","survey-likert","707","2113267","0.0-707.0","pwkqzjyl","","","","","",""
"","","","call-function","708","2113268","0.0-708.0","pwkqzjyl","","","","","",""
"null","","","video-keyboard-response","709","2116343","0.0-709.0","pwkqzjyl","","","","null","Agent A","STIM_SET_1_REAL/1159675.bmp_pp77_L3_V1.0_scrambled_freeview_isoFalse_fps144.mp4"
"","","","call-function","710","2116343","0.0-710.0","pwkqzjyl","","","","","",""
"1677.029999999795","{""pre-1"":0}","[0]","survey-likert","711","2118021","0.0-711.0","pwkqzjyl","","","","","",""
"2182.3600000003353","{""pre-2"":1}","[0]","survey-likert","712","2120205","0.0-712.0","pwkqzjyl","","","","","",""
"1417.3899999996647","{""pre-3"":0}","[0]","survey-likert","713","2121625","0.0-713.0","pwkqzjyl","","","","","",""
"2535.5099999997765","{""post-5"":2}","[0]","survey-likert","714","2124162","0.0-714.0","pwkqzjyl","","","","","",""
"","","","call-function","715","2124163","0.0-715.0","pwkqzjyl","","","","","",""
"null","","","video-keyboard-response","716","2127239","0.0-716.0","pwkqzjyl","","","","null","Agent A","STIM_SET_1_REAL/498175.bmp_pp154_L1_V1.0_scrambled_freeview_isoFalse_fps144.mp4"
"","","","call-function","717","2127240","0.0-717.0","pwkqzjyl","","","","","",""
"2594.8300000000745","{""pre-1"":0}","[0]","survey-likert","718","2129836","0.0-718.0","pwkqzjyl","","","","","",""
"2114.6399999996647","{""pre-2"":2}","[0]","survey-likert","719","2131952","0.0-719.0","pwkqzjyl","","","","","",""
"1295.8849999997765","{""pre-3"":1}","[0]","survey-likert","720","2133249","0.0-720.0","pwkqzjyl","","","","","",""
"1905.9300000001676","{""post-5"":1}","[0]","survey-likert","721","2135156","0.0-721.0","pwkqzjyl","","","","","",""
"","","","call-function","722","2135157","0.0-722.0","pwkqzjyl","","","","","",""
"null","","","video-keyboard-response","723","2138234","0.0-723.0","pwkqzjyl","","","","null","Agent A","STIM_SET_1_REAL/1591954.bmp_pp62_L2_V1.0_veridical_freeview_isoFalse_fps144.mp4"
"","","","call-function","724","2138234","0.0-724.0","pwkqzjyl","","","","","",""
"1679.3649999997579","{""pre-1"":0}","[0]","survey-likert","725","2139915","0.0-725.0","pwkqzjyl","","","","","",""
"1412.25","{""pre-2"":2}","[0]","survey-likert","726","2141328","0.0-726.0","pwkqzjyl","","","","","",""
"2040.4050000002608","{""pre-3"":1}","[0]","survey-likert","727","2143370","0.0-727.0","pwkqzjyl","","","","","",""
"1587.1450000000186","{""post-5"":0}","[0]","survey-likert","728","2144958","0.0-728.0","pwkqzjyl","","","","","",""
"14832.645000000019","","","instructions","729","2159791","0.0-729.0","pwkqzjyl","[{""page_index"":0,""viewing_time"":13229.660000000149},{""page_index"":1,""viewing_time"":640.9449999998324},{""page_index"":2,""viewing_time"":961.8100000000559}]","","","","",""
"4240.475000000093","","","instructions","730","2164032","0.0-730.0","pwkqzjyl","[{""page_index"":0,""viewing_time"":1678.6200000001118},{""page_index"":1,""viewing_time"":1767.6000000000931},{""page_index"":2,""viewing_time"":794.1499999999069}]","","","","",""
"","","","call-function","731","2164032","0.0-731.0","pwkqzjyl","","","","","",""
"null","","","video-keyboard-response","732","2167101","0.0-732.0","pwkqzjyl","","","","null","Agent A","STIM_SET_1_REAL/1160168.bmp_pp53_L2_V1.0_scrambled_freeview_isoFalse_fps144.mp4"
"","","","call-function","733","2167102","0.0-733.0","pwkqzjyl","","","","","",""
"2420.6200000001118","{""pre-1"":0}","[0]","survey-likert","734","2169523","0.0-734.0","pwkqzjyl","","","","","",""
"4633.959999999963","{""pre-2"":2}","[0]","survey-likert","735","2174158","0.0-735.0","pwkqzjyl","","","","","",""
"1983.8249999997206","{""pre-3"":1}","[0]","survey-likert","736","2176143","0.0-736.0","pwkqzjyl","","","","","",""
"2944.8449999997392","{""post-5"":1}","[0]","survey-likert","737","2179089","0.0-737.0","pwkqzjyl","","","","","",""
"","","","call-function","738","2179089","0.0-738.0","pwkqzjyl","","","","","",""
"null","","","video-keyboard-response","739","2182165","0.0-739.0","pwkqzjyl","","","","null","Agent A","STIM_SET_1_REAL/498175.bmp_pp154_L1_V1.0_veridical_freeview_isoFalse_fps144.mp4"
"","","","call-function","740","2182165","0.0-740.0","pwkqzjyl","","","","","",""
"2737.7549999998882","{""pre-1"":0}","[0]","survey-likert","741","2184904","0.0-741.0","pwkqzjyl","","","","","",""
"1766.8600000003353","{""pre-2"":1}","[0]","survey-likert","742","2186672","0.0-742.0","pwkqzjyl","","","","","",""
"1519.1899999999441","{""pre-3"":0}","[0]","survey-likert","743","2188193","0.0-743.0","pwkqzjyl","","","","","",""
"1392.429999999702","{""post-5"":2}","[0]","survey-likert","744","2189588","0.0-744.0","pwkqzjyl","","","","","",""
"","","","call-function","745","2189590","0.0-745.0","pwkqzjyl","","","","","",""
"null","","","video-keyboard-response","746","2192667","0.0-746.0","pwkqzjyl","","","","null","Agent A","STIM_SET_1_REAL/498155.bmp_pp61_L2_V1.0_veridical_freeview_isoFalse_fps144.mp4"
"","","","call-function","747","2192667","0.0-747.0","pwkqzjyl","","","","","",""
"2043.2000000001863","{""pre-1"":0}","[0]","survey-likert","748","2194711","0.0-748.0","pwkqzjyl","","","","","",""
"1432.5649999999441","{""pre-2"":2}","[0]","survey-likert","749","2196145","0.0-749.0","pwkqzjyl","","","","","",""
"1984.4050000002608","{""pre-3"":1}","[0]","survey-likert","750","2198131","0.0-750.0","pwkqzjyl","","","","","",""
"3140.100000000093","{""post-5"":0}","[0]","survey-likert","751","2201272","0.0-751.0","pwkqzjyl","","","","","",""
"","","","call-function","752","2201273","0.0-752.0","pwkqzjyl","","","","","",""
"null","","","video-keyboard-response","753","2204332","0.0-753.0","pwkqzjyl","","","","null","Agent A","STIM_SET_1_REAL/1159882.bmp_pp61_L2_V1.0_scrambled_freeview_isoFalse_fps144.mp4"
"","","","call-function","754","2204333","0.0-754.0","pwkqzjyl","","","","","",""
"2381.619999999646","{""pre-1"":0}","[0]","survey-likert","755","2206716","0.0-755.0","pwkqzjyl","","","","","",""
"1132.820000000298","{""pre-2"":2}","[0]","survey-likert","756","2207850","0.0-756.0","pwkqzjyl","","","","","",""
"1809.4849999998696","{""pre-3"":0}","[0]","survey-likert","757","2209660","0.0-757.0","pwkqzjyl","","","","","",""
"2201.935000000056","{""post-5"":1}","[0]","survey-likert","758","2211864","0.0-758.0","pwkqzjyl","","","","","",""
"","","","call-function","759","2211864","0.0-759.0","pwkqzjyl","","","","","",""
"null","","","video-keyboard-response","760","2214930","0.0-760.0","pwkqzjyl","","","","null","Agent A","STIM_SET_1_REAL/713017.bmp_pp152_L2_V1.0_veridical_freeview_isoFalse_fps144.mp4"
"","","","call-function","761","2214931","0.0-761.0","pwkqzjyl","","","","","",""
"2131.225000000093","{""pre-1"":0}","[0]","survey-likert","762","2217063","0.0-762.0","pwkqzjyl","","","","","",""
"1962.5150000001304","{""pre-2"":2}","[0]","survey-likert","763","2219027","0.0-763.0","pwkqzjyl","","","","","",""
"1595.1100000003353","{""pre-3"":0}","[0]","survey-likert","764","2220623","0.0-764.0","pwkqzjyl","","","","","",""
"2235.404999999795","{""post-5"":0}","[0]","survey-likert","765","2222860","0.0-765.0","pwkqzjyl","","","","","",""
"","","","call-function","766","2222860","0.0-766.0","pwkqzjyl","","","","","",""
"null","","","video-keyboard-response","767","2225930","0.0-767.0","pwkqzjyl","","","","null","Agent A","STIM_SET_1_REAL/1159440.bmp_pp98_L1_V1.0_veridical_freeview_isoFalse_fps144.mp4"
"","","","call-function","768","2225930","0.0-768.0","pwkqzjyl","","","","","",""
"1768.4449999998324","{""pre-1"":0}","[0]","survey-likert","769","2227700","0.0-769.0","pwkqzjyl","","","","","",""
"3265.6299999998882","{""pre-2"":3}","[0]","survey-likert","770","2230967","0.0-770.0","pwkqzjyl","","","","","",""
"1467.804999999702","{""pre-3"":3}","[0]","survey-likert","771","2232436","0.0-771.0","pwkqzjyl","","","","","",""
"1655.2949999999255","{""post-5"":0}","[0]","survey-likert","772","2234093","0.0-772.0","pwkqzjyl","","","","","",""
"","","","call-function","773","2234095","0.0-773.0","pwkqzjyl","","","","","",""
"null","","","video-keyboard-response","774","2237189","0.0-774.0","pwkqzjyl","","","","null","Agent A","STIM_SET_1_REAL/1159447.bmp_pp70_L2_V1.0_scrambled_freeview_isoFalse_fps144.mp4"
"","","","call-function","775","2237190","0.0-775.0","pwkqzjyl","","","","","",""
"2148.5","{""pre-1"":0}","[0]","survey-likert","776","2239340","0.0-776.0","pwkqzjyl","","","","","",""
"1246.8500000000931","{""pre-2"":2}","[0]","survey-likert","777","2240588","0.0-777.0","pwkqzjyl","","","","","",""
"2276.720000000205","{""pre-3"":0}","[0]","survey-likert","778","2242866","0.0-778.0","pwkqzjyl","","","","","",""
"1290.5849999999627","{""post-5"":1}","[0]","survey-likert","779","2244158","0.0-779.0","pwkqzjyl","","","","","",""
"","","","call-function","780","2244159","0.0-780.0","pwkqzjyl","","","","","",""
"null","","","video-keyboard-response","781","2247218","0.0-781.0","pwkqzjyl","","","","null","Agent A","STIM_SET_1_REAL/285994.bmp_pp92_L3_V1.0_veridical_freeview_isoFalse_fps144.mp4"
"","","","call-function","782","2247219","0.0-782.0","pwkqzjyl","","","","","",""
"2338.524999999907","{""pre-1"":0}","[0]","survey-likert","783","2249559","0.0-783.0","pwkqzjyl","","","","","",""
"3675.7000000001863","{""pre-2"":2}","[0]","survey-likert","784","2253235","0.0-784.0","pwkqzjyl","","","","","",""
"1376.2899999995716","{""pre-3"":1}","[0]","survey-likert","785","2254613","0.0-785.0","pwkqzjyl","","","","","",""
"1114.3950000000186","{""post-5"":1}","[0]","survey-likert","786","2255728","0.0-786.0","pwkqzjyl","","","","","",""
"","","","call-function","787","2255729","0.0-787.0","pwkqzjyl","","","","","",""
"null","","","video-keyboard-response","788","2258803","0.0-788.0","pwkqzjyl","","","","null","Agent A","STIM_SET_1_REAL/1591876.bmp_pp63_L1_V1.0_veridical_freeview_isoFalse_fps144.mp4"
"","","","call-function","789","2258804","0.0-789.0","pwkqzjyl","","","","","",""
"1890.910000000149","{""pre-1"":0}","[0]","survey-likert","790","2260696","0.0-790.0","pwkqzjyl","","","","","",""
"1171.1299999998882","{""pre-2"":1}","[0]","survey-likert","791","2261868","0.0-791.0","pwkqzjyl","","","","","",""
"1162.25","{""pre-3"":0}","[0]","survey-likert","792","2263032","0.0-792.0","pwkqzjyl","","","","","",""
"1129.1049999999814","{""post-5"":2}","[0]","survey-likert","793","2264162","0.0-793.0","pwkqzjyl","","","","","",""
"","","","call-function","794","2264162","0.0-794.0","pwkqzjyl","","","","","",""
"null","","","video-keyboard-response","795","2267243","0.0-795.0","pwkqzjyl","","","","null","Agent A","STIM_SET_1_REAL/713681.bmp_pp86_L2_V1.0_scrambled_freeview_isoFalse_fps144.mp4"
"","","","call-function","796","2267243","0.0-796.0","pwkqzjyl","","","","","",""
"1569.4150000000373","{""pre-1"":0}","[0]","survey-likert","797","2268814","0.0-797.0","pwkqzjyl","","","","","",""
"1220.160000000149","{""pre-2"":1}","[0]","survey-likert","798","2270035","0.0-798.0","pwkqzjyl","","","","","",""
"1313.9750000000931","{""pre-3"":0}","[0]","survey-likert","799","2271351","0.0-799.0","pwkqzjyl","","","","","",""
"2166.364999999758","{""post-5"":0}","[0]","survey-likert","800","2273519","0.0-800.0","pwkqzjyl","","","","","",""
"","","","call-function","801","2273519","0.0-801.0","pwkqzjyl","","","","","",""
"null","","","video-keyboard-response","802","2276593","0.0-802.0","pwkqzjyl","","","","null","Agent A","STIM_SET_1_REAL/285751.bmp_pp55_L3_V1.0_scrambled_freeview_isoFalse_fps144.mp4"
"","","","call-function","803","2276593","0.0-803.0","pwkqzjyl","","","","","",""
"1794.9500000001863","{""pre-1"":0}","[0]","survey-likert","804","2278390","0.0-804.0","pwkqzjyl","","","","","",""
"1967.4199999999255","{""pre-2"":1}","[0]","survey-likert","805","2280360","0.0-805.0","pwkqzjyl","","","","","",""
"1767.1200000001118","{""pre-3"":0}","[0]","survey-likert","806","2282129","0.0-806.0","pwkqzjyl","","","","","",""
"1575.4799999999814","{""post-5"":2}","[0]","survey-likert","807","2283705","0.0-807.0","pwkqzjyl","","","","","",""
"","","","call-function","808","2283706","0.0-808.0","pwkqzjyl","","","","","",""
"null","","","video-keyboard-response","809","2286776","0.0-809.0","pwkqzjyl","","","","null","Agent A","STIM_SET_1_REAL/1592499.bmp_pp96_L2_V1.0_veridical_freeview_isoFalse_fps144.mp4"
"","","","call-function","810","2286777","0.0-810.0","pwkqzjyl","","","","","",""
"1675.7949999999255","{""pre-1"":0}","[0]","survey-likert","811","2288454","0.0-811.0","pwkqzjyl","","","","","",""
"1598.5500000002794","{""pre-2"":2}","[0]","survey-likert","812","2290054","0.0-812.0","pwkqzjyl","","","","","",""
"2024.1899999999441","{""pre-3"":1}","[0]","survey-likert","813","2292080","0.0-813.0","pwkqzjyl","","","","","",""
"1300.5150000001304","{""post-5"":0}","[0]","survey-likert","814","2293382","0.0-814.0","pwkqzjyl","","","","","",""
"","","","call-function","815","2293382","0.0-815.0","pwkqzjyl","","","","","",""
"null","","","video-keyboard-response","816","2296458","0.0-816.0","pwkqzjyl","","","","null","Agent A","STIM_SET_1_REAL/1592657.bmp_pp98_L1_V1.0_scrambled_freeview_isoFalse_fps144.mp4"
"","","","call-function","817","2296458","0.0-817.0","pwkqzjyl","","","","","",""
"3695.0150000001304","{""pre-1"":0}","[0]","survey-likert","818","2300154","0.0-818.0","pwkqzjyl","","","","","",""
"2691.439999999944","{""pre-2"":2}","[0]","survey-likert","819","2302847","0.0-819.0","pwkqzjyl","","","","","",""
"1236.855000000447","{""pre-3"":1}","[0]","survey-likert","820","2304085","0.0-820.0","pwkqzjyl","","","","","",""
"1243.3199999998324","{""post-5"":1}","[0]","survey-likert","821","2305329","0.0-821.0","pwkqzjyl","","","","","",""
"","","","call-function","822","2305330","0.0-822.0","pwkqzjyl","","","","","",""
"null","","","video-keyboard-response","823","2308405","0.0-823.0","pwkqzjyl","","","","null","Agent A","STIM_SET_1_REAL/61537.bmp_pp73_L3_V1.0_scrambled_freeview_isoFalse_fps144.mp4"
"","","","call-function","824","2308405","0.0-824.0","pwkqzjyl","","","","","",""
"2998.755000000354","{""pre-1"":0}","[0]","survey-likert","825","2311405","0.0-825.0","pwkqzjyl","","","","","",""
"7395.449999999721","{""pre-2"":1}","[0]","survey-likert","826","2318801","0.0-826.0","pwkqzjyl","","","","","",""
"1811.0849999999627","{""pre-3"":0}","[0]","survey-likert","827","2320614","0.0-827.0","pwkqzjyl","","","","","",""
"4110.395000000019","{""post-5"":1}","[0]","survey-likert","828","2324726","0.0-828.0","pwkqzjyl","","","","","",""
"","","","call-function","829","2324728","0.0-829.0","pwkqzjyl","","","","","",""
"null","","","video-keyboard-response","830","2327788","0.0-830.0","pwkqzjyl","","","","null","Agent A","STIM_SET_1_REAL/1592817.bmp_pp55_L3_V1.0_veridical_freeview_isoFalse_fps144.mp4"
"","","","call-function","831","2327789","0.0-831.0","pwkqzjyl","","","","","",""
"2713.904999999795","{""pre-1"":0}","[0]","survey-likert","832","2330504","0.0-832.0","pwkqzjyl","","","","","",""
"1439.375","{""pre-2"":2}","[0]","survey-likert","833","2331945","0.0-833.0","pwkqzjyl","","","","","",""
"1255.1599999996834","{""pre-3"":1}","[0]","survey-likert","834","2333202","0.0-834.0","pwkqzjyl","","","","","",""
"1796.2450000001118","{""post-5"":1}","[0]","survey-likert","835","2334999","0.0-835.0","pwkqzjyl","","","","","",""
"","","","call-function","836","2335000","0.0-836.0","pwkqzjyl","","","","","",""
