"rt","responses","question_order","trial_type","trial_index","time_elapsed","internal_node_id","ID","view_history","value","stimulus","key_press","agent","image"
"1131309.05","{""Experimenter"":[""Confirmed subject's identity (ID card)"",""Confirmed normal or corrected-to-normal vision"",""Obtained consent (signature and date)"",""Checked the test room lighting"",""Checked computer screen lighting"",""Checked distance from screen to chin rest (50cm)"",""Cleaned and adjusted chin rest"",""Counterbalanced the order of the tasks"",""Opened the experiment in Firefox"",""Made the experiment full screen"",""Encouraged subject to silence phone, put away distractors, etc.""]}","[0]","survey-multi-select","0","1131320","0.0-0.0","trr3ylye","","","","","",""
"26027.594999999972","","","instructions","1","1157349","0.0-1.0","trr3ylye","[{""page_index"":0,""viewing_time"":26027.445000000065}]","","","","",""
"8122.260000000009","{""Age"":1,""Sex"":1,""Gender"":1}","[0,1,2]","survey-likert","2","1165473","0.0-2.0","trr3ylye","","","","","",""
"1510.9399999999441","","","instructions","3","1166985","0.0-3.0","trr3ylye","[{""page_index"":0,""viewing_time"":1510.8300000000745}]","","","","",""
"5319.324999999953","","","instructions","4","1172305","0.0-4.0","trr3ylye","[{""page_index"":0,""viewing_time"":3637.554999999935},{""page_index"":1,""viewing_time"":1681.660000000149}]","","","","",""
"7787.534999999916","","","instructions","5","1180093","0.0-5.0","trr3ylye","[{""page_index"":0,""viewing_time"":1188.589999999851},{""page_index"":1,""viewing_time"":1586.910000000149},{""page_index"":2,""viewing_time"":5011.909999999916}]","","","","",""
"1245.3850000000093","","","instructions","6","1181338","0.0-6.0","trr3ylye","[{""page_index"":0,""viewing_time"":1245.280000000028}]","","","","",""
"","","","call-function","7","1181339","0.0-7.0","trr3ylye","","","","","",""
"null","","","video-keyboard-response","8","1184415","0.0-8.0","trr3ylye","","","","null","",""
"","","","call-function","9","1184416","0.0-9.0","trr3ylye","","","","","",""
"7927.569999999832","","","instructions","10","1192344","0.0-10.0","trr3ylye","[{""page_index"":0,""viewing_time"":2435.494999999879},{""page_index"":1,""viewing_time"":1589.8950000000186},{""page_index"":2,""viewing_time"":902.0400000000373},{""page_index"":3,""viewing_time"":2999.9199999999255}]","","","","",""
"951.2450000001118","","","instructions","11","1193296","0.0-11.0","trr3ylye","[{""page_index"":0,""viewing_time"":951.1350000000093}]","","","","",""
"","","","call-function","12","1193296","0.0-12.0","trr3ylye","","","","","",""
"null","","","video-keyboard-response","13","1196372","0.0-13.0","trr3ylye","","","","null","",""
"","","","call-function","14","1196372","0.0-14.0","trr3ylye","","","","","",""
"13589.180000000168","{""pre-1"":1}","[0]","survey-likert","15","1209963","0.0-15.0","trr3ylye","","","","","",""
"5079.574999999953","{""pre-2"":2}","[0]","survey-likert","16","1215043","0.0-16.0","trr3ylye","","","","","",""
"3975.005000000121","{""pre-3"":1}","[0]","survey-likert","17","1219020","0.0-17.0","trr3ylye","","","","","",""
"4085.310000000056","{""post-5"":2}","[0]","survey-likert","18","1223107","0.0-18.0","trr3ylye","","","","","",""
"983.7650000001304","","","instructions","19","1224092","0.0-19.0","trr3ylye","[{""page_index"":0,""viewing_time"":983.1500000001397}]","","","","",""
"9175.780000000028","","","instructions","20","1233269","0.0-20.0","trr3ylye","[{""page_index"":0,""viewing_time"":9175.669999999925}]","","","","",""
"","","","call-function","21","1233269","0.0-21.0","trr3ylye","","","","","",""
"null","","","video-keyboard-response","22","1236339","0.0-22.0","trr3ylye","","","","null","Agent A","STIM_SET_1_REAL/713135.bmp_pp54_L2_V1.0_veridical_freeview_isoFalse_fps144.mp4"
"","","","call-function","23","1236339","0.0-23.0","trr3ylye","","","","","",""
"5755.010000000009","{""pre-1"":2}","[0]","survey-likert","24","1242095","0.0-24.0","trr3ylye","","","","","",""
"6016.4199999999255","{""pre-2"":0}","[0]","survey-likert","25","1248113","0.0-25.0","trr3ylye","","","","","",""
"4313.939999999944","{""pre-3"":0}","[0]","survey-likert","26","1252428","0.0-26.0","trr3ylye","","","","","",""
"12299.850000000093","{""post-5"":2}","[0]","survey-likert","27","1264729","0.0-27.0","trr3ylye","","","","","",""
"","","","call-function","28","1264730","0.0-28.0","trr3ylye","","","","","",""
"null","","","video-keyboard-response","29","1267800","0.0-29.0","trr3ylye","","","","null","Agent A","STIM_SET_1_REAL/713796.bmp_pp84_L3_V1.0_scrambled_freeview_isoFalse_fps144.mp4"
"","","","call-function","30","1267800","0.0-30.0","trr3ylye","","","","","",""
"6660.780000000028","{""pre-1"":1}","[0]","survey-likert","31","1274462","0.0-31.0","trr3ylye","","","","","",""
"2744.655000000028","{""pre-2"":0}","[0]","survey-likert","32","1277208","0.0-32.0","trr3ylye","","","","","",""
"5102.950000000186","{""pre-3"":1}","[0]","survey-likert","33","1282312","0.0-33.0","trr3ylye","","","","","",""
"2688.255000000121","{""post-5"":3}","[0]","survey-likert","34","1285001","0.0-34.0","trr3ylye","","","","","",""
"","","","call-function","35","1285001","0.0-35.0","trr3ylye","","","","","",""
"null","","","video-keyboard-response","36","1288070","0.0-36.0","trr3ylye","","","","null","Agent A","STIM_SET_1_REAL/285905.bmp_pp57_L1_V1.0_scrambled_freeview_isoFalse_fps144.mp4"
"","","","call-function","37","1288070","0.0-37.0","trr3ylye","","","","","",""
"5949.23499999987","{""pre-1"":1}","[0]","survey-likert","38","1294021","0.0-38.0","trr3ylye","","","","","",""
"4118.114999999991","{""pre-2"":2}","[0]","survey-likert","39","1298141","0.0-39.0","trr3ylye","","","","","",""
"5806.020000000019","{""pre-3"":1}","[0]","survey-likert","40","1303948","0.0-40.0","trr3ylye","","","","","",""
"3432.0500000000466","{""post-5"":2}","[0]","survey-likert","41","1307381","0.0-41.0","trr3ylye","","","","","",""
"","","","call-function","42","1307382","0.0-42.0","trr3ylye","","","","","",""
"null","","","video-keyboard-response","43","1310457","0.0-43.0","trr3ylye","","","","null","Agent A","STIM_SET_1_REAL/285751.bmp_pp55_L3_V1.0_scrambled_freeview_isoFalse_fps144.mp4"
"","","","call-function","44","1310458","0.0-44.0","trr3ylye","","","","","",""
"8191.2050000000745","{""pre-1"":1}","[0]","survey-likert","45","1318650","0.0-45.0","trr3ylye","","","","","",""
"6738.559999999823","{""pre-2"":3}","[0]","survey-likert","46","1325390","0.0-46.0","trr3ylye","","","","","",""
"9203.860000000102","{""pre-3"":2}","[0]","survey-likert","47","1334595","0.0-47.0","trr3ylye","","","","","",""
"3998.1200000001118","{""post-5"":1}","[0]","survey-likert","48","1338594","0.0-48.0","trr3ylye","","","","","",""
"","","","call-function","49","1338595","0.0-49.0","trr3ylye","","","","","",""
"null","","","video-keyboard-response","50","1341670","0.0-50.0","trr3ylye","","","","null","Agent A","STIM_SET_1_REAL/1592372.bmp_pp76_L1_V1.0_veridical_freeview_isoFalse_fps144.mp4"
"","","","call-function","51","1341671","0.0-51.0","trr3ylye","","","","","",""
"6132.379999999888","{""pre-1"":1}","[0]","survey-likert","52","1347805","0.0-52.0","trr3ylye","","","","","",""
"6654.864999999991","{""pre-2"":2}","[0]","survey-likert","53","1354461","0.0-53.0","trr3ylye","","","","","",""
"2215.3299999998417","{""pre-3"":2}","[0]","survey-likert","54","1356678","0.0-54.0","trr3ylye","","","","","",""
"5899.164999999804","{""post-5"":1}","[0]","survey-likert","55","1362578","0.0-55.0","trr3ylye","","","","","",""
"","","","call-function","56","1362579","0.0-56.0","trr3ylye","","","","","",""
"null","","","video-keyboard-response","57","1365642","0.0-57.0","trr3ylye","","","","null","Agent A","STIM_SET_1_REAL/713089.bmp_pp60_L3_V1.0_scrambled_freeview_isoFalse_fps144.mp4"
"","","","call-function","58","1365643","0.0-58.0","trr3ylye","","","","","",""
"6123.060000000056","{""pre-1"":1}","[0]","survey-likert","59","1371767","0.0-59.0","trr3ylye","","","","","",""
"21892.925000000047","{""pre-2"":2}","[0]","survey-likert","60","1393661","0.0-60.0","trr3ylye","","","","","",""
"4318.120000000112","{""pre-3"":1}","[0]","survey-likert","61","1397980","0.0-61.0","trr3ylye","","","","","",""
"2680.939999999944","{""post-5"":1}","[0]","survey-likert","62","1400662","0.0-62.0","trr3ylye","","","","","",""
"","","","call-function","63","1400663","0.0-63.0","trr3ylye","","","","","",""
"null","","","video-keyboard-response","64","1403731","0.0-64.0","trr3ylye","","","","null","Agent A","STIM_SET_1_REAL/1592727.bmp_pp59_L3_V1.0_scrambled_freeview_isoFalse_fps144.mp4"
"","","","call-function","65","1403732","0.0-65.0","trr3ylye","","","","","",""
"8207.360000000102","{""pre-1"":2}","[0]","survey-likert","66","1411940","0.0-66.0","trr3ylye","","","","","",""
"3256.8300000000745","{""pre-2"":1}","[0]","survey-likert","67","1415198","0.0-67.0","trr3ylye","","","","","",""
"3104.8799999998882","{""pre-3"":2}","[0]","survey-likert","68","1418303","0.0-68.0","trr3ylye","","","","","",""
"3103.9150000000373","{""post-5"":3}","[0]","survey-likert","69","1421409","0.0-69.0","trr3ylye","","","","","",""
"","","","call-function","70","1421410","0.0-70.0","trr3ylye","","","","","",""
"null","","","video-keyboard-response","71","1424485","0.0-71.0","trr3ylye","","","","null","Agent A","STIM_SET_1_REAL/712977.bmp_pp51_L1_V1.0_veridical_freeview_isoFalse_fps144.mp4"
"","","","call-function","72","1424485","0.0-72.0","trr3ylye","","","","","",""
"3963.719999999972","{""pre-1"":2}","[0]","survey-likert","73","1428450","0.0-73.0","trr3ylye","","","","","",""
"26992.89000000013","{""pre-2"":1}","[0]","survey-likert","74","1455444","0.0-74.0","trr3ylye","","","","","",""
"2761.7899999998044","{""pre-3"":2}","[0]","survey-likert","75","1458208","0.0-75.0","trr3ylye","","","","","",""
"3463.0100000000093","{""post-5"":2}","[0]","survey-likert","76","1461672","0.0-76.0","trr3ylye","","","","","",""
"","","","call-function","77","1461672","0.0-77.0","trr3ylye","","","","","",""
"null","","","video-keyboard-response","78","1464748","0.0-78.0","trr3ylye","","","","null","Agent A","STIM_SET_1_REAL/713684.bmp_pp85_L3_V1.0_veridical_freeview_isoFalse_fps144.mp4"
"","","","call-function","79","1464749","0.0-79.0","trr3ylye","","","","","",""
"4684.215000000084","{""pre-1"":1}","[0]","survey-likert","80","1469434","0.0-80.0","trr3ylye","","","","","",""
"5053.645000000019","{""pre-2"":0}","[0]","survey-likert","81","1474489","0.0-81.0","trr3ylye","","","","","",""
"5294.195000000065","{""pre-3"":0}","[0]","survey-likert","82","1479784","0.0-82.0","trr3ylye","","","","","",""
"2969.945000000065","{""post-5"":3}","[0]","survey-likert","83","1482755","0.0-83.0","trr3ylye","","","","","",""
"","","","call-function","84","1482755","0.0-84.0","trr3ylye","","","","","",""
"null","","","video-keyboard-response","85","1485824","0.0-85.0","trr3ylye","","","","null","Agent A","STIM_SET_1_REAL/1592286.bmp_pp52_L1_V1.0_scrambled_freeview_isoFalse_fps144.mp4"
"","","","call-function","86","1485824","0.0-86.0","trr3ylye","","","","","",""
"6459.524999999907","{""pre-1"":1}","[0]","survey-likert","87","1492285","0.0-87.0","trr3ylye","","","","","",""
"39168.715000000084","{""pre-2"":1}","[0]","survey-likert","88","1531456","0.0-88.0","trr3ylye","","","","","",""
"3863.3249999999534","{""pre-3"":0}","[0]","survey-likert","89","1535320","0.0-89.0","trr3ylye","","","","","",""
"2392.7349999998696","{""post-5"":2}","[0]","survey-likert","90","1537715","0.0-90.0","trr3ylye","","","","","",""
"","","","call-function","91","1537715","0.0-91.0","trr3ylye","","","","","",""
"null","","","video-keyboard-response","92","1540782","0.0-92.0","trr3ylye","","","","null","Agent A","STIM_SET_1_REAL/1592286.bmp_pp52_L1_V1.0_veridical_freeview_isoFalse_fps144.mp4"
"","","","call-function","93","1540783","0.0-93.0","trr3ylye","","","","","",""
"4665.489999999991","{""pre-1"":2}","[0]","survey-likert","94","1545449","0.0-94.0","trr3ylye","","","","","",""
"2922.214999999851","{""pre-2"":1}","[0]","survey-likert","95","1548372","0.0-95.0","trr3ylye","","","","","",""
"5656.939999999944","{""pre-3"":1}","[0]","survey-likert","96","1554030","0.0-96.0","trr3ylye","","","","","",""
"4346.494999999879","{""post-5"":2}","[0]","survey-likert","97","1558378","0.0-97.0","trr3ylye","","","","","",""
"","","","call-function","98","1558379","0.0-98.0","trr3ylye","","","","","",""
"null","","","video-keyboard-response","99","1561457","0.0-99.0","trr3ylye","","","","null","Agent A","STIM_SET_1_REAL/713666.bmp_pp97_L3_V1.0_veridical_freeview_isoFalse_fps144.mp4"
"","","","call-function","100","1561458","0.0-100.0","trr3ylye","","","","","",""
"3402.6149999999907","{""pre-1"":2}","[0]","survey-likert","101","1564861","0.0-101.0","trr3ylye","","","","","",""
"3445.1350000000093","{""pre-2"":2}","[0]","survey-likert","102","1568307","0.0-102.0","trr3ylye","","","","","",""
"2826.255000000121","{""pre-3"":2}","[0]","survey-likert","103","1571135","0.0-103.0","trr3ylye","","","","","",""
"3178.840000000084","{""post-5"":0}","[0]","survey-likert","104","1574315","0.0-104.0","trr3ylye","","","","","",""
"","","","call-function","105","1574316","0.0-105.0","trr3ylye","","","","","",""
"null","","","video-keyboard-response","106","1577396","0.0-106.0","trr3ylye","","","","null","Agent A","STIM_SET_1_REAL/1593146.bmp_pp93_L1_V1.0_scrambled_freeview_isoFalse_fps144.mp4"
"","","","call-function","107","1577397","0.0-107.0","trr3ylye","","","","","",""
"8987.875","{""pre-1"":2}","[0]","survey-likert","108","1586386","0.0-108.0","trr3ylye","","","","","",""
"37558.80500000017","{""pre-2"":1}","[0]","survey-likert","109","1623946","0.0-109.0","trr3ylye","","","","","",""
"2913.494999999879","{""pre-3"":1}","[0]","survey-likert","110","1626860","0.0-110.0","trr3ylye","","","","","",""
"3939.5749999999534","{""post-5"":1}","[0]","survey-likert","111","1630801","0.0-111.0","trr3ylye","","","","","",""
"","","","call-function","112","1630802","0.0-112.0","trr3ylye","","","","","",""
"null","","","video-keyboard-response","113","1633876","0.0-113.0","trr3ylye","","","","null","Agent A","STIM_SET_1_REAL/1591994.bmp_pp69_L3_V1.0_veridical_freeview_isoFalse_fps144.mp4"
"","","","call-function","114","1633877","0.0-114.0","trr3ylye","","","","","",""
"4460.5","{""pre-1"":1}","[0]","survey-likert","115","1638339","0.0-115.0","trr3ylye","","","","","",""
"5575.610000000102","{""pre-2"":2}","[0]","survey-likert","116","1643915","0.0-116.0","trr3ylye","","","","","",""
"5985.989999999991","{""pre-3"":2}","[0]","survey-likert","117","1649902","0.0-117.0","trr3ylye","","","","","",""
"3934.2349999998696","{""post-5"":1}","[0]","survey-likert","118","1653838","0.0-118.0","trr3ylye","","","","","",""
"","","","call-function","119","1653839","0.0-119.0","trr3ylye","","","","","",""
"null","","","video-keyboard-response","120","1656917","0.0-120.0","trr3ylye","","","","null","Agent A","STIM_SET_1_REAL/1591954.bmp_pp62_L2_V1.0_veridical_freeview_isoFalse_fps144.mp4"
"","","","call-function","121","1656917","0.0-121.0","trr3ylye","","","","","",""
"7871.14000000013","{""pre-1"":2}","[0]","survey-likert","122","1664790","0.0-122.0","trr3ylye","","","","","",""
"7792.629999999888","{""pre-2"":1}","[0]","survey-likert","123","1672583","0.0-123.0","trr3ylye","","","","","",""
"5575.844999999972","{""pre-3"":2}","[0]","survey-likert","124","1678161","0.0-124.0","trr3ylye","","","","","",""
"2946.839999999851","{""post-5"":3}","[0]","survey-likert","125","1681108","0.0-125.0","trr3ylye","","","","","",""
"","","","call-function","126","1681109","0.0-126.0","trr3ylye","","","","","",""
"null","","","video-keyboard-response","127","1684171","0.0-127.0","trr3ylye","","","","null","Agent A","STIM_SET_1_REAL/1159572.bmp_pp71_L1_V1.0_veridical_freeview_isoFalse_fps144.mp4"
"","","","call-function","128","1684172","0.0-128.0","trr3ylye","","","","","",""
"3161.655000000028","{""pre-1"":1}","[0]","survey-likert","129","1687335","0.0-129.0","trr3ylye","","","","","",""
"3150.0049999998882","{""pre-2"":2}","[0]","survey-likert","130","1690486","0.0-130.0","trr3ylye","","","","","",""
"5823.219999999972","{""pre-3"":3}","[0]","survey-likert","131","1696310","0.0-131.0","trr3ylye","","","","","",""
"6000.434999999823","{""post-5"":1}","[0]","survey-likert","132","1702312","0.0-132.0","trr3ylye","","","","","",""
"","","","call-function","133","1702312","0.0-133.0","trr3ylye","","","","","",""
"null","","","video-keyboard-response","134","1705379","0.0-134.0","trr3ylye","","","","null","Agent A","STIM_SET_1_REAL/1592397.bmp_pp85_L3_V1.0_scrambled_freeview_isoFalse_fps144.mp4"
"","","","call-function","135","1705379","0.0-135.0","trr3ylye","","","","","",""
"6122.800000000047","{""pre-1"":2}","[0]","survey-likert","136","1711504","0.0-136.0","trr3ylye","","","","","",""
"5512.629999999888","{""pre-2"":2}","[0]","survey-likert","137","1717018","0.0-137.0","trr3ylye","","","","","",""
"3360.9599999999627","{""pre-3"":1}","[0]","survey-likert","138","1720380","0.0-138.0","trr3ylye","","","","","",""
"3790.130000000121","{""post-5"":2}","[0]","survey-likert","139","1724172","0.0-139.0","trr3ylye","","","","","",""
"","","","call-function","140","1724172","0.0-140.0","trr3ylye","","","","","",""
"null","","","video-keyboard-response","141","1727240","0.0-141.0","trr3ylye","","","","null","Agent A","STIM_SET_1_REAL/1591961.bmp_pp67_L2_V1.0_veridical_freeview_isoFalse_fps144.mp4"
"","","","call-function","142","1727241","0.0-142.0","trr3ylye","","","","","",""
"3629.6749999998137","{""pre-1"":2}","[0]","survey-likert","143","1730871","0.0-143.0","trr3ylye","","","","","",""
"3543.130000000121","{""pre-2"":1}","[0]","survey-likert","144","1734416","0.0-144.0","trr3ylye","","","","","",""
"3688.3549999999814","{""pre-3"":1}","[0]","survey-likert","145","1738105","0.0-145.0","trr3ylye","","","","","",""
"3344.034999999916","{""post-5"":1}","[0]","survey-likert","146","1741451","0.0-146.0","trr3ylye","","","","","",""
"","","","call-function","147","1741451","0.0-147.0","trr3ylye","","","","","",""
"null","","","video-keyboard-response","148","1744526","0.0-148.0","trr3ylye","","","","null","Agent A","STIM_SET_1_REAL/713620.bmp_pp65_L3_V1.0_scrambled_freeview_isoFalse_fps144.mp4"
"","","","call-function","149","1744526","0.0-149.0","trr3ylye","","","","","",""
"5501.415000000037","{""pre-1"":2}","[0]","survey-likert","150","1750028","0.0-150.0","trr3ylye","","","","","",""
"2534.380000000121","{""pre-2"":1}","[0]","survey-likert","151","1752564","0.0-151.0","trr3ylye","","","","","",""
"1885.8250000001863","{""pre-3"":1}","[0]","survey-likert","152","1754452","0.0-152.0","trr3ylye","","","","","",""
"5880.995000000112","{""post-5"":2}","[0]","survey-likert","153","1760335","0.0-153.0","trr3ylye","","","","","",""
"","","","call-function","154","1760335","0.0-154.0","trr3ylye","","","","","",""
"null","","","video-keyboard-response","155","1763398","0.0-155.0","trr3ylye","","","","null","Agent A","STIM_SET_1_REAL/1592817.bmp_pp55_L3_V1.0_veridical_freeview_isoFalse_fps144.mp4"
"","","","call-function","156","1763399","0.0-156.0","trr3ylye","","","","","",""
"3893.8299999998417","{""pre-1"":2}","[0]","survey-likert","157","1767294","0.0-157.0","trr3ylye","","","","","",""
"2713.1450000000186","{""pre-2"":1}","[0]","survey-likert","158","1770008","0.0-158.0","trr3ylye","","","","","",""
"2088.5550000001676","{""pre-3"":2}","[0]","survey-likert","159","1772098","0.0-159.0","trr3ylye","","","","","",""
"7083.554999999935","{""post-5"":2}","[0]","survey-likert","160","1779182","0.0-160.0","trr3ylye","","","","","",""
"55306.76500000013","","","instructions","161","1834490","0.0-161.0","trr3ylye","[{""page_index"":0,""viewing_time"":1882.4500000001863},{""page_index"":1,""viewing_time"":52540.11999999988},{""page_index"":2,""viewing_time"":883.9750000000931}]","","","","",""
"5910.930000000168","","","instructions","162","1840401","0.0-162.0","trr3ylye","[{""page_index"":0,""viewing_time"":968.9950000001118},{""page_index"":1,""viewing_time"":4310.929999999935},{""page_index"":2,""viewing_time"":630.9000000001397}]","","","","",""
"","","","call-function","163","1840402","0.0-163.0","trr3ylye","","","","","",""
"null","","","video-keyboard-response","164","1843477","0.0-164.0","trr3ylye","","","","null","Agent A","STIM_SET_1_REAL/1160127.bmp_pp90_L2_V1.0_scrambled_freeview_isoFalse_fps144.mp4"
"","","","call-function","165","1843477","0.0-165.0","trr3ylye","","","","","",""
"3711.340000000084","{""pre-1"":1}","[0]","survey-likert","166","1847190","0.0-166.0","trr3ylye","","","","","",""
"2433.8900000001304","{""pre-2"":1}","[0]","survey-likert","167","1849625","0.0-167.0","trr3ylye","","","","","",""
"3264.0200000000186","{""pre-3"":2}","[0]","survey-likert","168","1852890","0.0-168.0","trr3ylye","","","","","",""
"2236.655000000028","{""post-5"":2}","[0]","survey-likert","169","1855127","0.0-169.0","trr3ylye","","","","","",""
"","","","call-function","170","1855128","0.0-170.0","trr3ylye","","","","","",""
"null","","","video-keyboard-response","171","1858191","0.0-171.0","trr3ylye","","","","null","Agent A","STIM_SET_1_REAL/285994.bmp_pp92_L3_V1.0_scrambled_freeview_isoFalse_fps144.mp4"
"","","","call-function","172","1858193","0.0-172.0","trr3ylye","","","","","",""
"3608.9849999998696","{""pre-1"":2}","[0]","survey-likert","173","1861803","0.0-173.0","trr3ylye","","","","","",""
"3697.6099999998696","{""pre-2"":1}","[0]","survey-likert","174","1865502","0.0-174.0","trr3ylye","","","","","",""
"3154.909999999916","{""pre-3"":1}","[0]","survey-likert","175","1868658","0.0-175.0","trr3ylye","","","","","",""
"3129.7349999998696","{""post-5"":2}","[0]","survey-likert","176","1871789","0.0-176.0","trr3ylye","","","","","",""
"","","","call-function","177","1871790","0.0-177.0","trr3ylye","","","","","",""
"null","","","video-keyboard-response","178","1874866","0.0-178.0","trr3ylye","","","","null","Agent A","STIM_SET_1_REAL/1159784.bmp_pp73_L3_V1.0_scrambled_freeview_isoFalse_fps144.mp4"
"","","","call-function","179","1874867","0.0-179.0","trr3ylye","","","","","",""
"7807.319999999832","{""pre-1"":1}","[0]","survey-likert","180","1882675","0.0-180.0","trr3ylye","","","","","",""
"2894.7249999998603","{""pre-2"":2}","[0]","survey-likert","181","1885571","0.0-181.0","trr3ylye","","","","","",""
"3319.3249999999534","{""pre-3"":2}","[0]","survey-likert","182","1888892","0.0-182.0","trr3ylye","","","","","",""
"2388.1699999999255","{""post-5"":1}","[0]","survey-likert","183","1891281","0.0-183.0","trr3ylye","","","","","",""
"","","","call-function","184","1891281","0.0-184.0","trr3ylye","","","","","",""
"null","","","video-keyboard-response","185","1894349","0.0-185.0","trr3ylye","","","","null","Agent A","STIM_SET_1_REAL/713513.bmp_pp62_L2_V1.0_scrambled_freeview_isoFalse_fps144.mp4"
"","","","call-function","186","1894349","0.0-186.0","trr3ylye","","","","","",""
"5281.14000000013","{""pre-1"":2}","[0]","survey-likert","187","1899632","0.0-187.0","trr3ylye","","","","","",""
"6774.165000000037","{""pre-2"":1}","[0]","survey-likert","188","1906407","0.0-188.0","trr3ylye","","","","","",""
"2031.4550000000745","{""pre-3"":1}","[0]","survey-likert","189","1908439","0.0-189.0","trr3ylye","","","","","",""
"1823.5400000000373","{""post-5"":2}","[0]","survey-likert","190","1910264","0.0-190.0","trr3ylye","","","","","",""
"","","","call-function","191","1910266","0.0-191.0","trr3ylye","","","","","",""
"null","","","video-keyboard-response","192","1913328","0.0-192.0","trr3ylye","","","","null","Agent A","STIM_SET_1_REAL/1159446.bmp_pp60_L3_V1.0_veridical_freeview_isoFalse_fps144.mp4"
"","","","call-function","193","1913329","0.0-193.0","trr3ylye","","","","","",""
"4763.209999999963","{""pre-1"":2}","[0]","survey-likert","194","1918093","0.0-194.0","trr3ylye","","","","","",""
"6024.4900000002235","{""pre-2"":1}","[0]","survey-likert","195","1924119","0.0-195.0","trr3ylye","","","","","",""
"3549.8899999998976","{""pre-3"":2}","[0]","survey-likert","196","1927670","0.0-196.0","trr3ylye","","","","","",""
"3861.719999999972","{""post-5"":2}","[0]","survey-likert","197","1931533","0.0-197.0","trr3ylye","","","","","",""
"","","","call-function","198","1931533","0.0-198.0","trr3ylye","","","","","",""
"null","","","video-keyboard-response","199","1934609","0.0-199.0","trr3ylye","","","","null","Agent A","STIM_SET_1_REAL/498253.bmp_pp67_L2_V1.0_scrambled_freeview_isoFalse_fps144.mp4"
"","","","call-function","200","1934610","0.0-200.0","trr3ylye","","","","","",""
"3379.7249999998603","{""pre-1"":1}","[0]","survey-likert","201","1937991","0.0-201.0","trr3ylye","","","","","",""
"3784.869999999879","{""pre-2"":2}","[0]","survey-likert","202","1941777","0.0-202.0","trr3ylye","","","","","",""
"2453.8900000001304","{""pre-3"":2}","[0]","survey-likert","203","1944232","0.0-203.0","trr3ylye","","","","","",""
"5064.995000000112","{""post-5"":2}","[0]","survey-likert","204","1949298","0.0-204.0","trr3ylye","","","","","",""
"","","","call-function","205","1949299","0.0-205.0","trr3ylye","","","","","",""
"null","","","video-keyboard-response","206","1952363","0.0-206.0","trr3ylye","","","","null","Agent A","STIM_SET_1_REAL/498170.bmp_pp153_L3_V1.0_veridical_freeview_isoFalse_fps144.mp4"
"","","","call-function","207","1952364","0.0-207.0","trr3ylye","","","","","",""
"6718.01500000013","{""pre-1"":2}","[0]","survey-likert","208","1959083","0.0-208.0","trr3ylye","","","","","",""
"2108.6299999998882","{""pre-2"":1}","[0]","survey-likert","209","1961192","0.0-209.0","trr3ylye","","","","","",""
"2056.6399999998976","{""pre-3"":2}","[0]","survey-likert","210","1963251","0.0-210.0","trr3ylye","","","","","",""
"2794.659999999916","{""post-5"":2}","[0]","survey-likert","211","1966047","0.0-211.0","trr3ylye","","","","","",""
"","","","call-function","212","1966047","0.0-212.0","trr3ylye","","","","","",""
"null","","","video-keyboard-response","213","1969126","0.0-213.0","trr3ylye","","","","null","Agent A","STIM_SET_1_REAL/1159777.bmp_pp77_L3_V1.0_veridical_freeview_isoFalse_fps144.mp4"
"","","","call-function","214","1969127","0.0-214.0","trr3ylye","","","","","",""
"6630.394999999786","{""pre-1"":3}","[0]","survey-likert","215","1975759","0.0-215.0","trr3ylye","","","","","",""
"4448.790000000037","{""pre-2"":1}","[0]","survey-likert","216","1980209","0.0-216.0","trr3ylye","","","","","",""
"5350.524999999907","{""pre-3"":0}","[0]","survey-likert","217","1985561","0.0-217.0","trr3ylye","","","","","",""
"4785.125","{""post-5"":2}","[0]","survey-likert","218","1990347","0.0-218.0","trr3ylye","","","","","",""
"","","","call-function","219","1990348","0.0-219.0","trr3ylye","","","","","",""
"null","","","video-keyboard-response","220","1993423","0.0-220.0","trr3ylye","","","","null","Agent A","STIM_SET_1_REAL/1159675.bmp_pp77_L3_V1.0_scrambled_freeview_isoFalse_fps144.mp4"
"","","","call-function","221","1993423","0.0-221.0","trr3ylye","","","","","",""
"9925.76500000013","{""pre-1"":2}","[0]","survey-likert","222","2003350","0.0-222.0","trr3ylye","","","","","",""
"5292.3300000000745","{""pre-2"":1}","[0]","survey-likert","223","2008643","0.0-223.0","trr3ylye","","","","","",""
"2554.9599999999627","{""pre-3"":1}","[0]","survey-likert","224","2011200","0.0-224.0","trr3ylye","","","","","",""
"3686.8249999999534","{""post-5"":2}","[0]","survey-likert","225","2014888","0.0-225.0","trr3ylye","","","","","",""
"","","","call-function","226","2014888","0.0-226.0","trr3ylye","","","","","",""
"null","","","video-keyboard-response","227","2017957","0.0-227.0","trr3ylye","","","","null","Agent A","STIM_SET_1_REAL/1592397.bmp_pp85_L3_V1.0_veridical_freeview_isoFalse_fps144.mp4"
"","","","call-function","228","2017958","0.0-228.0","trr3ylye","","","","","",""
"5535.235000000102","{""pre-1"":2}","[0]","survey-likert","229","2023495","0.0-229.0","trr3ylye","","","","","",""
"2032.4899999999907","{""pre-2"":1}","[0]","survey-likert","230","2025529","0.0-230.0","trr3ylye","","","","","",""
"2311.9150000000373","{""pre-3"":2}","[0]","survey-likert","231","2027842","0.0-231.0","trr3ylye","","","","","",""
"2465.429999999935","{""post-5"":0}","[0]","survey-likert","232","2030309","0.0-232.0","trr3ylye","","","","","",""
"","","","call-function","233","2030310","0.0-233.0","trr3ylye","","","","","",""
"null","","","video-keyboard-response","234","2033374","0.0-234.0","trr3ylye","","","","null","Agent A","STIM_SET_1_REAL/713089.bmp_pp60_L3_V1.0_veridical_freeview_isoFalse_fps144.mp4"
"","","","call-function","235","2033375","0.0-235.0","trr3ylye","","","","","",""
"5970.959999999963","{""pre-1"":2}","[0]","survey-likert","236","2039346","0.0-236.0","trr3ylye","","","","","",""
"6460.389999999898","{""pre-2"":2}","[0]","survey-likert","237","2045808","0.0-237.0","trr3ylye","","","","","",""
"3665.399999999907","{""pre-3"":1}","[0]","survey-likert","238","2049475","0.0-238.0","trr3ylye","","","","","",""
"4091.9950000001118","{""post-5"":1}","[0]","survey-likert","239","2053568","0.0-239.0","trr3ylye","","","","","",""
"","","","call-function","240","2053568","0.0-240.0","trr3ylye","","","","","",""
"null","","","video-keyboard-response","241","2056637","0.0-241.0","trr3ylye","","","","null","Agent A","STIM_SET_1_REAL/713017.bmp_pp152_L2_V1.0_scrambled_freeview_isoFalse_fps144.mp4"
"","","","call-function","242","2056637","0.0-242.0","trr3ylye","","","","","",""
"3643.850000000093","{""pre-1"":1}","[0]","survey-likert","243","2060282","0.0-243.0","trr3ylye","","","","","",""
"4901.854999999981","{""pre-2"":1}","[0]","survey-likert","244","2065185","0.0-244.0","trr3ylye","","","","","",""
"1933.6000000000931","{""pre-3"":2}","[0]","survey-likert","245","2067119","0.0-245.0","trr3ylye","","","","","",""
"2930.4599999999627","{""post-5"":2}","[0]","survey-likert","246","2070052","0.0-246.0","trr3ylye","","","","","",""
"","","","call-function","247","2070053","0.0-247.0","trr3ylye","","","","","",""
"null","","","video-keyboard-response","248","2073129","0.0-248.0","trr3ylye","","","","null","Agent A","STIM_SET_1_REAL/1591876.bmp_pp63_L1_V1.0_scrambled_freeview_isoFalse_fps144.mp4"
"","","","call-function","249","2073130","0.0-249.0","trr3ylye","","","","","",""
"10551.324999999953","{""pre-1"":2}","[0]","survey-likert","250","2083682","0.0-250.0","trr3ylye","","","","","",""
"4064.5049999998882","{""pre-2"":2}","[0]","survey-likert","251","2087748","0.0-251.0","trr3ylye","","","","","",""
"7105.844999999972","{""pre-3"":2}","[0]","survey-likert","252","2094855","0.0-252.0","trr3ylye","","","","","",""
"4518.420000000158","{""post-5"":2}","[0]","survey-likert","253","2099375","0.0-253.0","trr3ylye","","","","","",""
"","","","call-function","254","2099375","0.0-254.0","trr3ylye","","","","","",""
"null","","","video-keyboard-response","255","2103778","0.0-255.0","trr3ylye","","","","null","Agent A","STIM_SET_1_REAL/1593035.bmp_pp94_L2_V1.0_veridical_freeview_isoFalse_fps144.mp4"
"","","","call-function","256","2103779","0.0-256.0","trr3ylye","","","","","",""
"41080.64999999991","{""pre-1"":1}","[0]","survey-likert","257","2144861","0.0-257.0","trr3ylye","","","","","",""
"3220.9449999998324","{""pre-2"":1}","[0]","survey-likert","258","2148083","0.0-258.0","trr3ylye","","","","","",""
"3646.845000000205","{""pre-3"":1}","[0]","survey-likert","259","2151731","0.0-259.0","trr3ylye","","","","","",""
"1756.964999999851","{""post-5"":2}","[0]","survey-likert","260","2153489","0.0-260.0","trr3ylye","","","","","",""
"","","","call-function","261","2153489","0.0-261.0","trr3ylye","","","","","",""
"null","","","video-keyboard-response","262","2156567","0.0-262.0","trr3ylye","","","","null","Agent A","STIM_SET_1_REAL/1592657.bmp_pp98_L1_V1.0_scrambled_freeview_isoFalse_fps144.mp4"
"","","","call-function","263","2156568","0.0-263.0","trr3ylye","","","","","",""
"5192.479999999981","{""pre-1"":2}","[0]","survey-likert","264","2161761","0.0-264.0","trr3ylye","","","","","",""
"3373.535000000149","{""pre-2"":1}","[0]","survey-likert","265","2165136","0.0-265.0","trr3ylye","","","","","",""
"2405.5499999998137","{""pre-3"":1}","[0]","survey-likert","266","2167543","0.0-266.0","trr3ylye","","","","","",""
"5449.930000000168","{""post-5"":2}","[0]","survey-likert","267","2172995","0.0-267.0","trr3ylye","","","","","",""
"","","","call-function","268","2172996","0.0-268.0","trr3ylye","","","","","",""
"null","","","video-keyboard-response","269","2176068","0.0-269.0","trr3ylye","","","","null","Agent A","STIM_SET_1_REAL/1159440.bmp_pp98_L1_V1.0_scrambled_freeview_isoFalse_fps144.mp4"
"","","","call-function","270","2176069","0.0-270.0","trr3ylye","","","","","",""
"4700.334999999963","{""pre-1"":1}","[0]","survey-likert","271","2180770","0.0-271.0","trr3ylye","","","","","",""
"4551.714999999851","{""pre-2"":2}","[0]","survey-likert","272","2185324","0.0-272.0","trr3ylye","","","","","",""
"4781.399999999907","{""pre-3"":1}","[0]","survey-likert","273","2190106","0.0-273.0","trr3ylye","","","","","",""
"123588.37000000011","{""post-5"":0}","[0]","survey-likert","274","2313696","0.0-274.0","trr3ylye","","","","","",""
"","","","call-function","275","2313697","0.0-275.0","trr3ylye","","","","","",""
"null","","","video-keyboard-response","276","2316769","0.0-276.0","trr3ylye","","","","null","Agent A","STIM_SET_1_REAL/713135.bmp_pp54_L2_V1.0_scrambled_freeview_isoFalse_fps144.mp4"
"","","","call-function","277","2316770","0.0-277.0","trr3ylye","","","","","",""
"3821.7450000001118","{""pre-1"":1}","[0]","survey-likert","278","2320593","0.0-278.0","trr3ylye","","","","","",""
"1892.9849999998696","{""pre-2"":2}","[0]","survey-likert","279","2322487","0.0-279.0","trr3ylye","","","","","",""
"2926.970000000205","{""pre-3"":1}","[0]","survey-likert","280","2325415","0.0-280.0","trr3ylye","","","","","",""
"2369.160000000149","{""post-5"":3}","[0]","survey-likert","281","2327785","0.0-281.0","trr3ylye","","","","","",""
"","","","call-function","282","2327786","0.0-282.0","trr3ylye","","","","","",""
"null","","","video-keyboard-response","283","2330856","0.0-283.0","trr3ylye","","","","null","Agent A","STIM_SET_1_REAL/1160168.bmp_pp53_L2_V1.0_scrambled_freeview_isoFalse_fps144.mp4"
"","","","call-function","284","2330858","0.0-284.0","trr3ylye","","","","","",""
"4831.620000000112","{""pre-1"":2}","[0]","survey-likert","285","2335691","0.0-285.0","trr3ylye","","","","","",""
"4124.574999999721","{""pre-2"":1}","[0]","survey-likert","286","2339817","0.0-286.0","trr3ylye","","","","","",""
"6666.175000000279","{""pre-3"":1}","[0]","survey-likert","287","2346484","0.0-287.0","trr3ylye","","","","","",""
"6468.444999999832","{""post-5"":2}","[0]","survey-likert","288","2352953","0.0-288.0","trr3ylye","","","","","",""
"","","","call-function","289","2352954","0.0-289.0","trr3ylye","","","","","",""
"null","","","video-keyboard-response","290","2356022","0.0-290.0","trr3ylye","","","","null","Agent A","STIM_SET_1_REAL/285933.bmp_pp81_L1_V1.0_scrambled_freeview_isoFalse_fps144.mp4"
"","","","call-function","291","2356023","0.0-291.0","trr3ylye","","","","","",""
"3969.1599999996834","{""pre-1"":1}","[0]","survey-likert","292","2359993","0.0-292.0","trr3ylye","","","","","",""
"13424.685000000056","{""pre-2"":2}","[0]","survey-likert","293","2373419","0.0-293.0","trr3ylye","","","","","",""
"3516.1400000001304","{""pre-3"":1}","[0]","survey-likert","294","2376937","0.0-294.0","trr3ylye","","","","","",""
"63490.84999999963","{""post-5"":1}","[0]","survey-likert","295","2440429","0.0-295.0","trr3ylye","","","","","",""
"","","","call-function","296","2440431","0.0-296.0","trr3ylye","","","","","",""
"null","","","video-keyboard-response","297","2443496","0.0-297.0","trr3ylye","","","","null","Agent A","STIM_SET_1_REAL/1592351.bmp_pp51_L1_V1.0_veridical_freeview_isoFalse_fps144.mp4"
"","","","call-function","298","2443496","0.0-298.0","trr3ylye","","","","","",""
"3470.5099999997765","{""pre-1"":2}","[0]","survey-likert","299","2446968","0.0-299.0","trr3ylye","","","","","",""
"1787.5849999999627","{""pre-2"":1}","[0]","survey-likert","300","2448756","0.0-300.0","trr3ylye","","","","","",""
"1335.0249999999069","{""pre-3"":1}","[0]","survey-likert","301","2450093","0.0-301.0","trr3ylye","","","","","",""
"1963.2599999997765","{""post-5"":2}","[0]","survey-likert","302","2452057","0.0-302.0","trr3ylye","","","","","",""
"7677.744999999646","","","instructions","303","2459735","0.0-303.0","trr3ylye","[{""page_index"":0,""viewing_time"":4390.754999999888},{""page_index"":1,""viewing_time"":1401.7700000000186},{""page_index"":2,""viewing_time"":1885}]","","","","",""
"8663.64000000013","","","instructions","304","2468399","0.0-304.0","trr3ylye","[{""page_index"":0,""viewing_time"":530.3549999999814},{""page_index"":1,""viewing_time"":7215.274999999907},{""page_index"":2,""viewing_time"":917.9050000002608}]","","","","",""
"","","","call-function","305","2468400","0.0-305.0","trr3ylye","","","","","",""
"null","","","video-keyboard-response","306","2471474","0.0-306.0","trr3ylye","","","","null","Agent A","STIM_SET_1_REAL/1160127.bmp_pp90_L2_V1.0_veridical_freeview_isoFalse_fps144.mp4"
"","","","call-function","307","2471475","0.0-307.0","trr3ylye","","","","","",""
"6164.789999999572","{""pre-1"":2}","[0]","survey-likert","308","2477641","0.0-308.0","trr3ylye","","","","","",""
"3334.7750000003725","{""pre-2"":1}","[0]","survey-likert","309","2480976","0.0-309.0","trr3ylye","","","","","",""
"2417.845000000205","{""pre-3"":1}","[0]","survey-likert","310","2483395","0.0-310.0","trr3ylye","","","","","",""
"2603.2700000000186","{""post-5"":2}","[0]","survey-likert","311","2486000","0.0-311.0","trr3ylye","","","","","",""
"","","","call-function","312","2486000","0.0-312.0","trr3ylye","","","","","",""
"null","","","video-keyboard-response","313","2489069","0.0-313.0","trr3ylye","","","","null","Agent A","STIM_SET_1_REAL/1159829.bmp_pp91_L3_V1.0_veridical_freeview_isoFalse_fps144.mp4"
"","","","call-function","314","2489069","0.0-314.0","trr3ylye","","","","","",""
"3540.5049999998882","{""pre-1"":2}","[0]","survey-likert","315","2492611","0.0-315.0","trr3ylye","","","","","",""
"6563.35999999987","{""pre-2"":1}","[0]","survey-likert","316","2499176","0.0-316.0","trr3ylye","","","","","",""
"3677.0200000000186","{""pre-3"":1}","[0]","survey-likert","317","2502855","0.0-317.0","trr3ylye","","","","","",""
"4316.845000000205","{""post-5"":2}","[0]","survey-likert","318","2507174","0.0-318.0","trr3ylye","","","","","",""
"","","","call-function","319","2507175","0.0-319.0","trr3ylye","","","","","",""
"null","","","video-keyboard-response","320","2510237","0.0-320.0","trr3ylye","","","","null","Agent A","STIM_SET_1_REAL/1592351.bmp_pp51_L1_V1.0_scrambled_freeview_isoFalse_fps144.mp4"
"","","","call-function","321","2510237","0.0-321.0","trr3ylye","","","","","",""
"7057.3650000002235","{""pre-1"":1}","[0]","survey-likert","322","2517296","0.0-322.0","trr3ylye","","","","","",""
"1628.6499999999069","{""pre-2"":1}","[0]","survey-likert","323","2518926","0.0-323.0","trr3ylye","","","","","",""
"1599.0600000000559","{""pre-3"":2}","[0]","survey-likert","324","2520526","0.0-324.0","trr3ylye","","","","","",""
"1368.1800000001676","{""post-5"":1}","[0]","survey-likert","325","2521895","0.0-325.0","trr3ylye","","","","","",""
"","","","call-function","326","2521896","0.0-326.0","trr3ylye","","","","","",""
"null","","","video-keyboard-response","327","2524958","0.0-327.0","trr3ylye","","","","null","Agent A","STIM_SET_1_REAL/1592133.bmp_pp75_L1_V1.0_veridical_freeview_isoFalse_fps144.mp4"
"","","","call-function","328","2524959","0.0-328.0","trr3ylye","","","","","",""
"1915.9199999999255","{""pre-1"":1}","[0]","survey-likert","329","2526875","0.0-329.0","trr3ylye","","","","","",""
"1313.1200000001118","{""pre-2"":2}","[0]","survey-likert","330","2528190","0.0-330.0","trr3ylye","","","","","",""
"2152.010000000242","{""pre-3"":2}","[0]","survey-likert","331","2530343","0.0-331.0","trr3ylye","","","","","",""
"2830.810000000056","{""post-5"":2}","[0]","survey-likert","332","2533175","0.0-332.0","trr3ylye","","","","","",""
"","","","call-function","333","2533175","0.0-333.0","trr3ylye","","","","","",""
"null","","","video-keyboard-response","334","2536249","0.0-334.0","trr3ylye","","","","null","Agent A","STIM_SET_1_REAL/1159855.bmp_pp99_L2_V1.0_scrambled_freeview_isoFalse_fps144.mp4"
"","","","call-function","335","2536249","0.0-335.0","trr3ylye","","","","","",""
"2845.9500000001863","{""pre-1"":3}","[0]","survey-likert","336","2539096","0.0-336.0","trr3ylye","","","","","",""
"4714.415000000037","{""pre-2"":1}","[0]","survey-likert","337","2543812","0.0-337.0","trr3ylye","","","","","",""
"2174","{""pre-3"":1}","[0]","survey-likert","338","2545987","0.0-338.0","trr3ylye","","","","","",""
"1888.9350000000559","{""post-5"":3}","[0]","survey-likert","339","2547878","0.0-339.0","trr3ylye","","","","","",""
"","","","call-function","340","2547880","0.0-340.0","trr3ylye","","","","","",""
"null","","","video-keyboard-response","341","2550943","0.0-341.0","trr3ylye","","","","null","Agent A","STIM_SET_1_REAL/1159882.bmp_pp61_L2_V1.0_scrambled_freeview_isoFalse_fps144.mp4"
"","","","call-function","342","2550943","0.0-342.0","trr3ylye","","","","","",""
"4055.0849999999627","{""pre-1"":1}","[0]","survey-likert","343","2555000","0.0-343.0","trr3ylye","","","","","",""
"7246.145000000019","{""pre-2"":1}","[0]","survey-likert","344","2562247","0.0-344.0","trr3ylye","","","","","",""
"6122.165000000037","{""pre-3"":1}","[0]","survey-likert","345","2568371","0.0-345.0","trr3ylye","","","","","",""
"23749.68499999959","{""post-5"":2}","[0]","survey-likert","346","2592122","0.0-346.0","trr3ylye","","","","","",""
"","","","call-function","347","2592122","0.0-347.0","trr3ylye","","","","","",""
"null","","","video-keyboard-response","348","2595197","0.0-348.0","trr3ylye","","","","null","Agent A","STIM_SET_1_REAL/1592807.bmp_pp68_L1_V1.0_veridical_freeview_isoFalse_fps144.mp4"
"","","","call-function","349","2595198","0.0-349.0","trr3ylye","","","","","",""
"3326.385000000242","{""pre-1"":1}","[0]","survey-likert","350","2598526","0.0-350.0","trr3ylye","","","","","",""
"2154.7299999999814","{""pre-2"":2}","[0]","survey-likert","351","2600682","0.0-351.0","trr3ylye","","","","","",""
"1699.1149999997579","{""pre-3"":1}","[0]","survey-likert","352","2602382","0.0-352.0","trr3ylye","","","","","",""
"2073.589999999851","{""post-5"":1}","[0]","survey-likert","353","2604457","0.0-353.0","trr3ylye","","","","","",""
"","","","call-function","354","2604457","0.0-354.0","trr3ylye","","","","","",""
"null","","","video-keyboard-response","355","2607528","0.0-355.0","trr3ylye","","","","null","Agent A","STIM_SET_1_REAL/1160168.bmp_pp53_L2_V1.0_veridical_freeview_isoFalse_fps144.mp4"
"","","","call-function","356","2607528","0.0-356.0","trr3ylye","","","","","",""
"2412.189999999944","{""pre-1"":2}","[0]","survey-likert","357","2609942","0.0-357.0","trr3ylye","","","","","",""
"1509.404999999795","{""pre-2"":2}","[0]","survey-likert","358","2611453","0.0-358.0","trr3ylye","","","","","",""
"1979.910000000149","{""pre-3"":1}","[0]","survey-likert","359","2613435","0.0-359.0","trr3ylye","","","","","",""
"1754.0699999998324","{""post-5"":2}","[0]","survey-likert","360","2615190","0.0-360.0","trr3ylye","","","","","",""
"","","","call-function","361","2615191","0.0-361.0","trr3ylye","","","","","",""
"null","","","video-keyboard-response","362","2618262","0.0-362.0","trr3ylye","","","","null","Agent A","STIM_SET_1_REAL/1592581.bmp_pp100_L3_V1.0_veridical_freeview_isoFalse_fps144.mp4"
"","","","call-function","363","2618263","0.0-363.0","trr3ylye","","","","","",""
"3919.9150000000373","{""pre-1"":2}","[0]","survey-likert","364","2622184","0.0-364.0","trr3ylye","","","","","",""
"2796.904999999795","{""pre-2"":2}","[0]","survey-likert","365","2624982","0.0-365.0","trr3ylye","","","","","",""
"1842.5550000001676","{""pre-3"":1}","[0]","survey-likert","366","2626826","0.0-366.0","trr3ylye","","","","","",""
"4650.299999999814","{""post-5"":2}","[0]","survey-likert","367","2631477","0.0-367.0","trr3ylye","","","","","",""
"","","","call-function","368","2631478","0.0-368.0","trr3ylye","","","","","",""
"null","","","video-keyboard-response","369","2634554","0.0-369.0","trr3ylye","","","","null","Agent A","STIM_SET_1_REAL/713760.bmp_pp81_L1_V1.0_scrambled_freeview_isoFalse_fps144.mp4"
"","","","call-function","370","2634554","0.0-370.0","trr3ylye","","","","","",""
"6101.274999999907","{""pre-1"":2}","[0]","survey-likert","371","2640657","0.0-371.0","trr3ylye","","","","","",""
"1756.0600000000559","{""pre-2"":1}","[0]","survey-likert","372","2642414","0.0-372.0","trr3ylye","","","","","",""
"3885.410000000149","{""pre-3"":2}","[0]","survey-likert","373","2646300","0.0-373.0","trr3ylye","","","","","",""
"2990.3900000001304","{""post-5"":2}","[0]","survey-likert","374","2649292","0.0-374.0","trr3ylye","","","","","",""
"","","","call-function","375","2649292","0.0-375.0","trr3ylye","","","","","",""
"null","","","video-keyboard-response","376","2652367","0.0-376.0","trr3ylye","","","","null","Agent A","STIM_SET_1_REAL/713593.bmp_pp64_L1_V1.0_scrambled_freeview_isoFalse_fps144.mp4"
"","","","call-function","377","2652368","0.0-377.0","trr3ylye","","","","","",""
"7011.495000000112","{""pre-1"":3}","[0]","survey-likert","378","2659381","0.0-378.0","trr3ylye","","","","","",""
"2790.2800000002608","{""pre-2"":2}","[0]","survey-likert","379","2662173","0.0-379.0","trr3ylye","","","","","",""
"2923.1800000001676","{""pre-3"":1}","[0]","survey-likert","380","2665098","0.0-380.0","trr3ylye","","","","","",""
"2570.810000000056","{""post-5"":1}","[0]","survey-likert","381","2667670","0.0-381.0","trr3ylye","","","","","",""
"","","","call-function","382","2667671","0.0-382.0","trr3ylye","","","","","",""
"null","","","video-keyboard-response","383","2670742","0.0-383.0","trr3ylye","","","","null","Agent A","STIM_SET_1_REAL/1591961.bmp_pp67_L2_V1.0_scrambled_freeview_isoFalse_fps144.mp4"
"","","","call-function","384","2670743","0.0-384.0","trr3ylye","","","","","",""
"4131.399999999907","{""pre-1"":1}","[0]","survey-likert","385","2674875","0.0-385.0","trr3ylye","","","","","",""
"3925.8799999998882","{""pre-2"":1}","[0]","survey-likert","386","2678802","0.0-386.0","trr3ylye","","","","","",""
"2340.019999999553","{""pre-3"":1}","[0]","survey-likert","387","2681144","0.0-387.0","trr3ylye","","","","","",""
"2604.8950000000186","{""post-5"":2}","[0]","survey-likert","388","2683750","0.0-388.0","trr3ylye","","","","","",""
"","","","call-function","389","2683751","0.0-389.0","trr3ylye","","","","","",""
"null","","","video-keyboard-response","390","2686820","0.0-390.0","trr3ylye","","","","null","Agent A","STIM_SET_1_REAL/1159768.bmp_pp89_L1_V1.0_scrambled_freeview_isoFalse_fps144.mp4"
"","","","call-function","391","2686820","0.0-391.0","trr3ylye","","","","","",""
"3278.755000000354","{""pre-1"":1}","[0]","survey-likert","392","2690100","0.0-392.0","trr3ylye","","","","","",""
"3800.0150000001304","{""pre-2"":2}","[0]","survey-likert","393","2693901","0.0-393.0","trr3ylye","","","","","",""
"1627.4599999999627","{""pre-3"":2}","[0]","survey-likert","394","2695529","0.0-394.0","trr3ylye","","","","","",""
"3416.964999999851","{""post-5"":1}","[0]","survey-likert","395","2698948","0.0-395.0","trr3ylye","","","","","",""
"","","","call-function","396","2698948","0.0-396.0","trr3ylye","","","","","",""
"null","","","video-keyboard-response","397","2702023","0.0-397.0","trr3ylye","","","","null","Agent A","STIM_SET_1_REAL/498175.bmp_pp154_L1_V1.0_veridical_freeview_isoFalse_fps144.mp4"
"","","","call-function","398","2702024","0.0-398.0","trr3ylye","","","","","",""
"7698.625","{""pre-1"":1}","[0]","survey-likert","399","2709724","0.0-399.0","trr3ylye","","","","","",""
"3956.7649999996647","{""pre-2"":2}","[0]","survey-likert","400","2713682","0.0-400.0","trr3ylye","","","","","",""
"1751.0600000000559","{""pre-3"":1}","[0]","survey-likert","401","2715435","0.0-401.0","trr3ylye","","","","","",""
"2934.5400000000373","{""post-5"":2}","[0]","survey-likert","402","2718370","0.0-402.0","trr3ylye","","","","","",""
"","","","call-function","403","2718371","0.0-403.0","trr3ylye","","","","","",""
"null","","","video-keyboard-response","404","2721434","0.0-404.0","trr3ylye","","","","null","Agent A","STIM_SET_1_REAL/713779.bmp_pp152_L2_V1.0_veridical_freeview_isoFalse_fps144.mp4"
"","","","call-function","405","2721434","0.0-405.0","trr3ylye","","","","","",""
"9789.455000000075","{""pre-1"":2}","[0]","survey-likert","406","2731225","0.0-406.0","trr3ylye","","","","","",""
"1560.105000000447","{""pre-2"":1}","[0]","survey-likert","407","2732787","0.0-407.0","trr3ylye","","","","","",""
"3579.8050000001676","{""pre-3"":1}","[0]","survey-likert","408","2736368","0.0-408.0","trr3ylye","","","","","",""
"17073.450000000186","{""post-5"":1}","[0]","survey-likert","409","2753442","0.0-409.0","trr3ylye","","","","","",""
"","","","call-function","410","2753443","0.0-410.0","trr3ylye","","","","","",""
"null","","","video-keyboard-response","411","2756526","0.0-411.0","trr3ylye","","","","null","Agent A","STIM_SET_1_REAL/1593041.bmp_pp58_L1_V1.0_veridical_freeview_isoFalse_fps144.mp4"
"","","","call-function","412","2756527","0.0-412.0","trr3ylye","","","","","",""
"4663.145000000019","{""pre-1"":1}","[0]","survey-likert","413","2761191","0.0-413.0","trr3ylye","","","","","",""
"7755.209999999963","{""pre-2"":3}","[0]","survey-likert","414","2768947","0.0-414.0","trr3ylye","","","","","",""
"2584.2549999998882","{""pre-3"":1}","[0]","survey-likert","415","2771532","0.0-415.0","trr3ylye","","","","","",""
"2888.435000000056","{""post-5"":1}","[0]","survey-likert","416","2774422","0.0-416.0","trr3ylye","","","","","",""
"","","","call-function","417","2774422","0.0-417.0","trr3ylye","","","","","",""
"null","","","video-keyboard-response","418","2777499","0.0-418.0","trr3ylye","","","","null","Agent A","STIM_SET_1_REAL/713666.bmp_pp97_L3_V1.0_scrambled_freeview_isoFalse_fps144.mp4"
"","","","call-function","419","2777500","0.0-419.0","trr3ylye","","","","","",""
"11744.40500000026","{""pre-1"":1}","[0]","survey-likert","420","2789246","0.0-420.0","trr3ylye","","","","","",""
"1597.3849999997765","{""pre-2"":1}","[0]","survey-likert","421","2790845","0.0-421.0","trr3ylye","","","","","",""
"2523.260000000242","{""pre-3"":1}","[0]","survey-likert","422","2793370","0.0-422.0","trr3ylye","","","","","",""
"2854.614999999758","{""post-5"":2}","[0]","survey-likert","423","2796226","0.0-423.0","trr3ylye","","","","","",""
"","","","call-function","424","2796227","0.0-424.0","trr3ylye","","","","","",""
"null","","","video-keyboard-response","425","2799294","0.0-425.0","trr3ylye","","","","null","Agent A","STIM_SET_1_REAL/1592934.bmp_pp63_L1_V1.0_veridical_freeview_isoFalse_fps144.mp4"
"","","","call-function","426","2799295","0.0-426.0","trr3ylye","","","","","",""
"7167.6699999999255","{""pre-1"":2}","[0]","survey-likert","427","2806463","0.0-427.0","trr3ylye","","","","","",""
"3605.5499999998137","{""pre-2"":2}","[0]","survey-likert","428","2810070","0.0-428.0","trr3ylye","","","","","",""
"1595.7150000003166","{""pre-3"":1}","[0]","survey-likert","429","2811667","0.0-429.0","trr3ylye","","","","","",""
"1792.470000000205","{""post-5"":2}","[0]","survey-likert","430","2813461","0.0-430.0","trr3ylye","","","","","",""
"","","","call-function","431","2813461","0.0-431.0","trr3ylye","","","","","",""
"null","","","video-keyboard-response","432","2816536","0.0-432.0","trr3ylye","","","","null","Agent A","STIM_SET_1_REAL/713593.bmp_pp64_L1_V1.0_veridical_freeview_isoFalse_fps144.mp4"
"","","","call-function","433","2816536","0.0-433.0","trr3ylye","","","","","",""
"2389.239999999758","{""pre-1"":3}","[0]","survey-likert","434","2818926","0.0-434.0","trr3ylye","","","","","",""
"2471.649999999907","{""pre-2"":2}","[0]","survey-likert","435","2821399","0.0-435.0","trr3ylye","","","","","",""
"2991.3700000001118","{""pre-3"":2}","[0]","survey-likert","436","2824392","0.0-436.0","trr3ylye","","","","","",""
"2292.2299999999814","{""post-5"":1}","[0]","survey-likert","437","2826686","0.0-437.0","trr3ylye","","","","","",""
"","","","call-function","438","2826687","0.0-438.0","trr3ylye","","","","","",""
"null","","","video-keyboard-response","439","2829757","0.0-439.0","trr3ylye","","","","null","Agent A","STIM_SET_1_REAL/1159829.bmp_pp91_L3_V1.0_scrambled_freeview_isoFalse_fps144.mp4"
"","","","call-function","440","2829757","0.0-440.0","trr3ylye","","","","","",""
"5381.274999999907","{""pre-1"":0}","[0]","survey-likert","441","2835140","0.0-441.0","trr3ylye","","","","","",""
"3477.3849999997765","{""pre-2"":1}","[0]","survey-likert","442","2838618","0.0-442.0","trr3ylye","","","","","",""
"4661.964999999851","{""pre-3"":1}","[0]","survey-likert","443","2843281","0.0-443.0","trr3ylye","","","","","",""
"3201.475000000093","{""post-5"":1}","[0]","survey-likert","444","2846484","0.0-444.0","trr3ylye","","","","","",""
"3488.310000000056","","","instructions","445","2849973","0.0-445.0","trr3ylye","[{""page_index"":0,""viewing_time"":1751.1450000000186},{""page_index"":1,""viewing_time"":968.1200000001118},{""page_index"":2,""viewing_time"":768.7599999997765}]","","","","",""
"2567.5200000000186","","","instructions","446","2852541","0.0-446.0","trr3ylye","[{""page_index"":0,""viewing_time"":732.4350000000559},{""page_index"":1,""viewing_time"":1223.9699999997392},{""page_index"":2,""viewing_time"":611.0100000002421}]","","","","",""
"","","","call-function","447","2852542","0.0-447.0","trr3ylye","","","","","",""
"null","","","video-keyboard-response","448","2855608","0.0-448.0","trr3ylye","","","","null","Agent A","STIM_SET_1_REAL/1592362.bmp_pp95_L2_V1.0_scrambled_freeview_isoFalse_fps144.mp4"
"","","","call-function","449","2855608","0.0-449.0","trr3ylye","","","","","",""
"1847.160000000149","{""pre-1"":2}","[0]","survey-likert","450","2857456","0.0-450.0","trr3ylye","","","","","",""
"3680.7949999999255","{""pre-2"":1}","[0]","survey-likert","451","2861138","0.0-451.0","trr3ylye","","","","","",""
"3158.089999999851","{""pre-3"":2}","[0]","survey-likert","452","2864297","0.0-452.0","trr3ylye","","","","","",""
"5295.029999999795","{""post-5"":2}","[0]","survey-likert","453","2869593","0.0-453.0","trr3ylye","","","","","",""
"","","","call-function","454","2869594","0.0-454.0","trr3ylye","","","","","",""
"null","","","video-keyboard-response","455","2872669","0.0-455.0","trr3ylye","","","","null","Agent A","STIM_SET_1_REAL/1591954.bmp_pp62_L2_V1.0_scrambled_freeview_isoFalse_fps144.mp4"
"","","","call-function","456","2872670","0.0-456.0","trr3ylye","","","","","",""
"4815.7050000000745","{""pre-1"":2}","[0]","survey-likert","457","2877487","0.0-457.0","trr3ylye","","","","","",""
"1544.3149999999441","{""pre-2"":1}","[0]","survey-likert","458","2879034","0.0-458.0","trr3ylye","","","","","",""
"1503.9849999998696","{""pre-3"":2}","[0]","survey-likert","459","2880539","0.0-459.0","trr3ylye","","","","","",""
"1520.8249999997206","{""post-5"":1}","[0]","survey-likert","460","2882061","0.0-460.0","trr3ylye","","","","","",""
"","","","call-function","461","2882062","0.0-461.0","trr3ylye","","","","","",""
"null","","","video-keyboard-response","462","2885125","0.0-462.0","trr3ylye","","","","null","Agent A","STIM_SET_1_REAL/1159621.bmp_pp92_L3_V1.0_scrambled_freeview_isoFalse_fps144.mp4"
"","","","call-function","463","2885126","0.0-463.0","trr3ylye","","","","","",""
"3646.4449999998324","{""pre-1"":1}","[0]","survey-likert","464","2888773","0.0-464.0","trr3ylye","","","","","",""
"2132.7650000001304","{""pre-2"":1}","[0]","survey-likert","465","2890907","0.0-465.0","trr3ylye","","","","","",""
"3134.885000000242","{""pre-3"":1}","[0]","survey-likert","466","2894043","0.0-466.0","trr3ylye","","","","","",""
"3717.089999999851","{""post-5"":2}","[0]","survey-likert","467","2897761","0.0-467.0","trr3ylye","","","","","",""
"","","","call-function","468","2897762","0.0-468.0","trr3ylye","","","","","",""
"null","","","video-keyboard-response","469","2900821","0.0-469.0","trr3ylye","","","","null","Agent A","STIM_SET_1_REAL/713681.bmp_pp86_L2_V1.0_scrambled_freeview_isoFalse_fps144.mp4"
"","","","call-function","470","2900822","0.0-470.0","trr3ylye","","","","","",""
"2757.1949999998324","{""pre-1"":1}","[0]","survey-likert","471","2903580","0.0-471.0","trr3ylye","","","","","",""
"2132.964999999851","{""pre-2"":2}","[0]","survey-likert","472","2905714","0.0-472.0","trr3ylye","","","","","",""
"1812.9249999998137","{""pre-3"":1}","[0]","survey-likert","473","2907528","0.0-473.0","trr3ylye","","","","","",""
"2465.0099999997765","{""post-5"":1}","[0]","survey-likert","474","2909995","0.0-474.0","trr3ylye","","","","","",""
"","","","call-function","475","2909995","0.0-475.0","trr3ylye","","","","","",""
"null","","","video-keyboard-response","476","2913070","0.0-476.0","trr3ylye","","","","null","Agent A","STIM_SET_1_REAL/498111.bmp_pp88_L2_V1.0_veridical_freeview_isoFalse_fps144.mp4"
"","","","call-function","477","2913070","0.0-477.0","trr3ylye","","","","","",""
"2751.8549999999814","{""pre-1"":2}","[0]","survey-likert","478","2915823","0.0-478.0","trr3ylye","","","","","",""
"2172.010000000242","{""pre-2"":2}","[0]","survey-likert","479","2917996","0.0-479.0","trr3ylye","","","","","",""
"3309.8300000000745","{""pre-3"":1}","[0]","survey-likert","480","2921307","0.0-480.0","trr3ylye","","","","","",""
"2706.8700000001118","{""post-5"":1}","[0]","survey-likert","481","2924015","0.0-481.0","trr3ylye","","","","","",""
"","","","call-function","482","2924015","0.0-482.0","trr3ylye","","","","","",""
"null","","","video-keyboard-response","483","2927098","0.0-483.0","trr3ylye","","","","null","Agent A","STIM_SET_1_REAL/1593041.bmp_pp58_L1_V1.0_scrambled_freeview_isoFalse_fps144.mp4"
"","","","call-function","484","2927099","0.0-484.0","trr3ylye","","","","","",""
"4304.069999999832","{""pre-1"":2}","[0]","survey-likert","485","2931405","0.0-485.0","trr3ylye","","","","","",""
"3614.5099999997765","{""pre-2"":1}","[0]","survey-likert","486","2935021","0.0-486.0","trr3ylye","","","","","",""
"5980.610000000335","{""pre-3"":1}","[0]","survey-likert","487","2941002","0.0-487.0","trr3ylye","","","","","",""
"3648.029999999795","{""post-5"":1}","[0]","survey-likert","488","2944652","0.0-488.0","trr3ylye","","","","","",""
"","","","call-function","489","2944652","0.0-489.0","trr3ylye","","","","","",""
"null","","","video-keyboard-response","490","2947727","0.0-490.0","trr3ylye","","","","null","Agent A","STIM_SET_1_REAL/498111.bmp_pp88_L2_V1.0_scrambled_freeview_isoFalse_fps144.mp4"
"","","","call-function","491","2947728","0.0-491.0","trr3ylye","","","","","",""
"5803.495000000112","{""pre-1"":1}","[0]","survey-likert","492","2953532","0.0-492.0","trr3ylye","","","","","",""
"2471.364999999758","{""pre-2"":1}","[0]","survey-likert","493","2956005","0.0-493.0","trr3ylye","","","","","",""
"2462.8700000001118","{""pre-3"":1}","[0]","survey-likert","494","2958469","0.0-494.0","trr3ylye","","","","","",""
"1909.8650000002235","{""post-5"":1}","[0]","survey-likert","495","2960380","0.0-495.0","trr3ylye","","","","","",""
"","","","call-function","496","2960381","0.0-496.0","trr3ylye","","","","","",""
"null","","","video-keyboard-response","497","2963456","0.0-497.0","trr3ylye","","","","null","Agent A","STIM_SET_1_REAL/713211.bmp_pp100_L3_V1.0_scrambled_freeview_isoFalse_fps144.mp4"
"","","","call-function","498","2963456","0.0-498.0","trr3ylye","","","","","",""
"3277.2700000000186","{""pre-1"":1}","[0]","survey-likert","499","2966735","0.0-499.0","trr3ylye","","","","","",""
"8552.64000000013","{""pre-2"":2}","[0]","survey-likert","500","2975288","0.0-500.0","trr3ylye","","","","","",""
"2805.3950000000186","{""pre-3"":1}","[0]","survey-likert","501","2978095","0.0-501.0","trr3ylye","","","","","",""
"2255.31500000041","{""post-5"":1}","[0]","survey-likert","502","2980351","0.0-502.0","trr3ylye","","","","","",""
"","","","call-function","503","2980352","0.0-503.0","trr3ylye","","","","","",""
"null","","","video-keyboard-response","504","2983413","0.0-504.0","trr3ylye","","","","null","Agent A","STIM_SET_1_REAL/285994.bmp_pp92_L3_V1.0_veridical_freeview_isoFalse_fps144.mp4"
"","","","call-function","505","2983415","0.0-505.0","trr3ylye","","","","","",""
"2074.114999999758","{""pre-1"":1}","[0]","survey-likert","506","2985491","0.0-506.0","trr3ylye","","","","","",""
"2896.9550000000745","{""pre-2"":1}","[0]","survey-likert","507","2988390","0.0-507.0","trr3ylye","","","","","",""
"1396.929999999702","{""pre-3"":1}","[0]","survey-likert","508","2989788","0.0-508.0","trr3ylye","","","","","",""
"2575.619999999646","{""post-5"":2}","[0]","survey-likert","509","2992366","0.0-509.0","trr3ylye","","","","","",""
"","","","call-function","510","2992366","0.0-510.0","trr3ylye","","","","","",""
"null","","","video-keyboard-response","511","2995440","0.0-511.0","trr3ylye","","","","null","Agent A","STIM_SET_1_REAL/713620.bmp_pp65_L3_V1.0_veridical_freeview_isoFalse_fps144.mp4"
"","","","call-function","512","2995441","0.0-512.0","trr3ylye","","","","","",""
"4641.75","{""pre-1"":3}","[0]","survey-likert","513","3000084","0.0-513.0","trr3ylye","","","","","",""
"4241.050000000279","{""pre-2"":2}","[0]","survey-likert","514","3004326","0.0-514.0","trr3ylye","","","","","",""
"3934.6949999998324","{""pre-3"":2}","[0]","survey-likert","515","3008262","0.0-515.0","trr3ylye","","","","","",""
"6882.055000000168","{""post-5"":1}","[0]","survey-likert","516","3015146","0.0-516.0","trr3ylye","","","","","",""
"","","","call-function","517","3015146","0.0-517.0","trr3ylye","","","","","",""
"null","","","video-keyboard-response","518","3018220","0.0-518.0","trr3ylye","","","","null","Agent A","STIM_SET_1_REAL/1593146.bmp_pp93_L1_V1.0_veridical_freeview_isoFalse_fps144.mp4"
"","","","call-function","519","3018221","0.0-519.0","trr3ylye","","","","","",""
"3526.149999999907","{""pre-1"":1}","[0]","survey-likert","520","3021748","0.0-520.0","trr3ylye","","","","","",""
"4218.404999999795","{""pre-2"":1}","[0]","survey-likert","521","3025967","0.0-521.0","trr3ylye","","","","","",""
"13832.464999999851","{""pre-3"":0}","[0]","survey-likert","522","3039801","0.0-522.0","trr3ylye","","","","","",""
"3688.5099999997765","{""post-5"":2}","[0]","survey-likert","523","3043490","0.0-523.0","trr3ylye","","","","","",""
"","","","call-function","524","3043491","0.0-524.0","trr3ylye","","","","","",""
"null","","","video-keyboard-response","525","3046551","0.0-525.0","trr3ylye","","","","null","Agent A","STIM_SET_1_REAL/1159572.bmp_pp71_L1_V1.0_scrambled_freeview_isoFalse_fps144.mp4"
"","","","call-function","526","3046551","0.0-526.0","trr3ylye","","","","","",""
"2356.0849999999627","{""pre-1"":1}","[0]","survey-likert","527","3048909","0.0-527.0","trr3ylye","","","","","",""
"4093.375","{""pre-2"":2}","[0]","survey-likert","528","3053004","0.0-528.0","trr3ylye","","","","","",""
"2990.9799999999814","{""pre-3"":1}","[0]","survey-likert","529","3055997","0.0-529.0","trr3ylye","","","","","",""
"4563.64000000013","{""post-5"":1}","[0]","survey-likert","530","3060562","0.0-530.0","trr3ylye","","","","","",""
"","","","call-function","531","3060563","0.0-531.0","trr3ylye","","","","","",""
"null","","","video-keyboard-response","532","3063640","0.0-532.0","trr3ylye","","","","null","Agent A","STIM_SET_1_REAL/285751.bmp_pp55_L3_V1.0_veridical_freeview_isoFalse_fps144.mp4"
"","","","call-function","533","3063641","0.0-533.0","trr3ylye","","","","","",""
"6077.449999999721","{""pre-1"":2}","[0]","survey-likert","534","3069719","0.0-534.0","trr3ylye","","","","","",""
"2519.7949999999255","{""pre-2"":1}","[0]","survey-likert","535","3072240","0.0-535.0","trr3ylye","","","","","",""
"3155.100000000093","{""pre-3"":2}","[0]","survey-likert","536","3075396","0.0-536.0","trr3ylye","","","","","",""
"8517.994999999646","{""post-5"":3}","[0]","survey-likert","537","3083916","0.0-537.0","trr3ylye","","","","","",""
"","","","call-function","538","3083916","0.0-538.0","trr3ylye","","","","","",""
"null","","","video-keyboard-response","539","3086978","0.0-539.0","trr3ylye","","","","null","Agent A","STIM_SET_1_REAL/286001.bmp_pp54_L2_V1.0_scrambled_freeview_isoFalse_fps144.mp4"
"","","","call-function","540","3086978","0.0-540.0","trr3ylye","","","","","",""
"2020.0800000000745","{""pre-1"":1}","[0]","survey-likert","541","3088999","0.0-541.0","trr3ylye","","","","","",""
"2405","{""pre-2"":1}","[0]","survey-likert","542","3091406","0.0-542.0","trr3ylye","","","","","",""
"3451.119999999646","{""pre-3"":1}","[0]","survey-likert","543","3094858","0.0-543.0","trr3ylye","","","","","",""
"2051.785000000149","{""post-5"":2}","[0]","survey-likert","544","3096911","0.0-544.0","trr3ylye","","","","","",""
"","","","call-function","545","3096912","0.0-545.0","trr3ylye","","","","","",""
"null","","","video-keyboard-response","546","3099990","0.0-546.0","trr3ylye","","","","null","Agent A","STIM_SET_1_REAL/498253.bmp_pp67_L2_V1.0_veridical_freeview_isoFalse_fps144.mp4"
"","","","call-function","547","3099991","0.0-547.0","trr3ylye","","","","","",""
"2439.510000000242","{""pre-1"":3}","[0]","survey-likert","548","3102432","0.0-548.0","trr3ylye","","","","","",""
"2079.5849999999627","{""pre-2"":2}","[0]","survey-likert","549","3104513","0.0-549.0","trr3ylye","","","","","",""
"1601.4699999997392","{""pre-3"":1}","[0]","survey-likert","550","3106116","0.0-550.0","trr3ylye","","","","","",""
"1390.8100000000559","{""post-5"":1}","[0]","survey-likert","551","3107508","0.0-551.0","trr3ylye","","","","","",""
"","","","call-function","552","3107508","0.0-552.0","trr3ylye","","","","","",""
"null","","","video-keyboard-response","553","3110586","0.0-553.0","trr3ylye","","","","null","Agent A","STIM_SET_1_REAL/712977.bmp_pp51_L1_V1.0_scrambled_freeview_isoFalse_fps144.mp4"
"","","","call-function","554","3110586","0.0-554.0","trr3ylye","","","","","",""
"1787.1900000004098","{""pre-1"":1}","[0]","survey-likert","555","3112374","0.0-555.0","trr3ylye","","","","","",""
"3092.1949999998324","{""pre-2"":1}","[0]","survey-likert","556","3115468","0.0-556.0","trr3ylye","","","","","",""
"3423.939999999944","{""pre-3"":1}","[0]","survey-likert","557","3118893","0.0-557.0","trr3ylye","","","","","",""
"2647.7349999998696","{""post-5"":1}","[0]","survey-likert","558","3121542","0.0-558.0","trr3ylye","","","","","",""
"","","","call-function","559","3121543","0.0-559.0","trr3ylye","","","","","",""
"null","","","video-keyboard-response","560","3124603","0.0-560.0","trr3ylye","","","","null","Agent A","STIM_SET_1_REAL/1592133.bmp_pp75_L1_V1.0_scrambled_freeview_isoFalse_fps144.mp4"
"","","","call-function","561","3124604","0.0-561.0","trr3ylye","","","","","",""
"2225.0049999998882","{""pre-1"":1}","[0]","survey-likert","562","3126830","0.0-562.0","trr3ylye","","","","","",""
"2157.720000000205","{""pre-2"":1}","[0]","survey-likert","563","3128988","0.0-563.0","trr3ylye","","","","","",""
"4180.450000000186","{""pre-3"":0}","[0]","survey-likert","564","3133170","0.0-564.0","trr3ylye","","","","","",""
"2413.060000000056","{""post-5"":1}","[0]","survey-likert","565","3135584","0.0-565.0","trr3ylye","","","","","",""
"","","","call-function","566","3135585","0.0-566.0","trr3ylye","","","","","",""
"null","","","video-keyboard-response","567","3138658","0.0-567.0","trr3ylye","","","","null","Agent A","STIM_SET_1_REAL/498175.bmp_pp154_L1_V1.0_scrambled_freeview_isoFalse_fps144.mp4"
"","","","call-function","568","3138658","0.0-568.0","trr3ylye","","","","","",""
"2691.2299999999814","{""pre-1"":1}","[0]","survey-likert","569","3141350","0.0-569.0","trr3ylye","","","","","",""
"4315.834999999963","{""pre-2"":0}","[0]","survey-likert","570","3145667","0.0-570.0","trr3ylye","","","","","",""
"1762.0400000000373","{""pre-3"":0}","[0]","survey-likert","571","3147430","0.0-571.0","trr3ylye","","","","","",""
"1895.160000000149","{""post-5"":2}","[0]","survey-likert","572","3149327","0.0-572.0","trr3ylye","","","","","",""
"","","","call-function","573","3149327","0.0-573.0","trr3ylye","","","","","",""
"null","","","video-keyboard-response","574","3152420","0.0-574.0","trr3ylye","","","","null","Agent A","STIM_SET_1_REAL/498170.bmp_pp153_L3_V1.0_scrambled_freeview_isoFalse_fps144.mp4"
"","","","call-function","575","3152421","0.0-575.0","trr3ylye","","","","","",""
"3276.6949999998324","{""pre-1"":2}","[0]","survey-likert","576","3155699","0.0-576.0","trr3ylye","","","","","",""
"1405.1450000000186","{""pre-2"":1}","[0]","survey-likert","577","3157106","0.0-577.0","trr3ylye","","","","","",""
"1033.7899999995716","{""pre-3"":1}","[0]","survey-likert","578","3158141","0.0-578.0","trr3ylye","","","","","",""
"1239.0749999997206","{""post-5"":2}","[0]","survey-likert","579","3159381","0.0-579.0","trr3ylye","","","","","",""
"","","","call-function","580","3159382","0.0-580.0","trr3ylye","","","","","",""
"null","","","video-keyboard-response","581","3162457","0.0-581.0","trr3ylye","","","","null","Agent A","STIM_SET_1_REAL/1591876.bmp_pp63_L1_V1.0_veridical_freeview_isoFalse_fps144.mp4"
"","","","call-function","582","3162458","0.0-582.0","trr3ylye","","","","","",""
"1635.3999999999069","{""pre-1"":1}","[0]","survey-likert","583","3164094","0.0-583.0","trr3ylye","","","","","",""
"2157.755000000354","{""pre-2"":2}","[0]","survey-likert","584","3166253","0.0-584.0","trr3ylye","","","","","",""
"1198.7849999996834","{""pre-3"":1}","[0]","survey-likert","585","3167454","0.0-585.0","trr3ylye","","","","","",""
"1696.2999999998137","{""post-5"":1}","[0]","survey-likert","586","3169151","0.0-586.0","trr3ylye","","","","","",""
"7064.210000000428","","","instructions","587","3176216","0.0-587.0","trr3ylye","[{""page_index"":0,""viewing_time"":5534.820000000298},{""page_index"":1,""viewing_time"":938.4249999998137},{""page_index"":2,""viewing_time"":590.7700000000186}]","","","","",""
"2160.185000000056","","","instructions","588","3178376","0.0-588.0","trr3ylye","[{""page_index"":0,""viewing_time"":567.089999999851},{""page_index"":1,""viewing_time"":907.9950000001118},{""page_index"":2,""viewing_time"":685}]","","","","",""
"","","","call-function","589","3178377","0.0-589.0","trr3ylye","","","","","",""
"null","","","video-keyboard-response","590","3181438","0.0-590.0","trr3ylye","","","","null","Agent A","STIM_SET_1_REAL/1159446.bmp_pp60_L3_V1.0_scrambled_freeview_isoFalse_fps144.mp4"
"","","","call-function","591","3181438","0.0-591.0","trr3ylye","","","","","",""
"3656.5900000003166","{""pre-1"":2}","[0]","survey-likert","592","3185096","0.0-592.0","trr3ylye","","","","","",""
"1689.4799999999814","{""pre-2"":1}","[0]","survey-likert","593","3186786","0.0-593.0","trr3ylye","","","","","",""
"2902.1450000000186","{""pre-3"":2}","[0]","survey-likert","594","3189690","0.0-594.0","trr3ylye","","","","","",""
"2078.554999999702","{""post-5"":1}","[0]","survey-likert","595","3191770","0.0-595.0","trr3ylye","","","","","",""
"","","","call-function","596","3191770","0.0-596.0","trr3ylye","","","","","",""
"null","","","video-keyboard-response","597","3194846","0.0-597.0","trr3ylye","","","","null","Agent A","STIM_SET_1_REAL/713371.bmp_pp68_L1_V1.0_scrambled_freeview_isoFalse_fps144.mp4"
"","","","call-function","598","3194847","0.0-598.0","trr3ylye","","","","","",""
"3663.7349999998696","{""pre-1"":1}","[0]","survey-likert","599","3198511","0.0-599.0","trr3ylye","","","","","",""
"1949.369999999646","{""pre-2"":1}","[0]","survey-likert","600","3200462","0.0-600.0","trr3ylye","","","","","",""
"1319.4300000001676","{""pre-3"":2}","[0]","survey-likert","601","3201782","0.0-601.0","trr3ylye","","","","","",""
"1344.9449999998324","{""post-5"":1}","[0]","survey-likert","602","3203128","0.0-602.0","trr3ylye","","","","","",""
"","","","call-function","603","3203129","0.0-603.0","trr3ylye","","","","","",""
"null","","","video-keyboard-response","604","3206203","0.0-604.0","trr3ylye","","","","null","Agent A","STIM_SET_1_REAL/1591994.bmp_pp69_L3_V1.0_scrambled_freeview_isoFalse_fps144.mp4"
"","","","call-function","605","3206204","0.0-605.0","trr3ylye","","","","","",""
"2639.7949999999255","{""pre-1"":2}","[0]","survey-likert","606","3208845","0.0-606.0","trr3ylye","","","","","",""
"2449.725000000093","{""pre-2"":1}","[0]","survey-likert","607","3211297","0.0-607.0","trr3ylye","","","","","",""
"2033.2700000000186","{""pre-3"":1}","[0]","survey-likert","608","3213332","0.0-608.0","trr3ylye","","","","","",""
"1782.880000000354","{""post-5"":2}","[0]","survey-likert","609","3215117","0.0-609.0","trr3ylye","","","","","",""
"","","","call-function","610","3215119","0.0-610.0","trr3ylye","","","","","",""
"null","","","video-keyboard-response","611","3218197","0.0-611.0","trr3ylye","","","","null","Agent A","STIM_SET_1_REAL/1159784.bmp_pp73_L3_V1.0_veridical_freeview_isoFalse_fps144.mp4"
"","","","call-function","612","3218198","0.0-612.0","trr3ylye","","","","","",""
"2044.8300000000745","{""pre-1"":1}","[0]","survey-likert","613","3220243","0.0-613.0","trr3ylye","","","","","",""
"1980.3900000001304","{""pre-2"":2}","[0]","survey-likert","614","3222225","0.0-614.0","trr3ylye","","","","","",""
"1334.7750000003725","{""pre-3"":1}","[0]","survey-likert","615","3223561","0.0-615.0","trr3ylye","","","","","",""
"3309.19000000041","{""post-5"":1}","[0]","survey-likert","616","3226872","0.0-616.0","trr3ylye","","","","","",""
"","","","call-function","617","3226872","0.0-617.0","trr3ylye","","","","","",""
"null","","","video-keyboard-response","618","3229942","0.0-618.0","trr3ylye","","","","null","Agent A","STIM_SET_1_REAL/713513.bmp_pp62_L2_V1.0_veridical_freeview_isoFalse_fps144.mp4"
"","","","call-function","619","3229943","0.0-619.0","trr3ylye","","","","","",""
"4270.925000000279","{""pre-1"":1}","[0]","survey-likert","620","3234215","0.0-620.0","trr3ylye","","","","","",""
"2840.5800000000745","{""pre-2"":0}","[0]","survey-likert","621","3237056","0.0-621.0","trr3ylye","","","","","",""
"3121.2700000000186","{""pre-3"":0}","[0]","survey-likert","622","3240179","0.0-622.0","trr3ylye","","","","","",""
"2895.970000000205","{""post-5"":1}","[0]","survey-likert","623","3243076","0.0-623.0","trr3ylye","","","","","",""
"","","","call-function","624","3243076","0.0-624.0","trr3ylye","","","","","",""
"null","","","video-keyboard-response","625","3246146","0.0-625.0","trr3ylye","","","","null","Agent A","STIM_SET_1_REAL/285905.bmp_pp57_L1_V1.0_veridical_freeview_isoFalse_fps144.mp4"
"","","","call-function","626","3246146","0.0-626.0","trr3ylye","","","","","",""
"3394.560000000056","{""pre-1"":1}","[0]","survey-likert","627","3249542","0.0-627.0","trr3ylye","","","","","",""
"4415.410000000149","{""pre-2"":2}","[0]","survey-likert","628","3253958","0.0-628.0","trr3ylye","","","","","",""
"3507.810000000056","{""pre-3"":1}","[0]","survey-likert","629","3257468","0.0-629.0","trr3ylye","","","","","",""
"3160.4449999998324","{""post-5"":2}","[0]","survey-likert","630","3260630","0.0-630.0","trr3ylye","","","","","",""
"","","","call-function","631","3260631","0.0-631.0","trr3ylye","","","","","",""
"null","","","video-keyboard-response","632","3263702","0.0-632.0","trr3ylye","","","","null","Agent A","STIM_SET_1_REAL/1592581.bmp_pp100_L3_V1.0_scrambled_freeview_isoFalse_fps144.mp4"
"","","","call-function","633","3263702","0.0-633.0","trr3ylye","","","","","",""
"1953.3500000000931","{""pre-1"":1}","[0]","survey-likert","634","3265657","0.0-634.0","trr3ylye","","","","","",""
"1630.0800000000745","{""pre-2"":1}","[0]","survey-likert","635","3267288","0.0-635.0","trr3ylye","","","","","",""
"2733.404999999795","{""pre-3"":1}","[0]","survey-likert","636","3270023","0.0-636.0","trr3ylye","","","","","",""
"1528.4350000000559","{""post-5"":2}","[0]","survey-likert","637","3271553","0.0-637.0","trr3ylye","","","","","",""
"","","","call-function","638","3271553","0.0-638.0","trr3ylye","","","","","",""
"null","","","video-keyboard-response","639","3274627","0.0-639.0","trr3ylye","","","","null","Agent A","STIM_SET_1_REAL/1592657.bmp_pp98_L1_V1.0_veridical_freeview_isoFalse_fps144.mp4"
"","","","call-function","640","3274628","0.0-640.0","trr3ylye","","","","","",""
"1629.7600000002421","{""pre-1"":1}","[0]","survey-likert","641","3276259","0.0-641.0","trr3ylye","","","","","",""
"2668.7450000001118","{""pre-2"":1}","[0]","survey-likert","642","3278929","0.0-642.0","trr3ylye","","","","","",""
"1264.035000000149","{""pre-3"":2}","[0]","survey-likert","643","3280194","0.0-643.0","trr3ylye","","","","","",""
"2583.75","{""post-5"":2}","[0]","survey-likert","644","3282779","0.0-644.0","trr3ylye","","","","","",""
"","","","call-function","645","3282780","0.0-645.0","trr3ylye","","","","","",""
"null","","","video-keyboard-response","646","3285849","0.0-646.0","trr3ylye","","","","null","Agent A","STIM_SET_1_REAL/1159440.bmp_pp98_L1_V1.0_veridical_freeview_isoFalse_fps144.mp4"
"","","","call-function","647","3285850","0.0-647.0","trr3ylye","","","","","",""
"9459.410000000149","{""pre-1"":1}","[0]","survey-likert","648","3295310","0.0-648.0","trr3ylye","","","","","",""
"2400.25","{""pre-2"":2}","[0]","survey-likert","649","3297712","0.0-649.0","trr3ylye","","","","","",""
"2298.5800000000745","{""pre-3"":1}","[0]","survey-likert","650","3300012","0.0-650.0","trr3ylye","","","","","",""
"2752.3349999999627","{""post-5"":1}","[0]","survey-likert","651","3302765","0.0-651.0","trr3ylye","","","","","",""
"","","","call-function","652","3302766","0.0-652.0","trr3ylye","","","","","",""
"null","","","video-keyboard-response","653","3305827","0.0-653.0","trr3ylye","","","","null","Agent A","STIM_SET_1_REAL/1592890.bmp_pp82_L2_V1.0_scrambled_freeview_isoFalse_fps144.mp4"
"","","","call-function","654","3305828","0.0-654.0","trr3ylye","","","","","",""
"7642.1150000002235","{""pre-1"":1}","[0]","survey-likert","655","3313472","0.0-655.0","trr3ylye","","","","","",""
"6685.5800000000745","{""pre-2"":1}","[0]","survey-likert","656","3320159","0.0-656.0","trr3ylye","","","","","",""
"1398.2250000000931","{""pre-3"":1}","[0]","survey-likert","657","3321559","0.0-657.0","trr3ylye","","","","","",""
"3376.314999999944","{""post-5"":3}","[0]","survey-likert","658","3324937","0.0-658.0","trr3ylye","","","","","",""
"","","","call-function","659","3324938","0.0-659.0","trr3ylye","","","","","",""
"null","","","video-keyboard-response","660","3328000","0.0-660.0","trr3ylye","","","","null","Agent A","STIM_SET_1_REAL/1159447.bmp_pp70_L2_V1.0_scrambled_freeview_isoFalse_fps144.mp4"
"","","","call-function","661","3328000","0.0-661.0","trr3ylye","","","","","",""
"3574.850000000093","{""pre-1"":3}","[0]","survey-likert","662","3331576","0.0-662.0","trr3ylye","","","","","",""
"3570.5200000000186","{""pre-2"":2}","[0]","survey-likert","663","3335148","0.0-663.0","trr3ylye","","","","","",""
"2816.160000000149","{""pre-3"":2}","[0]","survey-likert","664","3337965","0.0-664.0","trr3ylye","","","","","",""
"4022.435000000056","{""post-5"":2}","[0]","survey-likert","665","3341989","0.0-665.0","trr3ylye","","","","","",""
"","","","call-function","666","3341990","0.0-666.0","trr3ylye","","","","","",""
"null","","","video-keyboard-response","667","3345051","0.0-667.0","trr3ylye","","","","null","Agent A","STIM_SET_1_REAL/1592817.bmp_pp55_L3_V1.0_scrambled_freeview_isoFalse_fps144.mp4"
"","","","call-function","668","3345052","0.0-668.0","trr3ylye","","","","","",""
"4503.9000000003725","{""pre-1"":2}","[0]","survey-likert","669","3349557","0.0-669.0","trr3ylye","","","","","",""
"2044.1550000002608","{""pre-2"":1}","[0]","survey-likert","670","3351602","0.0-670.0","trr3ylye","","","","","",""
"2768.149999999907","{""pre-3"":2}","[0]","survey-likert","671","3354372","0.0-671.0","trr3ylye","","","","","",""
"2430.2349999998696","{""post-5"":2}","[0]","survey-likert","672","3356805","0.0-672.0","trr3ylye","","","","","",""
"","","","call-function","673","3356806","0.0-673.0","trr3ylye","","","","","",""
"null","","","video-keyboard-response","674","3359898","0.0-674.0","trr3ylye","","","","null","Agent A","STIM_SET_1_REAL/1159813.bmp_pp79_L2_V1.0_scrambled_freeview_isoFalse_fps144.mp4"
"","","","call-function","675","3359899","0.0-675.0","trr3ylye","","","","","",""
"5786.25","{""pre-1"":2}","[0]","survey-likert","676","3365686","0.0-676.0","trr3ylye","","","","","",""
"11133.524999999907","{""pre-2"":1}","[0]","survey-likert","677","3376821","0.0-677.0","trr3ylye","","","","","",""
"1539.3449999997392","{""pre-3"":1}","[0]","survey-likert","678","3378362","0.0-678.0","trr3ylye","","","","","",""
"1861.0099999997765","{""post-5"":2}","[0]","survey-likert","679","3380224","0.0-679.0","trr3ylye","","","","","",""
"","","","call-function","680","3380225","0.0-680.0","trr3ylye","","","","","",""
"null","","","video-keyboard-response","681","3383294","0.0-681.0","trr3ylye","","","","null","Agent A","STIM_SET_1_REAL/1592727.bmp_pp59_L3_V1.0_veridical_freeview_isoFalse_fps144.mp4"
"","","","call-function","682","3383295","0.0-682.0","trr3ylye","","","","","",""
"4103.790000000037","{""pre-1"":3}","[0]","survey-likert","683","3387400","0.0-683.0","trr3ylye","","","","","",""
"4085.435000000056","{""pre-2"":1}","[0]","survey-likert","684","3391487","0.0-684.0","trr3ylye","","","","","",""
"2536.1450000000186","{""pre-3"":1}","[0]","survey-likert","685","3394024","0.0-685.0","trr3ylye","","","","","",""
"2348.8199999998324","{""post-5"":1}","[0]","survey-likert","686","3396374","0.0-686.0","trr3ylye","","","","","",""
"","","","call-function","687","3396374","0.0-687.0","trr3ylye","","","","","",""
"null","","","video-keyboard-response","688","3399434","0.0-688.0","trr3ylye","","","","null","Agent A","STIM_SET_1_REAL/713681.bmp_pp86_L2_V1.0_veridical_freeview_isoFalse_fps144.mp4"
"","","","call-function","689","3399435","0.0-689.0","trr3ylye","","","","","",""
"4752.8650000002235","{""pre-1"":2}","[0]","survey-likert","690","3404188","0.0-690.0","trr3ylye","","","","","",""
"2666.774999999907","{""pre-2"":1}","[0]","survey-likert","691","3406856","0.0-691.0","trr3ylye","","","","","",""
"1229.25","{""pre-3"":1}","[0]","survey-likert","692","3408087","0.0-692.0","trr3ylye","","","","","",""
"2121","{""post-5"":2}","[0]","survey-likert","693","3410209","0.0-693.0","trr3ylye","","","","","",""
"","","","call-function","694","3410209","0.0-694.0","trr3ylye","","","","","",""
"null","","","video-keyboard-response","695","3413287","0.0-695.0","trr3ylye","","","","null","Agent A","STIM_SET_1_REAL/713749.bmp_pp88_L2_V1.0_scrambled_freeview_isoFalse_fps144.mp4"
"","","","call-function","696","3413288","0.0-696.0","trr3ylye","","","","","",""
"4649.429999999702","{""pre-1"":3}","[0]","survey-likert","697","3417939","0.0-697.0","trr3ylye","","","","","",""
"3444.6400000001304","{""pre-2"":2}","[0]","survey-likert","698","3421385","0.0-698.0","trr3ylye","","","","","",""
"1668.7650000001304","{""pre-3"":1}","[0]","survey-likert","699","3423055","0.0-699.0","trr3ylye","","","","","",""
"5997.709999999963","{""post-5"":1}","[0]","survey-likert","700","3429054","0.0-700.0","trr3ylye","","","","","",""
"","","","call-function","701","3429055","0.0-701.0","trr3ylye","","","","","",""
"null","","","video-keyboard-response","702","3432120","0.0-702.0","trr3ylye","","","","null","Agent A","STIM_SET_1_REAL/497950.bmp_pp151_L1_V1.0_veridical_freeview_isoFalse_fps144.mp4"
"","","","call-function","703","3432120","0.0-703.0","trr3ylye","","","","","",""
"4505.2949999999255","{""pre-1"":2}","[0]","survey-likert","704","3436627","0.0-704.0","trr3ylye","","","","","",""
"7272.969999999739","{""pre-2"":3}","[0]","survey-likert","705","3443901","0.0-705.0","trr3ylye","","","","","",""
"1863.4899999997579","{""pre-3"":3}","[0]","survey-likert","706","3445766","0.0-706.0","trr3ylye","","","","","",""
"1932.6999999997206","{""post-5"":2}","[0]","survey-likert","707","3447700","0.0-707.0","trr3ylye","","","","","",""
"","","","call-function","708","3447700","0.0-708.0","trr3ylye","","","","","",""
"null","","","video-keyboard-response","709","3450759","0.0-709.0","trr3ylye","","","","null","Agent A","STIM_SET_1_REAL/286001.bmp_pp54_L2_V1.0_veridical_freeview_isoFalse_fps144.mp4"
"","","","call-function","710","3450760","0.0-710.0","trr3ylye","","","","","",""
"4025.8599999998696","{""pre-1"":1}","[0]","survey-likert","711","3454787","0.0-711.0","trr3ylye","","","","","",""
"2595.7999999998137","{""pre-2"":2}","[0]","survey-likert","712","3457384","0.0-712.0","trr3ylye","","","","","",""
"1816.2400000002235","{""pre-3"":1}","[0]","survey-likert","713","3459202","0.0-713.0","trr3ylye","","","","","",""
"2387.7549999998882","{""post-5"":2}","[0]","survey-likert","714","3461592","0.0-714.0","trr3ylye","","","","","",""
"","","","call-function","715","3461593","0.0-715.0","trr3ylye","","","","","",""
"null","","","video-keyboard-response","716","3464668","0.0-716.0","trr3ylye","","","","null","Agent A","STIM_SET_1_REAL/498155.bmp_pp61_L2_V1.0_scrambled_freeview_isoFalse_fps144.mp4"
"","","","call-function","717","3464668","0.0-717.0","trr3ylye","","","","","",""
"2362.4099999996834","{""pre-1"":0}","[0]","survey-likert","718","3467032","0.0-718.0","trr3ylye","","","","","",""
"1968.0550000001676","{""pre-2"":1}","[0]","survey-likert","719","3469002","0.0-719.0","trr3ylye","","","","","",""
"2009.0999999996275","{""pre-3"":2}","[0]","survey-likert","720","3471013","0.0-720.0","trr3ylye","","","","","",""
"2415.5800000000745","{""post-5"":2}","[0]","survey-likert","721","3473430","0.0-721.0","trr3ylye","","","","","",""
"","","","call-function","722","3473430","0.0-722.0","trr3ylye","","","","","",""
"null","","","video-keyboard-response","723","3476499","0.0-723.0","trr3ylye","","","","null","Agent A","STIM_SET_1_REAL/1159515.bmp_pp84_L3_V1.0_scrambled_freeview_isoFalse_fps144.mp4"
"","","","call-function","724","3476499","0.0-724.0","trr3ylye","","","","","",""
"2590.8900000001304","{""pre-1"":1}","[0]","survey-likert","725","3479091","0.0-725.0","trr3ylye","","","","","",""
"2867.4550000000745","{""pre-2"":0}","[0]","survey-likert","726","3481960","0.0-726.0","trr3ylye","","","","","",""
"2531.4749999996275","{""pre-3"":0}","[0]","survey-likert","727","3484493","0.0-727.0","trr3ylye","","","","","",""
"2166.4799999999814","{""post-5"":1}","[0]","survey-likert","728","3486661","0.0-728.0","trr3ylye","","","","","",""
"4044.524999999907","","","instructions","729","3490706","0.0-729.0","trr3ylye","[{""page_index"":0,""viewing_time"":1462.910000000149},{""page_index"":1,""viewing_time"":1608.3999999999069},{""page_index"":2,""viewing_time"":973.0449999999255}]","","","","",""
"1684.4750000000931","","","instructions","730","3492391","0.0-730.0","trr3ylye","[{""page_index"":0,""viewing_time"":436.4199999999255},{""page_index"":1,""viewing_time"":768.0550000001676},{""page_index"":2,""viewing_time"":479.8950000000186}]","","","","",""
"","","","call-function","731","3492391","0.0-731.0","trr3ylye","","","","","",""
"null","","","video-keyboard-response","732","3495469","0.0-732.0","trr3ylye","","","","null","Agent A","STIM_SET_1_REAL/713760.bmp_pp81_L1_V1.0_veridical_freeview_isoFalse_fps144.mp4"
"","","","call-function","733","3495470","0.0-733.0","trr3ylye","","","","","",""
"1988.6100000003353","{""pre-1"":1}","[0]","survey-likert","734","3497460","0.0-734.0","trr3ylye","","","","","",""
"1141.804999999702","{""pre-2"":2}","[0]","survey-likert","735","3498604","0.0-735.0","trr3ylye","","","","","",""
"1020.625","{""pre-3"":2}","[0]","survey-likert","736","3499626","0.0-736.0","trr3ylye","","","","","",""
"1778.3249999997206","{""post-5"":1}","[0]","survey-likert","737","3501406","0.0-737.0","trr3ylye","","","","","",""
"","","","call-function","738","3501407","0.0-738.0","trr3ylye","","","","","",""
"null","","","video-keyboard-response","739","3504483","0.0-739.0","trr3ylye","","","","null","Agent A","STIM_SET_1_REAL/1592804.bmp_pp91_L3_V1.0_scrambled_freeview_isoFalse_fps144.mp4"
"","","","call-function","740","3504484","0.0-740.0","trr3ylye","","","","","",""
"2943.125","{""pre-1"":2}","[0]","survey-likert","741","3507428","0.0-741.0","trr3ylye","","","","","",""
"1934.7600000002421","{""pre-2"":1}","[0]","survey-likert","742","3509364","0.0-742.0","trr3ylye","","","","","",""
"1057.875","{""pre-3"":1}","[0]","survey-likert","743","3510423","0.0-743.0","trr3ylye","","","","","",""
"1762.0600000000559","{""post-5"":2}","[0]","survey-likert","744","3512187","0.0-744.0","trr3ylye","","","","","",""
"","","","call-function","745","3512188","0.0-745.0","trr3ylye","","","","","",""
"null","","","video-keyboard-response","746","3515251","0.0-746.0","trr3ylye","","","","null","Agent A","STIM_SET_1_REAL/713403.bmp_pp80_L3_V1.0_scrambled_freeview_isoFalse_fps144.mp4"
"","","","call-function","747","3515252","0.0-747.0","trr3ylye","","","","","",""
"2000.2250000000931","{""pre-1"":2}","[0]","survey-likert","748","3517253","0.0-748.0","trr3ylye","","","","","",""
"2454.214999999851","{""pre-2"":1}","[0]","survey-likert","749","3519708","0.0-749.0","trr3ylye","","","","","",""
"3127.4950000001118","{""pre-3"":0}","[0]","survey-likert","750","3522837","0.0-750.0","trr3ylye","","","","","",""
"2724.810000000056","{""post-5"":2}","[0]","survey-likert","751","3525563","0.0-751.0","trr3ylye","","","","","",""
"","","","call-function","752","3525564","0.0-752.0","trr3ylye","","","","","",""
"null","","","video-keyboard-response","753","3528639","0.0-753.0","trr3ylye","","","","null","Agent A","STIM_SET_1_REAL/713749.bmp_pp88_L2_V1.0_veridical_freeview_isoFalse_fps144.mp4"
"","","","call-function","754","3528639","0.0-754.0","trr3ylye","","","","","",""
"2312.945000000298","{""pre-1"":3}","[0]","survey-likert","755","3530953","0.0-755.0","trr3ylye","","","","","",""
"1473.5349999996834","{""pre-2"":2}","[0]","survey-likert","756","3532428","0.0-756.0","trr3ylye","","","","","",""
"1577.2450000001118","{""pre-3"":1}","[0]","survey-likert","757","3534006","0.0-757.0","trr3ylye","","","","","",""
"1980.785000000149","{""post-5"":2}","[0]","survey-likert","758","3535988","0.0-758.0","trr3ylye","","","","","",""
"","","","call-function","759","3535990","0.0-759.0","trr3ylye","","","","","",""
"null","","","video-keyboard-response","760","3539066","0.0-760.0","trr3ylye","","","","null","Agent A","STIM_SET_1_REAL/713371.bmp_pp68_L1_V1.0_veridical_freeview_isoFalse_fps144.mp4"
"","","","call-function","761","3539066","0.0-761.0","trr3ylye","","","","","",""
"2888.7450000001118","{""pre-1"":2}","[0]","survey-likert","762","3541956","0.0-762.0","trr3ylye","","","","","",""
"2007.5949999997392","{""pre-2"":1}","[0]","survey-likert","763","3543966","0.0-763.0","trr3ylye","","","","","",""
"1468.8650000002235","{""pre-3"":2}","[0]","survey-likert","764","3545437","0.0-764.0","trr3ylye","","","","","",""
"2141.4799999999814","{""post-5"":2}","[0]","survey-likert","765","3547581","0.0-765.0","trr3ylye","","","","","",""
"","","","call-function","766","3547582","0.0-766.0","trr3ylye","","","","","",""
"null","","","video-keyboard-response","767","3550653","0.0-767.0","trr3ylye","","","","null","Agent A","STIM_SET_1_REAL/1592934.bmp_pp63_L1_V1.0_scrambled_freeview_isoFalse_fps144.mp4"
"","","","call-function","768","3550654","0.0-768.0","trr3ylye","","","","","",""
"1885.5200000000186","{""pre-1"":1}","[0]","survey-likert","769","3552541","0.0-769.0","trr3ylye","","","","","",""
"1739.2199999997392","{""pre-2"":2}","[0]","survey-likert","770","3554281","0.0-770.0","trr3ylye","","","","","",""
"1223.3849999997765","{""pre-3"":1}","[0]","survey-likert","771","3555506","0.0-771.0","trr3ylye","","","","","",""
"1142.7549999998882","{""post-5"":2}","[0]","survey-likert","772","3556649","0.0-772.0","trr3ylye","","","","","",""
"","","","call-function","773","3556650","0.0-773.0","trr3ylye","","","","","",""
"null","","","video-keyboard-response","774","3559713","0.0-774.0","trr3ylye","","","","null","Agent A","STIM_SET_1_REAL/1593035.bmp_pp94_L2_V1.0_scrambled_freeview_isoFalse_fps144.mp4"
"","","","call-function","775","3559714","0.0-775.0","trr3ylye","","","","","",""
"2198.994999999646","{""pre-1"":3}","[0]","survey-likert","776","3561914","0.0-776.0","trr3ylye","","","","","",""
"1417.625","{""pre-2"":2}","[0]","survey-likert","777","3563333","0.0-777.0","trr3ylye","","","","","",""
"1362.1400000001304","{""pre-3"":2}","[0]","survey-likert","778","3564697","0.0-778.0","trr3ylye","","","","","",""
"1598.5600000000559","{""post-5"":1}","[0]","survey-likert","779","3566296","0.0-779.0","trr3ylye","","","","","",""
"","","","call-function","780","3566297","0.0-780.0","trr3ylye","","","","","",""
"null","","","video-keyboard-response","781","3569372","0.0-781.0","trr3ylye","","","","null","Agent A","STIM_SET_1_REAL/1592372.bmp_pp76_L1_V1.0_scrambled_freeview_isoFalse_fps144.mp4"
"","","","call-function","782","3569373","0.0-782.0","trr3ylye","","","","","",""
"1873.2949999999255","{""pre-1"":1}","[0]","survey-likert","783","3571247","0.0-783.0","trr3ylye","","","","","",""
"1733.2099999999627","{""pre-2"":2}","[0]","survey-likert","784","3572982","0.0-784.0","trr3ylye","","","","","",""
"1505.8149999999441","{""pre-3"":1}","[0]","survey-likert","785","3574488","0.0-785.0","trr3ylye","","","","","",""
"2502.410000000149","{""post-5"":2}","[0]","survey-likert","786","3576992","0.0-786.0","trr3ylye","","","","","",""
"","","","call-function","787","3576992","0.0-787.0","trr3ylye","","","","","",""
"null","","","video-keyboard-response","788","3580068","0.0-788.0","trr3ylye","","","","null","Agent A","STIM_SET_1_REAL/713684.bmp_pp85_L3_V1.0_scrambled_freeview_isoFalse_fps144.mp4"
"","","","call-function","789","3580069","0.0-789.0","trr3ylye","","","","","",""
"6070.459999999963","{""pre-1"":2}","[0]","survey-likert","790","3586140","0.0-790.0","trr3ylye","","","","","",""
"2048.8199999998324","{""pre-2"":1}","[0]","survey-likert","791","3588190","0.0-791.0","trr3ylye","","","","","",""
"2810.9650000003166","{""pre-3"":1}","[0]","survey-likert","792","3591002","0.0-792.0","trr3ylye","","","","","",""
"2993.0750000001863","{""post-5"":2}","[0]","survey-likert","793","3593996","0.0-793.0","trr3ylye","","","","","",""
"","","","call-function","794","3593997","0.0-794.0","trr3ylye","","","","","",""
"null","","","video-keyboard-response","795","3597092","0.0-795.0","trr3ylye","","","","null","Agent A","STIM_SET_1_REAL/1592362.bmp_pp95_L2_V1.0_veridical_freeview_isoFalse_fps144.mp4"
"","","","call-function","796","3597093","0.0-796.0","trr3ylye","","","","","",""
"2893.524999999907","{""pre-1"":3}","[0]","survey-likert","797","3599988","0.0-797.0","trr3ylye","","","","","",""
"1486.945000000298","{""pre-2"":2}","[0]","survey-likert","798","3601476","0.0-798.0","trr3ylye","","","","","",""
"1291.6150000002235","{""pre-3"":2}","[0]","survey-likert","799","3602769","0.0-799.0","trr3ylye","","","","","",""
"4049.1550000002608","{""post-5"":1}","[0]","survey-likert","800","3606820","0.0-800.0","trr3ylye","","","","","",""
"","","","call-function","801","3606820","0.0-801.0","trr3ylye","","","","","",""
"null","","","video-keyboard-response","802","3609895","0.0-802.0","trr3ylye","","","","null","Agent A","STIM_SET_1_REAL/498155.bmp_pp61_L2_V1.0_veridical_freeview_isoFalse_fps144.mp4"
"","","","call-function","803","3609895","0.0-803.0","trr3ylye","","","","","",""
"5188.8300000000745","{""pre-1"":1}","[0]","survey-likert","804","3615085","0.0-804.0","trr3ylye","","","","","",""
"2092.3449999997392","{""pre-2"":2}","[0]","survey-likert","805","3617179","0.0-805.0","trr3ylye","","","","","",""
"1582.9399999999441","{""pre-3"":2}","[0]","survey-likert","806","3618763","0.0-806.0","trr3ylye","","","","","",""
"2079.6450000000186","{""post-5"":1}","[0]","survey-likert","807","3620844","0.0-807.0","trr3ylye","","","","","",""
"","","","call-function","808","3620845","0.0-808.0","trr3ylye","","","","","",""
"null","","","video-keyboard-response","809","3623920","0.0-809.0","trr3ylye","","","","null","Agent A","STIM_SET_1_REAL/1159675.bmp_pp77_L3_V1.0_veridical_freeview_isoFalse_fps144.mp4"
"","","","call-function","810","3623920","0.0-810.0","trr3ylye","","","","","",""
"3778.9050000002608","{""pre-1"":3}","[0]","survey-likert","811","3627701","0.0-811.0","trr3ylye","","","","","",""
"1214.9000000003725","{""pre-2"":2}","[0]","survey-likert","812","3628917","0.0-812.0","trr3ylye","","","","","",""
"1180.5800000000745","{""pre-3"":2}","[0]","survey-likert","813","3630099","0.0-813.0","trr3ylye","","","","","",""
"1140.570000000298","{""post-5"":1}","[0]","survey-likert","814","3631241","0.0-814.0","trr3ylye","","","","","",""
"","","","call-function","815","3631241","0.0-815.0","trr3ylye","","","","","",""
"null","","","video-keyboard-response","816","3634317","0.0-816.0","trr3ylye","","","","null","Agent A","STIM_SET_1_REAL/1159855.bmp_pp99_L2_V1.0_veridical_freeview_isoFalse_fps144.mp4"
"","","","call-function","817","3634318","0.0-817.0","trr3ylye","","","","","",""
"2164.989999999758","{""pre-1"":3}","[0]","survey-likert","818","3636484","0.0-818.0","trr3ylye","","","","","",""
"1341.4250000002794","{""pre-2"":2}","[0]","survey-likert","819","3637826","0.0-819.0","trr3ylye","","","","","",""
"1797.1850000000559","{""pre-3"":3}","[0]","survey-likert","820","3639624","0.0-820.0","trr3ylye","","","","","",""
"1755.9950000001118","{""post-5"":1}","[0]","survey-likert","821","3641382","0.0-821.0","trr3ylye","","","","","",""
"","","","call-function","822","3641382","0.0-822.0","trr3ylye","","","","","",""
"null","","","video-keyboard-response","823","3644450","0.0-823.0","trr3ylye","","","","null","Agent A","STIM_SET_1_REAL/1592499.bmp_pp96_L2_V1.0_scrambled_freeview_isoFalse_fps144.mp4"
"","","","call-function","824","3644451","0.0-824.0","trr3ylye","","","","","",""
"2118.3250000001863","{""pre-1"":2}","[0]","survey-likert","825","3646572","0.0-825.0","trr3ylye","","","","","",""
"2986.4199999999255","{""pre-2"":2}","[0]","survey-likert","826","3649560","0.0-826.0","trr3ylye","","","","","",""
"1068.8250000001863","{""pre-3"":1}","[0]","survey-likert","827","3650631","0.0-827.0","trr3ylye","","","","","",""
"1357.4799999999814","{""post-5"":1}","[0]","survey-likert","828","3651990","0.0-828.0","trr3ylye","","","","","",""
"","","","call-function","829","3651990","0.0-829.0","trr3ylye","","","","","",""
"null","","","video-keyboard-response","830","3655065","0.0-830.0","trr3ylye","","","","null","Agent A","STIM_SET_1_REAL/713707.bmp_pp154_L1_V1.0_veridical_freeview_isoFalse_fps144.mp4"
"","","","call-function","831","3655065","0.0-831.0","trr3ylye","","","","","",""
"1872.625","{""pre-1"":2}","[0]","survey-likert","832","3656939","0.0-832.0","trr3ylye","","","","","",""
"1547.1399999996647","{""pre-2"":1}","[0]","survey-likert","833","3658487","0.0-833.0","trr3ylye","","","","","",""
"1044.970000000205","{""pre-3"":1}","[0]","survey-likert","834","3659533","0.0-834.0","trr3ylye","","","","","",""
