"rt","responses","question_order","trial_type","trial_index","time_elapsed","internal_node_id","ID","view_history","value","stimulus","key_press","agent","image"
"157712.5","{""Experimenter"":[""Confirmed subject's identity (ID card)"",""Confirmed normal or corrected-to-normal vision"",""Obtained consent (signature and date)"",""Checked the test room lighting"",""Checked computer screen lighting"",""Checked distance from screen to chin rest (50cm)"",""Cleaned and adjusted chin rest"",""Counterbalanced the order of the tasks"",""Opened the experiment in Firefox"",""Made the experiment full screen"",""Encouraged subject to silence phone, put away distractors, etc.""]}","[0]","survey-multi-select","0","157723","0.0-0.0","w3d8abn1","","","","","",""
"292901.665","","","instructions","1","450626","0.0-1.0","w3d8abn1","[{""page_index"":0,""viewing_time"":292901.46}]","","","","",""
"9601.25","{""Age"":0,""Sex"":0,""Gender"":0}","[0,1,2]","survey-likert","2","460230","0.0-2.0","w3d8abn1","","","","","",""
"2429.6999999999534","","","instructions","3","462660","0.0-3.0","w3d8abn1","[{""page_index"":0,""viewing_time"":2429.579999999958}]","","","","",""
"11994.47000000003","","","instructions","4","474655","0.0-4.0","w3d8abn1","[{""page_index"":0,""viewing_time"":3896.429999999993},{""page_index"":1,""viewing_time"":8097.940000000002}]","","","","",""
"12405.465000000026","","","instructions","5","487061","0.0-5.0","w3d8abn1","[{""page_index"":0,""viewing_time"":1775.585000000021},{""page_index"":1,""viewing_time"":4385.885000000009},{""page_index"":2,""viewing_time"":6243.875}]","","","","",""
"1697.585000000021","","","instructions","6","488759","0.0-6.0","w3d8abn1","[{""page_index"":0,""viewing_time"":1697.484999999986}]","","","","",""
"","","","call-function","7","488760","0.0-7.0","w3d8abn1","","","","","",""
"null","","","video-keyboard-response","8","491852","0.0-8.0","w3d8abn1","","","","null","",""
"","","","call-function","9","491853","0.0-9.0","w3d8abn1","","","","","",""
"13329.130000000005","","","instructions","10","505182","0.0-10.0","w3d8abn1","[{""page_index"":0,""viewing_time"":5769.104999999981},{""page_index"":1,""viewing_time"":1830.9500000000116},{""page_index"":2,""viewing_time"":1544.0800000000163},{""page_index"":3,""viewing_time"":4184.775000000023}]","","","","",""
"1490.3699999999953","","","instructions","11","506673","0.0-11.0","w3d8abn1","[{""page_index"":0,""viewing_time"":1490.265000000014}]","","","","",""
"","","","call-function","12","506674","0.0-12.0","w3d8abn1","","","","","",""
"null","","","video-keyboard-response","13","509745","0.0-13.0","w3d8abn1","","","","null","",""
"","","","call-function","14","509746","0.0-14.0","w3d8abn1","","","","","",""
"11309.415000000037","{""pre-1"":0}","[0]","survey-likert","15","521057","0.0-15.0","w3d8abn1","","","","","",""
"8004.250000000058","{""pre-2"":0}","[0]","survey-likert","16","529063","0.0-16.0","w3d8abn1","","","","","",""
"8441.235000000102","{""pre-3"":2}","[0]","survey-likert","17","537506","0.0-17.0","w3d8abn1","","","","","",""
"9254.194999999949","{""post-5"":1}","[0]","survey-likert","18","546762","0.0-18.0","w3d8abn1","","","","","",""
"1280.6899999999441","","","instructions","19","548043","0.0-19.0","w3d8abn1","[{""page_index"":0,""viewing_time"":1280.0499999999302}]","","","","",""
"3968.109999999986","","","instructions","20","552011","0.0-20.0","w3d8abn1","[{""page_index"":0,""viewing_time"":3968}]","","","","",""
"","","","call-function","21","552012","0.0-21.0","w3d8abn1","","","","","",""
"null","","","video-keyboard-response","22","555088","0.0-22.0","w3d8abn1","","","","null","Agent A","STIM_SET_1_REAL/712977.bmp_pp51_L1_V1.0_scrambled_freeview_isoFalse_fps144.mp4"
"","","","call-function","23","555088","0.0-23.0","w3d8abn1","","","","","",""
"11892.975000000093","{""pre-1"":0}","[0]","survey-likert","24","566982","0.0-24.0","w3d8abn1","","","","","",""
"9155.179999999935","{""pre-2"":2}","[0]","survey-likert","25","576139","0.0-25.0","w3d8abn1","","","","","",""
"5543.520000000019","{""pre-3"":2}","[0]","survey-likert","26","581683","0.0-26.0","w3d8abn1","","","","","",""
"15241.714999999967","{""post-5"":0}","[0]","survey-likert","27","596927","0.0-27.0","w3d8abn1","","","","","",""
"","","","call-function","28","596928","0.0-28.0","w3d8abn1","","","","","",""
"null","","","video-keyboard-response","29","599995","0.0-29.0","w3d8abn1","","","","null","Agent A","STIM_SET_1_REAL/1592499.bmp_pp96_L2_V1.0_scrambled_freeview_isoFalse_fps144.mp4"
"","","","call-function","30","599995","0.0-30.0","w3d8abn1","","","","","",""
"4989.094999999972","{""pre-1"":0}","[0]","survey-likert","31","604986","0.0-31.0","w3d8abn1","","","","","",""
"5324.829999999958","{""pre-2"":2}","[0]","survey-likert","32","610312","0.0-32.0","w3d8abn1","","","","","",""
"8256.23999999999","{""pre-3"":1}","[0]","survey-likert","33","618570","0.0-33.0","w3d8abn1","","","","","",""
"14975.844999999972","{""post-5"":1}","[0]","survey-likert","34","633547","0.0-34.0","w3d8abn1","","","","","",""
"","","","call-function","35","633547","0.0-35.0","w3d8abn1","","","","","",""
"null","","","video-keyboard-response","36","636622","0.0-36.0","w3d8abn1","","","","null","Agent A","STIM_SET_1_REAL/498175.bmp_pp154_L1_V1.0_veridical_freeview_isoFalse_fps144.mp4"
"","","","call-function","37","636622","0.0-37.0","w3d8abn1","","","","","",""
"11049.524999999907","{""pre-1"":1}","[0]","survey-likert","38","647674","0.0-38.0","w3d8abn1","","","","","",""
"9178.880000000005","{""pre-2"":1}","[0]","survey-likert","39","656854","0.0-39.0","w3d8abn1","","","","","",""
"15113.390000000014","{""pre-3"":0}","[0]","survey-likert","40","671969","0.0-40.0","w3d8abn1","","","","","",""
"14475.475000000093","{""post-5"":1}","[0]","survey-likert","41","686446","0.0-41.0","w3d8abn1","","","","","",""
"","","","call-function","42","686447","0.0-42.0","w3d8abn1","","","","","",""
"null","","","video-keyboard-response","43","689521","0.0-43.0","w3d8abn1","","","","null","Agent A","STIM_SET_1_REAL/61537.bmp_pp73_L3_V1.0_scrambled_freeview_isoFalse_fps144.mp4"
"","","","call-function","44","689522","0.0-44.0","w3d8abn1","","","","","",""
"8688.714999999967","{""pre-1"":2}","[0]","survey-likert","45","698211","0.0-45.0","w3d8abn1","","","","","",""
"6138.525000000023","{""pre-2"":0}","[0]","survey-likert","46","704352","0.0-46.0","w3d8abn1","","","","","",""
"5467.57500000007","{""pre-3"":0}","[0]","survey-likert","47","709821","0.0-47.0","w3d8abn1","","","","","",""
"3329.234999999986","{""post-5"":2}","[0]","survey-likert","48","713151","0.0-48.0","w3d8abn1","","","","","",""
"","","","call-function","49","713152","0.0-49.0","w3d8abn1","","","","","",""
"null","","","video-keyboard-response","50","716221","0.0-50.0","w3d8abn1","","","","null","Agent A","STIM_SET_1_REAL/1159440.bmp_pp98_L1_V1.0_veridical_freeview_isoFalse_fps144.mp4"
"","","","call-function","51","716221","0.0-51.0","w3d8abn1","","","","","",""
"8269.854999999981","{""pre-1"":1}","[0]","survey-likert","52","724493","0.0-52.0","w3d8abn1","","","","","",""
"28089.755000000005","{""pre-2"":2}","[0]","survey-likert","53","752584","0.0-53.0","w3d8abn1","","","","","",""
"4648.114999999991","{""pre-3"":1}","[0]","survey-likert","54","757234","0.0-54.0","w3d8abn1","","","","","",""
"3409.069999999949","{""post-5"":1}","[0]","survey-likert","55","760644","0.0-55.0","w3d8abn1","","","","","",""
"","","","call-function","56","760645","0.0-56.0","w3d8abn1","","","","","",""
"null","","","video-keyboard-response","57","763725","0.0-57.0","w3d8abn1","","","","null","Agent A","STIM_SET_1_REAL/1592372.bmp_pp76_L1_V1.0_scrambled_freeview_isoFalse_fps144.mp4"
"","","","call-function","58","763725","0.0-58.0","w3d8abn1","","","","","",""
"4379.795000000042","{""pre-1"":2}","[0]","survey-likert","59","768106","0.0-59.0","w3d8abn1","","","","","",""
"5398.4700000000885","{""pre-2"":0}","[0]","survey-likert","60","773506","0.0-60.0","w3d8abn1","","","","","",""
"7511.849999999977","{""pre-3"":0}","[0]","survey-likert","61","781019","0.0-61.0","w3d8abn1","","","","","",""
"4641.234999999986","{""post-5"":2}","[0]","survey-likert","62","785661","0.0-62.0","w3d8abn1","","","","","",""
"","","","call-function","63","785662","0.0-63.0","w3d8abn1","","","","","",""
"null","","","video-keyboard-response","64","788746","0.0-64.0","w3d8abn1","","","","null","Agent A","STIM_SET_1_REAL/1593041.bmp_pp58_L1_V1.0_veridical_freeview_isoFalse_fps144.mp4"
"","","","call-function","65","788747","0.0-65.0","w3d8abn1","","","","","",""
"8152.520000000019","{""pre-1"":1}","[0]","survey-likert","66","796901","0.0-66.0","w3d8abn1","","","","","",""
"5721.905000000028","{""pre-2"":2}","[0]","survey-likert","67","802624","0.0-67.0","w3d8abn1","","","","","",""
"4591.9700000000885","{""pre-3"":2}","[0]","survey-likert","68","807218","0.0-68.0","w3d8abn1","","","","","",""
"2949.6500000000233","{""post-5"":0}","[0]","survey-likert","69","810168","0.0-69.0","w3d8abn1","","","","","",""
"","","","call-function","70","810169","0.0-70.0","w3d8abn1","","","","","",""
"null","","","video-keyboard-response","71","813234","0.0-71.0","w3d8abn1","","","","null","Agent A","STIM_SET_1_REAL/1592727.bmp_pp59_L3_V1.0_veridical_freeview_isoFalse_fps144.mp4"
"","","","call-function","72","813234","0.0-72.0","w3d8abn1","","","","","",""
"5886.530000000028","{""pre-1"":0}","[0]","survey-likert","73","819122","0.0-73.0","w3d8abn1","","","","","",""
"16224.599999999977","{""pre-2"":3}","[0]","survey-likert","74","835347","0.0-74.0","w3d8abn1","","","","","",""
"4171.104999999981","{""pre-3"":2}","[0]","survey-likert","75","839520","0.0-75.0","w3d8abn1","","","","","",""
"2556.5500000000466","{""post-5"":0}","[0]","survey-likert","76","842078","0.0-76.0","w3d8abn1","","","","","",""
"","","","call-function","77","842078","0.0-77.0","w3d8abn1","","","","","",""
"null","","","video-keyboard-response","78","845139","0.0-78.0","w3d8abn1","","","","null","Agent A","STIM_SET_1_REAL/1159572.bmp_pp71_L1_V1.0_scrambled_freeview_isoFalse_fps144.mp4"
"","","","call-function","79","845140","0.0-79.0","w3d8abn1","","","","","",""
"3402.819999999949","{""pre-1"":1}","[0]","survey-likert","80","848544","0.0-80.0","w3d8abn1","","","","","",""
"24790.744999999995","{""pre-2"":2}","[0]","survey-likert","81","873336","0.0-81.0","w3d8abn1","","","","","",""
"8970.214999999967","{""pre-3"":2}","[0]","survey-likert","82","882308","0.0-82.0","w3d8abn1","","","","","",""
"3447.719999999972","{""post-5"":1}","[0]","survey-likert","83","885758","0.0-83.0","w3d8abn1","","","","","",""
"","","","call-function","84","885759","0.0-84.0","w3d8abn1","","","","","",""
"null","","","video-keyboard-response","85","888834","0.0-85.0","w3d8abn1","","","","null","Agent A","STIM_SET_1_REAL/1593146.bmp_pp93_L1_V1.0_veridical_freeview_isoFalse_fps144.mp4"
"","","","call-function","86","888835","0.0-86.0","w3d8abn1","","","","","",""
"4799.145000000019","{""pre-1"":1}","[0]","survey-likert","87","893635","0.0-87.0","w3d8abn1","","","","","",""
"9330.344999999972","{""pre-2"":1}","[0]","survey-likert","88","902966","0.0-88.0","w3d8abn1","","","","","",""
"5075.929999999935","{""pre-3"":1}","[0]","survey-likert","89","908043","0.0-89.0","w3d8abn1","","","","","",""
"3866.3399999999674","{""post-5"":2}","[0]","survey-likert","90","911911","0.0-90.0","w3d8abn1","","","","","",""
"","","","call-function","91","911911","0.0-91.0","w3d8abn1","","","","","",""
"null","","","video-keyboard-response","92","914988","0.0-92.0","w3d8abn1","","","","null","Agent A","STIM_SET_1_REAL/713666.bmp_pp97_L3_V1.0_scrambled_freeview_isoFalse_fps144.mp4"
"","","","call-function","93","914988","0.0-93.0","w3d8abn1","","","","","",""
"5626.17499999993","{""pre-1"":1}","[0]","survey-likert","94","920615","0.0-94.0","w3d8abn1","","","","","",""
"29268.70000000007","{""pre-2"":1}","[0]","survey-likert","95","949885","0.0-95.0","w3d8abn1","","","","","",""
"8984.88500000001","{""pre-3"":1}","[0]","survey-likert","96","958872","0.0-96.0","w3d8abn1","","","","","",""
"3721.3850000000093","{""post-5"":1}","[0]","survey-likert","97","962595","0.0-97.0","w3d8abn1","","","","","",""
"","","","call-function","98","962596","0.0-98.0","w3d8abn1","","","","","",""
"null","","","video-keyboard-response","99","965666","0.0-99.0","w3d8abn1","","","","null","Agent A","STIM_SET_1_REAL/285905.bmp_pp57_L1_V1.0_scrambled_freeview_isoFalse_fps144.mp4"
"","","","call-function","100","965667","0.0-100.0","w3d8abn1","","","","","",""
"8273.805000000051","{""pre-1"":1}","[0]","survey-likert","101","973942","0.0-101.0","w3d8abn1","","","","","",""
"2728.9899999999907","{""pre-2"":2}","[0]","survey-likert","102","976672","0.0-102.0","w3d8abn1","","","","","",""
"2022.969999999972","{""pre-3"":1}","[0]","survey-likert","103","978697","0.0-103.0","w3d8abn1","","","","","",""
"4620.039999999921","{""post-5"":1}","[0]","survey-likert","104","983318","0.0-104.0","w3d8abn1","","","","","",""
"","","","call-function","105","983318","0.0-105.0","w3d8abn1","","","","","",""
"null","","","video-keyboard-response","106","986385","0.0-106.0","w3d8abn1","","","","null","Agent A","STIM_SET_1_REAL/1592581.bmp_pp100_L3_V1.0_veridical_freeview_isoFalse_fps144.mp4"
"","","","call-function","107","986385","0.0-107.0","w3d8abn1","","","","","",""
"3891.894999999902","{""pre-1"":0}","[0]","survey-likert","108","990278","0.0-108.0","w3d8abn1","","","","","",""
"4242.055000000051","{""pre-2"":3}","[0]","survey-likert","109","994521","0.0-109.0","w3d8abn1","","","","","",""
"3074.0200000000186","{""pre-3"":2}","[0]","survey-likert","110","997596","0.0-110.0","w3d8abn1","","","","","",""
"7109.005000000005","{""post-5"":0}","[0]","survey-likert","111","1004706","0.0-111.0","w3d8abn1","","","","","",""
"","","","call-function","112","1004707","0.0-112.0","w3d8abn1","","","","","",""
"null","","","video-keyboard-response","113","1007783","0.0-113.0","w3d8abn1","","","","null","Agent A","STIM_SET_1_REAL/1159675.bmp_pp77_L3_V1.0_veridical_freeview_isoFalse_fps144.mp4"
"","","","call-function","114","1007784","0.0-114.0","w3d8abn1","","","","","",""
"6013.9400000000605","{""pre-1"":1}","[0]","survey-likert","115","1013798","0.0-115.0","w3d8abn1","","","","","",""
"3927.8099999999395","{""pre-2"":2}","[0]","survey-likert","116","1017728","0.0-116.0","w3d8abn1","","","","","",""
"4720.195000000065","{""pre-3"":2}","[0]","survey-likert","117","1022450","0.0-117.0","w3d8abn1","","","","","",""
"3129.2449999999953","{""post-5"":0}","[0]","survey-likert","118","1025580","0.0-118.0","w3d8abn1","","","","","",""
"","","","call-function","119","1025581","0.0-119.0","w3d8abn1","","","","","",""
"null","","","video-keyboard-response","120","1028648","0.0-120.0","w3d8abn1","","","","null","Agent A","STIM_SET_1_REAL/1592727.bmp_pp59_L3_V1.0_scrambled_freeview_isoFalse_fps144.mp4"
"","","","call-function","121","1028649","0.0-121.0","w3d8abn1","","","","","",""
"7369.864999999991","{""pre-1"":1}","[0]","survey-likert","122","1036020","0.0-122.0","w3d8abn1","","","","","",""
"11126.859999999986","{""pre-2"":2}","[0]","survey-likert","123","1047148","0.0-123.0","w3d8abn1","","","","","",""
"6742.655000000028","{""pre-3"":1}","[0]","survey-likert","124","1053892","0.0-124.0","w3d8abn1","","","","","",""
"3514.505000000121","{""post-5"":1}","[0]","survey-likert","125","1057407","0.0-125.0","w3d8abn1","","","","","",""
"","","","call-function","126","1057408","0.0-126.0","w3d8abn1","","","","","",""
"null","","","video-keyboard-response","127","1060483","0.0-127.0","w3d8abn1","","","","null","Agent A","STIM_SET_1_REAL/285751.bmp_pp55_L3_V1.0_scrambled_freeview_isoFalse_fps144.mp4"
"","","","call-function","128","1060483","0.0-128.0","w3d8abn1","","","","","",""
"12859.820000000065","{""pre-1"":1}","[0]","survey-likert","129","1073345","0.0-129.0","w3d8abn1","","","","","",""
"4417.914999999804","{""pre-2"":2}","[0]","survey-likert","130","1077763","0.0-130.0","w3d8abn1","","","","","",""
"2273.9550000000745","{""pre-3"":1}","[0]","survey-likert","131","1080038","0.0-131.0","w3d8abn1","","","","","",""
"3119.1699999999255","{""post-5"":0}","[0]","survey-likert","132","1083159","0.0-132.0","w3d8abn1","","","","","",""
"","","","call-function","133","1083159","0.0-133.0","w3d8abn1","","","","","",""
"null","","","video-keyboard-response","134","1086227","0.0-134.0","w3d8abn1","","","","null","Agent A","STIM_SET_1_REAL/1159515.bmp_pp84_L3_V1.0_scrambled_freeview_isoFalse_fps144.mp4"
"","","","call-function","135","1086227","0.0-135.0","w3d8abn1","","","","","",""
"4628.064999999944","{""pre-1"":1}","[0]","survey-likert","136","1090857","0.0-136.0","w3d8abn1","","","","","",""
"2807.4250000000466","{""pre-2"":2}","[0]","survey-likert","137","1093665","0.0-137.0","w3d8abn1","","","","","",""
"5437.5800000000745","{""pre-3"":1}","[0]","survey-likert","138","1099106","0.0-138.0","w3d8abn1","","","","","",""
"10574.769999999786","{""post-5"":0}","[0]","survey-likert","139","1109682","0.0-139.0","w3d8abn1","","","","","",""
"","","","call-function","140","1109683","0.0-140.0","w3d8abn1","","","","","",""
"null","","","video-keyboard-response","141","1112759","0.0-141.0","w3d8abn1","","","","null","Agent A","STIM_SET_1_REAL/713371.bmp_pp68_L1_V1.0_veridical_freeview_isoFalse_fps144.mp4"
"","","","call-function","142","1112760","0.0-142.0","w3d8abn1","","","","","",""
"12000.165000000037","{""pre-1"":0}","[0]","survey-likert","143","1124761","0.0-143.0","w3d8abn1","","","","","",""
"5392.604999999981","{""pre-2"":3}","[0]","survey-likert","144","1130155","0.0-144.0","w3d8abn1","","","","","",""
"2821.965000000084","{""pre-3"":2}","[0]","survey-likert","145","1132978","0.0-145.0","w3d8abn1","","","","","",""
"6756.6349999997765","{""post-5"":0}","[0]","survey-likert","146","1139736","0.0-146.0","w3d8abn1","","","","","",""
"","","","call-function","147","1139736","0.0-147.0","w3d8abn1","","","","","",""
"null","","","video-keyboard-response","148","1142811","0.0-148.0","w3d8abn1","","","","null","Agent A","STIM_SET_1_REAL/712977.bmp_pp51_L1_V1.0_veridical_freeview_isoFalse_fps144.mp4"
"","","","call-function","149","1142812","0.0-149.0","w3d8abn1","","","","","",""
"2850.8649999999907","{""pre-1"":2}","[0]","survey-likert","150","1145664","0.0-150.0","w3d8abn1","","","","","",""
"4422.739999999991","{""pre-2"":1}","[0]","survey-likert","151","1150088","0.0-151.0","w3d8abn1","","","","","",""
"3102.8649999999907","{""pre-3"":0}","[0]","survey-likert","152","1153192","0.0-152.0","w3d8abn1","","","","","",""
"4550.979999999981","{""post-5"":2}","[0]","survey-likert","153","1157744","0.0-153.0","w3d8abn1","","","","","",""
"","","","call-function","154","1157744","0.0-154.0","w3d8abn1","","","","","",""
"null","","","video-keyboard-response","155","1160802","0.0-155.0","w3d8abn1","","","","null","Agent A","STIM_SET_1_REAL/1159572.bmp_pp71_L1_V1.0_veridical_freeview_isoFalse_fps144.mp4"
"","","","call-function","156","1160803","0.0-156.0","w3d8abn1","","","","","",""
"4653.7050000000745","{""pre-1"":1}","[0]","survey-likert","157","1165458","0.0-157.0","w3d8abn1","","","","","",""
"7688.614999999991","{""pre-2"":0}","[0]","survey-likert","158","1173148","0.0-158.0","w3d8abn1","","","","","",""
"2940.899999999907","{""pre-3"":0}","[0]","survey-likert","159","1176091","0.0-159.0","w3d8abn1","","","","","",""
"3629.844999999972","{""post-5"":2}","[0]","survey-likert","160","1179722","0.0-160.0","w3d8abn1","","","","","",""
"31366.50499999989","","","instructions","161","1211089","0.0-161.0","w3d8abn1","[{""page_index"":0,""viewing_time"":3656.8799999998882},{""page_index"":1,""viewing_time"":24469.01000000001},{""page_index"":2,""viewing_time"":3239.9950000001118}]","","","","",""
"4772.435000000056","","","instructions","162","1215862","0.0-162.0","w3d8abn1","[{""page_index"":0,""viewing_time"":1391.0400000000373},{""page_index"":1,""viewing_time"":2507.9599999999627},{""page_index"":2,""viewing_time"":873.3100000000559}]","","","","",""
"","","","call-function","163","1215862","0.0-163.0","w3d8abn1","","","","","",""
"null","","","video-keyboard-response","164","1218938","0.0-164.0","w3d8abn1","","","","null","Agent A","STIM_SET_1_REAL/1592804.bmp_pp91_L3_V1.0_veridical_freeview_isoFalse_fps144.mp4"
"","","","call-function","165","1218939","0.0-165.0","w3d8abn1","","","","","",""
"8543.964999999851","{""pre-1"":1}","[0]","survey-likert","166","1227484","0.0-166.0","w3d8abn1","","","","","",""
"7463.954999999842","{""pre-2"":1}","[0]","survey-likert","167","1234949","0.0-167.0","w3d8abn1","","","","","",""
"5449.395000000019","{""pre-3"":0}","[0]","survey-likert","168","1240400","0.0-168.0","w3d8abn1","","","","","",""
"5003.885000000009","{""post-5"":2}","[0]","survey-likert","169","1245405","0.0-169.0","w3d8abn1","","","","","",""
"","","","call-function","170","1245405","0.0-170.0","w3d8abn1","","","","","",""
"null","","","video-keyboard-response","171","1248472","0.0-171.0","w3d8abn1","","","","null","Agent A","STIM_SET_1_REAL/1592362.bmp_pp95_L2_V1.0_veridical_freeview_isoFalse_fps144.mp4"
"","","","call-function","172","1248473","0.0-172.0","w3d8abn1","","","","","",""
"9733.560000000056","{""pre-1"":2}","[0]","survey-likert","173","1258208","0.0-173.0","w3d8abn1","","","","","",""
"3588.0200000000186","{""pre-2"":2}","[0]","survey-likert","174","1261797","0.0-174.0","w3d8abn1","","","","","",""
"3468.4550000000745","{""pre-3"":1}","[0]","survey-likert","175","1265267","0.0-175.0","w3d8abn1","","","","","",""
"5923.735000000102","{""post-5"":0}","[0]","survey-likert","176","1271192","0.0-176.0","w3d8abn1","","","","","",""
"","","","call-function","177","1271193","0.0-177.0","w3d8abn1","","","","","",""
"null","","","video-keyboard-response","178","1274260","0.0-178.0","w3d8abn1","","","","null","Agent A","STIM_SET_1_REAL/713513.bmp_pp62_L2_V1.0_veridical_freeview_isoFalse_fps144.mp4"
"","","","call-function","179","1274260","0.0-179.0","w3d8abn1","","","","","",""
"8030.574999999953","{""pre-1"":2}","[0]","survey-likert","180","1282292","0.0-180.0","w3d8abn1","","","","","",""
"8052.800000000047","{""pre-2"":0}","[0]","survey-likert","181","1290346","0.0-181.0","w3d8abn1","","","","","",""
"2525.725000000093","{""pre-3"":0}","[0]","survey-likert","182","1292873","0.0-182.0","w3d8abn1","","","","","",""
"5197.345000000205","{""post-5"":1}","[0]","survey-likert","183","1298071","0.0-183.0","w3d8abn1","","","","","",""
"","","","call-function","184","1298072","0.0-184.0","w3d8abn1","","","","","",""
"null","","","video-keyboard-response","185","1301147","0.0-185.0","w3d8abn1","","","","null","Agent A","STIM_SET_1_REAL/713707.bmp_pp154_L1_V1.0_veridical_freeview_isoFalse_fps144.mp4"
"","","","call-function","186","1301147","0.0-186.0","w3d8abn1","","","","","",""
"3795.6299999998882","{""pre-1"":2}","[0]","survey-likert","187","1304944","0.0-187.0","w3d8abn1","","","","","",""
"4369.889999999898","{""pre-2"":2}","[0]","survey-likert","188","1309315","0.0-188.0","w3d8abn1","","","","","",""
"2687.034999999916","{""pre-3"":1}","[0]","survey-likert","189","1312003","0.0-189.0","w3d8abn1","","","","","",""
"3530.125","{""post-5"":1}","[0]","survey-likert","190","1315534","0.0-190.0","w3d8abn1","","","","","",""
"","","","call-function","191","1315534","0.0-191.0","w3d8abn1","","","","","",""
"null","","","video-keyboard-response","192","1318609","0.0-192.0","w3d8abn1","","","","null","Agent A","STIM_SET_1_REAL/1159675.bmp_pp77_L3_V1.0_scrambled_freeview_isoFalse_fps144.mp4"
"","","","call-function","193","1318610","0.0-193.0","w3d8abn1","","","","","",""
"4828.364999999991","{""pre-1"":1}","[0]","survey-likert","194","1323439","0.0-194.0","w3d8abn1","","","","","",""
"15158.710000000196","{""pre-2"":0}","[0]","survey-likert","195","1338600","0.0-195.0","w3d8abn1","","","","","",""
"4699.889999999898","{""pre-3"":0}","[0]","survey-likert","196","1343302","0.0-196.0","w3d8abn1","","","","","",""
"5480.635000000009","{""post-5"":1}","[0]","survey-likert","197","1348784","0.0-197.0","w3d8abn1","","","","","",""
"","","","call-function","198","1348785","0.0-198.0","w3d8abn1","","","","","",""
"null","","","video-keyboard-response","199","1351865","0.0-199.0","w3d8abn1","","","","null","Agent A","STIM_SET_1_REAL/1593041.bmp_pp58_L1_V1.0_scrambled_freeview_isoFalse_fps144.mp4"
"","","","call-function","200","1351866","0.0-200.0","w3d8abn1","","","","","",""
"8793.645000000019","{""pre-1"":2}","[0]","survey-likert","201","1360661","0.0-201.0","w3d8abn1","","","","","",""
"1810.219999999972","{""pre-2"":2}","[0]","survey-likert","202","1362472","0.0-202.0","w3d8abn1","","","","","",""
"2774.1099999998696","{""pre-3"":2}","[0]","survey-likert","203","1365248","0.0-203.0","w3d8abn1","","","","","",""
"4899.2050000000745","{""post-5"":1}","[0]","survey-likert","204","1370148","0.0-204.0","w3d8abn1","","","","","",""
"","","","call-function","205","1370149","0.0-205.0","w3d8abn1","","","","","",""
"null","","","video-keyboard-response","206","1373212","0.0-206.0","w3d8abn1","","","","null","Agent A","STIM_SET_1_REAL/1593035.bmp_pp94_L2_V1.0_veridical_freeview_isoFalse_fps144.mp4"
"","","","call-function","207","1373212","0.0-207.0","w3d8abn1","","","","","",""
"8406.73999999999","{""pre-1"":2}","[0]","survey-likert","208","1381620","0.0-208.0","w3d8abn1","","","","","",""
"5473.165000000037","{""pre-2"":0}","[0]","survey-likert","209","1387094","0.0-209.0","w3d8abn1","","","","","",""
"5822.655000000028","{""pre-3"":0}","[0]","survey-likert","210","1392918","0.0-210.0","w3d8abn1","","","","","",""
"4462.104999999981","{""post-5"":2}","[0]","survey-likert","211","1397381","0.0-211.0","w3d8abn1","","","","","",""
"","","","call-function","212","1397382","0.0-212.0","w3d8abn1","","","","","",""
"null","","","video-keyboard-response","213","1400451","0.0-213.0","w3d8abn1","","","","null","Agent A","STIM_SET_1_REAL/1159829.bmp_pp91_L3_V1.0_veridical_freeview_isoFalse_fps144.mp4"
"","","","call-function","214","1400451","0.0-214.0","w3d8abn1","","","","","",""
"3263.9150000000373","{""pre-1"":1}","[0]","survey-likert","215","1403716","0.0-215.0","w3d8abn1","","","","","",""
"3609.8349999999627","{""pre-2"":1}","[0]","survey-likert","216","1407327","0.0-216.0","w3d8abn1","","","","","",""
"7315.51500000013","{""pre-3"":0}","[0]","survey-likert","217","1414644","0.0-217.0","w3d8abn1","","","","","",""
"3620.5500000000466","{""post-5"":2}","[0]","survey-likert","218","1418267","0.0-218.0","w3d8abn1","","","","","",""
"","","","call-function","219","1418268","0.0-219.0","w3d8abn1","","","","","",""
"null","","","video-keyboard-response","220","1421331","0.0-220.0","w3d8abn1","","","","null","Agent A","STIM_SET_1_REAL/497950.bmp_pp151_L1_V1.0_veridical_freeview_isoFalse_fps144.mp4"
"","","","call-function","221","1421331","0.0-221.0","w3d8abn1","","","","","",""
"5400.85999999987","{""pre-1"":2}","[0]","survey-likert","222","1426733","0.0-222.0","w3d8abn1","","","","","",""
"13205.850000000093","{""pre-2"":1}","[0]","survey-likert","223","1439940","0.0-223.0","w3d8abn1","","","","","",""
"4277.979999999981","{""pre-3"":0}","[0]","survey-likert","224","1444219","0.0-224.0","w3d8abn1","","","","","",""
"10633.764999999898","{""post-5"":1}","[0]","survey-likert","225","1454854","0.0-225.0","w3d8abn1","","","","","",""
"","","","call-function","226","1454855","0.0-226.0","w3d8abn1","","","","","",""
"null","","","video-keyboard-response","227","1457914","0.0-227.0","w3d8abn1","","","","null","Agent A","STIM_SET_1_REAL/713403.bmp_pp80_L3_V1.0_veridical_freeview_isoFalse_fps144.mp4"
"","","","call-function","228","1457914","0.0-228.0","w3d8abn1","","","","","",""
"7196.1699999999255","{""pre-1"":1}","[0]","survey-likert","229","1465111","0.0-229.0","w3d8abn1","","","","","",""
"5149.739999999991","{""pre-2"":0}","[0]","survey-likert","230","1470262","0.0-230.0","w3d8abn1","","","","","",""
"6587.055000000168","{""pre-3"":0}","[0]","survey-likert","231","1476850","0.0-231.0","w3d8abn1","","","","","",""
"15796.409999999916","{""post-5"":0}","[0]","survey-likert","232","1492648","0.0-232.0","w3d8abn1","","","","","",""
"","","","call-function","233","1492650","0.0-233.0","w3d8abn1","","","","","",""
"null","","","video-keyboard-response","234","1495714","0.0-234.0","w3d8abn1","","","","null","Agent A","STIM_SET_1_REAL/713681.bmp_pp86_L2_V1.0_scrambled_freeview_isoFalse_fps144.mp4"
"","","","call-function","235","1495714","0.0-235.0","w3d8abn1","","","","","",""
"2525.2750000001397","{""pre-1"":2}","[0]","survey-likert","236","1498240","0.0-236.0","w3d8abn1","","","","","",""
"5384.7050000000745","{""pre-2"":2}","[0]","survey-likert","237","1503626","0.0-237.0","w3d8abn1","","","","","",""
"14797.465000000084","{""pre-3"":1}","[0]","survey-likert","238","1518425","0.0-238.0","w3d8abn1","","","","","",""
"14861.959999999963","{""post-5"":0}","[0]","survey-likert","239","1533288","0.0-239.0","w3d8abn1","","","","","",""
"","","","call-function","240","1533289","0.0-240.0","w3d8abn1","","","","","",""
"null","","","video-keyboard-response","241","1536350","0.0-241.0","w3d8abn1","","","","null","Agent A","STIM_SET_1_REAL/498149.bmp_pp99_L2_V1.0_veridical_freeview_isoFalse_fps144.mp4"
"","","","call-function","242","1536350","0.0-242.0","w3d8abn1","","","","","",""
"36302.81999999983","{""pre-1"":1}","[0]","survey-likert","243","1572655","0.0-243.0","w3d8abn1","","","","","",""
"2327.0150000001304","{""pre-2"":2}","[0]","survey-likert","244","1574983","0.0-244.0","w3d8abn1","","","","","",""
"19062.594999999972","{""pre-3"":0}","[0]","survey-likert","245","1594046","0.0-245.0","w3d8abn1","","","","","",""
"4935.959999999963","{""post-5"":1}","[0]","survey-likert","246","1598983","0.0-246.0","w3d8abn1","","","","","",""
"","","","call-function","247","1598984","0.0-247.0","w3d8abn1","","","","","",""
"null","","","video-keyboard-response","248","1602051","0.0-248.0","w3d8abn1","","","","null","Agent A","STIM_SET_1_REAL/713017.bmp_pp152_L2_V1.0_scrambled_freeview_isoFalse_fps144.mp4"
"","","","call-function","249","1602051","0.0-249.0","w3d8abn1","","","","","",""
"36612.534999999916","{""pre-1"":1}","[0]","survey-likert","250","1638666","0.0-250.0","w3d8abn1","","","","","",""
"2413.5149999998976","{""pre-2"":0}","[0]","survey-likert","251","1641081","0.0-251.0","w3d8abn1","","","","","",""
"1904.5500000000466","{""pre-3"":0}","[0]","survey-likert","252","1642987","0.0-252.0","w3d8abn1","","","","","",""
"3318.7950000001583","{""post-5"":2}","[0]","survey-likert","253","1646307","0.0-253.0","w3d8abn1","","","","","",""
"","","","call-function","254","1646308","0.0-254.0","w3d8abn1","","","","","",""
"null","","","video-keyboard-response","255","1649383","0.0-255.0","w3d8abn1","","","","null","Agent A","STIM_SET_1_REAL/498175.bmp_pp154_L1_V1.0_scrambled_freeview_isoFalse_fps144.mp4"
"","","","call-function","256","1649383","0.0-256.0","w3d8abn1","","","","","",""
"19740.165000000037","{""pre-1"":1}","[0]","survey-likert","257","1669125","0.0-257.0","w3d8abn1","","","","","",""
"1956.4150000000373","{""pre-2"":2}","[0]","survey-likert","258","1671082","0.0-258.0","w3d8abn1","","","","","",""
"1496.5049999998882","{""pre-3"":2}","[0]","survey-likert","259","1672580","0.0-259.0","w3d8abn1","","","","","",""
"4139.639999999898","{""post-5"":1}","[0]","survey-likert","260","1676721","0.0-260.0","w3d8abn1","","","","","",""
"","","","call-function","261","1676721","0.0-261.0","w3d8abn1","","","","","",""
"null","","","video-keyboard-response","262","1679781","0.0-262.0","w3d8abn1","","","","null","Agent A","STIM_SET_1_REAL/1159447.bmp_pp70_L2_V1.0_scrambled_freeview_isoFalse_fps144.mp4"
"","","","call-function","263","1679782","0.0-263.0","w3d8abn1","","","","","",""
"12442.020000000019","{""pre-1"":0}","[0]","survey-likert","264","1692225","0.0-264.0","w3d8abn1","","","","","",""
"2285.965000000084","{""pre-2"":2}","[0]","survey-likert","265","1694512","0.0-265.0","w3d8abn1","","","","","",""
"2066.445000000065","{""pre-3"":2}","[0]","survey-likert","266","1696579","0.0-266.0","w3d8abn1","","","","","",""
"16784.074999999953","{""post-5"":0}","[0]","survey-likert","267","1713364","0.0-267.0","w3d8abn1","","","","","",""
"","","","call-function","268","1713365","0.0-268.0","w3d8abn1","","","","","",""
"null","","","video-keyboard-response","269","1716438","0.0-269.0","w3d8abn1","","","","null","Agent A","STIM_SET_1_REAL/713371.bmp_pp68_L1_V1.0_scrambled_freeview_isoFalse_fps144.mp4"
"","","","call-function","270","1716438","0.0-270.0","w3d8abn1","","","","","",""
"21775.83999999985","{""pre-1"":1}","[0]","survey-likert","271","1738216","0.0-271.0","w3d8abn1","","","","","",""
"5217.040000000037","{""pre-2"":2}","[0]","survey-likert","272","1743435","0.0-272.0","w3d8abn1","","","","","",""
"1840.5999999998603","{""pre-3"":2}","[0]","survey-likert","273","1745277","0.0-273.0","w3d8abn1","","","","","",""
"2234.195000000065","{""post-5"":1}","[0]","survey-likert","274","1747513","0.0-274.0","w3d8abn1","","","","","",""
"","","","call-function","275","1747514","0.0-275.0","w3d8abn1","","","","","",""
"null","","","video-keyboard-response","276","1750575","0.0-276.0","w3d8abn1","","","","null","Agent A","STIM_SET_1_REAL/713403.bmp_pp80_L3_V1.0_scrambled_freeview_isoFalse_fps144.mp4"
"","","","call-function","277","1750576","0.0-277.0","w3d8abn1","","","","","",""
"2427.6350000000093","{""pre-1"":0}","[0]","survey-likert","278","1753004","0.0-278.0","w3d8abn1","","","","","",""
"3645.75","{""pre-2"":0}","[0]","survey-likert","279","1756651","0.0-279.0","w3d8abn1","","","","","",""
"1785.8349999999627","{""pre-3"":0}","[0]","survey-likert","280","1758438","0.0-280.0","w3d8abn1","","","","","",""
"2849.0999999998603","{""post-5"":3}","[0]","survey-likert","281","1761288","0.0-281.0","w3d8abn1","","","","","",""
"","","","call-function","282","1761289","0.0-282.0","w3d8abn1","","","","","",""
"null","","","video-keyboard-response","283","1764363","0.0-283.0","w3d8abn1","","","","null","Agent A","STIM_SET_1_REAL/1159784.bmp_pp73_L3_V1.0_scrambled_freeview_isoFalse_fps144.mp4"
"","","","call-function","284","1764363","0.0-284.0","w3d8abn1","","","","","",""
"2523.8250000001863","{""pre-1"":1}","[0]","survey-likert","285","1766888","0.0-285.0","w3d8abn1","","","","","",""
"3253.9850000001024","{""pre-2"":1}","[0]","survey-likert","286","1770143","0.0-286.0","w3d8abn1","","","","","",""
"34045.63000000012","{""pre-3"":1}","[0]","survey-likert","287","1804190","0.0-287.0","w3d8abn1","","","","","",""
"3872.3349999999627","{""post-5"":2}","[0]","survey-likert","288","1808063","0.0-288.0","w3d8abn1","","","","","",""
"","","","call-function","289","1808064","0.0-289.0","w3d8abn1","","","","","",""
"null","","","video-keyboard-response","290","1811139","0.0-290.0","w3d8abn1","","","","null","Agent A","STIM_SET_1_REAL/61537.bmp_pp73_L3_V1.0_veridical_freeview_isoFalse_fps144.mp4"
"","","","call-function","291","1811139","0.0-291.0","w3d8abn1","","","","","",""
"3154.4899999999907","{""pre-1"":2}","[0]","survey-likert","292","1814295","0.0-292.0","w3d8abn1","","","","","",""
"2238.844999999972","{""pre-2"":1}","[0]","survey-likert","293","1816536","0.0-293.0","w3d8abn1","","","","","",""
"3016.230000000214","{""pre-3"":0}","[0]","survey-likert","294","1819554","0.0-294.0","w3d8abn1","","","","","",""
"6732.514999999898","{""post-5"":1}","[0]","survey-likert","295","1826288","0.0-295.0","w3d8abn1","","","","","",""
"","","","call-function","296","1826288","0.0-296.0","w3d8abn1","","","","","",""
"null","","","video-keyboard-response","297","1829359","0.0-297.0","w3d8abn1","","","","null","Agent A","STIM_SET_1_REAL/713135.bmp_pp54_L2_V1.0_veridical_freeview_isoFalse_fps144.mp4"
"","","","call-function","298","1829359","0.0-298.0","w3d8abn1","","","","","",""
"4658.689999999944","{""pre-1"":2}","[0]","survey-likert","299","1834019","0.0-299.0","w3d8abn1","","","","","",""
"3966.8950000000186","{""pre-2"":1}","[0]","survey-likert","300","1837987","0.0-300.0","w3d8abn1","","","","","",""
"2501.744999999879","{""pre-3"":0}","[0]","survey-likert","301","1840490","0.0-301.0","w3d8abn1","","","","","",""
"2341.409999999916","{""post-5"":2}","[0]","survey-likert","302","1842833","0.0-302.0","w3d8abn1","","","","","",""
"3060.5100000000093","","","instructions","303","1845894","0.0-303.0","w3d8abn1","[{""page_index"":0,""viewing_time"":876.2299999999814},{""page_index"":1,""viewing_time"":1362.1299999998882},{""page_index"":2,""viewing_time"":821.9200000001583}]","","","","",""
"4674.405000000028","","","instructions","304","1850569","0.0-304.0","w3d8abn1","[{""page_index"":0,""viewing_time"":930.4299999999348},{""page_index"":1,""viewing_time"":1679.8950000000186},{""page_index"":2,""viewing_time"":2063.9599999999627}]","","","","",""
"","","","call-function","305","1850569","0.0-305.0","w3d8abn1","","","","","",""
"null","","","video-keyboard-response","306","1853629","0.0-306.0","w3d8abn1","","","","null","Agent A","STIM_SET_1_REAL/1592890.bmp_pp82_L2_V1.0_scrambled_freeview_isoFalse_fps144.mp4"
"","","","call-function","307","1853630","0.0-307.0","w3d8abn1","","","","","",""
"4167.005000000121","{""pre-1"":2}","[0]","survey-likert","308","1857798","0.0-308.0","w3d8abn1","","","","","",""
"1847.9450000000652","{""pre-2"":2}","[0]","survey-likert","309","1859647","0.0-309.0","w3d8abn1","","","","","",""
"3456.0749999999534","{""pre-3"":1}","[0]","survey-likert","310","1863104","0.0-310.0","w3d8abn1","","","","","",""
"1910.8999999999069","{""post-5"":0}","[0]","survey-likert","311","1865016","0.0-311.0","w3d8abn1","","","","","",""
"","","","call-function","312","1865016","0.0-312.0","w3d8abn1","","","","","",""
"null","","","video-keyboard-response","313","1868081","0.0-313.0","w3d8abn1","","","","null","Agent A","STIM_SET_1_REAL/1159621.bmp_pp92_L3_V1.0_scrambled_freeview_isoFalse_fps144.mp4"
"","","","call-function","314","1868083","0.0-314.0","w3d8abn1","","","","","",""
"2256.8000000000466","{""pre-1"":1}","[0]","survey-likert","315","1870341","0.0-315.0","w3d8abn1","","","","","",""
"3756.8899999998976","{""pre-2"":0}","[0]","survey-likert","316","1874099","0.0-316.0","w3d8abn1","","","","","",""
"2059.090000000084","{""pre-3"":0}","[0]","survey-likert","317","1876159","0.0-317.0","w3d8abn1","","","","","",""
"2557.064999999944","{""post-5"":3}","[0]","survey-likert","318","1878718","0.0-318.0","w3d8abn1","","","","","",""
"","","","call-function","319","1878718","0.0-319.0","w3d8abn1","","","","","",""
"null","","","video-keyboard-response","320","1881795","0.0-320.0","w3d8abn1","","","","null","Agent A","STIM_SET_1_REAL/713593.bmp_pp64_L1_V1.0_veridical_freeview_isoFalse_fps144.mp4"
"","","","call-function","321","1881795","0.0-321.0","w3d8abn1","","","","","",""
"4805.079999999842","{""pre-1"":2}","[0]","survey-likert","322","1886601","0.0-322.0","w3d8abn1","","","","","",""
"2624.1149999999907","{""pre-2"":2}","[0]","survey-likert","323","1889227","0.0-323.0","w3d8abn1","","","","","",""
"3719.070000000065","{""pre-3"":1}","[0]","survey-likert","324","1892947","0.0-324.0","w3d8abn1","","","","","",""
"3187.0800000000745","{""post-5"":0}","[0]","survey-likert","325","1896135","0.0-325.0","w3d8abn1","","","","","",""
"","","","call-function","326","1896136","0.0-326.0","w3d8abn1","","","","","",""
"null","","","video-keyboard-response","327","1899195","0.0-327.0","w3d8abn1","","","","null","Agent A","STIM_SET_1_REAL/1159447.bmp_pp70_L2_V1.0_veridical_freeview_isoFalse_fps144.mp4"
"","","","call-function","328","1899195","0.0-328.0","w3d8abn1","","","","","",""
"3976.8249999999534","{""pre-1"":3}","[0]","survey-likert","329","1903173","0.0-329.0","w3d8abn1","","","","","",""
"2940.1099999998696","{""pre-2"":3}","[0]","survey-likert","330","1906115","0.0-330.0","w3d8abn1","","","","","",""
"1985.5","{""pre-3"":3}","[0]","survey-likert","331","1908101","0.0-331.0","w3d8abn1","","","","","",""
"1942.1499999999069","{""post-5"":0}","[0]","survey-likert","332","1910044","0.0-332.0","w3d8abn1","","","","","",""
"","","","call-function","333","1910045","0.0-333.0","w3d8abn1","","","","","",""
"null","","","video-keyboard-response","334","1913119","0.0-334.0","w3d8abn1","","","","null","Agent A","STIM_SET_1_REAL/713593.bmp_pp64_L1_V1.0_scrambled_freeview_isoFalse_fps144.mp4"
"","","","call-function","335","1913119","0.0-335.0","w3d8abn1","","","","","",""
"4461.930000000168","{""pre-1"":0}","[0]","survey-likert","336","1917582","0.0-336.0","w3d8abn1","","","","","",""
"4785.754999999888","{""pre-2"":0}","[0]","survey-likert","337","1922369","0.0-337.0","w3d8abn1","","","","","",""
"1512.589999999851","{""pre-3"":0}","[0]","survey-likert","338","1923884","0.0-338.0","w3d8abn1","","","","","",""
"2928.2350000001024","{""post-5"":3}","[0]","survey-likert","339","1926814","0.0-339.0","w3d8abn1","","","","","",""
"","","","call-function","340","1926815","0.0-340.0","w3d8abn1","","","","","",""
"null","","","video-keyboard-response","341","1929876","0.0-341.0","w3d8abn1","","","","null","Agent A","STIM_SET_1_REAL/1592619.bmp_pp56_L3_V1.0_scrambled_freeview_isoFalse_fps144.mp4"
"","","","call-function","342","1929876","0.0-342.0","w3d8abn1","","","","","",""
"3464.225000000093","{""pre-1"":1}","[0]","survey-likert","343","1933341","0.0-343.0","w3d8abn1","","","","","",""
"7713.479999999981","{""pre-2"":1}","[0]","survey-likert","344","1941056","0.0-344.0","w3d8abn1","","","","","",""
"4621.090000000084","{""pre-3"":0}","[0]","survey-likert","345","1945678","0.0-345.0","w3d8abn1","","","","","",""
"2164.7950000001583","{""post-5"":2}","[0]","survey-likert","346","1947844","0.0-346.0","w3d8abn1","","","","","",""
"","","","call-function","347","1947845","0.0-347.0","w3d8abn1","","","","","",""
"null","","","video-keyboard-response","348","1950921","0.0-348.0","w3d8abn1","","","","null","Agent A","STIM_SET_1_REAL/713620.bmp_pp65_L3_V1.0_scrambled_freeview_isoFalse_fps144.mp4"
"","","","call-function","349","1950922","0.0-349.0","w3d8abn1","","","","","",""
"5048.454999999842","{""pre-1"":2}","[0]","survey-likert","350","1955971","0.0-350.0","w3d8abn1","","","","","",""
"4445.98499999987","{""pre-2"":1}","[0]","survey-likert","351","1960418","0.0-351.0","w3d8abn1","","","","","",""
"4820.329999999842","{""pre-3"":0}","[0]","survey-likert","352","1965240","0.0-352.0","w3d8abn1","","","","","",""
"4196.02500000014","{""post-5"":2}","[0]","survey-likert","353","1969437","0.0-353.0","w3d8abn1","","","","","",""
"","","","call-function","354","1969437","0.0-354.0","w3d8abn1","","","","","",""
"null","","","video-keyboard-response","355","1972513","0.0-355.0","w3d8abn1","","","","null","Agent A","STIM_SET_1_REAL/1159855.bmp_pp99_L2_V1.0_veridical_freeview_isoFalse_fps144.mp4"
"","","","call-function","356","1972515","0.0-356.0","w3d8abn1","","","","","",""
"4514.369999999879","{""pre-1"":2}","[0]","survey-likert","357","1977031","0.0-357.0","w3d8abn1","","","","","",""
"1987.8349999999627","{""pre-2"":2}","[0]","survey-likert","358","1979020","0.0-358.0","w3d8abn1","","","","","",""
"2742.214999999851","{""pre-3"":0}","[0]","survey-likert","359","1981763","0.0-359.0","w3d8abn1","","","","","",""
"3592.5500000000466","{""post-5"":1}","[0]","survey-likert","360","1985357","0.0-360.0","w3d8abn1","","","","","",""
"","","","call-function","361","1985358","0.0-361.0","w3d8abn1","","","","","",""
"null","","","video-keyboard-response","362","1988434","0.0-362.0","w3d8abn1","","","","null","Agent A","STIM_SET_1_REAL/713760.bmp_pp81_L1_V1.0_scrambled_freeview_isoFalse_fps144.mp4"
"","","","call-function","363","1988434","0.0-363.0","w3d8abn1","","","","","",""
"2448.8199999998324","{""pre-1"":1}","[0]","survey-likert","364","1990884","0.0-364.0","w3d8abn1","","","","","",""
"2924.094999999972","{""pre-2"":0}","[0]","survey-likert","365","1993810","0.0-365.0","w3d8abn1","","","","","",""
"3291.3650000002235","{""pre-3"":0}","[0]","survey-likert","366","1997102","0.0-366.0","w3d8abn1","","","","","",""
"1519.2649999998976","{""post-5"":2}","[0]","survey-likert","367","1998623","0.0-367.0","w3d8abn1","","","","","",""
"","","","call-function","368","1998623","0.0-368.0","w3d8abn1","","","","","",""
"null","","","video-keyboard-response","369","2001700","0.0-369.0","w3d8abn1","","","","null","Agent A","STIM_SET_1_REAL/713760.bmp_pp81_L1_V1.0_veridical_freeview_isoFalse_fps144.mp4"
"","","","call-function","370","2001701","0.0-370.0","w3d8abn1","","","","","",""
"3566.339999999851","{""pre-1"":2}","[0]","survey-likert","371","2005268","0.0-371.0","w3d8abn1","","","","","",""
"2502.1999999999534","{""pre-2"":2}","[0]","survey-likert","372","2007771","0.0-372.0","w3d8abn1","","","","","",""
"1706.964999999851","{""pre-3"":1}","[0]","survey-likert","373","2009479","0.0-373.0","w3d8abn1","","","","","",""
"2712.844999999972","{""post-5"":1}","[0]","survey-likert","374","2012193","0.0-374.0","w3d8abn1","","","","","",""
"","","","call-function","375","2012194","0.0-375.0","w3d8abn1","","","","","",""
"null","","","video-keyboard-response","376","2015267","0.0-376.0","w3d8abn1","","","","null","Agent A","STIM_SET_1_REAL/713749.bmp_pp88_L2_V1.0_scrambled_freeview_isoFalse_fps144.mp4"
"","","","call-function","377","2015267","0.0-377.0","w3d8abn1","","","","","",""
"3002.969999999972","{""pre-1"":0}","[0]","survey-likert","378","2018271","0.0-378.0","w3d8abn1","","","","","",""
"8524.439999999944","{""pre-2"":1}","[0]","survey-likert","379","2026797","0.0-379.0","w3d8abn1","","","","","",""
"5138.464999999851","{""pre-3"":0}","[0]","survey-likert","380","2031938","0.0-380.0","w3d8abn1","","","","","",""
"3381.285000000149","{""post-5"":3}","[0]","survey-likert","381","2035321","0.0-381.0","w3d8abn1","","","","","",""
"","","","call-function","382","2035321","0.0-382.0","w3d8abn1","","","","","",""
"null","","","video-keyboard-response","383","2038382","0.0-383.0","w3d8abn1","","","","null","Agent A","STIM_SET_1_REAL/713089.bmp_pp60_L3_V1.0_scrambled_freeview_isoFalse_fps144.mp4"
"","","","call-function","384","2038382","0.0-384.0","w3d8abn1","","","","","",""
"4347.300000000047","{""pre-1"":2}","[0]","survey-likert","385","2042731","0.0-385.0","w3d8abn1","","","","","",""
"1791.0549999999348","{""pre-2"":1}","[0]","survey-likert","386","2044523","0.0-386.0","w3d8abn1","","","","","",""
"1854.619999999879","{""pre-3"":0}","[0]","survey-likert","387","2046378","0.0-387.0","w3d8abn1","","","","","",""
"3637.1700000001583","{""post-5"":1}","[0]","survey-likert","388","2050017","0.0-388.0","w3d8abn1","","","","","",""
"","","","call-function","389","2050017","0.0-389.0","w3d8abn1","","","","","",""
"null","","","video-keyboard-response","390","2053088","0.0-390.0","w3d8abn1","","","","null","Agent A","STIM_SET_1_REAL/1592934.bmp_pp63_L1_V1.0_veridical_freeview_isoFalse_fps144.mp4"
"","","","call-function","391","2053088","0.0-391.0","w3d8abn1","","","","","",""
"2602.469999999972","{""pre-1"":2}","[0]","survey-likert","392","2055692","0.0-392.0","w3d8abn1","","","","","",""
"1081.6500000001397","{""pre-2"":2}","[0]","survey-likert","393","2056775","0.0-393.0","w3d8abn1","","","","","",""
"1614.4549999998417","{""pre-3"":1}","[0]","survey-likert","394","2058390","0.0-394.0","w3d8abn1","","","","","",""
"1288.9399999999441","{""post-5"":0}","[0]","survey-likert","395","2059680","0.0-395.0","w3d8abn1","","","","","",""
"","","","call-function","396","2059681","0.0-396.0","w3d8abn1","","","","","",""
"null","","","video-keyboard-response","397","2062772","0.0-397.0","w3d8abn1","","","","null","Agent A","STIM_SET_1_REAL/1159813.bmp_pp79_L2_V1.0_veridical_freeview_isoFalse_fps144.mp4"
"","","","call-function","398","2062772","0.0-398.0","w3d8abn1","","","","","",""
"5982.25","{""pre-1"":1}","[0]","survey-likert","399","2068755","0.0-399.0","w3d8abn1","","","","","",""
"3029.905000000028","{""pre-2"":2}","[0]","survey-likert","400","2071786","0.0-400.0","w3d8abn1","","","","","",""
"1804.0150000001304","{""pre-3"":3}","[0]","survey-likert","401","2073591","0.0-401.0","w3d8abn1","","","","","",""
"4731.8300000000745","{""post-5"":0}","[0]","survey-likert","402","2078325","0.0-402.0","w3d8abn1","","","","","",""
"","","","call-function","403","2078326","0.0-403.0","w3d8abn1","","","","","",""
"null","","","video-keyboard-response","404","2081389","0.0-404.0","w3d8abn1","","","","null","Agent A","STIM_SET_1_REAL/713681.bmp_pp86_L2_V1.0_veridical_freeview_isoFalse_fps144.mp4"
"","","","call-function","405","2081389","0.0-405.0","w3d8abn1","","","","","",""
"5208.14000000013","{""pre-1"":1}","[0]","survey-likert","406","2086599","0.0-406.0","w3d8abn1","","","","","",""
"2753.2949999999255","{""pre-2"":2}","[0]","survey-likert","407","2089354","0.0-407.0","w3d8abn1","","","","","",""
"3361.564999999944","{""pre-3"":1}","[0]","survey-likert","408","2092716","0.0-408.0","w3d8abn1","","","","","",""
"4647.675000000047","{""post-5"":0}","[0]","survey-likert","409","2097365","0.0-409.0","w3d8abn1","","","","","",""
"","","","call-function","410","2097366","0.0-410.0","w3d8abn1","","","","","",""
"null","","","video-keyboard-response","411","2100435","0.0-411.0","w3d8abn1","","","","null","Agent A","STIM_SET_1_REAL/1592934.bmp_pp63_L1_V1.0_scrambled_freeview_isoFalse_fps144.mp4"
"","","","call-function","412","2100436","0.0-412.0","w3d8abn1","","","","","",""
"4354.9199999999255","{""pre-1"":1}","[0]","survey-likert","413","2104792","0.0-413.0","w3d8abn1","","","","","",""
"3390.589999999851","{""pre-2"":1}","[0]","survey-likert","414","2108183","0.0-414.0","w3d8abn1","","","","","",""
"2830.225000000093","{""pre-3"":0}","[0]","survey-likert","415","2111015","0.0-415.0","w3d8abn1","","","","","",""
"2332.554999999702","{""post-5"":2}","[0]","survey-likert","416","2113348","0.0-416.0","w3d8abn1","","","","","",""
"","","","call-function","417","2113349","0.0-417.0","w3d8abn1","","","","","",""
"null","","","video-keyboard-response","418","2116422","0.0-418.0","w3d8abn1","","","","null","Agent A","STIM_SET_1_REAL/1159777.bmp_pp77_L3_V1.0_scrambled_freeview_isoFalse_fps144.mp4"
"","","","call-function","419","2116422","0.0-419.0","w3d8abn1","","","","","",""
"3954.380000000354","{""pre-1"":2}","[0]","survey-likert","420","2120377","0.0-420.0","w3d8abn1","","","","","",""
"4651.354999999981","{""pre-2"":1}","[0]","survey-likert","421","2125030","0.0-421.0","w3d8abn1","","","","","",""
"2073.7700000000186","{""pre-3"":0}","[0]","survey-likert","422","2127105","0.0-422.0","w3d8abn1","","","","","",""
"3756.239999999758","{""post-5"":1}","[0]","survey-likert","423","2130863","0.0-423.0","w3d8abn1","","","","","",""
"","","","call-function","424","2130864","0.0-424.0","w3d8abn1","","","","","",""
"null","","","video-keyboard-response","425","2133933","0.0-425.0","w3d8abn1","","","","null","Agent A","STIM_SET_1_REAL/1159829.bmp_pp91_L3_V1.0_scrambled_freeview_isoFalse_fps144.mp4"
"","","","call-function","426","2133934","0.0-426.0","w3d8abn1","","","","","",""
"3348.7999999998137","{""pre-1"":0}","[0]","survey-likert","427","2137284","0.0-427.0","w3d8abn1","","","","","",""
"9088.90500000026","{""pre-2"":1}","[0]","survey-likert","428","2146374","0.0-428.0","w3d8abn1","","","","","",""
"3820.8650000002235","{""pre-3"":0}","[0]","survey-likert","429","2150197","0.0-429.0","w3d8abn1","","","","","",""
"3008.954999999609","{""post-5"":2}","[0]","survey-likert","430","2153207","0.0-430.0","w3d8abn1","","","","","",""
"","","","call-function","431","2153207","0.0-431.0","w3d8abn1","","","","","",""
"null","","","video-keyboard-response","432","2156274","0.0-432.0","w3d8abn1","","","","null","Agent A","STIM_SET_1_REAL/1592397.bmp_pp85_L3_V1.0_scrambled_freeview_isoFalse_fps144.mp4"
"","","","call-function","433","2156275","0.0-433.0","w3d8abn1","","","","","",""
"4553.745000000112","{""pre-1"":2}","[0]","survey-likert","434","2160830","0.0-434.0","w3d8abn1","","","","","",""
"1646.470000000205","{""pre-2"":2}","[0]","survey-likert","435","2162478","0.0-435.0","w3d8abn1","","","","","",""
"2738.9199999999255","{""pre-3"":2}","[0]","survey-likert","436","2165218","0.0-436.0","w3d8abn1","","","","","",""
"1828.9900000002235","{""post-5"":0}","[0]","survey-likert","437","2167048","0.0-437.0","w3d8abn1","","","","","",""
"","","","call-function","438","2167048","0.0-438.0","w3d8abn1","","","","","",""
"null","","","video-keyboard-response","439","2170116","0.0-439.0","w3d8abn1","","","","null","Agent A","STIM_SET_1_REAL/1159440.bmp_pp98_L1_V1.0_scrambled_freeview_isoFalse_fps144.mp4"
"","","","call-function","440","2170117","0.0-440.0","w3d8abn1","","","","","",""
"3018.480000000447","{""pre-1"":0}","[0]","survey-likert","441","2173137","0.0-441.0","w3d8abn1","","","","","",""
"2460.9199999999255","{""pre-2"":0}","[0]","survey-likert","442","2175599","0.0-442.0","w3d8abn1","","","","","",""
"1717.5300000002608","{""pre-3"":0}","[0]","survey-likert","443","2177318","0.0-443.0","w3d8abn1","","","","","",""
"2405.2849999996834","{""post-5"":3}","[0]","survey-likert","444","2179724","0.0-444.0","w3d8abn1","","","","","",""
"2348.2900000000373","","","instructions","445","2182073","0.0-445.0","w3d8abn1","[{""page_index"":0,""viewing_time"":1051.7549999998882},{""page_index"":1,""viewing_time"":866.0600000000559},{""page_index"":2,""viewing_time"":429.8900000001304}]","","","","",""
"1718.7749999999069","","","instructions","446","2183793","0.0-446.0","w3d8abn1","[{""page_index"":0,""viewing_time"":417.160000000149},{""page_index"":1,""viewing_time"":619.625},{""page_index"":2,""viewing_time"":681.8899999996647}]","","","","",""
"","","","call-function","447","2183794","0.0-447.0","w3d8abn1","","","","","",""
"null","","","video-keyboard-response","448","2186875","0.0-448.0","w3d8abn1","","","","null","Agent A","STIM_SET_1_REAL/1591954.bmp_pp62_L2_V1.0_scrambled_freeview_isoFalse_fps144.mp4"
"","","","call-function","449","2186875","0.0-449.0","w3d8abn1","","","","","",""
"2070.125","{""pre-1"":1}","[0]","survey-likert","450","2188946","0.0-450.0","w3d8abn1","","","","","",""
"5247.594999999739","{""pre-2"":1}","[0]","survey-likert","451","2194195","0.0-451.0","w3d8abn1","","","","","",""
"5270.600000000093","{""pre-3"":0}","[0]","survey-likert","452","2199467","0.0-452.0","w3d8abn1","","","","","",""
"4335.569999999832","{""post-5"":1}","[0]","survey-likert","453","2203804","0.0-453.0","w3d8abn1","","","","","",""
"","","","call-function","454","2203804","0.0-454.0","w3d8abn1","","","","","",""
"null","","","video-keyboard-response","455","2206871","0.0-455.0","w3d8abn1","","","","null","Agent A","STIM_SET_1_REAL/285933.bmp_pp81_L1_V1.0_veridical_freeview_isoFalse_fps144.mp4"
"","","","call-function","456","2206872","0.0-456.0","w3d8abn1","","","","","",""
"3659.685000000056","{""pre-1"":2}","[0]","survey-likert","457","2210533","0.0-457.0","w3d8abn1","","","","","",""
"3293.420000000391","{""pre-2"":2}","[0]","survey-likert","458","2213827","0.0-458.0","w3d8abn1","","","","","",""
"3949.2650000001304","{""pre-3"":0}","[0]","survey-likert","459","2217778","0.0-459.0","w3d8abn1","","","","","",""
"3029.279999999795","{""post-5"":1}","[0]","survey-likert","460","2220808","0.0-460.0","w3d8abn1","","","","","",""
"","","","call-function","461","2220808","0.0-461.0","w3d8abn1","","","","","",""
"null","","","video-keyboard-response","462","2223882","0.0-462.0","w3d8abn1","","","","null","Agent A","STIM_SET_1_REAL/713666.bmp_pp97_L3_V1.0_veridical_freeview_isoFalse_fps144.mp4"
"","","","call-function","463","2223882","0.0-463.0","w3d8abn1","","","","","",""
"8053.594999999739","{""pre-1"":2}","[0]","survey-likert","464","2231937","0.0-464.0","w3d8abn1","","","","","",""
"2914.9699999997392","{""pre-2"":2}","[0]","survey-likert","465","2234853","0.0-465.0","w3d8abn1","","","","","",""
"2141.489999999758","{""pre-3"":0}","[0]","survey-likert","466","2236996","0.0-466.0","w3d8abn1","","","","","",""
"4167.494999999646","{""post-5"":1}","[0]","survey-likert","467","2241166","0.0-467.0","w3d8abn1","","","","","",""
"","","","call-function","468","2241167","0.0-468.0","w3d8abn1","","","","","",""
"null","","","video-keyboard-response","469","2244238","0.0-469.0","w3d8abn1","","","","null","Agent A","STIM_SET_1_REAL/1160168.bmp_pp53_L2_V1.0_veridical_freeview_isoFalse_fps144.mp4"
"","","","call-function","470","2244239","0.0-470.0","w3d8abn1","","","","","",""
"2416.5150000001304","{""pre-1"":2}","[0]","survey-likert","471","2246657","0.0-471.0","w3d8abn1","","","","","",""
"3350.7949999999255","{""pre-2"":2}","[0]","survey-likert","472","2250009","0.0-472.0","w3d8abn1","","","","","",""
"1378.5150000001304","{""pre-3"":1}","[0]","survey-likert","473","2251389","0.0-473.0","w3d8abn1","","","","","",""
"3651.774999999907","{""post-5"":1}","[0]","survey-likert","474","2255042","0.0-474.0","w3d8abn1","","","","","",""
"","","","call-function","475","2255042","0.0-475.0","w3d8abn1","","","","","",""
"null","","","video-keyboard-response","476","2258104","0.0-476.0","w3d8abn1","","","","null","Agent A","STIM_SET_1_REAL/1592817.bmp_pp55_L3_V1.0_scrambled_freeview_isoFalse_fps144.mp4"
"","","","call-function","477","2258104","0.0-477.0","w3d8abn1","","","","","",""
"3196.589999999851","{""pre-1"":2}","[0]","survey-likert","478","2261302","0.0-478.0","w3d8abn1","","","","","",""
"7349.5099999997765","{""pre-2"":1}","[0]","survey-likert","479","2268653","0.0-479.0","w3d8abn1","","","","","",""
"2268.9250000002794","{""pre-3"":2}","[0]","survey-likert","480","2270923","0.0-480.0","w3d8abn1","","","","","",""
"2923.420000000391","{""post-5"":1}","[0]","survey-likert","481","2273847","0.0-481.0","w3d8abn1","","","","","",""
"","","","call-function","482","2273848","0.0-482.0","w3d8abn1","","","","","",""
"null","","","video-keyboard-response","483","2276916","0.0-483.0","w3d8abn1","","","","null","Agent A","STIM_SET_1_REAL/713513.bmp_pp62_L2_V1.0_scrambled_freeview_isoFalse_fps144.mp4"
"","","","call-function","484","2276916","0.0-484.0","w3d8abn1","","","","","",""
"3586.7999999998137","{""pre-1"":1}","[0]","survey-likert","485","2280504","0.0-485.0","w3d8abn1","","","","","",""
"2494.4950000001118","{""pre-2"":1}","[0]","survey-likert","486","2282999","0.0-486.0","w3d8abn1","","","","","",""
"3607.725000000093","{""pre-3"":0}","[0]","survey-likert","487","2286608","0.0-487.0","w3d8abn1","","","","","",""
"2084.0849999999627","{""post-5"":2}","[0]","survey-likert","488","2288693","0.0-488.0","w3d8abn1","","","","","",""
"","","","call-function","489","2288694","0.0-489.0","w3d8abn1","","","","","",""
"null","","","video-keyboard-response","490","2291765","0.0-490.0","w3d8abn1","","","","null","Agent A","STIM_SET_1_REAL/713017.bmp_pp152_L2_V1.0_veridical_freeview_isoFalse_fps144.mp4"
"","","","call-function","491","2291766","0.0-491.0","w3d8abn1","","","","","",""
"2462.8900000001304","{""pre-1"":2}","[0]","survey-likert","492","2294230","0.0-492.0","w3d8abn1","","","","","",""
"3713.345000000205","{""pre-2"":2}","[0]","survey-likert","493","2297945","0.0-493.0","w3d8abn1","","","","","",""
"2867.1699999999255","{""pre-3"":2}","[0]","survey-likert","494","2300813","0.0-494.0","w3d8abn1","","","","","",""
"3828.1099999998696","{""post-5"":0}","[0]","survey-likert","495","2304643","0.0-495.0","w3d8abn1","","","","","",""
"","","","call-function","496","2304643","0.0-496.0","w3d8abn1","","","","","",""
"null","","","video-keyboard-response","497","2307714","0.0-497.0","w3d8abn1","","","","null","Agent A","STIM_SET_1_REAL/713135.bmp_pp54_L2_V1.0_scrambled_freeview_isoFalse_fps144.mp4"
"","","","call-function","498","2307715","0.0-498.0","w3d8abn1","","","","","",""
"3730.125","{""pre-1"":0}","[0]","survey-likert","499","2311446","0.0-499.0","w3d8abn1","","","","","",""
"6672.149999999907","{""pre-2"":1}","[0]","survey-likert","500","2318119","0.0-500.0","w3d8abn1","","","","","",""
"6249.114999999758","{""pre-3"":0}","[0]","survey-likert","501","2324370","0.0-501.0","w3d8abn1","","","","","",""
"2904.9499999997206","{""post-5"":2}","[0]","survey-likert","502","2327276","0.0-502.0","w3d8abn1","","","","","",""
"","","","call-function","503","2327276","0.0-503.0","w3d8abn1","","","","","",""
"null","","","video-keyboard-response","504","2330338","0.0-504.0","w3d8abn1","","","","null","Agent A","STIM_SET_1_REAL/1159621.bmp_pp92_L3_V1.0_veridical_freeview_isoFalse_fps144.mp4"
"","","","call-function","505","2330339","0.0-505.0","w3d8abn1","","","","","",""
"1462.4050000002608","{""pre-1"":2}","[0]","survey-likert","506","2331802","0.0-506.0","w3d8abn1","","","","","",""
"9993.959999999963","{""pre-2"":2}","[0]","survey-likert","507","2341797","0.0-507.0","w3d8abn1","","","","","",""
"1522.595000000205","{""pre-3"":1}","[0]","survey-likert","508","2343321","0.0-508.0","w3d8abn1","","","","","",""
"3396.0550000001676","{""post-5"":1}","[0]","survey-likert","509","2346718","0.0-509.0","w3d8abn1","","","","","",""
"","","","call-function","510","2346719","0.0-510.0","w3d8abn1","","","","","",""
"null","","","video-keyboard-response","511","2349794","0.0-511.0","w3d8abn1","","","","null","Agent A","STIM_SET_1_REAL/1160127.bmp_pp90_L2_V1.0_veridical_freeview_isoFalse_fps144.mp4"
"","","","call-function","512","2349796","0.0-512.0","w3d8abn1","","","","","",""
"3885.4550000000745","{""pre-1"":2}","[0]","survey-likert","513","2353682","0.0-513.0","w3d8abn1","","","","","",""
"2218.7000000001863","{""pre-2"":2}","[0]","survey-likert","514","2355902","0.0-514.0","w3d8abn1","","","","","",""
"4603.5099999997765","{""pre-3"":0}","[0]","survey-likert","515","2360507","0.0-515.0","w3d8abn1","","","","","",""
"1718.4899999997579","{""post-5"":2}","[0]","survey-likert","516","2362227","0.0-516.0","w3d8abn1","","","","","",""
"","","","call-function","517","2362227","0.0-517.0","w3d8abn1","","","","","",""
"null","","","video-keyboard-response","518","2365289","0.0-518.0","w3d8abn1","","","","null","Agent A","STIM_SET_1_REAL/1592619.bmp_pp56_L3_V1.0_veridical_freeview_isoFalse_fps144.mp4"
"","","","call-function","519","2365290","0.0-519.0","w3d8abn1","","","","","",""
"4158.80999999959","{""pre-1"":1}","[0]","survey-likert","520","2369450","0.0-520.0","w3d8abn1","","","","","",""
"8015.520000000019","{""pre-2"":2}","[0]","survey-likert","521","2377467","0.0-521.0","w3d8abn1","","","","","",""
"3589.8799999998882","{""pre-3"":1}","[0]","survey-likert","522","2381058","0.0-522.0","w3d8abn1","","","","","",""
"4651.270000000019","{""post-5"":2}","[0]","survey-likert","523","2385710","0.0-523.0","w3d8abn1","","","","","",""
"","","","call-function","524","2385711","0.0-524.0","w3d8abn1","","","","","",""
"null","","","video-keyboard-response","525","2388772","0.0-525.0","w3d8abn1","","","","null","Agent A","STIM_SET_1_REAL/1159446.bmp_pp60_L3_V1.0_scrambled_freeview_isoFalse_fps144.mp4"
"","","","call-function","526","2388773","0.0-526.0","w3d8abn1","","","","","",""
"2979.7299999999814","{""pre-1"":2}","[0]","survey-likert","527","2391753","0.0-527.0","w3d8abn1","","","","","",""
"4279.350000000093","{""pre-2"":1}","[0]","survey-likert","528","2396034","0.0-528.0","w3d8abn1","","","","","",""
"2171.2949999999255","{""pre-3"":0}","[0]","survey-likert","529","2398206","0.0-529.0","w3d8abn1","","","","","",""
"4638.314999999944","{""post-5"":1}","[0]","survey-likert","530","2402845","0.0-530.0","w3d8abn1","","","","","",""
"","","","call-function","531","2402846","0.0-531.0","w3d8abn1","","","","","",""
"null","","","video-keyboard-response","532","2405914","0.0-532.0","w3d8abn1","","","","null","Agent A","STIM_SET_1_REAL/1592362.bmp_pp95_L2_V1.0_scrambled_freeview_isoFalse_fps144.mp4"
"","","","call-function","533","2405914","0.0-533.0","w3d8abn1","","","","","",""
"4351.449999999721","{""pre-1"":2}","[0]","survey-likert","534","2410266","0.0-534.0","w3d8abn1","","","","","",""
"3253.6699999999255","{""pre-2"":2}","[0]","survey-likert","535","2413521","0.0-535.0","w3d8abn1","","","","","",""
"1643.6400000001304","{""pre-3"":2}","[0]","survey-likert","536","2415166","0.0-536.0","w3d8abn1","","","","","",""
"1997.6100000003353","{""post-5"":0}","[0]","survey-likert","537","2417165","0.0-537.0","w3d8abn1","","","","","",""
"","","","call-function","538","2417166","0.0-538.0","w3d8abn1","","","","","",""
"null","","","video-keyboard-response","539","2420246","0.0-539.0","w3d8abn1","","","","null","Agent A","STIM_SET_1_REAL/713211.bmp_pp100_L3_V1.0_scrambled_freeview_isoFalse_fps144.mp4"
"","","","call-function","540","2420246","0.0-540.0","w3d8abn1","","","","","",""
"2217.0499999998137","{""pre-1"":1}","[0]","survey-likert","541","2422465","0.0-541.0","w3d8abn1","","","","","",""
"4229.489999999758","{""pre-2"":2}","[0]","survey-likert","542","2426696","0.0-542.0","w3d8abn1","","","","","",""
"1316.195000000298","{""pre-3"":2}","[0]","survey-likert","543","2428013","0.0-543.0","w3d8abn1","","","","","",""
"5622.604999999981","{""post-5"":0}","[0]","survey-likert","544","2433637","0.0-544.0","w3d8abn1","","","","","",""
"","","","call-function","545","2433637","0.0-545.0","w3d8abn1","","","","","",""
"null","","","video-keyboard-response","546","2436702","0.0-546.0","w3d8abn1","","","","null","Agent A","STIM_SET_1_REAL/1592817.bmp_pp55_L3_V1.0_veridical_freeview_isoFalse_fps144.mp4"
"","","","call-function","547","2436702","0.0-547.0","w3d8abn1","","","","","",""
"3278.1349999997765","{""pre-1"":2}","[0]","survey-likert","548","2439982","0.0-548.0","w3d8abn1","","","","","",""
"5459.75","{""pre-2"":2}","[0]","survey-likert","549","2445443","0.0-549.0","w3d8abn1","","","","","",""
"3754.1749999998137","{""pre-3"":3}","[0]","survey-likert","550","2449198","0.0-550.0","w3d8abn1","","","","","",""
"2034.0749999997206","{""post-5"":0}","[0]","survey-likert","551","2451233","0.0-551.0","w3d8abn1","","","","","",""
"","","","call-function","552","2451234","0.0-552.0","w3d8abn1","","","","","",""
"null","","","video-keyboard-response","553","2454295","0.0-553.0","w3d8abn1","","","","null","Agent A","STIM_SET_1_REAL/1159882.bmp_pp61_L2_V1.0_veridical_freeview_isoFalse_fps144.mp4"
"","","","call-function","554","2454295","0.0-554.0","w3d8abn1","","","","","",""
"3649.0849999999627","{""pre-1"":2}","[0]","survey-likert","555","2457945","0.0-555.0","w3d8abn1","","","","","",""
"4298.924999999814","{""pre-2"":1}","[0]","survey-likert","556","2462245","0.0-556.0","w3d8abn1","","","","","",""
"5694.709999999963","{""pre-3"":1}","[0]","survey-likert","557","2467941","0.0-557.0","w3d8abn1","","","","","",""
"3241.0099999997765","{""post-5"":2}","[0]","survey-likert","558","2471183","0.0-558.0","w3d8abn1","","","","","",""
"","","","call-function","559","2471183","0.0-559.0","w3d8abn1","","","","","",""
"null","","","video-keyboard-response","560","2474244","0.0-560.0","w3d8abn1","","","","null","Agent A","STIM_SET_1_REAL/1592133.bmp_pp75_L1_V1.0_veridical_freeview_isoFalse_fps144.mp4"
"","","","call-function","561","2474244","0.0-561.0","w3d8abn1","","","","","",""
"3361.649999999907","{""pre-1"":2}","[0]","survey-likert","562","2477607","0.0-562.0","w3d8abn1","","","","","",""
"1589.5200000000186","{""pre-2"":1}","[0]","survey-likert","563","2479199","0.0-563.0","w3d8abn1","","","","","",""
"2255.1650000000373","{""pre-3"":0}","[0]","survey-likert","564","2481456","0.0-564.0","w3d8abn1","","","","","",""
"2779.204999999609","{""post-5"":2}","[0]","survey-likert","565","2484237","0.0-565.0","w3d8abn1","","","","","",""
"","","","call-function","566","2484237","0.0-566.0","w3d8abn1","","","","","",""
"null","","","video-keyboard-response","567","2487313","0.0-567.0","w3d8abn1","","","","null","Agent A","STIM_SET_1_REAL/498253.bmp_pp67_L2_V1.0_scrambled_freeview_isoFalse_fps144.mp4"
"","","","call-function","568","2487313","0.0-568.0","w3d8abn1","","","","","",""
"2711.5749999997206","{""pre-1"":2}","[0]","survey-likert","569","2490026","0.0-569.0","w3d8abn1","","","","","",""
"3810.4199999999255","{""pre-2"":2}","[0]","survey-likert","570","2493838","0.0-570.0","w3d8abn1","","","","","",""
"3298.7050000000745","{""pre-3"":2}","[0]","survey-likert","571","2497138","0.0-571.0","w3d8abn1","","","","","",""
"13486.334999999963","{""post-5"":1}","[0]","survey-likert","572","2510625","0.0-572.0","w3d8abn1","","","","","",""
"","","","call-function","573","2510626","0.0-573.0","w3d8abn1","","","","","",""
"null","","","video-keyboard-response","574","2513700","0.0-574.0","w3d8abn1","","","","null","Agent A","STIM_SET_1_REAL/713684.bmp_pp85_L3_V1.0_veridical_freeview_isoFalse_fps144.mp4"
"","","","call-function","575","2513700","0.0-575.0","w3d8abn1","","","","","",""
"2895.9849999998696","{""pre-1"":2}","[0]","survey-likert","576","2516597","0.0-576.0","w3d8abn1","","","","","",""
"5240.85999999987","{""pre-2"":2}","[0]","survey-likert","577","2521839","0.0-577.0","w3d8abn1","","","","","",""
"3604.010000000242","{""pre-3"":3}","[0]","survey-likert","578","2525444","0.0-578.0","w3d8abn1","","","","","",""
"1993.9050000002608","{""post-5"":0}","[0]","survey-likert","579","2527439","0.0-579.0","w3d8abn1","","","","","",""
"","","","call-function","580","2527440","0.0-580.0","w3d8abn1","","","","","",""
"null","","","video-keyboard-response","581","2530517","0.0-581.0","w3d8abn1","","","","null","Agent A","STIM_SET_1_REAL/498111.bmp_pp88_L2_V1.0_veridical_freeview_isoFalse_fps144.mp4"
"","","","call-function","582","2530517","0.0-582.0","w3d8abn1","","","","","",""
"3273.410000000149","{""pre-1"":2}","[0]","survey-likert","583","2533792","0.0-583.0","w3d8abn1","","","","","",""
"4995.935000000056","{""pre-2"":2}","[0]","survey-likert","584","2538790","0.0-584.0","w3d8abn1","","","","","",""
"2500.5150000001304","{""pre-3"":1}","[0]","survey-likert","585","2541292","0.0-585.0","w3d8abn1","","","","","",""
"1996.320000000298","{""post-5"":2}","[0]","survey-likert","586","2543290","0.0-586.0","w3d8abn1","","","","","",""
"2145.8400000003166","","","instructions","587","2545436","0.0-587.0","w3d8abn1","[{""page_index"":0,""viewing_time"":1066.3300000000745},{""page_index"":1,""viewing_time"":576.7749999999069},{""page_index"":2,""viewing_time"":502.160000000149}]","","","","",""
"1401.9300000001676","","","instructions","588","2546839","0.0-588.0","w3d8abn1","[{""page_index"":0,""viewing_time"":364.9700000002049},{""page_index"":1,""viewing_time"":485.89999999990687},{""page_index"":2,""viewing_time"":550.9599999999627}]","","","","",""
"","","","call-function","589","2546840","0.0-589.0","w3d8abn1","","","","","",""
"null","","","video-keyboard-response","590","2549903","0.0-590.0","w3d8abn1","","","","null","Agent A","STIM_SET_1_REAL/713089.bmp_pp60_L3_V1.0_veridical_freeview_isoFalse_fps144.mp4"
"","","","call-function","591","2549903","0.0-591.0","w3d8abn1","","","","","",""
"3438.80999999959","{""pre-1"":2}","[0]","survey-likert","592","2553343","0.0-592.0","w3d8abn1","","","","","",""
"9798.159999999683","{""pre-2"":2}","[0]","survey-likert","593","2563143","0.0-593.0","w3d8abn1","","","","","",""
"4966.155000000261","{""pre-3"":1}","[0]","survey-likert","594","2568110","0.0-594.0","w3d8abn1","","","","","",""
"3296.929999999702","{""post-5"":2}","[0]","survey-likert","595","2571408","0.0-595.0","w3d8abn1","","","","","",""
"","","","call-function","596","2571409","0.0-596.0","w3d8abn1","","","","","",""
"null","","","video-keyboard-response","597","2574481","0.0-597.0","w3d8abn1","","","","null","Agent A","STIM_SET_1_REAL/713749.bmp_pp88_L2_V1.0_veridical_freeview_isoFalse_fps144.mp4"
"","","","call-function","598","2574482","0.0-598.0","w3d8abn1","","","","","",""
"2339.7099999999627","{""pre-1"":1}","[0]","survey-likert","599","2576822","0.0-599.0","w3d8abn1","","","","","",""
"2257.9150000000373","{""pre-2"":1}","[0]","survey-likert","600","2579081","0.0-600.0","w3d8abn1","","","","","",""
"4518.944999999832","{""pre-3"":0}","[0]","survey-likert","601","2583601","0.0-601.0","w3d8abn1","","","","","",""
"2694.6150000002235","{""post-5"":3}","[0]","survey-likert","602","2586298","0.0-602.0","w3d8abn1","","","","","",""
"","","","call-function","603","2586299","0.0-603.0","w3d8abn1","","","","","",""
"null","","","video-keyboard-response","604","2589361","0.0-604.0","w3d8abn1","","","","null","Agent A","STIM_SET_1_REAL/1592351.bmp_pp51_L1_V1.0_veridical_freeview_isoFalse_fps144.mp4"
"","","","call-function","605","2589362","0.0-605.0","w3d8abn1","","","","","",""
"2310.8300000000745","{""pre-1"":0}","[0]","survey-likert","606","2591674","0.0-606.0","w3d8abn1","","","","","",""
"3340.6099999998696","{""pre-2"":0}","[0]","survey-likert","607","2595016","0.0-607.0","w3d8abn1","","","","","",""
"1422.1850000000559","{""pre-3"":0}","[0]","survey-likert","608","2596440","0.0-608.0","w3d8abn1","","","","","",""
"2201.9900000002235","{""post-5"":3}","[0]","survey-likert","609","2598643","0.0-609.0","w3d8abn1","","","","","",""
"","","","call-function","610","2598643","0.0-610.0","w3d8abn1","","","","","",""
"null","","","video-keyboard-response","611","2601711","0.0-611.0","w3d8abn1","","","","null","Agent A","STIM_SET_1_REAL/713796.bmp_pp84_L3_V1.0_veridical_freeview_isoFalse_fps144.mp4"
"","","","call-function","612","2601712","0.0-612.0","w3d8abn1","","","","","",""
"2858.2050000000745","{""pre-1"":2}","[0]","survey-likert","613","2604572","0.0-613.0","w3d8abn1","","","","","",""
"1446.5100000002421","{""pre-2"":2}","[0]","survey-likert","614","2606019","0.0-614.0","w3d8abn1","","","","","",""
"1350.4250000002794","{""pre-3"":1}","[0]","survey-likert","615","2607371","0.0-615.0","w3d8abn1","","","","","",""
"2625.5049999998882","{""post-5"":2}","[0]","survey-likert","616","2609997","0.0-616.0","w3d8abn1","","","","","",""
"","","","call-function","617","2609998","0.0-617.0","w3d8abn1","","","","","",""
"null","","","video-keyboard-response","618","2613057","0.0-618.0","w3d8abn1","","","","null","Agent A","STIM_SET_1_REAL/1159882.bmp_pp61_L2_V1.0_scrambled_freeview_isoFalse_fps144.mp4"
"","","","call-function","619","2613058","0.0-619.0","w3d8abn1","","","","","",""
"5042.805000000168","{""pre-1"":2}","[0]","survey-likert","620","2618102","0.0-620.0","w3d8abn1","","","","","",""
"7832.700000000186","{""pre-2"":2}","[0]","survey-likert","621","2625935","0.0-621.0","w3d8abn1","","","","","",""
"5485.125","{""pre-3"":1}","[0]","survey-likert","622","2631422","0.0-622.0","w3d8abn1","","","","","",""
"10916.535000000149","{""post-5"":1}","[0]","survey-likert","623","2642340","0.0-623.0","w3d8abn1","","","","","",""
"","","","call-function","624","2642341","0.0-624.0","w3d8abn1","","","","","",""
"null","","","video-keyboard-response","625","2645405","0.0-625.0","w3d8abn1","","","","null","Agent A","STIM_SET_1_REAL/1592133.bmp_pp75_L1_V1.0_scrambled_freeview_isoFalse_fps144.mp4"
"","","","call-function","626","2645406","0.0-626.0","w3d8abn1","","","","","",""
"3734.510000000242","{""pre-1"":1}","[0]","survey-likert","627","2649141","0.0-627.0","w3d8abn1","","","","","",""
"2406.829999999609","{""pre-2"":1}","[0]","survey-likert","628","2651549","0.0-628.0","w3d8abn1","","","","","",""
"1841.8249999997206","{""pre-3"":0}","[0]","survey-likert","629","2653393","0.0-629.0","w3d8abn1","","","","","",""
"1625.654999999795","{""post-5"":3}","[0]","survey-likert","630","2655020","0.0-630.0","w3d8abn1","","","","","",""
"","","","call-function","631","2655020","0.0-631.0","w3d8abn1","","","","","",""
"null","","","video-keyboard-response","632","2658094","0.0-632.0","w3d8abn1","","","","null","Agent A","STIM_SET_1_REAL/1160127.bmp_pp90_L2_V1.0_scrambled_freeview_isoFalse_fps144.mp4"
"","","","call-function","633","2658094","0.0-633.0","w3d8abn1","","","","","",""
"3525.5500000002794","{""pre-1"":2}","[0]","survey-likert","634","2661621","0.0-634.0","w3d8abn1","","","","","",""
"8998.385000000242","{""pre-2"":2}","[0]","survey-likert","635","2670621","0.0-635.0","w3d8abn1","","","","","",""
"1828.7349999998696","{""pre-3"":0}","[0]","survey-likert","636","2672451","0.0-636.0","w3d8abn1","","","","","",""
"2324.625","{""post-5"":2}","[0]","survey-likert","637","2674777","0.0-637.0","w3d8abn1","","","","","",""
"","","","call-function","638","2674778","0.0-638.0","w3d8abn1","","","","","",""
"null","","","video-keyboard-response","639","2677847","0.0-639.0","w3d8abn1","","","","null","Agent A","STIM_SET_1_REAL/285905.bmp_pp57_L1_V1.0_veridical_freeview_isoFalse_fps144.mp4"
"","","","call-function","640","2677847","0.0-640.0","w3d8abn1","","","","","",""
"9925.189999999944","{""pre-1"":2}","[0]","survey-likert","641","2687774","0.0-641.0","w3d8abn1","","","","","",""
"3374.9900000002235","{""pre-2"":2}","[0]","survey-likert","642","2691150","0.0-642.0","w3d8abn1","","","","","",""
"1306.5649999999441","{""pre-3"":1}","[0]","survey-likert","643","2692457","0.0-643.0","w3d8abn1","","","","","",""
"1668.404999999795","{""post-5"":2}","[0]","survey-likert","644","2694127","0.0-644.0","w3d8abn1","","","","","",""
"","","","call-function","645","2694127","0.0-645.0","w3d8abn1","","","","","",""
"null","","","video-keyboard-response","646","2697204","0.0-646.0","w3d8abn1","","","","null","Agent A","STIM_SET_1_REAL/713211.bmp_pp100_L3_V1.0_veridical_freeview_isoFalse_fps144.mp4"
"","","","call-function","647","2697204","0.0-647.0","w3d8abn1","","","","","",""
"3239.654999999795","{""pre-1"":0}","[0]","survey-likert","648","2700445","0.0-648.0","w3d8abn1","","","","","",""
"2810.8199999998324","{""pre-2"":1}","[0]","survey-likert","649","2703258","0.0-649.0","w3d8abn1","","","","","",""
"1703.894999999553","{""pre-3"":0}","[0]","survey-likert","650","2704964","0.0-650.0","w3d8abn1","","","","","",""
"1978.5099999997765","{""post-5"":2}","[0]","survey-likert","651","2706944","0.0-651.0","w3d8abn1","","","","","",""
"","","","call-function","652","2706944","0.0-652.0","w3d8abn1","","","","","",""
"null","","","video-keyboard-response","653","2710007","0.0-653.0","w3d8abn1","","","","null","Agent A","STIM_SET_1_REAL/286001.bmp_pp54_L2_V1.0_veridical_freeview_isoFalse_fps144.mp4"
"","","","call-function","654","2710008","0.0-654.0","w3d8abn1","","","","","",""
"4001.060000000056","{""pre-1"":0}","[0]","survey-likert","655","2714010","0.0-655.0","w3d8abn1","","","","","",""
"4292.660000000149","{""pre-2"":1}","[0]","survey-likert","656","2718304","0.0-656.0","w3d8abn1","","","","","",""
"7483.735000000335","{""pre-3"":1}","[0]","survey-likert","657","2725789","0.0-657.0","w3d8abn1","","","","","",""
"2315.519999999553","{""post-5"":3}","[0]","survey-likert","658","2728106","0.0-658.0","w3d8abn1","","","","","",""
"","","","call-function","659","2728106","0.0-659.0","w3d8abn1","","","","","",""
"null","","","video-keyboard-response","660","2731183","0.0-660.0","w3d8abn1","","","","null","Agent A","STIM_SET_1_REAL/498111.bmp_pp88_L2_V1.0_scrambled_freeview_isoFalse_fps144.mp4"
"","","","call-function","661","2731184","0.0-661.0","w3d8abn1","","","","","",""
"5445.39000000013","{""pre-1"":2}","[0]","survey-likert","662","2736631","0.0-662.0","w3d8abn1","","","","","",""
"2606.9099999996834","{""pre-2"":2}","[0]","survey-likert","663","2739239","0.0-663.0","w3d8abn1","","","","","",""
"3658.9849999998696","{""pre-3"":1}","[0]","survey-likert","664","2742899","0.0-664.0","w3d8abn1","","","","","",""
"2821.9699999997392","{""post-5"":2}","[0]","survey-likert","665","2745722","0.0-665.0","w3d8abn1","","","","","",""
"","","","call-function","666","2745722","0.0-666.0","w3d8abn1","","","","","",""
"null","","","video-keyboard-response","667","2748799","0.0-667.0","w3d8abn1","","","","null","Agent A","STIM_SET_1_REAL/713620.bmp_pp65_L3_V1.0_veridical_freeview_isoFalse_fps144.mp4"
"","","","call-function","668","2748800","0.0-668.0","w3d8abn1","","","","","",""
"5091.845000000205","{""pre-1"":1}","[0]","survey-likert","669","2753893","0.0-669.0","w3d8abn1","","","","","",""
"6689.335000000428","{""pre-2"":1}","[0]","survey-likert","670","2760584","0.0-670.0","w3d8abn1","","","","","",""
"1435.6499999999069","{""pre-3"":0}","[0]","survey-likert","671","2762022","0.0-671.0","w3d8abn1","","","","","",""
"1615.5500000002794","{""post-5"":0}","[0]","survey-likert","672","2763639","0.0-672.0","w3d8abn1","","","","","",""
"","","","call-function","673","2763640","0.0-673.0","w3d8abn1","","","","","",""
"null","","","video-keyboard-response","674","2766698","0.0-674.0","w3d8abn1","","","","null","Agent A","STIM_SET_1_REAL/285994.bmp_pp92_L3_V1.0_scrambled_freeview_isoFalse_fps144.mp4"
"","","","call-function","675","2766699","0.0-675.0","w3d8abn1","","","","","",""
"3065.785000000149","{""pre-1"":2}","[0]","survey-likert","676","2769766","0.0-676.0","w3d8abn1","","","","","",""
"8896.060000000056","{""pre-2"":2}","[0]","survey-likert","677","2778664","0.0-677.0","w3d8abn1","","","","","",""
"1249.1299999998882","{""pre-3"":2}","[0]","survey-likert","678","2779914","0.0-678.0","w3d8abn1","","","","","",""
"3414.739999999758","{""post-5"":1}","[0]","survey-likert","679","2783331","0.0-679.0","w3d8abn1","","","","","",""
"","","","call-function","680","2783332","0.0-680.0","w3d8abn1","","","","","",""
"null","","","video-keyboard-response","681","2786407","0.0-681.0","w3d8abn1","","","","null","Agent A","STIM_SET_1_REAL/1591876.bmp_pp63_L1_V1.0_scrambled_freeview_isoFalse_fps144.mp4"
"","","","call-function","682","2786408","0.0-682.0","w3d8abn1","","","","","",""
"9498.959999999963","{""pre-1"":2}","[0]","survey-likert","683","2795908","0.0-683.0","w3d8abn1","","","","","",""
"1621.2050000000745","{""pre-2"":1}","[0]","survey-likert","684","2797530","0.0-684.0","w3d8abn1","","","","","",""
"1416.6049999999814","{""pre-3"":0}","[0]","survey-likert","685","2798948","0.0-685.0","w3d8abn1","","","","","",""
"17428.35999999987","{""post-5"":1}","[0]","survey-likert","686","2816378","0.0-686.0","w3d8abn1","","","","","",""
"","","","call-function","687","2816378","0.0-687.0","w3d8abn1","","","","","",""
"null","","","video-keyboard-response","688","2819455","0.0-688.0","w3d8abn1","","","","null","Agent A","STIM_SET_1_REAL/1591876.bmp_pp63_L1_V1.0_veridical_freeview_isoFalse_fps144.mp4"
"","","","call-function","689","2819456","0.0-689.0","w3d8abn1","","","","","",""
"2467.2000000001863","{""pre-1"":1}","[0]","survey-likert","690","2821924","0.0-690.0","w3d8abn1","","","","","",""
"1725.464999999851","{""pre-2"":2}","[0]","survey-likert","691","2823651","0.0-691.0","w3d8abn1","","","","","",""
"4274.220000000205","{""pre-3"":2}","[0]","survey-likert","692","2827926","0.0-692.0","w3d8abn1","","","","","",""
"2719.8249999997206","{""post-5"":0}","[0]","survey-likert","693","2830647","0.0-693.0","w3d8abn1","","","","","",""
"","","","call-function","694","2830648","0.0-694.0","w3d8abn1","","","","","",""
"null","","","video-keyboard-response","695","2833707","0.0-695.0","w3d8abn1","","","","null","Agent A","STIM_SET_1_REAL/1593035.bmp_pp94_L2_V1.0_scrambled_freeview_isoFalse_fps144.mp4"
"","","","call-function","696","2833709","0.0-696.0","w3d8abn1","","","","","",""
"2640.7800000002608","{""pre-1"":1}","[0]","survey-likert","697","2836351","0.0-697.0","w3d8abn1","","","","","",""
"3852.239999999758","{""pre-2"":2}","[0]","survey-likert","698","2840205","0.0-698.0","w3d8abn1","","","","","",""
"1790.1299999998882","{""pre-3"":2}","[0]","survey-likert","699","2841996","0.0-699.0","w3d8abn1","","","","","",""
"9938.770000000019","{""post-5"":0}","[0]","survey-likert","700","2851936","0.0-700.0","w3d8abn1","","","","","",""
"","","","call-function","701","2851937","0.0-701.0","w3d8abn1","","","","","",""
"null","","","video-keyboard-response","702","2855000","0.0-702.0","w3d8abn1","","","","null","Agent A","STIM_SET_1_REAL/1592890.bmp_pp82_L2_V1.0_veridical_freeview_isoFalse_fps144.mp4"
"","","","call-function","703","2855001","0.0-703.0","w3d8abn1","","","","","",""
"1613.5800000000745","{""pre-1"":2}","[0]","survey-likert","704","2856615","0.0-704.0","w3d8abn1","","","","","",""
"1819.1100000003353","{""pre-2"":2}","[0]","survey-likert","705","2858436","0.0-705.0","w3d8abn1","","","","","",""
"1675.9199999999255","{""pre-3"":0}","[0]","survey-likert","706","2860113","0.0-706.0","w3d8abn1","","","","","",""
"2234.6049999999814","{""post-5"":0}","[0]","survey-likert","707","2862349","0.0-707.0","w3d8abn1","","","","","",""
"","","","call-function","708","2862349","0.0-708.0","w3d8abn1","","","","","",""
"null","","","video-keyboard-response","709","2865412","0.0-709.0","w3d8abn1","","","","null","Agent A","STIM_SET_1_REAL/497950.bmp_pp151_L1_V1.0_scrambled_freeview_isoFalse_fps144.mp4"
"","","","call-function","710","2865412","0.0-710.0","w3d8abn1","","","","","",""
"10767.214999999851","{""pre-1"":1}","[0]","survey-likert","711","2876180","0.0-711.0","w3d8abn1","","","","","",""
"2535.5","{""pre-2"":0}","[0]","survey-likert","712","2878717","0.0-712.0","w3d8abn1","","","","","",""
"2601.529999999795","{""pre-3"":0}","[0]","survey-likert","713","2881320","0.0-713.0","w3d8abn1","","","","","",""
"1656.2700000000186","{""post-5"":2}","[0]","survey-likert","714","2882977","0.0-714.0","w3d8abn1","","","","","",""
"","","","call-function","715","2882978","0.0-715.0","w3d8abn1","","","","","",""
"null","","","video-keyboard-response","716","2886052","0.0-716.0","w3d8abn1","","","","null","Agent A","STIM_SET_1_REAL/1592657.bmp_pp98_L1_V1.0_veridical_freeview_isoFalse_fps144.mp4"
"","","","call-function","717","2886052","0.0-717.0","w3d8abn1","","","","","",""
"9809.709999999963","{""pre-1"":1}","[0]","survey-likert","718","2895863","0.0-718.0","w3d8abn1","","","","","",""
"2930.5749999997206","{""pre-2"":0}","[0]","survey-likert","719","2898795","0.0-719.0","w3d8abn1","","","","","",""
"1547.1299999998882","{""pre-3"":0}","[0]","survey-likert","720","2900343","0.0-720.0","w3d8abn1","","","","","",""
"1986.4900000002235","{""post-5"":3}","[0]","survey-likert","721","2902331","0.0-721.0","w3d8abn1","","","","","",""
"","","","call-function","722","2902331","0.0-722.0","w3d8abn1","","","","","",""
"null","","","video-keyboard-response","723","2905396","0.0-723.0","w3d8abn1","","","","null","Agent A","STIM_SET_1_REAL/286001.bmp_pp54_L2_V1.0_scrambled_freeview_isoFalse_fps144.mp4"
"","","","call-function","724","2905397","0.0-724.0","w3d8abn1","","","","","",""
"5088.5449999999255","{""pre-1"":0}","[0]","survey-likert","725","2910487","0.0-725.0","w3d8abn1","","","","","",""
"3876.845000000205","{""pre-2"":1}","[0]","survey-likert","726","2914366","0.0-726.0","w3d8abn1","","","","","",""
"1453.9449999998324","{""pre-3"":1}","[0]","survey-likert","727","2915821","0.0-727.0","w3d8abn1","","","","","",""
"2140.774999999907","{""post-5"":3}","[0]","survey-likert","728","2917963","0.0-728.0","w3d8abn1","","","","","",""
"1556.7650000001304","","","instructions","729","2919521","0.0-729.0","w3d8abn1","[{""page_index"":0,""viewing_time"":848.5400000000373},{""page_index"":1,""viewing_time"":503.7299999999814},{""page_index"":2,""viewing_time"":204.32000000029802}]","","","","",""
"534.6049999999814","","","instructions","730","2920056","0.0-730.0","w3d8abn1","[{""page_index"":0,""viewing_time"":185.24500000011176},{""page_index"":1,""viewing_time"":187.1699999999255},{""page_index"":2,""viewing_time"":162.0500000002794}]","","","","",""
"","","","call-function","731","2920057","0.0-731.0","w3d8abn1","","","","","",""
"null","","","video-keyboard-response","732","2923134","0.0-732.0","w3d8abn1","","","","null","Agent A","STIM_SET_1_REAL/1159777.bmp_pp77_L3_V1.0_veridical_freeview_isoFalse_fps144.mp4"
"","","","call-function","733","2923135","0.0-733.0","w3d8abn1","","","","","",""
"2362.939999999944","{""pre-1"":2}","[0]","survey-likert","734","2925499","0.0-734.0","w3d8abn1","","","","","",""
"1270.7050000000745","{""pre-2"":2}","[0]","survey-likert","735","2926771","0.0-735.0","w3d8abn1","","","","","",""
"2134.2099999999627","{""pre-3"":3}","[0]","survey-likert","736","2928906","0.0-736.0","w3d8abn1","","","","","",""
"2154.3849999997765","{""post-5"":0}","[0]","survey-likert","737","2931062","0.0-737.0","w3d8abn1","","","","","",""
"","","","call-function","738","2931063","0.0-738.0","w3d8abn1","","","","","",""
"null","","","video-keyboard-response","739","2934136","0.0-739.0","w3d8abn1","","","","null","Agent A","STIM_SET_1_REAL/1593146.bmp_pp93_L1_V1.0_scrambled_freeview_isoFalse_fps144.mp4"
"","","","call-function","740","2934136","0.0-740.0","w3d8abn1","","","","","",""
"1594.904999999795","{""pre-1"":2}","[0]","survey-likert","741","2935732","0.0-741.0","w3d8abn1","","","","","",""
"1769.5049999998882","{""pre-2"":2}","[0]","survey-likert","742","2937503","0.0-742.0","w3d8abn1","","","","","",""
"1744.279999999795","{""pre-3"":0}","[0]","survey-likert","743","2939250","0.0-743.0","w3d8abn1","","","","","",""
"19627.909999999683","{""post-5"":2}","[0]","survey-likert","744","2958879","0.0-744.0","w3d8abn1","","","","","",""
"","","","call-function","745","2958880","0.0-745.0","w3d8abn1","","","","","",""
"null","","","video-keyboard-response","746","2961943","0.0-746.0","w3d8abn1","","","","null","Agent A","STIM_SET_1_REAL/713779.bmp_pp152_L2_V1.0_veridical_freeview_isoFalse_fps144.mp4"
"","","","call-function","747","2961944","0.0-747.0","w3d8abn1","","","","","",""
"2951.6400000001304","{""pre-1"":2}","[0]","survey-likert","748","2964896","0.0-748.0","w3d8abn1","","","","","",""
"4232.540000000037","{""pre-2"":1}","[0]","survey-likert","749","2969130","0.0-749.0","w3d8abn1","","","","","",""
"8011.915000000037","{""pre-3"":1}","[0]","survey-likert","750","2977143","0.0-750.0","w3d8abn1","","","","","",""
"2986.0150000001304","{""post-5"":2}","[0]","survey-likert","751","2980130","0.0-751.0","w3d8abn1","","","","","",""
"","","","call-function","752","2980131","0.0-752.0","w3d8abn1","","","","","",""
"null","","","video-keyboard-response","753","2983197","0.0-753.0","w3d8abn1","","","","null","Agent A","STIM_SET_1_REAL/1591961.bmp_pp67_L2_V1.0_veridical_freeview_isoFalse_fps144.mp4"
"","","","call-function","754","2983198","0.0-754.0","w3d8abn1","","","","","",""
"4535.895000000019","{""pre-1"":2}","[0]","survey-likert","755","2987735","0.0-755.0","w3d8abn1","","","","","",""
"3478.114999999758","{""pre-2"":2}","[0]","survey-likert","756","2991216","0.0-756.0","w3d8abn1","","","","","",""
"15200.334999999963","{""pre-3"":1}","[0]","survey-likert","757","3006418","0.0-757.0","w3d8abn1","","","","","",""
"5733.034999999683","{""post-5"":1}","[0]","survey-likert","758","3012152","0.0-758.0","w3d8abn1","","","","","",""
"","","","call-function","759","3012153","0.0-759.0","w3d8abn1","","","","","",""
"null","","","video-keyboard-response","760","3015215","0.0-760.0","w3d8abn1","","","","null","Agent A","STIM_SET_1_REAL/285994.bmp_pp92_L3_V1.0_veridical_freeview_isoFalse_fps144.mp4"
"","","","call-function","761","3015216","0.0-761.0","w3d8abn1","","","","","",""
"7156.6349999997765","{""pre-1"":2}","[0]","survey-likert","762","3022374","0.0-762.0","w3d8abn1","","","","","",""
"11077.845000000205","{""pre-2"":2}","[0]","survey-likert","763","3033453","0.0-763.0","w3d8abn1","","","","","",""
"2968.6400000001304","{""pre-3"":0}","[0]","survey-likert","764","3036422","0.0-764.0","w3d8abn1","","","","","",""
"1857.625","{""post-5"":2}","[0]","survey-likert","765","3038281","0.0-765.0","w3d8abn1","","","","","",""
"","","","call-function","766","3038282","0.0-766.0","w3d8abn1","","","","","",""
"null","","","video-keyboard-response","767","3041343","0.0-767.0","w3d8abn1","","","","null","Agent A","STIM_SET_1_REAL/1592351.bmp_pp51_L1_V1.0_scrambled_freeview_isoFalse_fps144.mp4"
"","","","call-function","768","3041344","0.0-768.0","w3d8abn1","","","","","",""
"3408.804999999702","{""pre-1"":0}","[0]","survey-likert","769","3044754","0.0-769.0","w3d8abn1","","","","","",""
"2428.720000000205","{""pre-2"":1}","[0]","survey-likert","770","3047183","0.0-770.0","w3d8abn1","","","","","",""
"1468.029999999795","{""pre-3"":0}","[0]","survey-likert","771","3048653","0.0-771.0","w3d8abn1","","","","","",""
"1544.8100000000559","{""post-5"":3}","[0]","survey-likert","772","3050199","0.0-772.0","w3d8abn1","","","","","",""
"","","","call-function","773","3050199","0.0-773.0","w3d8abn1","","","","","",""
"null","","","video-keyboard-response","774","3053266","0.0-774.0","w3d8abn1","","","","null","Agent A","STIM_SET_1_REAL/1591961.bmp_pp67_L2_V1.0_scrambled_freeview_isoFalse_fps144.mp4"
"","","","call-function","775","3053267","0.0-775.0","w3d8abn1","","","","","",""
"2803.9900000002235","{""pre-1"":0}","[0]","survey-likert","776","3056072","0.0-776.0","w3d8abn1","","","","","",""
"5060.790000000037","{""pre-2"":0}","[0]","survey-likert","777","3061135","0.0-777.0","w3d8abn1","","","","","",""
"1782.1800000001676","{""pre-3"":0}","[0]","survey-likert","778","3062919","0.0-778.0","w3d8abn1","","","","","",""
"3141.725000000093","{""post-5"":3}","[0]","survey-likert","779","3066062","0.0-779.0","w3d8abn1","","","","","",""
"","","","call-function","780","3066063","0.0-780.0","w3d8abn1","","","","","",""
"null","","","video-keyboard-response","781","3069140","0.0-781.0","w3d8abn1","","","","null","Agent A","STIM_SET_1_REAL/1592804.bmp_pp91_L3_V1.0_scrambled_freeview_isoFalse_fps144.mp4"
"","","","call-function","782","3069141","0.0-782.0","w3d8abn1","","","","","",""
"3993.4199999999255","{""pre-1"":1}","[0]","survey-likert","783","3073136","0.0-783.0","w3d8abn1","","","","","",""
"3036.435000000056","{""pre-2"":0}","[0]","survey-likert","784","3076173","0.0-784.0","w3d8abn1","","","","","",""
"1705.7349999998696","{""pre-3"":0}","[0]","survey-likert","785","3077880","0.0-785.0","w3d8abn1","","","","","",""
"2197.8199999998324","{""post-5"":3}","[0]","survey-likert","786","3080080","0.0-786.0","w3d8abn1","","","","","",""
"","","","call-function","787","3080080","0.0-787.0","w3d8abn1","","","","","",""
"null","","","video-keyboard-response","788","3083148","0.0-788.0","w3d8abn1","","","","null","Agent A","STIM_SET_1_REAL/1159768.bmp_pp89_L1_V1.0_veridical_freeview_isoFalse_fps144.mp4"
"","","","call-function","789","3083148","0.0-789.0","w3d8abn1","","","","","",""
"1962.3799999998882","{""pre-1"":2}","[0]","survey-likert","790","3085112","0.0-790.0","w3d8abn1","","","","","",""
"3022.3250000001863","{""pre-2"":2}","[0]","survey-likert","791","3088135","0.0-791.0","w3d8abn1","","","","","",""
"3195.8799999998882","{""pre-3"":1}","[0]","survey-likert","792","3091332","0.0-792.0","w3d8abn1","","","","","",""
"2446.0400000000373","{""post-5"":1}","[0]","survey-likert","793","3093780","0.0-793.0","w3d8abn1","","","","","",""
"","","","call-function","794","3093780","0.0-794.0","w3d8abn1","","","","","",""
"null","","","video-keyboard-response","795","3096855","0.0-795.0","w3d8abn1","","","","null","Agent A","STIM_SET_1_REAL/713707.bmp_pp154_L1_V1.0_scrambled_freeview_isoFalse_fps144.mp4"
"","","","call-function","796","3096855","0.0-796.0","w3d8abn1","","","","","",""
"2154.939999999944","{""pre-1"":2}","[0]","survey-likert","797","3099011","0.0-797.0","w3d8abn1","","","","","",""
"1854.130000000354","{""pre-2"":2}","[0]","survey-likert","798","3100867","0.0-798.0","w3d8abn1","","","","","",""
"2198.5049999998882","{""pre-3"":1}","[0]","survey-likert","799","3103068","0.0-799.0","w3d8abn1","","","","","",""
"4072.0200000000186","{""post-5"":0}","[0]","survey-likert","800","3107141","0.0-800.0","w3d8abn1","","","","","",""
"","","","call-function","801","3107142","0.0-801.0","w3d8abn1","","","","","",""
"null","","","video-keyboard-response","802","3110210","0.0-802.0","w3d8abn1","","","","null","Agent A","STIM_SET_1_REAL/1592581.bmp_pp100_L3_V1.0_scrambled_freeview_isoFalse_fps144.mp4"
"","","","call-function","803","3110211","0.0-803.0","w3d8abn1","","","","","",""
"4221.449999999721","{""pre-1"":2}","[0]","survey-likert","804","3114434","0.0-804.0","w3d8abn1","","","","","",""
"1590.8799999998882","{""pre-2"":2}","[0]","survey-likert","805","3116026","0.0-805.0","w3d8abn1","","","","","",""
"1736.0449999999255","{""pre-3"":0}","[0]","survey-likert","806","3117763","0.0-806.0","w3d8abn1","","","","","",""
"3815.2800000002608","{""post-5"":1}","[0]","survey-likert","807","3121579","0.0-807.0","w3d8abn1","","","","","",""
"","","","call-function","808","3121580","0.0-808.0","w3d8abn1","","","","","",""
"null","","","video-keyboard-response","809","3124643","0.0-809.0","w3d8abn1","","","","null","Agent A","STIM_SET_1_REAL/498170.bmp_pp153_L3_V1.0_scrambled_freeview_isoFalse_fps144.mp4"
"","","","call-function","810","3124643","0.0-810.0","w3d8abn1","","","","","",""
"4190.9199999999255","{""pre-1"":2}","[0]","survey-likert","811","3128835","0.0-811.0","w3d8abn1","","","","","",""
"10755.76500000013","{""pre-2"":0}","[0]","survey-likert","812","3139592","0.0-812.0","w3d8abn1","","","","","",""
"2172.8849999997765","{""pre-3"":0}","[0]","survey-likert","813","3141766","0.0-813.0","w3d8abn1","","","","","",""
"1957.6850000000559","{""post-5"":2}","[0]","survey-likert","814","3143725","0.0-814.0","w3d8abn1","","","","","",""
"","","","call-function","815","3143726","0.0-815.0","w3d8abn1","","","","","",""
"null","","","video-keyboard-response","816","3146800","0.0-816.0","w3d8abn1","","","","null","Agent A","STIM_SET_1_REAL/498155.bmp_pp61_L2_V1.0_veridical_freeview_isoFalse_fps144.mp4"
"","","","call-function","817","3146801","0.0-817.0","w3d8abn1","","","","","",""
"5935.280000000261","{""pre-1"":2}","[0]","survey-likert","818","3152737","0.0-818.0","w3d8abn1","","","","","",""
"2705.6450000000186","{""pre-2"":2}","[0]","survey-likert","819","3155445","0.0-819.0","w3d8abn1","","","","","",""
"917.0049999998882","{""pre-3"":2}","[0]","survey-likert","820","3156364","0.0-820.0","w3d8abn1","","","","","",""
"1889.75","{""post-5"":0}","[0]","survey-likert","821","3158255","0.0-821.0","w3d8abn1","","","","","",""
"","","","call-function","822","3158256","0.0-822.0","w3d8abn1","","","","","",""
"null","","","video-keyboard-response","823","3161332","0.0-823.0","w3d8abn1","","","","null","Agent A","STIM_SET_1_REAL/1592657.bmp_pp98_L1_V1.0_scrambled_freeview_isoFalse_fps144.mp4"
"","","","call-function","824","3161332","0.0-824.0","w3d8abn1","","","","","",""
"14879.35999999987","{""pre-1"":1}","[0]","survey-likert","825","3176213","0.0-825.0","w3d8abn1","","","","","",""
"3024.9950000001118","{""pre-2"":1}","[0]","survey-likert","826","3179239","0.0-826.0","w3d8abn1","","","","","",""
"1529.0449999999255","{""pre-3"":0}","[0]","survey-likert","827","3180769","0.0-827.0","w3d8abn1","","","","","",""
"1319.0749999997206","{""post-5"":2}","[0]","survey-likert","828","3182090","0.0-828.0","w3d8abn1","","","","","",""
"","","","call-function","829","3182091","0.0-829.0","w3d8abn1","","","","","",""
"null","","","video-keyboard-response","830","3185160","0.0-830.0","w3d8abn1","","","","null","Agent A","STIM_SET_1_REAL/1592499.bmp_pp96_L2_V1.0_veridical_freeview_isoFalse_fps144.mp4"
"","","","call-function","831","3185161","0.0-831.0","w3d8abn1","","","","","",""
"1966.1999999997206","{""pre-1"":2}","[0]","survey-likert","832","3187128","0.0-832.0","w3d8abn1","","","","","",""
"3675.1200000001118","{""pre-2"":2}","[0]","survey-likert","833","3190805","0.0-833.0","w3d8abn1","","","","","",""
"1305.1450000000186","{""pre-3"":1}","[0]","survey-likert","834","3192111","0.0-834.0","w3d8abn1","","","","","",""
"2736.8050000001676","{""post-5"":1}","[0]","survey-likert","835","3194849","0.0-835.0","w3d8abn1","","","","","",""
