"rt","responses","question_order","trial_type","trial_index","time_elapsed","internal_node_id","ID","view_history","value","stimulus","key_press","agent","image"
"385832.915","{""Experimenter"":[""Confirmed subject's identity (ID card)"",""Confirmed normal or corrected-to-normal vision"",""Obtained consent (signature and date)"",""Checked the test room lighting"",""Checked computer screen lighting"",""Checked distance from screen to chin rest (50cm)"",""Cleaned and adjusted chin rest"",""Counterbalanced the order of the tasks"",""Opened the experiment in Firefox"",""Made the experiment full screen"",""Encouraged subject to silence phone, put away distractors, etc.""]}","[0]","survey-multi-select","0","385843","0.0-0.0","x6wt9dsu","","","","","",""
"37948.76000000001","","","instructions","1","423793","0.0-1.0","x6wt9dsu","[{""page_index"":0,""viewing_time"":37948.61499999999}]","","","","",""
"9262.104999999981","{""Age"":1,""Sex"":1,""Gender"":1}","[0,1,2]","survey-likert","2","433057","0.0-2.0","x6wt9dsu","","","","","",""
"1576","","","instructions","3","434634","0.0-3.0","x6wt9dsu","[{""page_index"":0,""viewing_time"":1575.905000000028}]","","","","",""
"5601.424999999988","","","instructions","4","440236","0.0-4.0","x6wt9dsu","[{""page_index"":0,""viewing_time"":3576.070000000007},{""page_index"":1,""viewing_time"":2025.2550000000047}]","","","","",""
"10787.690000000002","","","instructions","5","451024","0.0-5.0","x6wt9dsu","[{""page_index"":0,""viewing_time"":2227.5900000000256},{""page_index"":1,""viewing_time"":2175.0499999999884},{""page_index"":2,""viewing_time"":6384.929999999993}]","","","","",""
"1670.625","","","instructions","6","452695","0.0-6.0","x6wt9dsu","[{""page_index"":0,""viewing_time"":1670.5250000000233}]","","","","",""
"","","","call-function","7","452696","0.0-7.0","x6wt9dsu","","","","","",""
"null","","","video-keyboard-response","8","455769","0.0-8.0","x6wt9dsu","","","","null","",""
"","","","call-function","9","455769","0.0-9.0","x6wt9dsu","","","","","",""
"10220.484999999986","","","instructions","10","465990","0.0-10.0","x6wt9dsu","[{""page_index"":0,""viewing_time"":2871.945000000007},{""page_index"":1,""viewing_time"":1796.984999999986},{""page_index"":2,""viewing_time"":943.1350000000093},{""page_index"":3,""viewing_time"":4608.149999999965}]","","","","",""
"1502.7200000000303","","","instructions","11","467494","0.0-11.0","x6wt9dsu","[{""page_index"":0,""viewing_time"":1502.6149999999907}]","","","","",""
"","","","call-function","12","467494","0.0-12.0","x6wt9dsu","","","","","",""
"null","","","video-keyboard-response","13","470570","0.0-13.0","x6wt9dsu","","","","null","",""
"","","","call-function","14","470571","0.0-14.0","x6wt9dsu","","","","","",""
"17294.53999999998","{""pre-1"":1}","[0]","survey-likert","15","487866","0.0-15.0","x6wt9dsu","","","","","",""
"9492.909999999974","{""pre-2"":2}","[0]","survey-likert","16","497360","0.0-16.0","x6wt9dsu","","","","","",""
"5728.700000000012","{""pre-3"":1}","[0]","survey-likert","17","503090","0.0-17.0","x6wt9dsu","","","","","",""
"4385.275000000023","{""post-5"":2}","[0]","survey-likert","18","507477","0.0-18.0","x6wt9dsu","","","","","",""
"1735.515000000014","","","instructions","19","509214","0.0-19.0","x6wt9dsu","[{""page_index"":0,""viewing_time"":1734.9000000000233}]","","","","",""
"5677.544999999984","","","instructions","20","514892","0.0-20.0","x6wt9dsu","[{""page_index"":0,""viewing_time"":5677.429999999993}]","","","","",""
"","","","call-function","21","514892","0.0-21.0","x6wt9dsu","","","","","",""
"null","","","video-keyboard-response","22","517968","0.0-22.0","x6wt9dsu","","","","null","Agent A","STIM_SET_1_REAL/1592804.bmp_pp91_L3_V1.0_veridical_freeview_isoFalse_fps144.mp4"
"","","","call-function","23","517968","0.0-23.0","x6wt9dsu","","","","","",""
"3951.1600000000326","{""pre-1"":2}","[0]","survey-likert","24","521920","0.0-24.0","x6wt9dsu","","","","","",""
"2991.719999999972","{""pre-2"":2}","[0]","survey-likert","25","524913","0.0-25.0","x6wt9dsu","","","","","",""
"4053.935000000056","{""pre-3"":2}","[0]","survey-likert","26","528968","0.0-26.0","x6wt9dsu","","","","","",""
"4915.810000000056","{""post-5"":1}","[0]","survey-likert","27","533885","0.0-27.0","x6wt9dsu","","","","","",""
"","","","call-function","28","533887","0.0-28.0","x6wt9dsu","","","","","",""
"null","","","video-keyboard-response","29","536947","0.0-29.0","x6wt9dsu","","","","null","Agent A","STIM_SET_1_REAL/713089.bmp_pp60_L3_V1.0_veridical_freeview_isoFalse_fps144.mp4"
"","","","call-function","30","536947","0.0-30.0","x6wt9dsu","","","","","",""
"5953.770000000019","{""pre-1"":1}","[0]","survey-likert","31","542902","0.0-31.0","x6wt9dsu","","","","","",""
"2143.530000000028","{""pre-2"":1}","[0]","survey-likert","32","545047","0.0-32.0","x6wt9dsu","","","","","",""
"3511.820000000065","{""pre-3"":1}","[0]","survey-likert","33","548560","0.0-33.0","x6wt9dsu","","","","","",""
"2285.2600000000093","{""post-5"":2}","[0]","survey-likert","34","550846","0.0-34.0","x6wt9dsu","","","","","",""
"","","","call-function","35","550846","0.0-35.0","x6wt9dsu","","","","","",""
"null","","","video-keyboard-response","36","553924","0.0-36.0","x6wt9dsu","","","","null","Agent A","STIM_SET_1_REAL/713211.bmp_pp100_L3_V1.0_scrambled_freeview_isoFalse_fps144.mp4"
"","","","call-function","37","553924","0.0-37.0","x6wt9dsu","","","","","",""
"4271.864999999991","{""pre-1"":2}","[0]","survey-likert","38","558197","0.0-38.0","x6wt9dsu","","","","","",""
"3453.4749999999767","{""pre-2"":3}","[0]","survey-likert","39","561651","0.0-39.0","x6wt9dsu","","","","","",""
"4927.640000000014","{""pre-3"":2}","[0]","survey-likert","40","566580","0.0-40.0","x6wt9dsu","","","","","",""
"4609.910000000033","{""post-5"":1}","[0]","survey-likert","41","571191","0.0-41.0","x6wt9dsu","","","","","",""
"","","","call-function","42","571191","0.0-42.0","x6wt9dsu","","","","","",""
"null","","","video-keyboard-response","43","574278","0.0-43.0","x6wt9dsu","","","","null","Agent A","STIM_SET_1_REAL/498175.bmp_pp154_L1_V1.0_scrambled_freeview_isoFalse_fps144.mp4"
"","","","call-function","44","574279","0.0-44.0","x6wt9dsu","","","","","",""
"6812.389999999898","{""pre-1"":2}","[0]","survey-likert","45","581093","0.0-45.0","x6wt9dsu","","","","","",""
"2783.0100000000093","{""pre-2"":3}","[0]","survey-likert","46","583877","0.0-46.0","x6wt9dsu","","","","","",""
"3791.5950000000885","{""pre-3"":2}","[0]","survey-likert","47","587670","0.0-47.0","x6wt9dsu","","","","","",""
"3878.585000000079","{""post-5"":0}","[0]","survey-likert","48","591550","0.0-48.0","x6wt9dsu","","","","","",""
"","","","call-function","49","591551","0.0-49.0","x6wt9dsu","","","","","",""
"null","","","video-keyboard-response","50","594620","0.0-50.0","x6wt9dsu","","","","null","Agent A","STIM_SET_1_REAL/713135.bmp_pp54_L2_V1.0_veridical_freeview_isoFalse_fps144.mp4"
"","","","call-function","51","594620","0.0-51.0","x6wt9dsu","","","","","",""
"2837.8000000000466","{""pre-1"":1}","[0]","survey-likert","52","597459","0.0-52.0","x6wt9dsu","","","","","",""
"5725.094999999972","{""pre-2"":1}","[0]","survey-likert","53","603185","0.0-53.0","x6wt9dsu","","","","","",""
"2625.9000000000233","{""pre-3"":1}","[0]","survey-likert","54","605812","0.0-54.0","x6wt9dsu","","","","","",""
"4161.910000000033","{""post-5"":2}","[0]","survey-likert","55","609975","0.0-55.0","x6wt9dsu","","","","","",""
"","","","call-function","56","609976","0.0-56.0","x6wt9dsu","","","","","",""
"null","","","video-keyboard-response","57","613036","0.0-57.0","x6wt9dsu","","","","null","Agent A","STIM_SET_1_REAL/285994.bmp_pp92_L3_V1.0_veridical_freeview_isoFalse_fps144.mp4"
"","","","call-function","58","613036","0.0-58.0","x6wt9dsu","","","","","",""
"2997.0899999999674","{""pre-1"":1}","[0]","survey-likert","59","616034","0.0-59.0","x6wt9dsu","","","","","",""
"5636.234999999986","{""pre-2"":1}","[0]","survey-likert","60","621671","0.0-60.0","x6wt9dsu","","","","","",""
"3871.4649999999674","{""pre-3"":1}","[0]","survey-likert","61","625544","0.0-61.0","x6wt9dsu","","","","","",""
"3400.8349999999627","{""post-5"":2}","[0]","survey-likert","62","628946","0.0-62.0","x6wt9dsu","","","","","",""
"","","","call-function","63","628946","0.0-63.0","x6wt9dsu","","","","","",""
"null","","","video-keyboard-response","64","632011","0.0-64.0","x6wt9dsu","","","","null","Agent A","STIM_SET_1_REAL/713089.bmp_pp60_L3_V1.0_scrambled_freeview_isoFalse_fps144.mp4"
"","","","call-function","65","632012","0.0-65.0","x6wt9dsu","","","","","",""
"4183.609999999986","{""pre-1"":2}","[0]","survey-likert","66","636197","0.0-66.0","x6wt9dsu","","","","","",""
"2449.7600000000093","{""pre-2"":2}","[0]","survey-likert","67","638649","0.0-67.0","x6wt9dsu","","","","","",""
"1665.3200000000652","{""pre-3"":2}","[0]","survey-likert","68","640315","0.0-68.0","x6wt9dsu","","","","","",""
"3757.859999999986","{""post-5"":0}","[0]","survey-likert","69","644075","0.0-69.0","x6wt9dsu","","","","","",""
"","","","call-function","70","644075","0.0-70.0","x6wt9dsu","","","","","",""
"null","","","video-keyboard-response","71","647153","0.0-71.0","x6wt9dsu","","","","null","Agent A","STIM_SET_1_REAL/498111.bmp_pp88_L2_V1.0_veridical_freeview_isoFalse_fps144.mp4"
"","","","call-function","72","647153","0.0-72.0","x6wt9dsu","","","","","",""
"4440.920000000042","{""pre-1"":0}","[0]","survey-likert","73","651595","0.0-73.0","x6wt9dsu","","","","","",""
"2433.414999999921","{""pre-2"":0}","[0]","survey-likert","74","654030","0.0-74.0","x6wt9dsu","","","","","",""
"4613.675000000047","{""pre-3"":0}","[0]","survey-likert","75","658645","0.0-75.0","x6wt9dsu","","","","","",""
"3814.3649999999907","{""post-5"":2}","[0]","survey-likert","76","662460","0.0-76.0","x6wt9dsu","","","","","",""
"","","","call-function","77","662460","0.0-77.0","x6wt9dsu","","","","","",""
"null","","","video-keyboard-response","78","665536","0.0-78.0","x6wt9dsu","","","","null","Agent A","STIM_SET_1_REAL/1591994.bmp_pp69_L3_V1.0_scrambled_freeview_isoFalse_fps144.mp4"
"","","","call-function","79","665537","0.0-79.0","x6wt9dsu","","","","","",""
"2790.3700000001118","{""pre-1"":0}","[0]","survey-likert","80","668328","0.0-80.0","x6wt9dsu","","","","","",""
"2264.9150000000373","{""pre-2"":0}","[0]","survey-likert","81","670594","0.0-81.0","x6wt9dsu","","","","","",""
"4867.899999999907","{""pre-3"":0}","[0]","survey-likert","82","675463","0.0-82.0","x6wt9dsu","","","","","",""
"2158.3850000000093","{""post-5"":3}","[0]","survey-likert","83","677622","0.0-83.0","x6wt9dsu","","","","","",""
"","","","call-function","84","677623","0.0-84.0","x6wt9dsu","","","","","",""
"null","","","video-keyboard-response","85","680700","0.0-85.0","x6wt9dsu","","","","null","Agent A","STIM_SET_1_REAL/713620.bmp_pp65_L3_V1.0_scrambled_freeview_isoFalse_fps144.mp4"
"","","","call-function","86","680700","0.0-86.0","x6wt9dsu","","","","","",""
"4447.660000000033","{""pre-1"":3}","[0]","survey-likert","87","685148","0.0-87.0","x6wt9dsu","","","","","",""
"2434.5599999999395","{""pre-2"":2}","[0]","survey-likert","88","687584","0.0-88.0","x6wt9dsu","","","","","",""
"6875.445000000065","{""pre-3"":2}","[0]","survey-likert","89","694461","0.0-89.0","x6wt9dsu","","","","","",""
"5419.864999999991","{""post-5"":1}","[0]","survey-likert","90","699883","0.0-90.0","x6wt9dsu","","","","","",""
"","","","call-function","91","699884","0.0-91.0","x6wt9dsu","","","","","",""
"null","","","video-keyboard-response","92","702959","0.0-92.0","x6wt9dsu","","","","null","Agent A","STIM_SET_1_REAL/1159675.bmp_pp77_L3_V1.0_scrambled_freeview_isoFalse_fps144.mp4"
"","","","call-function","93","702959","0.0-93.0","x6wt9dsu","","","","","",""
"3895.055000000051","{""pre-1"":2}","[0]","survey-likert","94","706855","0.0-94.0","x6wt9dsu","","","","","",""
"2195.7600000000093","{""pre-2"":2}","[0]","survey-likert","95","709053","0.0-95.0","x6wt9dsu","","","","","",""
"2396.0849999999627","{""pre-3"":2}","[0]","survey-likert","96","711450","0.0-96.0","x6wt9dsu","","","","","",""
"3801.9949999999953","{""post-5"":0}","[0]","survey-likert","97","715253","0.0-97.0","x6wt9dsu","","","","","",""
"","","","call-function","98","715253","0.0-98.0","x6wt9dsu","","","","","",""
"null","","","video-keyboard-response","99","718328","0.0-99.0","x6wt9dsu","","","","null","Agent A","STIM_SET_1_REAL/1159855.bmp_pp99_L2_V1.0_veridical_freeview_isoFalse_fps144.mp4"
"","","","call-function","100","718329","0.0-100.0","x6wt9dsu","","","","","",""
"4946.635000000009","{""pre-1"":2}","[0]","survey-likert","101","723276","0.0-101.0","x6wt9dsu","","","","","",""
"2223.1049999999814","{""pre-2"":1}","[0]","survey-likert","102","725500","0.0-102.0","x6wt9dsu","","","","","",""
"3380.1199999999953","{""pre-3"":1}","[0]","survey-likert","103","728881","0.0-103.0","x6wt9dsu","","","","","",""
"3958.8099999999395","{""post-5"":1}","[0]","survey-likert","104","732841","0.0-104.0","x6wt9dsu","","","","","",""
"","","","call-function","105","732841","0.0-105.0","x6wt9dsu","","","","","",""
"null","","","video-keyboard-response","106","735916","0.0-106.0","x6wt9dsu","","","","null","Agent A","STIM_SET_1_REAL/713749.bmp_pp88_L2_V1.0_veridical_freeview_isoFalse_fps144.mp4"
"","","","call-function","107","735916","0.0-107.0","x6wt9dsu","","","","","",""
"5202.925000000047","{""pre-1"":2}","[0]","survey-likert","108","741120","0.0-108.0","x6wt9dsu","","","","","",""
"4942.435000000056","{""pre-2"":2}","[0]","survey-likert","109","746064","0.0-109.0","x6wt9dsu","","","","","",""
"1928.719999999972","{""pre-3"":2}","[0]","survey-likert","110","747993","0.0-110.0","x6wt9dsu","","","","","",""
"1678.640000000014","{""post-5"":1}","[0]","survey-likert","111","749674","0.0-111.0","x6wt9dsu","","","","","",""
"","","","call-function","112","749675","0.0-112.0","x6wt9dsu","","","","","",""
"null","","","video-keyboard-response","113","752737","0.0-113.0","x6wt9dsu","","","","null","Agent A","STIM_SET_1_REAL/286001.bmp_pp54_L2_V1.0_veridical_freeview_isoFalse_fps144.mp4"
"","","","call-function","114","752737","0.0-114.0","x6wt9dsu","","","","","",""
"15479.36499999999","{""pre-1"":2}","[0]","survey-likert","115","768218","0.0-115.0","x6wt9dsu","","","","","",""
"6031.119999999995","{""pre-2"":2}","[0]","survey-likert","116","774250","0.0-116.0","x6wt9dsu","","","","","",""
"2050.0449999999255","{""pre-3"":2}","[0]","survey-likert","117","776301","0.0-117.0","x6wt9dsu","","","","","",""
"2833.2550000000047","{""post-5"":1}","[0]","survey-likert","118","779136","0.0-118.0","x6wt9dsu","","","","","",""
"","","","call-function","119","779136","0.0-119.0","x6wt9dsu","","","","","",""
"null","","","video-keyboard-response","120","782215","0.0-120.0","x6wt9dsu","","","","null","Agent A","STIM_SET_1_REAL/713666.bmp_pp97_L3_V1.0_scrambled_freeview_isoFalse_fps144.mp4"
"","","","call-function","121","782216","0.0-121.0","x6wt9dsu","","","","","",""
"4502.939999999944","{""pre-1"":2}","[0]","survey-likert","122","786720","0.0-122.0","x6wt9dsu","","","","","",""
"4568.915000000037","{""pre-2"":0}","[0]","survey-likert","123","791290","0.0-123.0","x6wt9dsu","","","","","",""
"4484.340000000084","{""pre-3"":0}","[0]","survey-likert","124","795775","0.0-124.0","x6wt9dsu","","","","","",""
"3305.0500000000466","{""post-5"":1}","[0]","survey-likert","125","799081","0.0-125.0","x6wt9dsu","","","","","",""
"","","","call-function","126","799082","0.0-126.0","x6wt9dsu","","","","","",""
"null","","","video-keyboard-response","127","802147","0.0-127.0","x6wt9dsu","","","","null","Agent A","STIM_SET_1_REAL/713779.bmp_pp152_L2_V1.0_scrambled_freeview_isoFalse_fps144.mp4"
"","","","call-function","128","802148","0.0-128.0","x6wt9dsu","","","","","",""
"3725.6849999999395","{""pre-1"":2}","[0]","survey-likert","129","805874","0.0-129.0","x6wt9dsu","","","","","",""
"3215.0899999999674","{""pre-2"":1}","[0]","survey-likert","130","809091","0.0-130.0","x6wt9dsu","","","","","",""
"2638.454999999958","{""pre-3"":1}","[0]","survey-likert","131","811732","0.0-131.0","x6wt9dsu","","","","","",""
"3273.2549999998882","{""post-5"":1}","[0]","survey-likert","132","815006","0.0-132.0","x6wt9dsu","","","","","",""
"","","","call-function","133","815006","0.0-133.0","x6wt9dsu","","","","","",""
"null","","","video-keyboard-response","134","818084","0.0-134.0","x6wt9dsu","","","","null","Agent A","STIM_SET_1_REAL/713684.bmp_pp85_L3_V1.0_veridical_freeview_isoFalse_fps144.mp4"
"","","","call-function","135","818085","0.0-135.0","x6wt9dsu","","","","","",""
"4255.074999999953","{""pre-1"":1}","[0]","survey-likert","136","822342","0.0-136.0","x6wt9dsu","","","","","",""
"1893.6650000000373","{""pre-2"":0}","[0]","survey-likert","137","824237","0.0-137.0","x6wt9dsu","","","","","",""
"2228.219999999972","{""pre-3"":0}","[0]","survey-likert","138","826466","0.0-138.0","x6wt9dsu","","","","","",""
"3259.335000000079","{""post-5"":3}","[0]","survey-likert","139","829727","0.0-139.0","x6wt9dsu","","","","","",""
"","","","call-function","140","829728","0.0-140.0","x6wt9dsu","","","","","",""
"null","","","video-keyboard-response","141","832798","0.0-141.0","x6wt9dsu","","","","null","Agent A","STIM_SET_1_REAL/1592397.bmp_pp85_L3_V1.0_veridical_freeview_isoFalse_fps144.mp4"
"","","","call-function","142","832799","0.0-142.0","x6wt9dsu","","","","","",""
"2660.954999999958","{""pre-1"":2}","[0]","survey-likert","143","835461","0.0-143.0","x6wt9dsu","","","","","",""
"1397.109999999986","{""pre-2"":1}","[0]","survey-likert","144","836859","0.0-144.0","x6wt9dsu","","","","","",""
"1768.8850000000093","{""pre-3"":1}","[0]","survey-likert","145","838629","0.0-145.0","x6wt9dsu","","","","","",""
"2380.984999999986","{""post-5"":1}","[0]","survey-likert","146","841011","0.0-146.0","x6wt9dsu","","","","","",""
"","","","call-function","147","841012","0.0-147.0","x6wt9dsu","","","","","",""
"null","","","video-keyboard-response","148","844074","0.0-148.0","x6wt9dsu","","","","null","Agent A","STIM_SET_1_REAL/1592619.bmp_pp56_L3_V1.0_scrambled_freeview_isoFalse_fps144.mp4"
"","","","call-function","149","844074","0.0-149.0","x6wt9dsu","","","","","",""
"4187.109999999986","{""pre-1"":3}","[0]","survey-likert","150","848262","0.0-150.0","x6wt9dsu","","","","","",""
"1770.3499999999767","{""pre-2"":3}","[0]","survey-likert","151","850033","0.0-151.0","x6wt9dsu","","","","","",""
"3393.765000000014","{""pre-3"":3}","[0]","survey-likert","152","853428","0.0-152.0","x6wt9dsu","","","","","",""
"2379.9949999999953","{""post-5"":0}","[0]","survey-likert","153","855809","0.0-153.0","x6wt9dsu","","","","","",""
"","","","call-function","154","855810","0.0-154.0","x6wt9dsu","","","","","",""
"null","","","video-keyboard-response","155","858886","0.0-155.0","x6wt9dsu","","","","null","Agent A","STIM_SET_1_REAL/1592657.bmp_pp98_L1_V1.0_scrambled_freeview_isoFalse_fps144.mp4"
"","","","call-function","156","858887","0.0-156.0","x6wt9dsu","","","","","",""
"2152.920000000042","{""pre-1"":2}","[0]","survey-likert","157","861041","0.0-157.0","x6wt9dsu","","","","","",""
"2076.4550000000745","{""pre-2"":2}","[0]","survey-likert","158","863118","0.0-158.0","x6wt9dsu","","","","","",""
"3081.6750000000466","{""pre-3"":1}","[0]","survey-likert","159","866201","0.0-159.0","x6wt9dsu","","","","","",""
"2658.4749999999767","{""post-5"":1}","[0]","survey-likert","160","868860","0.0-160.0","x6wt9dsu","","","","","",""
"24110.359999999986","","","instructions","161","892972","0.0-161.0","x6wt9dsu","[{""page_index"":0,""viewing_time"":1491.5849999999627},{""page_index"":1,""viewing_time"":21397.86499999999},{""page_index"":2,""viewing_time"":1220.1899999999441}]","","","","",""
"11513.794999999925","","","instructions","162","904486","0.0-162.0","x6wt9dsu","[{""page_index"":0,""viewing_time"":1947.7550000000047},{""page_index"":1,""viewing_time"":8658.119999999995},{""page_index"":2,""viewing_time"":907.8199999999488}]","","","","",""
"","","","call-function","163","904487","0.0-163.0","x6wt9dsu","","","","","",""
"null","","","video-keyboard-response","164","907565","0.0-164.0","x6wt9dsu","","","","null","Agent A","STIM_SET_1_REAL/1592807.bmp_pp68_L1_V1.0_scrambled_freeview_isoFalse_fps144.mp4"
"","","","call-function","165","907566","0.0-165.0","x6wt9dsu","","","","","",""
"4600.709999999963","{""pre-1"":1}","[0]","survey-likert","166","912168","0.0-166.0","x6wt9dsu","","","","","",""
"6317.010000000009","{""pre-2"":1}","[0]","survey-likert","167","918486","0.0-167.0","x6wt9dsu","","","","","",""
"3191.7449999999953","{""pre-3"":1}","[0]","survey-likert","168","921679","0.0-168.0","x6wt9dsu","","","","","",""
"3875.444999999949","{""post-5"":2}","[0]","survey-likert","169","925556","0.0-169.0","x6wt9dsu","","","","","",""
"","","","call-function","170","925556","0.0-170.0","x6wt9dsu","","","","","",""
"null","","","video-keyboard-response","171","928627","0.0-171.0","x6wt9dsu","","","","null","Agent A","STIM_SET_1_REAL/1160168.bmp_pp53_L2_V1.0_veridical_freeview_isoFalse_fps144.mp4"
"","","","call-function","172","928628","0.0-172.0","x6wt9dsu","","","","","",""
"3841.82500000007","{""pre-1"":1}","[0]","survey-likert","173","932470","0.0-173.0","x6wt9dsu","","","","","",""
"2202.3249999999534","{""pre-2"":2}","[0]","survey-likert","174","934674","0.0-174.0","x6wt9dsu","","","","","",""
"1633.765000000014","{""pre-3"":2}","[0]","survey-likert","175","936308","0.0-175.0","x6wt9dsu","","","","","",""
"4680.989999999991","{""post-5"":1}","[0]","survey-likert","176","940990","0.0-176.0","x6wt9dsu","","","","","",""
"","","","call-function","177","940991","0.0-177.0","x6wt9dsu","","","","","",""
"null","","","video-keyboard-response","178","944050","0.0-178.0","x6wt9dsu","","","","null","Agent A","STIM_SET_1_REAL/1159446.bmp_pp60_L3_V1.0_scrambled_freeview_isoFalse_fps144.mp4"
"","","","call-function","179","944050","0.0-179.0","x6wt9dsu","","","","","",""
"3771.5","{""pre-1"":1}","[0]","survey-likert","180","947822","0.0-180.0","x6wt9dsu","","","","","",""
"2487.859999999986","{""pre-2"":0}","[0]","survey-likert","181","950313","0.0-181.0","x6wt9dsu","","","","","",""
"2297.609999999986","{""pre-3"":0}","[0]","survey-likert","182","952611","0.0-182.0","x6wt9dsu","","","","","",""
"3136.555000000051","{""post-5"":2}","[0]","survey-likert","183","955749","0.0-183.0","x6wt9dsu","","","","","",""
"","","","call-function","184","955749","0.0-184.0","x6wt9dsu","","","","","",""
"null","","","video-keyboard-response","185","958819","0.0-185.0","x6wt9dsu","","","","null","Agent A","STIM_SET_1_REAL/1592934.bmp_pp63_L1_V1.0_veridical_freeview_isoFalse_fps144.mp4"
"","","","call-function","186","958820","0.0-186.0","x6wt9dsu","","","","","",""
"5703.464999999967","{""pre-1"":2}","[0]","survey-likert","187","964526","0.0-187.0","x6wt9dsu","","","","","",""
"3250.0250000000233","{""pre-2"":1}","[0]","survey-likert","188","967778","0.0-188.0","x6wt9dsu","","","","","",""
"2855.2550000000047","{""pre-3"":1}","[0]","survey-likert","189","970635","0.0-189.0","x6wt9dsu","","","","","",""
"3241.930000000051","{""post-5"":1}","[0]","survey-likert","190","973878","0.0-190.0","x6wt9dsu","","","","","",""
"","","","call-function","191","973878","0.0-191.0","x6wt9dsu","","","","","",""
"null","","","video-keyboard-response","192","976941","0.0-192.0","x6wt9dsu","","","","null","Agent A","STIM_SET_1_REAL/1592351.bmp_pp51_L1_V1.0_veridical_freeview_isoFalse_fps144.mp4"
"","","","call-function","193","976942","0.0-193.0","x6wt9dsu","","","","","",""
"3178.8349999999627","{""pre-1"":3}","[0]","survey-likert","194","980122","0.0-194.0","x6wt9dsu","","","","","",""
"2799.95000000007","{""pre-2"":3}","[0]","survey-likert","195","982923","0.0-195.0","x6wt9dsu","","","","","",""
"2068.8549999999814","{""pre-3"":3}","[0]","survey-likert","196","984993","0.0-196.0","x6wt9dsu","","","","","",""
"4470.614999999991","{""post-5"":1}","[0]","survey-likert","197","989465","0.0-197.0","x6wt9dsu","","","","","",""
"","","","call-function","198","989465","0.0-198.0","x6wt9dsu","","","","","",""
"null","","","video-keyboard-response","199","992540","0.0-199.0","x6wt9dsu","","","","null","Agent A","STIM_SET_1_REAL/713211.bmp_pp100_L3_V1.0_veridical_freeview_isoFalse_fps144.mp4"
"","","","call-function","200","992541","0.0-200.0","x6wt9dsu","","","","","",""
"3003.920000000042","{""pre-1"":1}","[0]","survey-likert","201","995546","0.0-201.0","x6wt9dsu","","","","","",""
"2273.984999999986","{""pre-2"":1}","[0]","survey-likert","202","997821","0.0-202.0","x6wt9dsu","","","","","",""
"1498.9599999999627","{""pre-3"":1}","[0]","survey-likert","203","999320","0.0-203.0","x6wt9dsu","","","","","",""
"2054.0200000000186","{""post-5"":2}","[0]","survey-likert","204","1001376","0.0-204.0","x6wt9dsu","","","","","",""
"","","","call-function","205","1001376","0.0-205.0","x6wt9dsu","","","","","",""
"null","","","video-keyboard-response","206","1004440","0.0-206.0","x6wt9dsu","","","","null","Agent A","STIM_SET_1_REAL/498170.bmp_pp153_L3_V1.0_scrambled_freeview_isoFalse_fps144.mp4"
"","","","call-function","207","1004441","0.0-207.0","x6wt9dsu","","","","","",""
"3638.939999999944","{""pre-1"":0}","[0]","survey-likert","208","1008081","0.0-208.0","x6wt9dsu","","","","","",""
"4702.265000000014","{""pre-2"":0}","[0]","survey-likert","209","1012784","0.0-209.0","x6wt9dsu","","","","","",""
"2424.75","{""pre-3"":0}","[0]","survey-likert","210","1015210","0.0-210.0","x6wt9dsu","","","","","",""
"2841.1999999999534","{""post-5"":3}","[0]","survey-likert","211","1018052","0.0-211.0","x6wt9dsu","","","","","",""
"","","","call-function","212","1018052","0.0-212.0","x6wt9dsu","","","","","",""
"null","","","video-keyboard-response","213","1021122","0.0-213.0","x6wt9dsu","","","","null","Agent A","STIM_SET_1_REAL/713017.bmp_pp152_L2_V1.0_scrambled_freeview_isoFalse_fps144.mp4"
"","","","call-function","214","1021122","0.0-214.0","x6wt9dsu","","","","","",""
"7880.739999999991","{""pre-1"":1}","[0]","survey-likert","215","1029005","0.0-215.0","x6wt9dsu","","","","","",""
"4216.395000000019","{""pre-2"":1}","[0]","survey-likert","216","1033223","0.0-216.0","x6wt9dsu","","","","","",""
"2937.9799999999814","{""pre-3"":1}","[0]","survey-likert","217","1036163","0.0-217.0","x6wt9dsu","","","","","",""
"4301.290000000037","{""post-5"":1}","[0]","survey-likert","218","1040466","0.0-218.0","x6wt9dsu","","","","","",""
"","","","call-function","219","1040466","0.0-219.0","x6wt9dsu","","","","","",""
"null","","","video-keyboard-response","220","1043545","0.0-220.0","x6wt9dsu","","","","null","Agent A","STIM_SET_1_REAL/285751.bmp_pp55_L3_V1.0_scrambled_freeview_isoFalse_fps144.mp4"
"","","","call-function","221","1043545","0.0-221.0","x6wt9dsu","","","","","",""
"4904.599999999977","{""pre-1"":2}","[0]","survey-likert","222","1048451","0.0-222.0","x6wt9dsu","","","","","",""
"2745.1199999999953","{""pre-2"":0}","[0]","survey-likert","223","1051197","0.0-223.0","x6wt9dsu","","","","","",""
"1960.3100000000559","{""pre-3"":1}","[0]","survey-likert","224","1053159","0.0-224.0","x6wt9dsu","","","","","",""
"3251.0449999999255","{""post-5"":0}","[0]","survey-likert","225","1056411","0.0-225.0","x6wt9dsu","","","","","",""
"","","","call-function","226","1056412","0.0-226.0","x6wt9dsu","","","","","",""
"null","","","video-keyboard-response","227","1059488","0.0-227.0","x6wt9dsu","","","","null","Agent A","STIM_SET_1_REAL/1593146.bmp_pp93_L1_V1.0_veridical_freeview_isoFalse_fps144.mp4"
"","","","call-function","228","1059489","0.0-228.0","x6wt9dsu","","","","","",""
"5127.189999999944","{""pre-1"":1}","[0]","survey-likert","229","1064617","0.0-229.0","x6wt9dsu","","","","","",""
"2002.7999999998137","{""pre-2"":0}","[0]","survey-likert","230","1066621","0.0-230.0","x6wt9dsu","","","","","",""
"2285.655000000028","{""pre-3"":0}","[0]","survey-likert","231","1068907","0.0-231.0","x6wt9dsu","","","","","",""
"2834.2649999998976","{""post-5"":2}","[0]","survey-likert","232","1071743","0.0-232.0","x6wt9dsu","","","","","",""
"","","","call-function","233","1071743","0.0-233.0","x6wt9dsu","","","","","",""
"null","","","video-keyboard-response","234","1074819","0.0-234.0","x6wt9dsu","","","","null","Agent A","STIM_SET_1_REAL/1159777.bmp_pp77_L3_V1.0_scrambled_freeview_isoFalse_fps144.mp4"
"","","","call-function","235","1074820","0.0-235.0","x6wt9dsu","","","","","",""
"5429.725000000093","{""pre-1"":1}","[0]","survey-likert","236","1080252","0.0-236.0","x6wt9dsu","","","","","",""
"6161.239999999991","{""pre-2"":0}","[0]","survey-likert","237","1086414","0.0-237.0","x6wt9dsu","","","","","",""
"2865.6999999999534","{""pre-3"":0}","[0]","survey-likert","238","1089281","0.0-238.0","x6wt9dsu","","","","","",""
"3194.469999999972","{""post-5"":2}","[0]","survey-likert","239","1092477","0.0-239.0","x6wt9dsu","","","","","",""
"","","","call-function","240","1092477","0.0-240.0","x6wt9dsu","","","","","",""
"null","","","video-keyboard-response","241","1095555","0.0-241.0","x6wt9dsu","","","","null","Agent A","STIM_SET_1_REAL/1592372.bmp_pp76_L1_V1.0_scrambled_freeview_isoFalse_fps144.mp4"
"","","","call-function","242","1095555","0.0-242.0","x6wt9dsu","","","","","",""
"2998.1699999999255","{""pre-1"":2}","[0]","survey-likert","243","1098554","0.0-243.0","x6wt9dsu","","","","","",""
"1940.1750000000466","{""pre-2"":2}","[0]","survey-likert","244","1100496","0.0-244.0","x6wt9dsu","","","","","",""
"2071.314999999944","{""pre-3"":2}","[0]","survey-likert","245","1102568","0.0-245.0","x6wt9dsu","","","","","",""
"5199.375","{""post-5"":0}","[0]","survey-likert","246","1107769","0.0-246.0","x6wt9dsu","","","","","",""
"","","","call-function","247","1107769","0.0-247.0","x6wt9dsu","","","","","",""
"null","","","video-keyboard-response","248","1110846","0.0-248.0","x6wt9dsu","","","","null","Agent A","STIM_SET_1_REAL/498253.bmp_pp67_L2_V1.0_veridical_freeview_isoFalse_fps144.mp4"
"","","","call-function","249","1110846","0.0-249.0","x6wt9dsu","","","","","",""
"2765.2099999999627","{""pre-1"":2}","[0]","survey-likert","250","1113613","0.0-250.0","x6wt9dsu","","","","","",""
"1903.5600000000559","{""pre-2"":2}","[0]","survey-likert","251","1115517","0.0-251.0","x6wt9dsu","","","","","",""
"2864.2649999998976","{""pre-3"":2}","[0]","survey-likert","252","1118382","0.0-252.0","x6wt9dsu","","","","","",""
"3030.160000000149","{""post-5"":1}","[0]","survey-likert","253","1121414","0.0-253.0","x6wt9dsu","","","","","",""
"","","","call-function","254","1121414","0.0-254.0","x6wt9dsu","","","","","",""
"null","","","video-keyboard-response","255","1124487","0.0-255.0","x6wt9dsu","","","","null","Agent A","STIM_SET_1_REAL/1159777.bmp_pp77_L3_V1.0_veridical_freeview_isoFalse_fps144.mp4"
"","","","call-function","256","1124487","0.0-256.0","x6wt9dsu","","","","","",""
"3763.0850000001956","{""pre-1"":0}","[0]","survey-likert","257","1128252","0.0-257.0","x6wt9dsu","","","","","",""
"3480.1399999998976","{""pre-2"":0}","[0]","survey-likert","258","1131734","0.0-258.0","x6wt9dsu","","","","","",""
"1585.3049999999348","{""pre-3"":0}","[0]","survey-likert","259","1133321","0.0-259.0","x6wt9dsu","","","","","",""
"4530.629999999888","{""post-5"":2}","[0]","survey-likert","260","1137853","0.0-260.0","x6wt9dsu","","","","","",""
"","","","call-function","261","1137854","0.0-261.0","x6wt9dsu","","","","","",""
"null","","","video-keyboard-response","262","1140915","0.0-262.0","x6wt9dsu","","","","null","Agent A","STIM_SET_1_REAL/713779.bmp_pp152_L2_V1.0_veridical_freeview_isoFalse_fps144.mp4"
"","","","call-function","263","1140915","0.0-263.0","x6wt9dsu","","","","","",""
"2982.5200000000186","{""pre-1"":2}","[0]","survey-likert","264","1143899","0.0-264.0","x6wt9dsu","","","","","",""
"2542.5399999998044","{""pre-2"":3}","[0]","survey-likert","265","1146442","0.0-265.0","x6wt9dsu","","","","","",""
"2399.2099999999627","{""pre-3"":1}","[0]","survey-likert","266","1148843","0.0-266.0","x6wt9dsu","","","","","",""
"3413.7549999998882","{""post-5"":1}","[0]","survey-likert","267","1152258","0.0-267.0","x6wt9dsu","","","","","",""
"","","","call-function","268","1152259","0.0-268.0","x6wt9dsu","","","","","",""
"null","","","video-keyboard-response","269","1155318","0.0-269.0","x6wt9dsu","","","","null","Agent A","STIM_SET_1_REAL/1159447.bmp_pp70_L2_V1.0_scrambled_freeview_isoFalse_fps144.mp4"
"","","","call-function","270","1155319","0.0-270.0","x6wt9dsu","","","","","",""
"5618.369999999879","{""pre-1"":1}","[0]","survey-likert","271","1160938","0.0-271.0","x6wt9dsu","","","","","",""
"1689.3850000000093","{""pre-2"":1}","[0]","survey-likert","272","1162629","0.0-272.0","x6wt9dsu","","","","","",""
"2118.284999999916","{""pre-3"":1}","[0]","survey-likert","273","1164748","0.0-273.0","x6wt9dsu","","","","","",""
"3130.5200000000186","{""post-5"":2}","[0]","survey-likert","274","1167880","0.0-274.0","x6wt9dsu","","","","","",""
"","","","call-function","275","1167880","0.0-275.0","x6wt9dsu","","","","","",""
"null","","","video-keyboard-response","276","1170956","0.0-276.0","x6wt9dsu","","","","null","Agent A","STIM_SET_1_REAL/61537.bmp_pp73_L3_V1.0_veridical_freeview_isoFalse_fps144.mp4"
"","","","call-function","277","1170957","0.0-277.0","x6wt9dsu","","","","","",""
"2848.2299999999814","{""pre-1"":2}","[0]","survey-likert","278","1173806","0.0-278.0","x6wt9dsu","","","","","",""
"1709.994999999879","{""pre-2"":1}","[0]","survey-likert","279","1175517","0.0-279.0","x6wt9dsu","","","","","",""
"3660.2349999998696","{""pre-3"":0}","[0]","survey-likert","280","1179178","0.0-280.0","x6wt9dsu","","","","","",""
"2720.064999999944","{""post-5"":1}","[0]","survey-likert","281","1181900","0.0-281.0","x6wt9dsu","","","","","",""
"","","","call-function","282","1181901","0.0-282.0","x6wt9dsu","","","","","",""
"null","","","video-keyboard-response","283","1184979","0.0-283.0","x6wt9dsu","","","","null","Agent A","STIM_SET_1_REAL/1591954.bmp_pp62_L2_V1.0_scrambled_freeview_isoFalse_fps144.mp4"
"","","","call-function","284","1184980","0.0-284.0","x6wt9dsu","","","","","",""
"5543.069999999832","{""pre-1"":3}","[0]","survey-likert","285","1190524","0.0-285.0","x6wt9dsu","","","","","",""
"6273.540000000037","{""pre-2"":2}","[0]","survey-likert","286","1196799","0.0-286.0","x6wt9dsu","","","","","",""
"2057.945000000065","{""pre-3"":1}","[0]","survey-likert","287","1198858","0.0-287.0","x6wt9dsu","","","","","",""
"3384.3850000000093","{""post-5"":0}","[0]","survey-likert","288","1202244","0.0-288.0","x6wt9dsu","","","","","",""
"","","","call-function","289","1202244","0.0-289.0","x6wt9dsu","","","","","",""
"null","","","video-keyboard-response","290","1205321","0.0-290.0","x6wt9dsu","","","","null","Agent A","STIM_SET_1_REAL/1592372.bmp_pp76_L1_V1.0_veridical_freeview_isoFalse_fps144.mp4"
"","","","call-function","291","1205322","0.0-291.0","x6wt9dsu","","","","","",""
"4361.844999999972","{""pre-1"":2}","[0]","survey-likert","292","1209685","0.0-292.0","x6wt9dsu","","","","","",""
"2983.2350000001024","{""pre-2"":2}","[0]","survey-likert","293","1212669","0.0-293.0","x6wt9dsu","","","","","",""
"3119.0250000001397","{""pre-3"":2}","[0]","survey-likert","294","1215789","0.0-294.0","x6wt9dsu","","","","","",""
"3127.439999999944","{""post-5"":1}","[0]","survey-likert","295","1218918","0.0-295.0","x6wt9dsu","","","","","",""
"","","","call-function","296","1218918","0.0-296.0","x6wt9dsu","","","","","",""
"null","","","video-keyboard-response","297","1221980","0.0-297.0","x6wt9dsu","","","","null","Agent A","STIM_SET_1_REAL/1592817.bmp_pp55_L3_V1.0_scrambled_freeview_isoFalse_fps144.mp4"
"","","","call-function","298","1221981","0.0-298.0","x6wt9dsu","","","","","",""
"7044.604999999981","{""pre-1"":1}","[0]","survey-likert","299","1229026","0.0-299.0","x6wt9dsu","","","","","",""
"4696.454999999842","{""pre-2"":2}","[0]","survey-likert","300","1233724","0.0-300.0","x6wt9dsu","","","","","",""
"2705.6450000000186","{""pre-3"":1}","[0]","survey-likert","301","1236431","0.0-301.0","x6wt9dsu","","","","","",""
"4505.51500000013","{""post-5"":1}","[0]","survey-likert","302","1240939","0.0-302.0","x6wt9dsu","","","","","",""
"21189.625","","","instructions","303","1262130","0.0-303.0","x6wt9dsu","[{""page_index"":0,""viewing_time"":1225.1699999999255},{""page_index"":1,""viewing_time"":18072.860000000102},{""page_index"":2,""viewing_time"":1891.0249999999069}]","","","","",""
"3563.445000000065","","","instructions","304","1265694","0.0-304.0","x6wt9dsu","[{""page_index"":0,""viewing_time"":1236.380000000121},{""page_index"":1,""viewing_time"":1588.9899999999907},{""page_index"":2,""viewing_time"":737.9749999998603}]","","","","",""
"","","","call-function","305","1265695","0.0-305.0","x6wt9dsu","","","","","",""
"null","","","video-keyboard-response","306","1268761","0.0-306.0","x6wt9dsu","","","","null","Agent A","STIM_SET_1_REAL/1159572.bmp_pp71_L1_V1.0_scrambled_freeview_isoFalse_fps144.mp4"
"","","","call-function","307","1268762","0.0-307.0","x6wt9dsu","","","","","",""
"2802.839999999851","{""pre-1"":2}","[0]","survey-likert","308","1271566","0.0-308.0","x6wt9dsu","","","","","",""
"4727.715000000084","{""pre-2"":2}","[0]","survey-likert","309","1276295","0.0-309.0","x6wt9dsu","","","","","",""
"3264.945000000065","{""pre-3"":1}","[0]","survey-likert","310","1279561","0.0-310.0","x6wt9dsu","","","","","",""
"5503.909999999916","{""post-5"":2}","[0]","survey-likert","311","1285066","0.0-311.0","x6wt9dsu","","","","","",""
"","","","call-function","312","1285067","0.0-312.0","x6wt9dsu","","","","","",""
"null","","","video-keyboard-response","313","1288129","0.0-313.0","x6wt9dsu","","","","null","Agent A","STIM_SET_1_REAL/286001.bmp_pp54_L2_V1.0_scrambled_freeview_isoFalse_fps144.mp4"
"","","","call-function","314","1288129","0.0-314.0","x6wt9dsu","","","","","",""
"4843.060000000056","{""pre-1"":2}","[0]","survey-likert","315","1292973","0.0-315.0","x6wt9dsu","","","","","",""
"8935.969999999972","{""pre-2"":2}","[0]","survey-likert","316","1301910","0.0-316.0","x6wt9dsu","","","","","",""
"2150.6949999998324","{""pre-3"":1}","[0]","survey-likert","317","1304062","0.0-317.0","x6wt9dsu","","","","","",""
"5651.040000000037","{""post-5"":1}","[0]","survey-likert","318","1309714","0.0-318.0","x6wt9dsu","","","","","",""
"","","","call-function","319","1309715","0.0-319.0","x6wt9dsu","","","","","",""
"null","","","video-keyboard-response","320","1312775","0.0-320.0","x6wt9dsu","","","","null","Agent A","STIM_SET_1_REAL/497950.bmp_pp151_L1_V1.0_scrambled_freeview_isoFalse_fps144.mp4"
"","","","call-function","321","1312775","0.0-321.0","x6wt9dsu","","","","","",""
"5692.945000000065","{""pre-1"":1}","[0]","survey-likert","322","1318469","0.0-322.0","x6wt9dsu","","","","","",""
"3571.5049999998882","{""pre-2"":2}","[0]","survey-likert","323","1322042","0.0-323.0","x6wt9dsu","","","","","",""
"5466.989999999991","{""pre-3"":1}","[0]","survey-likert","324","1327510","0.0-324.0","x6wt9dsu","","","","","",""
"1637.4099999999162","{""post-5"":2}","[0]","survey-likert","325","1329150","0.0-325.0","x6wt9dsu","","","","","",""
"","","","call-function","326","1329151","0.0-326.0","x6wt9dsu","","","","","",""
"null","","","video-keyboard-response","327","1332218","0.0-327.0","x6wt9dsu","","","","null","Agent A","STIM_SET_1_REAL/285933.bmp_pp81_L1_V1.0_veridical_freeview_isoFalse_fps144.mp4"
"","","","call-function","328","1332218","0.0-328.0","x6wt9dsu","","","","","",""
"4915.574999999953","{""pre-1"":1}","[0]","survey-likert","329","1337135","0.0-329.0","x6wt9dsu","","","","","",""
"3331.214999999851","{""pre-2"":1}","[0]","survey-likert","330","1340467","0.0-330.0","x6wt9dsu","","","","","",""
"1387.280000000028","{""pre-3"":1}","[0]","survey-likert","331","1341856","0.0-331.0","x6wt9dsu","","","","","",""
"1188.3599999998696","{""post-5"":2}","[0]","survey-likert","332","1343045","0.0-332.0","x6wt9dsu","","","","","",""
"","","","call-function","333","1343046","0.0-333.0","x6wt9dsu","","","","","",""
"null","","","video-keyboard-response","334","1346108","0.0-334.0","x6wt9dsu","","","","null","Agent A","STIM_SET_1_REAL/498170.bmp_pp153_L3_V1.0_veridical_freeview_isoFalse_fps144.mp4"
"","","","call-function","335","1346109","0.0-335.0","x6wt9dsu","","","","","",""
"4032.8899999998976","{""pre-1"":2}","[0]","survey-likert","336","1350143","0.0-336.0","x6wt9dsu","","","","","",""
"2212.189999999944","{""pre-2"":2}","[0]","survey-likert","337","1352356","0.0-337.0","x6wt9dsu","","","","","",""
"2694.8249999999534","{""pre-3"":2}","[0]","survey-likert","338","1355053","0.0-338.0","x6wt9dsu","","","","","",""
"1602.3250000001863","{""post-5"":0}","[0]","survey-likert","339","1356656","0.0-339.0","x6wt9dsu","","","","","",""
"","","","call-function","340","1356656","0.0-340.0","x6wt9dsu","","","","","",""
"null","","","video-keyboard-response","341","1359726","0.0-341.0","x6wt9dsu","","","","null","Agent A","STIM_SET_1_REAL/1592397.bmp_pp85_L3_V1.0_scrambled_freeview_isoFalse_fps144.mp4"
"","","","call-function","342","1359726","0.0-342.0","x6wt9dsu","","","","","",""
"3887.1750000000466","{""pre-1"":0}","[0]","survey-likert","343","1363614","0.0-343.0","x6wt9dsu","","","","","",""
"2187.594999999972","{""pre-2"":0}","[0]","survey-likert","344","1365803","0.0-344.0","x6wt9dsu","","","","","",""
"3963.9150000000373","{""pre-3"":0}","[0]","survey-likert","345","1369768","0.0-345.0","x6wt9dsu","","","","","",""
"2086.089999999851","{""post-5"":2}","[0]","survey-likert","346","1371855","0.0-346.0","x6wt9dsu","","","","","",""
"","","","call-function","347","1371856","0.0-347.0","x6wt9dsu","","","","","",""
"null","","","video-keyboard-response","348","1374931","0.0-348.0","x6wt9dsu","","","","null","Agent A","STIM_SET_1_REAL/1160127.bmp_pp90_L2_V1.0_scrambled_freeview_isoFalse_fps144.mp4"
"","","","call-function","349","1374931","0.0-349.0","x6wt9dsu","","","","","",""
"5723.190000000177","{""pre-1"":2}","[0]","survey-likert","350","1380655","0.0-350.0","x6wt9dsu","","","","","",""
"2194.054999999935","{""pre-2"":2}","[0]","survey-likert","351","1382850","0.0-351.0","x6wt9dsu","","","","","",""
"1360.6350000000093","{""pre-3"":2}","[0]","survey-likert","352","1384212","0.0-352.0","x6wt9dsu","","","","","",""
"3274.2949999999255","{""post-5"":1}","[0]","survey-likert","353","1387488","0.0-353.0","x6wt9dsu","","","","","",""
"","","","call-function","354","1387489","0.0-354.0","x6wt9dsu","","","","","",""
"null","","","video-keyboard-response","355","1390551","0.0-355.0","x6wt9dsu","","","","null","Agent A","STIM_SET_1_REAL/1159621.bmp_pp92_L3_V1.0_veridical_freeview_isoFalse_fps144.mp4"
"","","","call-function","356","1390552","0.0-356.0","x6wt9dsu","","","","","",""
"2617.9550000000745","{""pre-1"":3}","[0]","survey-likert","357","1393171","0.0-357.0","x6wt9dsu","","","","","",""
"1850.8050000001676","{""pre-2"":3}","[0]","survey-likert","358","1395023","0.0-358.0","x6wt9dsu","","","","","",""
"4194.959999999963","{""pre-3"":2}","[0]","survey-likert","359","1399219","0.0-359.0","x6wt9dsu","","","","","",""
"2872.1999999999534","{""post-5"":1}","[0]","survey-likert","360","1402092","0.0-360.0","x6wt9dsu","","","","","",""
"","","","call-function","361","1402093","0.0-361.0","x6wt9dsu","","","","","",""
"null","","","video-keyboard-response","362","1405155","0.0-362.0","x6wt9dsu","","","","null","Agent A","STIM_SET_1_REAL/1159572.bmp_pp71_L1_V1.0_veridical_freeview_isoFalse_fps144.mp4"
"","","","call-function","363","1405156","0.0-363.0","x6wt9dsu","","","","","",""
"2969.5699999998324","{""pre-1"":1}","[0]","survey-likert","364","1408126","0.0-364.0","x6wt9dsu","","","","","",""
"2006.7600000000093","{""pre-2"":1}","[0]","survey-likert","365","1410134","0.0-365.0","x6wt9dsu","","","","","",""
"1543.0800000000745","{""pre-3"":0}","[0]","survey-likert","366","1411678","0.0-366.0","x6wt9dsu","","","","","",""
"2235.8950000000186","{""post-5"":2}","[0]","survey-likert","367","1413915","0.0-367.0","x6wt9dsu","","","","","",""
"","","","call-function","368","1413916","0.0-368.0","x6wt9dsu","","","","","",""
"null","","","video-keyboard-response","369","1417007","0.0-369.0","x6wt9dsu","","","","null","Agent A","STIM_SET_1_REAL/1159813.bmp_pp79_L2_V1.0_scrambled_freeview_isoFalse_fps144.mp4"
"","","","call-function","370","1417008","0.0-370.0","x6wt9dsu","","","","","",""
"4103.310000000056","{""pre-1"":1}","[0]","survey-likert","371","1421112","0.0-371.0","x6wt9dsu","","","","","",""
"2069.554999999935","{""pre-2"":2}","[0]","survey-likert","372","1423183","0.0-372.0","x6wt9dsu","","","","","",""
"3214.8000000000466","{""pre-3"":2}","[0]","survey-likert","373","1426399","0.0-373.0","x6wt9dsu","","","","","",""
"3447.3600000001024","{""post-5"":1}","[0]","survey-likert","374","1429847","0.0-374.0","x6wt9dsu","","","","","",""
"","","","call-function","375","1429848","0.0-375.0","x6wt9dsu","","","","","",""
"null","","","video-keyboard-response","376","1432917","0.0-376.0","x6wt9dsu","","","","null","Agent A","STIM_SET_1_REAL/1160168.bmp_pp53_L2_V1.0_scrambled_freeview_isoFalse_fps144.mp4"
"","","","call-function","377","1432917","0.0-377.0","x6wt9dsu","","","","","",""
"2785.719999999972","{""pre-1"":0}","[0]","survey-likert","378","1435704","0.0-378.0","x6wt9dsu","","","","","",""
"2704.9600000001956","{""pre-2"":1}","[0]","survey-likert","379","1438410","0.0-379.0","x6wt9dsu","","","","","",""
"5132.9199999999255","{""pre-3"":0}","[0]","survey-likert","380","1443545","0.0-380.0","x6wt9dsu","","","","","",""
"1814.0400000000373","{""post-5"":2}","[0]","survey-likert","381","1445361","0.0-381.0","x6wt9dsu","","","","","",""
"","","","call-function","382","1445362","0.0-382.0","x6wt9dsu","","","","","",""
"null","","","video-keyboard-response","383","1448440","0.0-383.0","x6wt9dsu","","","","null","Agent A","STIM_SET_1_REAL/1593146.bmp_pp93_L1_V1.0_scrambled_freeview_isoFalse_fps144.mp4"
"","","","call-function","384","1448440","0.0-384.0","x6wt9dsu","","","","","",""
"4925.864999999991","{""pre-1"":2}","[0]","survey-likert","385","1453367","0.0-385.0","x6wt9dsu","","","","","",""
"3808.9499999999534","{""pre-2"":3}","[0]","survey-likert","386","1457177","0.0-386.0","x6wt9dsu","","","","","",""
"3145.5400000000373","{""pre-3"":2}","[0]","survey-likert","387","1460324","0.0-387.0","x6wt9dsu","","","","","",""
"3323.1749999998137","{""post-5"":1}","[0]","survey-likert","388","1463648","0.0-388.0","x6wt9dsu","","","","","",""
"","","","call-function","389","1463649","0.0-389.0","x6wt9dsu","","","","","",""
"null","","","video-keyboard-response","390","1466725","0.0-390.0","x6wt9dsu","","","","null","Agent A","STIM_SET_1_REAL/498253.bmp_pp67_L2_V1.0_scrambled_freeview_isoFalse_fps144.mp4"
"","","","call-function","391","1466725","0.0-391.0","x6wt9dsu","","","","","",""
"2449.5449999999255","{""pre-1"":2}","[0]","survey-likert","392","1469176","0.0-392.0","x6wt9dsu","","","","","",""
"3025.0399999998044","{""pre-2"":2}","[0]","survey-likert","393","1472202","0.0-393.0","x6wt9dsu","","","","","",""
"1414.0100000000093","{""pre-3"":2}","[0]","survey-likert","394","1473617","0.0-394.0","x6wt9dsu","","","","","",""
"3275.9850000001024","{""post-5"":1}","[0]","survey-likert","395","1476894","0.0-395.0","x6wt9dsu","","","","","",""
"","","","call-function","396","1476895","0.0-396.0","x6wt9dsu","","","","","",""
"null","","","video-keyboard-response","397","1479970","0.0-397.0","x6wt9dsu","","","","null","Agent A","STIM_SET_1_REAL/1159855.bmp_pp99_L2_V1.0_scrambled_freeview_isoFalse_fps144.mp4"
"","","","call-function","398","1479970","0.0-398.0","x6wt9dsu","","","","","",""
"2440.215000000084","{""pre-1"":0}","[0]","survey-likert","399","1482412","0.0-399.0","x6wt9dsu","","","","","",""
"2032.5900000000838","{""pre-2"":0}","[0]","survey-likert","400","1484445","0.0-400.0","x6wt9dsu","","","","","",""
"1639.8500000000931","{""pre-3"":0}","[0]","survey-likert","401","1486086","0.0-401.0","x6wt9dsu","","","","","",""
"2111","{""post-5"":3}","[0]","survey-likert","402","1488198","0.0-402.0","x6wt9dsu","","","","","",""
"","","","call-function","403","1488199","0.0-403.0","x6wt9dsu","","","","","",""
"null","","","video-keyboard-response","404","1491280","0.0-404.0","x6wt9dsu","","","","null","Agent A","STIM_SET_1_REAL/1593041.bmp_pp58_L1_V1.0_veridical_freeview_isoFalse_fps144.mp4"
"","","","call-function","405","1491280","0.0-405.0","x6wt9dsu","","","","","",""
"2444.0200000000186","{""pre-1"":2}","[0]","survey-likert","406","1493725","0.0-406.0","x6wt9dsu","","","","","",""
"1612.440000000177","{""pre-2"":1}","[0]","survey-likert","407","1495340","0.0-407.0","x6wt9dsu","","","","","",""
"4460.564999999944","{""pre-3"":1}","[0]","survey-likert","408","1499803","0.0-408.0","x6wt9dsu","","","","","",""
"2909.304999999935","{""post-5"":2}","[0]","survey-likert","409","1502714","0.0-409.0","x6wt9dsu","","","","","",""
"","","","call-function","410","1502714","0.0-410.0","x6wt9dsu","","","","","",""
"null","","","video-keyboard-response","411","1505775","0.0-411.0","x6wt9dsu","","","","null","Agent A","STIM_SET_1_REAL/1159447.bmp_pp70_L2_V1.0_veridical_freeview_isoFalse_fps144.mp4"
"","","","call-function","412","1505775","0.0-412.0","x6wt9dsu","","","","","",""
"2976.3899999998976","{""pre-1"":1}","[0]","survey-likert","413","1508753","0.0-413.0","x6wt9dsu","","","","","",""
"1712.6000000000931","{""pre-2"":0}","[0]","survey-likert","414","1510466","0.0-414.0","x6wt9dsu","","","","","",""
"4314.229999999981","{""pre-3"":0}","[0]","survey-likert","415","1514782","0.0-415.0","x6wt9dsu","","","","","",""
"2926.5999999998603","{""post-5"":2}","[0]","survey-likert","416","1517709","0.0-416.0","x6wt9dsu","","","","","",""
"","","","call-function","417","1517710","0.0-417.0","x6wt9dsu","","","","","",""
"null","","","video-keyboard-response","418","1520783","0.0-418.0","x6wt9dsu","","","","null","Agent A","STIM_SET_1_REAL/1159829.bmp_pp91_L3_V1.0_scrambled_freeview_isoFalse_fps144.mp4"
"","","","call-function","419","1520783","0.0-419.0","x6wt9dsu","","","","","",""
"5081.165000000037","{""pre-1"":2}","[0]","survey-likert","420","1525865","0.0-420.0","x6wt9dsu","","","","","",""
"1797.3850000000093","{""pre-2"":2}","[0]","survey-likert","421","1527664","0.0-421.0","x6wt9dsu","","","","","",""
"2274.600000000093","{""pre-3"":2}","[0]","survey-likert","422","1529939","0.0-422.0","x6wt9dsu","","","","","",""
"2673.6400000001304","{""post-5"":1}","[0]","survey-likert","423","1532614","0.0-423.0","x6wt9dsu","","","","","",""
"","","","call-function","424","1532614","0.0-424.0","x6wt9dsu","","","","","",""
"null","","","video-keyboard-response","425","1535686","0.0-425.0","x6wt9dsu","","","","null","Agent A","STIM_SET_1_REAL/713620.bmp_pp65_L3_V1.0_veridical_freeview_isoFalse_fps144.mp4"
"","","","call-function","426","1535687","0.0-426.0","x6wt9dsu","","","","","",""
"3931.744999999879","{""pre-1"":3}","[0]","survey-likert","427","1539619","0.0-427.0","x6wt9dsu","","","","","",""
"3782.810000000056","{""pre-2"":3}","[0]","survey-likert","428","1543403","0.0-428.0","x6wt9dsu","","","","","",""
"3753.380000000121","{""pre-3"":3}","[0]","survey-likert","429","1547158","0.0-429.0","x6wt9dsu","","","","","",""
"2766.4250000000466","{""post-5"":0}","[0]","survey-likert","430","1549927","0.0-430.0","x6wt9dsu","","","","","",""
"","","","call-function","431","1549928","0.0-431.0","x6wt9dsu","","","","","",""
"null","","","video-keyboard-response","432","1552998","0.0-432.0","x6wt9dsu","","","","null","Agent A","STIM_SET_1_REAL/1159515.bmp_pp84_L3_V1.0_scrambled_freeview_isoFalse_fps144.mp4"
"","","","call-function","433","1552998","0.0-433.0","x6wt9dsu","","","","","",""
"2510.159999999916","{""pre-1"":1}","[0]","survey-likert","434","1555510","0.0-434.0","x6wt9dsu","","","","","",""
"2022.5550000001676","{""pre-2"":1}","[0]","survey-likert","435","1557534","0.0-435.0","x6wt9dsu","","","","","",""
"2644.3850000000093","{""pre-3"":1}","[0]","survey-likert","436","1560179","0.0-436.0","x6wt9dsu","","","","","",""
"1857.5550000001676","{""post-5"":2}","[0]","survey-likert","437","1562038","0.0-437.0","x6wt9dsu","","","","","",""
"","","","call-function","438","1562038","0.0-438.0","x6wt9dsu","","","","","",""
"null","","","video-keyboard-response","439","1565107","0.0-439.0","x6wt9dsu","","","","null","Agent A","STIM_SET_1_REAL/1592286.bmp_pp52_L1_V1.0_scrambled_freeview_isoFalse_fps144.mp4"
"","","","call-function","440","1565108","0.0-440.0","x6wt9dsu","","","","","",""
"2795.2700000000186","{""pre-1"":0}","[0]","survey-likert","441","1567904","0.0-441.0","x6wt9dsu","","","","","",""
"4434.024999999907","{""pre-2"":0}","[0]","survey-likert","442","1572340","0.0-442.0","x6wt9dsu","","","","","",""
"1846.744999999879","{""pre-3"":0}","[0]","survey-likert","443","1574188","0.0-443.0","x6wt9dsu","","","","","",""
"3318.054999999935","{""post-5"":3}","[0]","survey-likert","444","1577507","0.0-444.0","x6wt9dsu","","","","","",""
"71405.94999999995","","","instructions","445","1648913","0.0-445.0","x6wt9dsu","[{""page_index"":0,""viewing_time"":1263.839999999851},{""page_index"":1,""viewing_time"":69460.67000000016},{""page_index"":2,""viewing_time"":681.2749999999069}]","","","","",""
"1886.4299999999348","","","instructions","446","1650800","0.0-446.0","x6wt9dsu","[{""page_index"":0,""viewing_time"":527.5499999998137},{""page_index"":1,""viewing_time"":744.7250000000931},{""page_index"":2,""viewing_time"":614.0549999999348}]","","","","",""
"","","","call-function","447","1650801","0.0-447.0","x6wt9dsu","","","","","",""
"null","","","video-keyboard-response","448","1653871","0.0-448.0","x6wt9dsu","","","","null","Agent A","STIM_SET_1_REAL/713796.bmp_pp84_L3_V1.0_veridical_freeview_isoFalse_fps144.mp4"
"","","","call-function","449","1653871","0.0-449.0","x6wt9dsu","","","","","",""
"4270.604999999981","{""pre-1"":2}","[0]","survey-likert","450","1658143","0.0-450.0","x6wt9dsu","","","","","",""
"2401.7399999999907","{""pre-2"":3}","[0]","survey-likert","451","1660546","0.0-451.0","x6wt9dsu","","","","","",""
"1955.0549999999348","{""pre-3"":3}","[0]","survey-likert","452","1662502","0.0-452.0","x6wt9dsu","","","","","",""
"3458.679999999935","{""post-5"":1}","[0]","survey-likert","453","1665961","0.0-453.0","x6wt9dsu","","","","","",""
"","","","call-function","454","1665962","0.0-454.0","x6wt9dsu","","","","","",""
"null","","","video-keyboard-response","455","1669034","0.0-455.0","x6wt9dsu","","","","null","Agent A","STIM_SET_1_REAL/1591961.bmp_pp67_L2_V1.0_scrambled_freeview_isoFalse_fps144.mp4"
"","","","call-function","456","1669034","0.0-456.0","x6wt9dsu","","","","","",""
"2304.559999999823","{""pre-1"":2}","[0]","survey-likert","457","1671340","0.0-457.0","x6wt9dsu","","","","","",""
"1338.6049999999814","{""pre-2"":2}","[0]","survey-likert","458","1672680","0.0-458.0","x6wt9dsu","","","","","",""
"1861.9250000000466","{""pre-3"":2}","[0]","survey-likert","459","1674544","0.0-459.0","x6wt9dsu","","","","","",""
"2531.7999999998137","{""post-5"":0}","[0]","survey-likert","460","1677078","0.0-460.0","x6wt9dsu","","","","","",""
"","","","call-function","461","1677079","0.0-461.0","x6wt9dsu","","","","","",""
"null","","","video-keyboard-response","462","1680159","0.0-462.0","x6wt9dsu","","","","null","Agent A","STIM_SET_1_REAL/713371.bmp_pp68_L1_V1.0_veridical_freeview_isoFalse_fps144.mp4"
"","","","call-function","463","1680160","0.0-463.0","x6wt9dsu","","","","","",""
"2603.0849999999627","{""pre-1"":0}","[0]","survey-likert","464","1682764","0.0-464.0","x6wt9dsu","","","","","",""
"3149.7750000001397","{""pre-2"":0}","[0]","survey-likert","465","1685915","0.0-465.0","x6wt9dsu","","","","","",""
"1968.8000000000466","{""pre-3"":0}","[0]","survey-likert","466","1687885","0.0-466.0","x6wt9dsu","","","","","",""
"2160.320000000065","{""post-5"":3}","[0]","survey-likert","467","1690046","0.0-467.0","x6wt9dsu","","","","","",""
"","","","call-function","468","1690047","0.0-468.0","x6wt9dsu","","","","","",""
"null","","","video-keyboard-response","469","1693109","0.0-469.0","x6wt9dsu","","","","null","Agent A","STIM_SET_1_REAL/713403.bmp_pp80_L3_V1.0_veridical_freeview_isoFalse_fps144.mp4"
"","","","call-function","470","1693109","0.0-470.0","x6wt9dsu","","","","","",""
"4227.719999999972","{""pre-1"":2}","[0]","survey-likert","471","1697338","0.0-471.0","x6wt9dsu","","","","","",""
"1679.005000000121","{""pre-2"":3}","[0]","survey-likert","472","1699018","0.0-472.0","x6wt9dsu","","","","","",""
"1264.9650000000838","{""pre-3"":2}","[0]","survey-likert","473","1700284","0.0-473.0","x6wt9dsu","","","","","",""
"3436.9599999999627","{""post-5"":1}","[0]","survey-likert","474","1703723","0.0-474.0","x6wt9dsu","","","","","",""
"","","","call-function","475","1703723","0.0-475.0","x6wt9dsu","","","","","",""
"null","","","video-keyboard-response","476","1706795","0.0-476.0","x6wt9dsu","","","","null","Agent A","STIM_SET_1_REAL/713135.bmp_pp54_L2_V1.0_scrambled_freeview_isoFalse_fps144.mp4"
"","","","call-function","477","1706795","0.0-477.0","x6wt9dsu","","","","","",""
"3326.5850000001956","{""pre-1"":2}","[0]","survey-likert","478","1710123","0.0-478.0","x6wt9dsu","","","","","",""
"1999.0149999998976","{""pre-2"":3}","[0]","survey-likert","479","1712123","0.0-479.0","x6wt9dsu","","","","","",""
"3474.679999999935","{""pre-3"":2}","[0]","survey-likert","480","1715599","0.0-480.0","x6wt9dsu","","","","","",""
"6764.159999999916","{""post-5"":1}","[0]","survey-likert","481","1722365","0.0-481.0","x6wt9dsu","","","","","",""
"","","","call-function","482","1722366","0.0-482.0","x6wt9dsu","","","","","",""
"null","","","video-keyboard-response","483","1725445","0.0-483.0","x6wt9dsu","","","","null","Agent A","STIM_SET_1_REAL/1592657.bmp_pp98_L1_V1.0_veridical_freeview_isoFalse_fps144.mp4"
"","","","call-function","484","1725445","0.0-484.0","x6wt9dsu","","","","","",""
"3090.7750000001397","{""pre-1"":1}","[0]","survey-likert","485","1728537","0.0-485.0","x6wt9dsu","","","","","",""
"1997.4799999999814","{""pre-2"":1}","[0]","survey-likert","486","1730536","0.0-486.0","x6wt9dsu","","","","","",""
"2924.570000000065","{""pre-3"":1}","[0]","survey-likert","487","1733462","0.0-487.0","x6wt9dsu","","","","","",""
"2267.630000000121","{""post-5"":2}","[0]","survey-likert","488","1735731","0.0-488.0","x6wt9dsu","","","","","",""
"","","","call-function","489","1735731","0.0-489.0","x6wt9dsu","","","","","",""
"null","","","video-keyboard-response","490","1738810","0.0-490.0","x6wt9dsu","","","","null","Agent A","STIM_SET_1_REAL/713707.bmp_pp154_L1_V1.0_scrambled_freeview_isoFalse_fps144.mp4"
"","","","call-function","491","1738811","0.0-491.0","x6wt9dsu","","","","","",""
"2291.660000000149","{""pre-1"":0}","[0]","survey-likert","492","1741104","0.0-492.0","x6wt9dsu","","","","","",""
"2247.869999999879","{""pre-2"":0}","[0]","survey-likert","493","1743353","0.0-493.0","x6wt9dsu","","","","","",""
"1553.094999999972","{""pre-3"":0}","[0]","survey-likert","494","1744907","0.0-494.0","x6wt9dsu","","","","","",""
"2624.564999999944","{""post-5"":3}","[0]","survey-likert","495","1747533","0.0-495.0","x6wt9dsu","","","","","",""
"","","","call-function","496","1747533","0.0-496.0","x6wt9dsu","","","","","",""
"null","","","video-keyboard-response","497","1750594","0.0-497.0","x6wt9dsu","","","","null","Agent A","STIM_SET_1_REAL/1592817.bmp_pp55_L3_V1.0_veridical_freeview_isoFalse_fps144.mp4"
"","","","call-function","498","1750595","0.0-498.0","x6wt9dsu","","","","","",""
"12991.379999999888","{""pre-1"":1}","[0]","survey-likert","499","1763587","0.0-499.0","x6wt9dsu","","","","","",""
"1642.255000000121","{""pre-2"":1}","[0]","survey-likert","500","1765230","0.0-500.0","x6wt9dsu","","","","","",""
"1647.1100000001024","{""pre-3"":1}","[0]","survey-likert","501","1766879","0.0-501.0","x6wt9dsu","","","","","",""
"2277.2450000001118","{""post-5"":2}","[0]","survey-likert","502","1769157","0.0-502.0","x6wt9dsu","","","","","",""
"","","","call-function","503","1769158","0.0-503.0","x6wt9dsu","","","","","",""
"null","","","video-keyboard-response","504","1772227","0.0-504.0","x6wt9dsu","","","","null","Agent A","STIM_SET_1_REAL/1159768.bmp_pp89_L1_V1.0_scrambled_freeview_isoFalse_fps144.mp4"
"","","","call-function","505","1772228","0.0-505.0","x6wt9dsu","","","","","",""
"2376.2600000000093","{""pre-1"":0}","[0]","survey-likert","506","1774605","0.0-506.0","x6wt9dsu","","","","","",""
"2519.1299999998882","{""pre-2"":0}","[0]","survey-likert","507","1777125","0.0-507.0","x6wt9dsu","","","","","",""
"1417.3999999999069","{""pre-3"":0}","[0]","survey-likert","508","1778544","0.0-508.0","x6wt9dsu","","","","","",""
"2186.875","{""post-5"":3}","[0]","survey-likert","509","1780732","0.0-509.0","x6wt9dsu","","","","","",""
"","","","call-function","510","1780732","0.0-510.0","x6wt9dsu","","","","","",""
"null","","","video-keyboard-response","511","1783835","0.0-511.0","x6wt9dsu","","","","null","Agent A","STIM_SET_1_REAL/1159784.bmp_pp73_L3_V1.0_scrambled_freeview_isoFalse_fps144.mp4"
"","","","call-function","512","1783836","0.0-512.0","x6wt9dsu","","","","","",""
"3228.2700000000186","{""pre-1"":2}","[0]","survey-likert","513","1787066","0.0-513.0","x6wt9dsu","","","","","",""
"1681.4150000000373","{""pre-2"":2}","[0]","survey-likert","514","1788748","0.0-514.0","x6wt9dsu","","","","","",""
"1623.6599999999162","{""pre-3"":2}","[0]","survey-likert","515","1790373","0.0-515.0","x6wt9dsu","","","","","",""
"1298.7649999998976","{""post-5"":1}","[0]","survey-likert","516","1791673","0.0-516.0","x6wt9dsu","","","","","",""
"","","","call-function","517","1791674","0.0-517.0","x6wt9dsu","","","","","",""
"null","","","video-keyboard-response","518","1794755","0.0-518.0","x6wt9dsu","","","","null","Agent A","STIM_SET_1_REAL/1593041.bmp_pp58_L1_V1.0_scrambled_freeview_isoFalse_fps144.mp4"
"","","","call-function","519","1794756","0.0-519.0","x6wt9dsu","","","","","",""
"2965.6650000000373","{""pre-1"":1}","[0]","survey-likert","520","1797722","0.0-520.0","x6wt9dsu","","","","","",""
"1409.0849999999627","{""pre-2"":1}","[0]","survey-likert","521","1799133","0.0-521.0","x6wt9dsu","","","","","",""
"1240.630000000121","{""pre-3"":1}","[0]","survey-likert","522","1800375","0.0-522.0","x6wt9dsu","","","","","",""
"2410.0849999999627","{""post-5"":2}","[0]","survey-likert","523","1802786","0.0-523.0","x6wt9dsu","","","","","",""
"","","","call-function","524","1802786","0.0-524.0","x6wt9dsu","","","","","",""
"null","","","video-keyboard-response","525","1805855","0.0-525.0","x6wt9dsu","","","","null","Agent A","STIM_SET_1_REAL/1592581.bmp_pp100_L3_V1.0_scrambled_freeview_isoFalse_fps144.mp4"
"","","","call-function","526","1805855","0.0-526.0","x6wt9dsu","","","","","",""
"25479.975000000093","{""pre-1"":1}","[0]","survey-likert","527","1831336","0.0-527.0","x6wt9dsu","","","","","",""
"1752.6400000001304","{""pre-2"":1}","[0]","survey-likert","528","1833090","0.0-528.0","x6wt9dsu","","","","","",""
"3731.399999999907","{""pre-3"":1}","[0]","survey-likert","529","1836822","0.0-529.0","x6wt9dsu","","","","","",""
"2947.409999999916","{""post-5"":2}","[0]","survey-likert","530","1839771","0.0-530.0","x6wt9dsu","","","","","",""
"","","","call-function","531","1839771","0.0-531.0","x6wt9dsu","","","","","",""
"null","","","video-keyboard-response","532","1842833","0.0-532.0","x6wt9dsu","","","","null","Agent A","STIM_SET_1_REAL/1592890.bmp_pp82_L2_V1.0_scrambled_freeview_isoFalse_fps144.mp4"
"","","","call-function","533","1842834","0.0-533.0","x6wt9dsu","","","","","",""
"3236.875","{""pre-1"":2}","[0]","survey-likert","534","1846071","0.0-534.0","x6wt9dsu","","","","","",""
"1398.5900000000838","{""pre-2"":1}","[0]","survey-likert","535","1847471","0.0-535.0","x6wt9dsu","","","","","",""
"1792.869999999879","{""pre-3"":1}","[0]","survey-likert","536","1849265","0.0-536.0","x6wt9dsu","","","","","",""
"2564.7050000000745","{""post-5"":1}","[0]","survey-likert","537","1851831","0.0-537.0","x6wt9dsu","","","","","",""
"","","","call-function","538","1851831","0.0-538.0","x6wt9dsu","","","","","",""
"null","","","video-keyboard-response","539","1854906","0.0-539.0","x6wt9dsu","","","","null","Agent A","STIM_SET_1_REAL/712977.bmp_pp51_L1_V1.0_scrambled_freeview_isoFalse_fps144.mp4"
"","","","call-function","540","1854907","0.0-540.0","x6wt9dsu","","","","","",""
"3262.535000000149","{""pre-1"":1}","[0]","survey-likert","541","1858171","0.0-541.0","x6wt9dsu","","","","","",""
"2242.435000000056","{""pre-2"":1}","[0]","survey-likert","542","1860416","0.0-542.0","x6wt9dsu","","","","","",""
"1907.4600000001956","{""pre-3"":0}","[0]","survey-likert","543","1862325","0.0-543.0","x6wt9dsu","","","","","",""
"3449.844999999972","{""post-5"":2}","[0]","survey-likert","544","1865776","0.0-544.0","x6wt9dsu","","","","","",""
"","","","call-function","545","1865777","0.0-545.0","x6wt9dsu","","","","","",""
"null","","","video-keyboard-response","546","1868844","0.0-546.0","x6wt9dsu","","","","null","Agent A","STIM_SET_1_REAL/713513.bmp_pp62_L2_V1.0_veridical_freeview_isoFalse_fps144.mp4"
"","","","call-function","547","1868845","0.0-547.0","x6wt9dsu","","","","","",""
"3249.654999999795","{""pre-1"":0}","[0]","survey-likert","548","1872096","0.0-548.0","x6wt9dsu","","","","","",""
"2080.2399999999907","{""pre-2"":0}","[0]","survey-likert","549","1874177","0.0-549.0","x6wt9dsu","","","","","",""
"2201.5400000000373","{""pre-3"":0}","[0]","survey-likert","550","1876380","0.0-550.0","x6wt9dsu","","","","","",""
"1977.0749999999534","{""post-5"":3}","[0]","survey-likert","551","1878358","0.0-551.0","x6wt9dsu","","","","","",""
"","","","call-function","552","1878359","0.0-552.0","x6wt9dsu","","","","","",""
"null","","","video-keyboard-response","553","1881438","0.0-553.0","x6wt9dsu","","","","null","Agent A","STIM_SET_1_REAL/498155.bmp_pp61_L2_V1.0_veridical_freeview_isoFalse_fps144.mp4"
"","","","call-function","554","1881438","0.0-554.0","x6wt9dsu","","","","","",""
"3031.8000000000466","{""pre-1"":2}","[0]","survey-likert","555","1884471","0.0-555.0","x6wt9dsu","","","","","",""
"1124.2750000001397","{""pre-2"":2}","[0]","survey-likert","556","1885596","0.0-556.0","x6wt9dsu","","","","","",""
"1805.065000000177","{""pre-3"":2}","[0]","survey-likert","557","1887402","0.0-557.0","x6wt9dsu","","","","","",""
"1554.3199999998324","{""post-5"":1}","[0]","survey-likert","558","1888958","0.0-558.0","x6wt9dsu","","","","","",""
"","","","call-function","559","1888958","0.0-559.0","x6wt9dsu","","","","","",""
"null","","","video-keyboard-response","560","1892022","0.0-560.0","x6wt9dsu","","","","null","Agent A","STIM_SET_1_REAL/1592890.bmp_pp82_L2_V1.0_veridical_freeview_isoFalse_fps144.mp4"
"","","","call-function","561","1892023","0.0-561.0","x6wt9dsu","","","","","",""
"4952.060000000056","{""pre-1"":2}","[0]","survey-likert","562","1896976","0.0-562.0","x6wt9dsu","","","","","",""
"2006.5600000000559","{""pre-2"":3}","[0]","survey-likert","563","1898983","0.0-563.0","x6wt9dsu","","","","","",""
"1359.3349999999627","{""pre-3"":2}","[0]","survey-likert","564","1900344","0.0-564.0","x6wt9dsu","","","","","",""
"3240.0750000001863","{""post-5"":0}","[0]","survey-likert","565","1903585","0.0-565.0","x6wt9dsu","","","","","",""
"","","","call-function","566","1903585","0.0-566.0","x6wt9dsu","","","","","",""
"null","","","video-keyboard-response","567","1906665","0.0-567.0","x6wt9dsu","","","","null","Agent A","STIM_SET_1_REAL/1160127.bmp_pp90_L2_V1.0_veridical_freeview_isoFalse_fps144.mp4"
"","","","call-function","568","1906666","0.0-568.0","x6wt9dsu","","","","","",""
"2336.844999999972","{""pre-1"":1}","[0]","survey-likert","569","1909004","0.0-569.0","x6wt9dsu","","","","","",""
"2005.3850000000093","{""pre-2"":0}","[0]","survey-likert","570","1911012","0.0-570.0","x6wt9dsu","","","","","",""
"1768.9750000000931","{""pre-3"":0}","[0]","survey-likert","571","1912782","0.0-571.0","x6wt9dsu","","","","","",""
"3975.8649999999907","{""post-5"":2}","[0]","survey-likert","572","1916759","0.0-572.0","x6wt9dsu","","","","","",""
"","","","call-function","573","1916760","0.0-573.0","x6wt9dsu","","","","","",""
"null","","","video-keyboard-response","574","1919834","0.0-574.0","x6wt9dsu","","","","null","Agent A","STIM_SET_1_REAL/713593.bmp_pp64_L1_V1.0_scrambled_freeview_isoFalse_fps144.mp4"
"","","","call-function","575","1919835","0.0-575.0","x6wt9dsu","","","","","",""
"5195.570000000065","{""pre-1"":3}","[0]","survey-likert","576","1925032","0.0-576.0","x6wt9dsu","","","","","",""
"2111.1650000000373","{""pre-2"":2}","[0]","survey-likert","577","1927144","0.0-577.0","x6wt9dsu","","","","","",""
"1663.1099999998696","{""pre-3"":2}","[0]","survey-likert","578","1928808","0.0-578.0","x6wt9dsu","","","","","",""
"1847.3200000000652","{""post-5"":0}","[0]","survey-likert","579","1930657","0.0-579.0","x6wt9dsu","","","","","",""
"","","","call-function","580","1930657","0.0-580.0","x6wt9dsu","","","","","",""
"null","","","video-keyboard-response","581","1933734","0.0-581.0","x6wt9dsu","","","","null","Agent A","STIM_SET_1_REAL/713760.bmp_pp81_L1_V1.0_scrambled_freeview_isoFalse_fps144.mp4"
"","","","call-function","582","1933735","0.0-582.0","x6wt9dsu","","","","","",""
"2146.7649999998976","{""pre-1"":1}","[0]","survey-likert","583","1935882","0.0-583.0","x6wt9dsu","","","","","",""
"1130.6949999998324","{""pre-2"":1}","[0]","survey-likert","584","1937014","0.0-584.0","x6wt9dsu","","","","","",""
"1260.1799999999348","{""pre-3"":1}","[0]","survey-likert","585","1938276","0.0-585.0","x6wt9dsu","","","","","",""
"1943.0249999999069","{""post-5"":2}","[0]","survey-likert","586","1940220","0.0-586.0","x6wt9dsu","","","","","",""
"10755.189999999944","","","instructions","587","1950976","0.0-587.0","x6wt9dsu","[{""page_index"":0,""viewing_time"":1299.8249999999534},{""page_index"":1,""viewing_time"":8710.945000000065},{""page_index"":2,""viewing_time"":744.1899999999441}]","","","","",""
"3300.2349999998696","","","instructions","588","1954277","0.0-588.0","x6wt9dsu","[{""page_index"":0,""viewing_time"":739.214999999851},{""page_index"":1,""viewing_time"":1520.1850000000559},{""page_index"":2,""viewing_time"":1040.7299999999814}]","","","","",""
"","","","call-function","589","1954277","0.0-589.0","x6wt9dsu","","","","","",""
"null","","","video-keyboard-response","590","1957345","0.0-590.0","x6wt9dsu","","","","null","Agent A","STIM_SET_1_REAL/1592499.bmp_pp96_L2_V1.0_scrambled_freeview_isoFalse_fps144.mp4"
"","","","call-function","591","1957346","0.0-591.0","x6wt9dsu","","","","","",""
"2761.280000000028","{""pre-1"":2}","[0]","survey-likert","592","1960108","0.0-592.0","x6wt9dsu","","","","","",""
"1394.5549999999348","{""pre-2"":1}","[0]","survey-likert","593","1961504","0.0-593.0","x6wt9dsu","","","","","",""
"1372.3100000000559","{""pre-3"":1}","[0]","survey-likert","594","1962877","0.0-594.0","x6wt9dsu","","","","","",""
"1424.7749999999069","{""post-5"":1}","[0]","survey-likert","595","1964303","0.0-595.0","x6wt9dsu","","","","","",""
"","","","call-function","596","1964304","0.0-596.0","x6wt9dsu","","","","","",""
"null","","","video-keyboard-response","597","1967364","0.0-597.0","x6wt9dsu","","","","null","Agent A","STIM_SET_1_REAL/285994.bmp_pp92_L3_V1.0_scrambled_freeview_isoFalse_fps144.mp4"
"","","","call-function","598","1967364","0.0-598.0","x6wt9dsu","","","","","",""
"2352.0200000000186","{""pre-1"":0}","[0]","survey-likert","599","1969717","0.0-599.0","x6wt9dsu","","","","","",""
"2413.0800000000745","{""pre-2"":0}","[0]","survey-likert","600","1972132","0.0-600.0","x6wt9dsu","","","","","",""
"1792.4450000000652","{""pre-3"":0}","[0]","survey-likert","601","1973927","0.0-601.0","x6wt9dsu","","","","","",""
"1543.8999999999069","{""post-5"":3}","[0]","survey-likert","602","1975472","0.0-602.0","x6wt9dsu","","","","","",""
"","","","call-function","603","1975473","0.0-603.0","x6wt9dsu","","","","","",""
"null","","","video-keyboard-response","604","1978536","0.0-604.0","x6wt9dsu","","","","null","Agent A","STIM_SET_1_REAL/1159882.bmp_pp61_L2_V1.0_veridical_freeview_isoFalse_fps144.mp4"
"","","","call-function","605","1978537","0.0-605.0","x6wt9dsu","","","","","",""
"2683.8950000000186","{""pre-1"":1}","[0]","survey-likert","606","1981222","0.0-606.0","x6wt9dsu","","","","","",""
"1150.8249999999534","{""pre-2"":1}","[0]","survey-likert","607","1982374","0.0-607.0","x6wt9dsu","","","","","",""
"1189.3299999998417","{""pre-3"":1}","[0]","survey-likert","608","1983564","0.0-608.0","x6wt9dsu","","","","","",""
"2702.024999999907","{""post-5"":2}","[0]","survey-likert","609","1986268","0.0-609.0","x6wt9dsu","","","","","",""
"","","","call-function","610","1986269","0.0-610.0","x6wt9dsu","","","","","",""
"null","","","video-keyboard-response","611","1989347","0.0-611.0","x6wt9dsu","","","","null","Agent A","STIM_SET_1_REAL/713749.bmp_pp88_L2_V1.0_scrambled_freeview_isoFalse_fps144.mp4"
"","","","call-function","612","1989347","0.0-612.0","x6wt9dsu","","","","","",""
"6957.104999999981","{""pre-1"":1}","[0]","survey-likert","613","1996305","0.0-613.0","x6wt9dsu","","","","","",""
"1305.030000000028","{""pre-2"":1}","[0]","survey-likert","614","1997611","0.0-614.0","x6wt9dsu","","","","","",""
"1343.0149999998976","{""pre-3"":1}","[0]","survey-likert","615","1998955","0.0-615.0","x6wt9dsu","","","","","",""
"1844.0400000000373","{""post-5"":2}","[0]","survey-likert","616","2000801","0.0-616.0","x6wt9dsu","","","","","",""
"","","","call-function","617","2000801","0.0-617.0","x6wt9dsu","","","","","",""
"null","","","video-keyboard-response","618","2003872","0.0-618.0","x6wt9dsu","","","","null","Agent A","STIM_SET_1_REAL/1159440.bmp_pp98_L1_V1.0_veridical_freeview_isoFalse_fps144.mp4"
"","","","call-function","619","2003873","0.0-619.0","x6wt9dsu","","","","","",""
"3813.0749999999534","{""pre-1"":1}","[0]","survey-likert","620","2007687","0.0-620.0","x6wt9dsu","","","","","",""
"1140.2600000000093","{""pre-2"":1}","[0]","survey-likert","621","2008828","0.0-621.0","x6wt9dsu","","","","","",""
"1648.3200000000652","{""pre-3"":1}","[0]","survey-likert","622","2010477","0.0-622.0","x6wt9dsu","","","","","",""
"2957.9150000000373","{""post-5"":2}","[0]","survey-likert","623","2013437","0.0-623.0","x6wt9dsu","","","","","",""
"","","","call-function","624","2013437","0.0-624.0","x6wt9dsu","","","","","",""
"null","","","video-keyboard-response","625","2016503","0.0-625.0","x6wt9dsu","","","","null","Agent A","STIM_SET_1_REAL/1592727.bmp_pp59_L3_V1.0_scrambled_freeview_isoFalse_fps144.mp4"
"","","","call-function","626","2016504","0.0-626.0","x6wt9dsu","","","","","",""
"2218.880000000121","{""pre-1"":0}","[0]","survey-likert","627","2018724","0.0-627.0","x6wt9dsu","","","","","",""
"1397.4899999999907","{""pre-2"":2}","[0]","survey-likert","628","2020122","0.0-628.0","x6wt9dsu","","","","","",""
"2026.8249999999534","{""pre-3"":0}","[0]","survey-likert","629","2022150","0.0-629.0","x6wt9dsu","","","","","",""
"3324.445000000065","{""post-5"":3}","[0]","survey-likert","630","2025476","0.0-630.0","x6wt9dsu","","","","","",""
"","","","call-function","631","2025478","0.0-631.0","x6wt9dsu","","","","","",""
"null","","","video-keyboard-response","632","2028583","0.0-632.0","x6wt9dsu","","","","null","Agent A","STIM_SET_1_REAL/285905.bmp_pp57_L1_V1.0_veridical_freeview_isoFalse_fps144.mp4"
"","","","call-function","633","2028584","0.0-633.0","x6wt9dsu","","","","","",""
"3364.9250000000466","{""pre-1"":2}","[0]","survey-likert","634","2031950","0.0-634.0","x6wt9dsu","","","","","",""
"1969.5849999999627","{""pre-2"":2}","[0]","survey-likert","635","2033921","0.0-635.0","x6wt9dsu","","","","","",""
"1405.589999999851","{""pre-3"":1}","[0]","survey-likert","636","2035328","0.0-636.0","x6wt9dsu","","","","","",""
"3030.280000000028","{""post-5"":1}","[0]","survey-likert","637","2038359","0.0-637.0","x6wt9dsu","","","","","",""
"","","","call-function","638","2038360","0.0-638.0","x6wt9dsu","","","","","",""
"null","","","video-keyboard-response","639","2041429","0.0-639.0","x6wt9dsu","","","","null","Agent A","STIM_SET_1_REAL/713017.bmp_pp152_L2_V1.0_veridical_freeview_isoFalse_fps144.mp4"
"","","","call-function","640","2041430","0.0-640.0","x6wt9dsu","","","","","",""
"7070.98499999987","{""pre-1"":2}","[0]","survey-likert","641","2048502","0.0-641.0","x6wt9dsu","","","","","",""
"1529.9600000001956","{""pre-2"":2}","[0]","survey-likert","642","2050033","0.0-642.0","x6wt9dsu","","","","","",""
"3265.035000000149","{""pre-3"":1}","[0]","survey-likert","643","2053299","0.0-643.0","x6wt9dsu","","","","","",""
"4123.314999999944","{""post-5"":1}","[0]","survey-likert","644","2057424","0.0-644.0","x6wt9dsu","","","","","",""
"","","","call-function","645","2057424","0.0-645.0","x6wt9dsu","","","","","",""
"null","","","video-keyboard-response","646","2060487","0.0-646.0","x6wt9dsu","","","","null","Agent A","STIM_SET_1_REAL/497950.bmp_pp151_L1_V1.0_veridical_freeview_isoFalse_fps144.mp4"
"","","","call-function","647","2060488","0.0-647.0","x6wt9dsu","","","","","",""
"2623.4799999999814","{""pre-1"":2}","[0]","survey-likert","648","2063113","0.0-648.0","x6wt9dsu","","","","","",""
"2638.1699999999255","{""pre-2"":3}","[0]","survey-likert","649","2065752","0.0-649.0","x6wt9dsu","","","","","",""
"1947.2050000000745","{""pre-3"":2}","[0]","survey-likert","650","2067700","0.0-650.0","x6wt9dsu","","","","","",""
"2687.340000000084","{""post-5"":1}","[0]","survey-likert","651","2070389","0.0-651.0","x6wt9dsu","","","","","",""
"","","","call-function","652","2070390","0.0-652.0","x6wt9dsu","","","","","",""
"null","","","video-keyboard-response","653","2073449","0.0-653.0","x6wt9dsu","","","","null","Agent A","STIM_SET_1_REAL/498149.bmp_pp99_L2_V1.0_veridical_freeview_isoFalse_fps144.mp4"
"","","","call-function","654","2073449","0.0-654.0","x6wt9dsu","","","","","",""
"5542.190000000177","{""pre-1"":0}","[0]","survey-likert","655","2078993","0.0-655.0","x6wt9dsu","","","","","",""
"3559.6999999999534","{""pre-2"":1}","[0]","survey-likert","656","2082555","0.0-656.0","x6wt9dsu","","","","","",""
"2239.105000000214","{""pre-3"":0}","[0]","survey-likert","657","2084796","0.0-657.0","x6wt9dsu","","","","","",""
"1693.1049999999814","{""post-5"":3}","[0]","survey-likert","658","2086490","0.0-658.0","x6wt9dsu","","","","","",""
"","","","call-function","659","2086491","0.0-659.0","x6wt9dsu","","","","","",""
"null","","","video-keyboard-response","660","2089569","0.0-660.0","x6wt9dsu","","","","null","Agent A","STIM_SET_1_REAL/713760.bmp_pp81_L1_V1.0_veridical_freeview_isoFalse_fps144.mp4"
"","","","call-function","661","2089569","0.0-661.0","x6wt9dsu","","","","","",""
"3544.3349999999627","{""pre-1"":1}","[0]","survey-likert","662","2093115","0.0-662.0","x6wt9dsu","","","","","",""
"1423","{""pre-2"":1}","[0]","survey-likert","663","2094539","0.0-663.0","x6wt9dsu","","","","","",""
"1288.380000000121","{""pre-3"":1}","[0]","survey-likert","664","2095829","0.0-664.0","x6wt9dsu","","","","","",""
"1637.3950000000186","{""post-5"":2}","[0]","survey-likert","665","2097468","0.0-665.0","x6wt9dsu","","","","","",""
"","","","call-function","666","2097468","0.0-666.0","x6wt9dsu","","","","","",""
"null","","","video-keyboard-response","667","2100540","0.0-667.0","x6wt9dsu","","","","null","Agent A","STIM_SET_1_REAL/1159784.bmp_pp73_L3_V1.0_veridical_freeview_isoFalse_fps144.mp4"
"","","","call-function","668","2100541","0.0-668.0","x6wt9dsu","","","","","",""
"3338.8599999998696","{""pre-1"":2}","[0]","survey-likert","669","2103881","0.0-669.0","x6wt9dsu","","","","","",""
"1871.2249999996275","{""pre-2"":3}","[0]","survey-likert","670","2105753","0.0-670.0","x6wt9dsu","","","","","",""
"6424.80999999959","{""pre-3"":1}","[0]","survey-likert","671","2112179","0.0-671.0","x6wt9dsu","","","","","",""
"2620.464999999851","{""post-5"":1}","[0]","survey-likert","672","2114800","0.0-672.0","x6wt9dsu","","","","","",""
"","","","call-function","673","2114801","0.0-673.0","x6wt9dsu","","","","","",""
"null","","","video-keyboard-response","674","2117879","0.0-674.0","x6wt9dsu","","","","null","Agent A","STIM_SET_1_REAL/713371.bmp_pp68_L1_V1.0_scrambled_freeview_isoFalse_fps144.mp4"
"","","","call-function","675","2117879","0.0-675.0","x6wt9dsu","","","","","",""
"2582.475000000093","{""pre-1"":0}","[0]","survey-likert","676","2120463","0.0-676.0","x6wt9dsu","","","","","",""
"1544.1750000002794","{""pre-2"":0}","[0]","survey-likert","677","2122009","0.0-677.0","x6wt9dsu","","","","","",""
"2372.1049999999814","{""pre-3"":0}","[0]","survey-likert","678","2124383","0.0-678.0","x6wt9dsu","","","","","",""
"3695.8050000001676","{""post-5"":2}","[0]","survey-likert","679","2128081","0.0-679.0","x6wt9dsu","","","","","",""
"","","","call-function","680","2128082","0.0-680.0","x6wt9dsu","","","","","",""
"null","","","video-keyboard-response","681","2131150","0.0-681.0","x6wt9dsu","","","","null","Agent A","STIM_SET_1_REAL/1592351.bmp_pp51_L1_V1.0_scrambled_freeview_isoFalse_fps144.mp4"
"","","","call-function","682","2131151","0.0-682.0","x6wt9dsu","","","","","",""
"2081.7700000000186","{""pre-1"":2}","[0]","survey-likert","683","2133234","0.0-683.0","x6wt9dsu","","","","","",""
"2760.350000000093","{""pre-2"":1}","[0]","survey-likert","684","2135995","0.0-684.0","x6wt9dsu","","","","","",""
"1408.464999999851","{""pre-3"":1}","[0]","survey-likert","685","2137405","0.0-685.0","x6wt9dsu","","","","","",""
"2126.839999999851","{""post-5"":0}","[0]","survey-likert","686","2139533","0.0-686.0","x6wt9dsu","","","","","",""
"","","","call-function","687","2139534","0.0-687.0","x6wt9dsu","","","","","",""
"null","","","video-keyboard-response","688","2142609","0.0-688.0","x6wt9dsu","","","","null","Agent A","STIM_SET_1_REAL/712977.bmp_pp51_L1_V1.0_veridical_freeview_isoFalse_fps144.mp4"
"","","","call-function","689","2142610","0.0-689.0","x6wt9dsu","","","","","",""
"6405.899999999907","{""pre-1"":1}","[0]","survey-likert","690","2149017","0.0-690.0","x6wt9dsu","","","","","",""
"1576.3599999998696","{""pre-2"":1}","[0]","survey-likert","691","2150595","0.0-691.0","x6wt9dsu","","","","","",""
"1974.3149999999441","{""pre-3"":1}","[0]","survey-likert","692","2152570","0.0-692.0","x6wt9dsu","","","","","",""
"2618.0699999998324","{""post-5"":1}","[0]","survey-likert","693","2155190","0.0-693.0","x6wt9dsu","","","","","",""
"","","","call-function","694","2155190","0.0-694.0","x6wt9dsu","","","","","",""
"null","","","video-keyboard-response","695","2158263","0.0-695.0","x6wt9dsu","","","","null","Agent A","STIM_SET_1_REAL/1159675.bmp_pp77_L3_V1.0_veridical_freeview_isoFalse_fps144.mp4"
"","","","call-function","696","2158264","0.0-696.0","x6wt9dsu","","","","","",""
"4034.375","{""pre-1"":1}","[0]","survey-likert","697","2162299","0.0-697.0","x6wt9dsu","","","","","",""
"1465.1450000000186","{""pre-2"":0}","[0]","survey-likert","698","2163765","0.0-698.0","x6wt9dsu","","","","","",""
"3087.5800000000745","{""pre-3"":0}","[0]","survey-likert","699","2166854","0.0-699.0","x6wt9dsu","","","","","",""
"2561.0400000000373","{""post-5"":2}","[0]","survey-likert","700","2169416","0.0-700.0","x6wt9dsu","","","","","",""
"","","","call-function","701","2169416","0.0-701.0","x6wt9dsu","","","","","",""
"null","","","video-keyboard-response","702","2172475","0.0-702.0","x6wt9dsu","","","","null","Agent A","STIM_SET_1_REAL/498149.bmp_pp99_L2_V1.0_scrambled_freeview_isoFalse_fps144.mp4"
"","","","call-function","703","2172476","0.0-703.0","x6wt9dsu","","","","","",""
"22989.98499999987","{""pre-1"":1}","[0]","survey-likert","704","2195467","0.0-704.0","x6wt9dsu","","","","","",""
"1523.3900000001304","{""pre-2"":1}","[0]","survey-likert","705","2196993","0.0-705.0","x6wt9dsu","","","","","",""
"1407.0749999997206","{""pre-3"":1}","[0]","survey-likert","706","2198402","0.0-706.0","x6wt9dsu","","","","","",""
"1284.5699999998324","{""post-5"":2}","[0]","survey-likert","707","2199688","0.0-707.0","x6wt9dsu","","","","","",""
"","","","call-function","708","2199688","0.0-708.0","x6wt9dsu","","","","","",""
"null","","","video-keyboard-response","709","2202758","0.0-709.0","x6wt9dsu","","","","null","Agent A","STIM_SET_1_REAL/1159768.bmp_pp89_L1_V1.0_veridical_freeview_isoFalse_fps144.mp4"
"","","","call-function","710","2202758","0.0-710.0","x6wt9dsu","","","","","",""
"3012.2400000002235","{""pre-1"":0}","[0]","survey-likert","711","2205772","0.0-711.0","x6wt9dsu","","","","","",""
"1890.2599999997765","{""pre-2"":0}","[0]","survey-likert","712","2207663","0.0-712.0","x6wt9dsu","","","","","",""
"1529.7450000001118","{""pre-3"":0}","[0]","survey-likert","713","2209194","0.0-713.0","x6wt9dsu","","","","","",""
"2663.839999999851","{""post-5"":3}","[0]","survey-likert","714","2211859","0.0-714.0","x6wt9dsu","","","","","",""
"","","","call-function","715","2211860","0.0-715.0","x6wt9dsu","","","","","",""
"null","","","video-keyboard-response","716","2214922","0.0-716.0","x6wt9dsu","","","","null","Agent A","STIM_SET_1_REAL/1592133.bmp_pp75_L1_V1.0_veridical_freeview_isoFalse_fps144.mp4"
"","","","call-function","717","2214922","0.0-717.0","x6wt9dsu","","","","","",""
"3822.135000000242","{""pre-1"":2}","[0]","survey-likert","718","2218745","0.0-718.0","x6wt9dsu","","","","","",""
"1650.589999999851","{""pre-2"":1}","[0]","survey-likert","719","2220397","0.0-719.0","x6wt9dsu","","","","","",""
"1952.8799999998882","{""pre-3"":1}","[0]","survey-likert","720","2222351","0.0-720.0","x6wt9dsu","","","","","",""
"2745.404999999795","{""post-5"":1}","[0]","survey-likert","721","2225098","0.0-721.0","x6wt9dsu","","","","","",""
"","","","call-function","722","2225098","0.0-722.0","x6wt9dsu","","","","","",""
"null","","","video-keyboard-response","723","2228162","0.0-723.0","x6wt9dsu","","","","null","Agent A","STIM_SET_1_REAL/1159882.bmp_pp61_L2_V1.0_scrambled_freeview_isoFalse_fps144.mp4"
"","","","call-function","724","2228162","0.0-724.0","x6wt9dsu","","","","","",""
"2662.524999999907","{""pre-1"":2}","[0]","survey-likert","725","2230826","0.0-725.0","x6wt9dsu","","","","","",""
"1352.570000000298","{""pre-2"":2}","[0]","survey-likert","726","2232180","0.0-726.0","x6wt9dsu","","","","","",""
"1472.1100000003353","{""pre-3"":2}","[0]","survey-likert","727","2233653","0.0-727.0","x6wt9dsu","","","","","",""
"1635.4900000002235","{""post-5"":1}","[0]","survey-likert","728","2235290","0.0-728.0","x6wt9dsu","","","","","",""
"22784.524999999907","","","instructions","729","2258076","0.0-729.0","x6wt9dsu","[{""page_index"":0,""viewing_time"":1179.029999999795},{""page_index"":1,""viewing_time"":20978.03000000026},{""page_index"":2,""viewing_time"":626.8849999997765}]","","","","",""
"3210.5750000001863","","","instructions","730","2261288","0.0-730.0","x6wt9dsu","[{""page_index"":0,""viewing_time"":658.5649999999441},{""page_index"":1,""viewing_time"":1904.0850000004284},{""page_index"":2,""viewing_time"":647.8199999998324}]","","","","",""
"","","","call-function","731","2261289","0.0-731.0","x6wt9dsu","","","","","",""
"null","","","video-keyboard-response","732","2264356","0.0-732.0","x6wt9dsu","","","","null","Agent A","STIM_SET_1_REAL/713513.bmp_pp62_L2_V1.0_scrambled_freeview_isoFalse_fps144.mp4"
"","","","call-function","733","2264356","0.0-733.0","x6wt9dsu","","","","","",""
"3393.3499999996275","{""pre-1"":2}","[0]","survey-likert","734","2267751","0.0-734.0","x6wt9dsu","","","","","",""
"2837.600000000093","{""pre-2"":2}","[0]","survey-likert","735","2270590","0.0-735.0","x6wt9dsu","","","","","",""
"1735.2299999999814","{""pre-3"":2}","[0]","survey-likert","736","2272326","0.0-736.0","x6wt9dsu","","","","","",""
"3855.6100000003353","{""post-5"":1}","[0]","survey-likert","737","2276183","0.0-737.0","x6wt9dsu","","","","","",""
"","","","call-function","738","2276184","0.0-738.0","x6wt9dsu","","","","","",""
"null","","","video-keyboard-response","739","2279263","0.0-739.0","x6wt9dsu","","","","null","Agent A","STIM_SET_1_REAL/498111.bmp_pp88_L2_V1.0_scrambled_freeview_isoFalse_fps144.mp4"
"","","","call-function","740","2279264","0.0-740.0","x6wt9dsu","","","","","",""
"2370.5800000000745","{""pre-1"":3}","[0]","survey-likert","741","2281636","0.0-741.0","x6wt9dsu","","","","","",""
"2994.225000000093","{""pre-2"":3}","[0]","survey-likert","742","2284631","0.0-742.0","x6wt9dsu","","","","","",""
"1501.9550000000745","{""pre-3"":3}","[0]","survey-likert","743","2286134","0.0-743.0","x6wt9dsu","","","","","",""
"2534.7349999998696","{""post-5"":0}","[0]","survey-likert","744","2288671","0.0-744.0","x6wt9dsu","","","","","",""
"","","","call-function","745","2288671","0.0-745.0","x6wt9dsu","","","","","",""
"null","","","video-keyboard-response","746","2291735","0.0-746.0","x6wt9dsu","","","","null","Agent A","STIM_SET_1_REAL/1592619.bmp_pp56_L3_V1.0_veridical_freeview_isoFalse_fps144.mp4"
"","","","call-function","747","2291736","0.0-747.0","x6wt9dsu","","","","","",""
"2633.489999999758","{""pre-1"":2}","[0]","survey-likert","748","2294370","0.0-748.0","x6wt9dsu","","","","","",""
"1689.4550000000745","{""pre-2"":3}","[0]","survey-likert","749","2296061","0.0-749.0","x6wt9dsu","","","","","",""
"1516.9899999997579","{""pre-3"":1}","[0]","survey-likert","750","2297579","0.0-750.0","x6wt9dsu","","","","","",""
"3542.5900000003166","{""post-5"":1}","[0]","survey-likert","751","2301123","0.0-751.0","x6wt9dsu","","","","","",""
"","","","call-function","752","2301123","0.0-752.0","x6wt9dsu","","","","","",""
"null","","","video-keyboard-response","753","2304199","0.0-753.0","x6wt9dsu","","","","null","Agent A","STIM_SET_1_REAL/1592807.bmp_pp68_L1_V1.0_veridical_freeview_isoFalse_fps144.mp4"
"","","","call-function","754","2304199","0.0-754.0","x6wt9dsu","","","","","",""
"2382.5400000000373","{""pre-1"":0}","[0]","survey-likert","755","2306583","0.0-755.0","x6wt9dsu","","","","","",""
"1698.7800000002608","{""pre-2"":0}","[0]","survey-likert","756","2308283","0.0-756.0","x6wt9dsu","","","","","",""
"2242.4599999999627","{""pre-3"":0}","[0]","survey-likert","757","2310528","0.0-757.0","x6wt9dsu","","","","","",""
"6132.7050000000745","{""post-5"":2}","[0]","survey-likert","758","2316663","0.0-758.0","x6wt9dsu","","","","","",""
"","","","call-function","759","2316664","0.0-759.0","x6wt9dsu","","","","","",""
"null","","","video-keyboard-response","760","2319735","0.0-760.0","x6wt9dsu","","","","null","Agent A","STIM_SET_1_REAL/1592727.bmp_pp59_L3_V1.0_veridical_freeview_isoFalse_fps144.mp4"
"","","","call-function","761","2319736","0.0-761.0","x6wt9dsu","","","","","",""
"3688.244999999646","{""pre-1"":2}","[0]","survey-likert","762","2323425","0.0-762.0","x6wt9dsu","","","","","",""
"2406.1550000002608","{""pre-2"":2}","[0]","survey-likert","763","2325833","0.0-763.0","x6wt9dsu","","","","","",""
"1611.589999999851","{""pre-3"":1}","[0]","survey-likert","764","2327446","0.0-764.0","x6wt9dsu","","","","","",""
"2348.0349999996834","{""post-5"":1}","[0]","survey-likert","765","2329795","0.0-765.0","x6wt9dsu","","","","","",""
"","","","call-function","766","2329795","0.0-766.0","x6wt9dsu","","","","","",""
"null","","","video-keyboard-response","767","2332888","0.0-767.0","x6wt9dsu","","","","null","Agent A","STIM_SET_1_REAL/1159813.bmp_pp79_L2_V1.0_veridical_freeview_isoFalse_fps144.mp4"
"","","","call-function","768","2332889","0.0-768.0","x6wt9dsu","","","","","",""
"2652.329999999609","{""pre-1"":0}","[0]","survey-likert","769","2335542","0.0-769.0","x6wt9dsu","","","","","",""
"1769.6000000000931","{""pre-2"":0}","[0]","survey-likert","770","2337313","0.0-770.0","x6wt9dsu","","","","","",""
"2292.9000000003725","{""pre-3"":0}","[0]","survey-likert","771","2339607","0.0-771.0","x6wt9dsu","","","","","",""
"1465.3500000000931","{""post-5"":3}","[0]","survey-likert","772","2341074","0.0-772.0","x6wt9dsu","","","","","",""
"","","","call-function","773","2341074","0.0-773.0","x6wt9dsu","","","","","",""
"null","","","video-keyboard-response","774","2344134","0.0-774.0","x6wt9dsu","","","","null","Agent A","STIM_SET_1_REAL/713403.bmp_pp80_L3_V1.0_scrambled_freeview_isoFalse_fps144.mp4"
"","","","call-function","775","2344135","0.0-775.0","x6wt9dsu","","","","","",""
"3725.125","{""pre-1"":1}","[0]","survey-likert","776","2347861","0.0-776.0","x6wt9dsu","","","","","",""
"1533.3950000000186","{""pre-2"":1}","[0]","survey-likert","777","2349396","0.0-777.0","x6wt9dsu","","","","","",""
"2533.3400000003166","{""pre-3"":1}","[0]","survey-likert","778","2351930","0.0-778.0","x6wt9dsu","","","","","",""
"3222.5550000001676","{""post-5"":2}","[0]","survey-likert","779","2355154","0.0-779.0","x6wt9dsu","","","","","",""
"","","","call-function","780","2355154","0.0-780.0","x6wt9dsu","","","","","",""
"null","","","video-keyboard-response","781","2358223","0.0-781.0","x6wt9dsu","","","","null","Agent A","STIM_SET_1_REAL/713796.bmp_pp84_L3_V1.0_scrambled_freeview_isoFalse_fps144.mp4"
"","","","call-function","782","2358223","0.0-782.0","x6wt9dsu","","","","","",""
"4808.135000000242","{""pre-1"":2}","[0]","survey-likert","783","2363033","0.0-783.0","x6wt9dsu","","","","","",""
"1261.6450000000186","{""pre-2"":2}","[0]","survey-likert","784","2364297","0.0-784.0","x6wt9dsu","","","","","",""
"1818.6750000002794","{""pre-3"":2}","[0]","survey-likert","785","2366117","0.0-785.0","x6wt9dsu","","","","","",""
"2617.510000000242","{""post-5"":1}","[0]","survey-likert","786","2368737","0.0-786.0","x6wt9dsu","","","","","",""
"","","","call-function","787","2368737","0.0-787.0","x6wt9dsu","","","","","",""
"null","","","video-keyboard-response","788","2371815","0.0-788.0","x6wt9dsu","","","","null","Agent A","STIM_SET_1_REAL/713684.bmp_pp85_L3_V1.0_scrambled_freeview_isoFalse_fps144.mp4"
"","","","call-function","789","2371816","0.0-789.0","x6wt9dsu","","","","","",""
"2410.6450000000186","{""pre-1"":0}","[0]","survey-likert","790","2374228","0.0-790.0","x6wt9dsu","","","","","",""
"1768.9650000003166","{""pre-2"":0}","[0]","survey-likert","791","2375998","0.0-791.0","x6wt9dsu","","","","","",""
"2318.9650000003166","{""pre-3"":0}","[0]","survey-likert","792","2378318","0.0-792.0","x6wt9dsu","","","","","",""
"1709.2600000002421","{""post-5"":3}","[0]","survey-likert","793","2380029","0.0-793.0","x6wt9dsu","","","","","",""
"","","","call-function","794","2380030","0.0-794.0","x6wt9dsu","","","","","",""
"null","","","video-keyboard-response","795","2383104","0.0-795.0","x6wt9dsu","","","","null","Agent A","STIM_SET_1_REAL/1159440.bmp_pp98_L1_V1.0_scrambled_freeview_isoFalse_fps144.mp4"
"","","","call-function","796","2383104","0.0-796.0","x6wt9dsu","","","","","",""
"3343.644999999553","{""pre-1"":0}","[0]","survey-likert","797","2386450","0.0-797.0","x6wt9dsu","","","","","",""
"1658.7749999999069","{""pre-2"":0}","[0]","survey-likert","798","2388110","0.0-798.0","x6wt9dsu","","","","","",""
"3002.725000000093","{""pre-3"":0}","[0]","survey-likert","799","2391113","0.0-799.0","x6wt9dsu","","","","","",""
"3205.274999999907","{""post-5"":2}","[0]","survey-likert","800","2394320","0.0-800.0","x6wt9dsu","","","","","",""
"","","","call-function","801","2394320","0.0-801.0","x6wt9dsu","","","","","",""
"null","","","video-keyboard-response","802","2397388","0.0-802.0","x6wt9dsu","","","","null","Agent A","STIM_SET_1_REAL/1592362.bmp_pp95_L2_V1.0_scrambled_freeview_isoFalse_fps144.mp4"
"","","","call-function","803","2397389","0.0-803.0","x6wt9dsu","","","","","",""
"9999.805000000168","{""pre-1"":1}","[0]","survey-likert","804","2407390","0.0-804.0","x6wt9dsu","","","","","",""
"1520.345000000205","{""pre-2"":1}","[0]","survey-likert","805","2408911","0.0-805.0","x6wt9dsu","","","","","",""
"1479.4799999999814","{""pre-3"":1}","[0]","survey-likert","806","2410392","0.0-806.0","x6wt9dsu","","","","","",""
"1615.8349999999627","{""post-5"":2}","[0]","survey-likert","807","2412009","0.0-807.0","x6wt9dsu","","","","","",""
"","","","call-function","808","2412009","0.0-808.0","x6wt9dsu","","","","","",""
"null","","","video-keyboard-response","809","2415073","0.0-809.0","x6wt9dsu","","","","null","Agent A","STIM_SET_1_REAL/1159621.bmp_pp92_L3_V1.0_scrambled_freeview_isoFalse_fps144.mp4"
"","","","call-function","810","2415074","0.0-810.0","x6wt9dsu","","","","","",""
"2331.8000000002794","{""pre-1"":0}","[0]","survey-likert","811","2417408","0.0-811.0","x6wt9dsu","","","","","",""
"3110.7999999998137","{""pre-2"":0}","[0]","survey-likert","812","2420521","0.0-812.0","x6wt9dsu","","","","","",""
"1872.8349999999627","{""pre-3"":0}","[0]","survey-likert","813","2422395","0.0-813.0","x6wt9dsu","","","","","",""
"4926.4900000002235","{""post-5"":2}","[0]","survey-likert","814","2427323","0.0-814.0","x6wt9dsu","","","","","",""
"","","","call-function","815","2427324","0.0-815.0","x6wt9dsu","","","","","",""
"null","","","video-keyboard-response","816","2430401","0.0-816.0","x6wt9dsu","","","","null","Agent A","STIM_SET_1_REAL/713666.bmp_pp97_L3_V1.0_veridical_freeview_isoFalse_fps144.mp4"
"","","","call-function","817","2430402","0.0-817.0","x6wt9dsu","","","","","",""
"2320.7450000001118","{""pre-1"":0}","[0]","survey-likert","818","2432724","0.0-818.0","x6wt9dsu","","","","","",""
"1581.529999999795","{""pre-2"":0}","[0]","survey-likert","819","2434307","0.0-819.0","x6wt9dsu","","","","","",""
"1413.4350000000559","{""pre-3"":0}","[0]","survey-likert","820","2435721","0.0-820.0","x6wt9dsu","","","","","",""
"2385.3400000003166","{""post-5"":3}","[0]","survey-likert","821","2438108","0.0-821.0","x6wt9dsu","","","","","",""
"","","","call-function","822","2438109","0.0-822.0","x6wt9dsu","","","","","",""
"null","","","video-keyboard-response","823","2441185","0.0-823.0","x6wt9dsu","","","","null","Agent A","STIM_SET_1_REAL/285751.bmp_pp55_L3_V1.0_veridical_freeview_isoFalse_fps144.mp4"
"","","","call-function","824","2441185","0.0-824.0","x6wt9dsu","","","","","",""
"2426.6399999996647","{""pre-1"":2}","[0]","survey-likert","825","2443613","0.0-825.0","x6wt9dsu","","","","","",""
"2213.725000000093","{""pre-2"":1}","[0]","survey-likert","826","2445828","0.0-826.0","x6wt9dsu","","","","","",""
"1325.035000000149","{""pre-3"":1}","[0]","survey-likert","827","2447154","0.0-827.0","x6wt9dsu","","","","","",""
"2352.4249999998137","{""post-5"":1}","[0]","survey-likert","828","2449508","0.0-828.0","x6wt9dsu","","","","","",""
"","","","call-function","829","2449508","0.0-829.0","x6wt9dsu","","","","","",""
"null","","","video-keyboard-response","830","2452577","0.0-830.0","x6wt9dsu","","","","null","Agent A","STIM_SET_1_REAL/285933.bmp_pp81_L1_V1.0_scrambled_freeview_isoFalse_fps144.mp4"
"","","","call-function","831","2452578","0.0-831.0","x6wt9dsu","","","","","",""
"2630.6400000001304","{""pre-1"":2}","[0]","survey-likert","832","2455209","0.0-832.0","x6wt9dsu","","","","","",""
"2810.810000000056","{""pre-2"":2}","[0]","survey-likert","833","2458021","0.0-833.0","x6wt9dsu","","","","","",""
"1245.3950000000186","{""pre-3"":1}","[0]","survey-likert","834","2459268","0.0-834.0","x6wt9dsu","","","","","",""
"3801.225000000093","{""post-5"":1}","[0]","survey-likert","835","2463070","0.0-835.0","x6wt9dsu","","","","","",""
