"view_history","rt","trial_type","trial_index","time_elapsed","internal_node_id","stimulus","key_press","value","agent","condition","image","responses","question_order","correct_answer"
"[{""page_index"":0,""viewing_time"":64776.20000000298}]","64776.80000000447","instructions","0","64782","0.0-0.0","","","","","","","","",""
"[{""page_index"":0,""viewing_time"":1595.2000000029802},{""page_index"":1,""viewing_time"":696.8999999985099},{""page_index"":2,""viewing_time"":1398.3999999985099}]","3690.7000000029802","instructions","1","68474","0.0-1.0","","","","","","","","",""
"[{""page_index"":0,""viewing_time"":1087}]","1087.0999999940395","instructions","2","69562","0.0-2.0","","","","","","","","",""
"","null","video-keyboard-response","3","72648","0.0-3.0","","null","","","","","","",""
"[{""page_index"":0,""viewing_time"":905.1999999955297},{""page_index"":1,""viewing_time"":404.70000000298023},{""page_index"":2,""viewing_time"":379}]","1689","instructions","4","74337","0.0-4.0","","","","","","","","",""
"[{""page_index"":0,""viewing_time"":963}]","963.1999999955297","instructions","5","75302","0.0-5.0","","","","","","","","",""
"","null","video-keyboard-response","6","78370","0.0-6.0","","null","","","","","","",""
"[{""page_index"":0,""viewing_time"":1105.4000000059605},{""page_index"":1,""viewing_time"":969},{""page_index"":2,""viewing_time"":978.3999999985099}]","3053","instructions","7","81424","0.0-7.0","","","","","","","","",""
"[{""page_index"":0,""viewing_time"":420.69999999552965}]","420.8999999985099","instructions","8","81845","0.0-8.0","","","","","","","","",""
"","","call-function","9","81846","0.0-9.0","","","","","","","","",""
"","null","html-keyboard-response","10","84850","0.0-10.0","<span style=""color:Black; font-size:50px;"">Agent A","null","","","","","","",""
"","null","video-keyboard-response","11","87902","0.0-11.0","","null","","Agent A","scrambled","/Users/kirstenziman/Desktop/Desktop/DIDEC_entire_corpus/analysis_3/STIM_SET_2/0_713513.bmppp96_L1V1_freeview_scrambled_mapOnly.mp4","","",""
"","null","html-keyboard-response","12","90905","0.0-12.0","<span style=""color:Black; font-size:50px;"">Agent B","null","","","","","","",""
"","null","video-keyboard-response","13","93970","0.0-13.0","","null","","Agent B","veridical","/Users/kirstenziman/Desktop/Desktop/DIDEC_entire_corpus/analysis_3/STIM_SET_2/0_713513.bmppp96_L1V1_freeview_veridical_mapOnly.mp4","","",""
"","","call-function","14","93971","0.0-14.0","","","","","","","","",""
"","1851.7000000029802","survey-likert","15","95825","0.0-15.0","","","","","","","{""judgement"":1}","[0]","1"
"","1518.7999999970198","survey-likert","16","97345","0.0-16.0","","","","","","","{""confidence"":3}","[0]",""
"","","call-function","17","97345","0.0-17.0","","","","","","","","",""
"","null","html-keyboard-response","18","100350","0.0-18.0","<span style=""color:Black; font-size:50px;"">Agent A","null","","","","","","",""
"","null","video-keyboard-response","19","103408","0.0-19.0","","null","","Agent A","scrambled","/Users/kirstenziman/Desktop/Desktop/DIDEC_entire_corpus/analysis_3/STIM_SET_2/0_1159434.bmppp70_L1V1_freeview_scrambled_mapOnly.mp4","","",""
"","null","html-keyboard-response","20","106410","0.0-20.0","<span style=""color:Black; font-size:50px;"">Agent B","null","","","","","","",""
"","null","video-keyboard-response","21","109479","0.0-21.0","","null","","Agent B","veridical","/Users/kirstenziman/Desktop/Desktop/DIDEC_entire_corpus/analysis_3/STIM_SET_2/0_1159434.bmppp70_L1V1_freeview_veridical_mapOnly.mp4","","",""
"","","call-function","22","109480","0.0-22.0","","","","","","","","",""
"","1816.2000000029802","survey-likert","23","111298","0.0-23.0","","","","","","","{""judgement"":1}","[0]","1"
"","2163.60000000149","survey-likert","24","113463","0.0-24.0","","","","","","","{""confidence"":1}","[0]",""
"","","call-function","25","113464","0.0-25.0","","","","","","","","",""
"","null","html-keyboard-response","26","116468","0.0-26.0","<span style=""color:Black; font-size:50px;"">Agent A","null","","","","","","",""
"","null","video-keyboard-response","27","119527","0.0-27.0","","null","","Agent A","veridical","/Users/kirstenziman/Desktop/Desktop/DIDEC_entire_corpus/analysis_3/STIM_SET_2/0_1159609.bmppp79_L1V1_freeview_veridical_mapOnly.mp4","","",""
"","null","html-keyboard-response","28","122531","0.0-28.0","<span style=""color:Black; font-size:50px;"">Agent B","null","","","","","","",""
"","null","video-keyboard-response","29","125595","0.0-29.0","","null","","Agent B","scrambled","/Users/kirstenziman/Desktop/Desktop/DIDEC_entire_corpus/analysis_3/STIM_SET_2/0_1159609.bmppp79_L1V1_freeview_scrambled_mapOnly.mp4","","",""
"","","call-function","30","125595","0.0-30.0","","","","","","","","",""
"","2480.5999999940395","survey-likert","31","128076","0.0-31.0","","","","","","","{""judgement"":1}","[0]","0"
"","1809.1999999955297","survey-likert","32","129886","0.0-32.0","","","","","","","{""confidence"":2}","[0]",""
"","","call-function","33","129887","0.0-33.0","","","","","","","","",""
"","null","html-keyboard-response","34","132892","0.0-34.0","<span style=""color:Black; font-size:50px;"">Agent A","null","","","","","","",""
"","null","video-keyboard-response","35","135950","0.0-35.0","","null","","Agent A","scrambled","/Users/kirstenziman/Desktop/Desktop/DIDEC_entire_corpus/analysis_3/STIM_SET_2/0_1591805.bmppp70_L1V1_freeview_scrambled_mapOnly.mp4","","",""
"","null","html-keyboard-response","36","138953","0.0-36.0","<span style=""color:Black; font-size:50px;"">Agent B","null","","","","","","",""
"","null","video-keyboard-response","37","142015","0.0-37.0","","null","","Agent B","veridical","/Users/kirstenziman/Desktop/Desktop/DIDEC_entire_corpus/analysis_3/STIM_SET_2/0_1591805.bmppp70_L1V1_freeview_veridical_mapOnly.mp4","","",""
"","","call-function","38","142016","0.0-38.0","","","","","","","","",""
"","2638.60000000149","survey-likert","39","144657","0.0-39.0","","","","","","","{""judgement"":1}","[0]","1"
"","2034.2999999970198","survey-likert","40","146693","0.0-40.0","","","","","","","{""confidence"":2}","[0]",""
"","","call-function","41","146694","0.0-41.0","","","","","","","","",""
"","null","html-keyboard-response","42","149699","0.0-42.0","<span style=""color:Black; font-size:50px;"">Agent A","null","","","","","","",""
"","null","video-keyboard-response","43","152811","0.0-43.0","","null","","Agent A","veridical","/Users/kirstenziman/Desktop/Desktop/DIDEC_entire_corpus/analysis_3/STIM_SET_2/0_1592367.bmppp79_L1V1_freeview_veridical_mapOnly.mp4","","",""
"","null","html-keyboard-response","44","155816","0.0-44.0","<span style=""color:Black; font-size:50px;"">Agent B","null","","","","","","",""
"","null","video-keyboard-response","45","158893","0.0-45.0","","null","","Agent B","scrambled","/Users/kirstenziman/Desktop/Desktop/DIDEC_entire_corpus/analysis_3/STIM_SET_2/0_1592367.bmppp79_L1V1_freeview_scrambled_mapOnly.mp4","","",""
"","","call-function","46","158893","0.0-46.0","","","","","","","","",""
"","5134","survey-likert","47","164028","0.0-47.0","","","","","","","{""judgement"":0}","[0]","0"
"","2803.7999999970198","survey-likert","48","166833","0.0-48.0","","","","","","","{""confidence"":0}","[0]",""
"","","call-function","49","166834","0.0-49.0","","","","","","","","",""
"","null","html-keyboard-response","50","169837","0.0-50.0","<span style=""color:Black; font-size:50px;"">Agent A","null","","","","","","",""
"","null","video-keyboard-response","51","172906","0.0-51.0","","null","","Agent A","veridical","/Users/kirstenziman/Desktop/Desktop/DIDEC_entire_corpus/analysis_3/STIM_SET_2/0_713328.bmppp62_L1V1_freeview_veridical_mapOnly.mp4","","",""
"","null","html-keyboard-response","52","175908","0.0-52.0","<span style=""color:Black; font-size:50px;"">Agent B","null","","","","","","",""
"","null","video-keyboard-response","53","178973","0.0-53.0","","null","","Agent B","scrambled","/Users/kirstenziman/Desktop/Desktop/DIDEC_entire_corpus/analysis_3/STIM_SET_2/0_713328.bmppp62_L1V1_freeview_scrambled_mapOnly.mp4","","",""
"","","call-function","54","178974","0.0-54.0","","","","","","","","",""
"","2108.3000000044703","survey-likert","55","181084","0.0-55.0","","","","","","","{""judgement"":0}","[0]","0"
"","999.8999999985099","survey-likert","56","182085","0.0-56.0","","","","","","","{""confidence"":2}","[0]",""
"","","call-function","57","182086","0.0-57.0","","","","","","","","",""
"","null","html-keyboard-response","58","185092","0.0-58.0","<span style=""color:Black; font-size:50px;"">Agent A","null","","","","","","",""
"","null","video-keyboard-response","59","188149","0.0-59.0","","null","","Agent A","veridical","/Users/kirstenziman/Desktop/Desktop/DIDEC_entire_corpus/analysis_3/STIM_SET_2/0_1159847.bmppp95_L1V1_freeview_veridical_mapOnly.mp4","","",""
"","null","html-keyboard-response","60","191153","0.0-60.0","<span style=""color:Black; font-size:50px;"">Agent B","null","","","","","","",""
"","null","video-keyboard-response","61","194221","0.0-61.0","","null","","Agent B","scrambled","/Users/kirstenziman/Desktop/Desktop/DIDEC_entire_corpus/analysis_3/STIM_SET_2/0_1159847.bmppp95_L1V1_freeview_scrambled_mapOnly.mp4","","",""
"","","call-function","62","194221","0.0-62.0","","","","","","","","",""
"","3035.39999999851","survey-likert","63","197258","0.0-63.0","","","","","","","{""judgement"":0}","[0]","0"
"","1870.7999999970198","survey-likert","64","199130","0.0-64.0","","","","","","","{""confidence"":1}","[0]",""
"","","call-function","65","199131","0.0-65.0","","","","","","","","",""
"","null","html-keyboard-response","66","202136","0.0-66.0","<span style=""color:Black; font-size:50px;"">Agent A","null","","","","","","",""
"","null","video-keyboard-response","67","205178","0.0-67.0","","null","","Agent A","veridical","/Users/kirstenziman/Desktop/Desktop/DIDEC_entire_corpus/analysis_3/STIM_SET_2/0_498396.bmppp79_L1V1_freeview_veridical_mapOnly.mp4","","",""
"","null","html-keyboard-response","68","208179","0.0-68.0","<span style=""color:Black; font-size:50px;"">Agent B","null","","","","","","",""
"","null","video-keyboard-response","69","211244","0.0-69.0","","null","","Agent B","scrambled","/Users/kirstenziman/Desktop/Desktop/DIDEC_entire_corpus/analysis_3/STIM_SET_2/0_498396.bmppp79_L1V1_freeview_scrambled_mapOnly.mp4","","",""
"","","call-function","70","211245","0.0-70.0","","","","","","","","",""
"","4563.10000000149","survey-likert","71","215809","0.0-71.0","","","","","","","{""judgement"":1}","[0]","0"
"","1054.3999999985099","survey-likert","72","216865","0.0-72.0","","","","","","","{""confidence"":0}","[0]",""
"","","call-function","73","216865","0.0-73.0","","","","","","","","",""
"","null","html-keyboard-response","74","219870","0.0-74.0","<span style=""color:Black; font-size:50px;"">Agent A","null","","","","","","",""
"","null","video-keyboard-response","75","222919","0.0-75.0","","null","","Agent A","scrambled","/Users/kirstenziman/Desktop/Desktop/DIDEC_entire_corpus/analysis_3/STIM_SET_2/0_61514.bmppp67_L1V1_freeview_scrambled_mapOnly.mp4","","",""
"","null","html-keyboard-response","76","225922","0.0-76.0","<span style=""color:Black; font-size:50px;"">Agent B","null","","","","","","",""
"","null","video-keyboard-response","77","229002","0.0-77.0","","null","","Agent B","veridical","/Users/kirstenziman/Desktop/Desktop/DIDEC_entire_corpus/analysis_3/STIM_SET_2/0_61514.bmppp67_L1V1_freeview_veridical_mapOnly.mp4","","",""
"","","call-function","78","229002","0.0-78.0","","","","","","","","",""
"","2019.7000000029802","survey-likert","79","231023","0.0-79.0","","","","","","","{""judgement"":1}","[0]","1"
"","1252.8000000044703","survey-likert","80","232276","0.0-80.0","","","","","","","{""confidence"":3}","[0]",""
"","","call-function","81","232278","0.0-81.0","","","","","","","","",""
"","null","html-keyboard-response","82","235283","0.0-82.0","<span style=""color:Black; font-size:50px;"">Agent A","null","","","","","","",""
"","null","video-keyboard-response","83","238355","0.0-83.0","","null","","Agent A","scrambled","/Users/kirstenziman/Desktop/Desktop/DIDEC_entire_corpus/analysis_3/STIM_SET_2/0_1160093.bmppp152_L1V1_freeview_scrambled_mapOnly.mp4","","",""
"","null","html-keyboard-response","84","241358","0.0-84.0","<span style=""color:Black; font-size:50px;"">Agent B","null","","","","","","",""
"","null","video-keyboard-response","85","244420","0.0-85.0","","null","","Agent B","veridical","/Users/kirstenziman/Desktop/Desktop/DIDEC_entire_corpus/analysis_3/STIM_SET_2/0_1160093.bmppp152_L1V1_freeview_veridical_mapOnly.mp4","","",""
"","","call-function","86","244420","0.0-86.0","","","","","","","","",""
"","2979.39999999851","survey-likert","87","247400","0.0-87.0","","","","","","","{""judgement"":1}","[0]","1"
"","5128.29999999702","survey-likert","88","252530","0.0-88.0","","","","","","","{""confidence"":2}","[0]",""
"[{""page_index"":0,""viewing_time"":1268.6000000014901},{""page_index"":1,""viewing_time"":706.3000000044703},{""page_index"":2,""viewing_time"":324.29999999701977}]","2299.4000000059605","instructions","89","254830","0.0-89.0","","","","","","","","",""
"[{""page_index"":0,""viewing_time"":185.5},{""page_index"":1,""viewing_time"":840.5},{""page_index"":2,""viewing_time"":485.79999999701977}]","1511.8999999985099","instructions","90","256343","0.0-90.0","","","","","","","","",""
"","","call-function","91","256344","0.0-91.0","","","","","","","","",""
"","null","html-keyboard-response","92","259348","0.0-92.0","<span style=""color:Black; font-size:50px;"">Agent A","null","","","","","","",""
"","null","video-keyboard-response","93","262423","0.0-93.0","","null","","Agent A","scrambled","/Users/kirstenziman/Desktop/Desktop/DIDEC_entire_corpus/analysis_3/STIM_SET_2/0_1159724.bmppp79_L1V1_freeview_scrambled_mapOnly.mp4","","",""
"","null","html-keyboard-response","94","265428","0.0-94.0","<span style=""color:Black; font-size:50px;"">Agent B","null","","","","","","",""
"","null","video-keyboard-response","95","268490","0.0-95.0","","null","","Agent B","veridical","/Users/kirstenziman/Desktop/Desktop/DIDEC_entire_corpus/analysis_3/STIM_SET_2/0_1159724.bmppp79_L1V1_freeview_veridical_mapOnly.mp4","","",""
"","","call-function","96","268491","0.0-96.0","","","","","","","","",""
"","3932.3000000044703","survey-likert","97","272424","0.0-97.0","","","","","","","{""judgement"":1}","[0]","1"
"","2336.7999999970198","survey-likert","98","274762","0.0-98.0","","","","","","","{""confidence"":2}","[0]",""
"","","call-function","99","274763","0.0-99.0","","","","","","","","",""
"","null","html-keyboard-response","100","277767","0.0-100.0","<span style=""color:Black; font-size:50px;"">Agent A","null","","","","","","",""
"","null","video-keyboard-response","101","280865","0.0-101.0","","null","","Agent A","veridical","/Users/kirstenziman/Desktop/Desktop/DIDEC_entire_corpus/analysis_3/STIM_SET_2/0_713779.bmppp67_L1V1_freeview_veridical_mapOnly.mp4","","",""
"","null","html-keyboard-response","102","283866","0.0-102.0","<span style=""color:Black; font-size:50px;"">Agent B","null","","","","","","",""
"","null","video-keyboard-response","103","286932","0.0-103.0","","null","","Agent B","scrambled","/Users/kirstenziman/Desktop/Desktop/DIDEC_entire_corpus/analysis_3/STIM_SET_2/0_713779.bmppp67_L1V1_freeview_scrambled_mapOnly.mp4","","",""
"","","call-function","104","286932","0.0-104.0","","","","","","","","",""
"","1323.3999999985099","survey-likert","105","288256","0.0-105.0","","","","","","","{""judgement"":0}","[0]","0"
"","5881.39999999851","survey-likert","106","294139","0.0-106.0","","","","","","","{""confidence"":3}","[0]",""
"","","call-function","107","294139","0.0-107.0","","","","","","","","",""
"","null","html-keyboard-response","108","297142","0.0-108.0","<span style=""color:Black; font-size:50px;"">Agent A","null","","","","","","",""
"","null","video-keyboard-response","109","300195","0.0-109.0","","null","","Agent A","scrambled","/Users/kirstenziman/Desktop/Desktop/DIDEC_entire_corpus/analysis_3/STIM_SET_2/0_1159874.bmppp152_L1V1_freeview_scrambled_mapOnly.mp4","","",""
"","null","html-keyboard-response","110","303197","0.0-110.0","<span style=""color:Black; font-size:50px;"">Agent B","null","","","","","","",""
"","null","video-keyboard-response","111","306279","0.0-111.0","","null","","Agent B","veridical","/Users/kirstenziman/Desktop/Desktop/DIDEC_entire_corpus/analysis_3/STIM_SET_2/0_1159874.bmppp152_L1V1_freeview_veridical_mapOnly.mp4","","",""
"","","call-function","112","306279","0.0-112.0","","","","","","","","",""
"","1586.7000000029802","survey-likert","113","307866","0.0-113.0","","","","","","","{""judgement"":0}","[0]","1"
"","1665.6000000014901","survey-likert","114","309533","0.0-114.0","","","","","","","{""confidence"":1}","[0]",""
"","","call-function","115","309534","0.0-115.0","","","","","","","","",""
"","null","html-keyboard-response","116","312538","0.0-116.0","<span style=""color:Black; font-size:50px;"">Agent A","null","","","","","","",""
"","null","video-keyboard-response","117","315592","0.0-117.0","","null","","Agent A","scrambled","/Users/kirstenziman/Desktop/Desktop/DIDEC_entire_corpus/analysis_3/STIM_SET_2/0_498281.bmppp90_L1V1_freeview_scrambled_mapOnly.mp4","","",""
"","null","html-keyboard-response","118","318598","0.0-118.0","<span style=""color:Black; font-size:50px;"">Agent B","null","","","","","","",""
"","null","video-keyboard-response","119","321656","0.0-119.0","","null","","Agent B","veridical","/Users/kirstenziman/Desktop/Desktop/DIDEC_entire_corpus/analysis_3/STIM_SET_2/0_498281.bmppp90_L1V1_freeview_veridical_mapOnly.mp4","","",""
"","","call-function","120","321657","0.0-120.0","","","","","","","","",""
"","2408.60000000149","survey-likert","121","324067","0.0-121.0","","","","","","","{""judgement"":0}","[0]","1"
"","9032.39999999851","survey-likert","122","333101","0.0-122.0","","","","","","","{""confidence"":2}","[0]",""
"","","call-function","123","333102","0.0-123.0","","","","","","","","",""
"","null","html-keyboard-response","124","336106","0.0-124.0","<span style=""color:Black; font-size:50px;"">Agent A","null","","","","","","",""
"","null","video-keyboard-response","125","339187","0.0-125.0","","null","","Agent A","veridical","/Users/kirstenziman/Desktop/Desktop/DIDEC_entire_corpus/analysis_3/STIM_SET_2/0_1592083.bmppp99_L1V1_freeview_veridical_mapOnly.mp4","","",""
"","null","html-keyboard-response","126","342192","0.0-126.0","<span style=""color:Black; font-size:50px;"">Agent B","null","","","","","","",""
"","null","video-keyboard-response","127","345236","0.0-127.0","","null","","Agent B","scrambled","/Users/kirstenziman/Desktop/Desktop/DIDEC_entire_corpus/analysis_3/STIM_SET_2/0_1592083.bmppp99_L1V1_freeview_scrambled_mapOnly.mp4","","",""
"","","call-function","128","345237","0.0-128.0","","","","","","","","",""
"","3229.7000000029802","survey-likert","129","348468","0.0-129.0","","","","","","","{""judgement"":1}","[0]","0"
"","1492","survey-likert","130","349961","0.0-130.0","","","","","","","{""confidence"":3}","[0]",""
"","","call-function","131","349962","0.0-131.0","","","","","","","","",""
"","null","html-keyboard-response","132","352964","0.0-132.0","<span style=""color:Black; font-size:50px;"">Agent A","null","","","","","","",""
"","null","video-keyboard-response","133","356034","0.0-133.0","","null","","Agent A","scrambled","/Users/kirstenziman/Desktop/Desktop/DIDEC_entire_corpus/analysis_3/STIM_SET_2/0_713003.bmppp82_L1V1_freeview_scrambled_mapOnly.mp4","","",""
"","null","html-keyboard-response","134","359038","0.0-134.0","<span style=""color:Black; font-size:50px;"">Agent B","null","","","","","","",""
"","null","video-keyboard-response","135","362100","0.0-135.0","","null","","Agent B","veridical","/Users/kirstenziman/Desktop/Desktop/DIDEC_entire_corpus/analysis_3/STIM_SET_2/0_713003.bmppp82_L1V1_freeview_veridical_mapOnly.mp4","","",""
"","","call-function","136","362101","0.0-136.0","","","","","","","","",""
"","2711","survey-likert","137","364813","0.0-137.0","","","","","","","{""judgement"":1}","[0]","1"
"","1840.8000000044703","survey-likert","138","366656","0.0-138.0","","","","","","","{""confidence"":2}","[0]",""
"","","call-function","139","366657","0.0-139.0","","","","","","","","",""
"","null","html-keyboard-response","140","369660","0.0-140.0","<span style=""color:Black; font-size:50px;"">Agent A","null","","","","","","",""
"","null","video-keyboard-response","141","372735","0.0-141.0","","null","","Agent A","veridical","/Users/kirstenziman/Desktop/Desktop/DIDEC_entire_corpus/analysis_3/STIM_SET_2/0_1160155.bmppp67_L1V1_freeview_veridical_mapOnly.mp4","","",""
"","null","html-keyboard-response","142","375737","0.0-142.0","<span style=""color:Black; font-size:50px;"">Agent B","null","","","","","","",""
"","null","video-keyboard-response","143","378897","0.0-143.0","","null","","Agent B","scrambled","/Users/kirstenziman/Desktop/Desktop/DIDEC_entire_corpus/analysis_3/STIM_SET_2/0_1160155.bmppp67_L1V1_freeview_scrambled_mapOnly.mp4","","",""
"","","call-function","144","378897","0.0-144.0","","","","","","","","",""
"","2664.5","survey-likert","145","381563","0.0-145.0","","","","","","","{""judgement"":1}","[0]","0"
"","6299.70000000298","survey-likert","146","387864","0.0-146.0","","","","","","","{""confidence"":3}","[0]",""
"","","call-function","147","387865","0.0-147.0","","","","","","","","",""
"","null","html-keyboard-response","148","390869","0.0-148.0","<span style=""color:Black; font-size:50px;"">Agent A","null","","","","","","",""
"","null","video-keyboard-response","149","393939","0.0-149.0","","null","","Agent A","veridical","/Users/kirstenziman/Desktop/Desktop/DIDEC_entire_corpus/analysis_3/STIM_SET_2/0_1592747.bmppp62_L1V1_freeview_veridical_mapOnly.mp4","","",""
"","null","html-keyboard-response","150","396944","0.0-150.0","<span style=""color:Black; font-size:50px;"">Agent B","null","","","","","","",""
"","null","video-keyboard-response","151","400004","0.0-151.0","","null","","Agent B","scrambled","/Users/kirstenziman/Desktop/Desktop/DIDEC_entire_corpus/analysis_3/STIM_SET_2/0_1592747.bmppp62_L1V1_freeview_scrambled_mapOnly.mp4","","",""
"","","call-function","152","400005","0.0-152.0","","","","","","","","",""
"","3735.7999999970198","survey-likert","153","403742","0.0-153.0","","","","","","","{""judgement"":0}","[0]","0"
"","6295.0999999940395","survey-likert","154","410039","0.0-154.0","","","","","","","{""confidence"":3}","[0]",""
"","","call-function","155","410039","0.0-155.0","","","","","","","","",""
"","null","html-keyboard-response","156","413045","0.0-156.0","<span style=""color:Black; font-size:50px;"">Agent A","null","","","","","","",""
"","null","video-keyboard-response","157","416113","0.0-157.0","","null","","Agent A","veridical","/Users/kirstenziman/Desktop/Desktop/DIDEC_entire_corpus/analysis_3/STIM_SET_2/0_498286.bmppp94_L1V1_freeview_veridical_mapOnly.mp4","","",""
"","null","html-keyboard-response","158","419119","0.0-158.0","<span style=""color:Black; font-size:50px;"">Agent B","null","","","","","","",""
"","null","video-keyboard-response","159","422184","0.0-159.0","","null","","Agent B","scrambled","/Users/kirstenziman/Desktop/Desktop/DIDEC_entire_corpus/analysis_3/STIM_SET_2/0_498286.bmppp94_L1V1_freeview_scrambled_mapOnly.mp4","","",""
"","","call-function","160","422185","0.0-160.0","","","","","","","","",""
"","2727.9000000059605","survey-likert","161","424915","0.0-161.0","","","","","","","{""judgement"":1}","[0]","0"
"","1248.7000000029802","survey-likert","162","426165","0.0-162.0","","","","","","","{""confidence"":1}","[0]",""
"","","call-function","163","426165","0.0-163.0","","","","","","","","",""
"","null","html-keyboard-response","164","429167","0.0-164.0","<span style=""color:Black; font-size:50px;"">Agent A","null","","","","","","",""
"","null","video-keyboard-response","165","432225","0.0-165.0","","null","","Agent A","scrambled","/Users/kirstenziman/Desktop/Desktop/DIDEC_entire_corpus/analysis_3/STIM_SET_2/0_498221.bmppp88_L1V1_freeview_scrambled_mapOnly.mp4","","",""
"","null","html-keyboard-response","166","435228","0.0-166.0","<span style=""color:Black; font-size:50px;"">Agent B","null","","","","","","",""
"","null","video-keyboard-response","167","438290","0.0-167.0","","null","","Agent B","veridical","/Users/kirstenziman/Desktop/Desktop/DIDEC_entire_corpus/analysis_3/STIM_SET_2/0_498221.bmppp88_L1V1_freeview_veridical_mapOnly.mp4","","",""
"","","call-function","168","438290","0.0-168.0","","","","","","","","",""
"","10432.10000000149","survey-likert","169","448723","0.0-169.0","","","","","","","{""judgement"":0}","[0]","1"
"","2000.1000000014901","survey-likert","170","450725","0.0-170.0","","","","","","","{""confidence"":1}","[0]",""
"[{""page_index"":0,""viewing_time"":1961.1999999955297},{""page_index"":1,""viewing_time"":451.20000000298023},{""page_index"":2,""viewing_time"":382.8999999985099}]","2795.5999999940395","instructions","171","453521","0.0-171.0","","","","","","","","",""
"[{""page_index"":0,""viewing_time"":360.80000000447035},{""page_index"":1,""viewing_time"":437},{""page_index"":2,""viewing_time"":437.19999999552965}]","1235.3000000044703","instructions","172","454757","0.0-172.0","","","","","","","","",""
"","","call-function","173","454758","0.0-173.0","","","","","","","","",""
"","null","html-keyboard-response","174","457763","0.0-174.0","<span style=""color:Black; font-size:50px;"">Agent A","null","","","","","","",""
"","null","video-keyboard-response","175","460818","0.0-175.0","","null","","Agent A","scrambled","/Users/kirstenziman/Desktop/Desktop/DIDEC_entire_corpus/analysis_3/STIM_SET_2/0_1160168.bmppp96_L1V1_freeview_scrambled_mapOnly.mp4","","",""
"","null","html-keyboard-response","176","463823","0.0-176.0","<span style=""color:Black; font-size:50px;"">Agent B","null","","","","","","",""
"","null","video-keyboard-response","177","466883","0.0-177.0","","null","","Agent B","veridical","/Users/kirstenziman/Desktop/Desktop/DIDEC_entire_corpus/analysis_3/STIM_SET_2/0_1160168.bmppp96_L1V1_freeview_veridical_mapOnly.mp4","","",""
"","","call-function","178","466883","0.0-178.0","","","","","","","","",""
"","5553","survey-likert","179","472437","0.0-179.0","","","","","","","{""judgement"":1}","[0]","1"
"","1439.5","survey-likert","180","473877","0.0-180.0","","","","","","","{""confidence"":3}","[0]",""
"","","call-function","181","473878","0.0-181.0","","","","","","","","",""
"","null","html-keyboard-response","182","476879","0.0-182.0","<span style=""color:Black; font-size:50px;"">Agent A","null","","","","","","",""
"","null","video-keyboard-response","183","479933","0.0-183.0","","null","","Agent A","scrambled","/Users/kirstenziman/Desktop/Desktop/DIDEC_entire_corpus/analysis_3/STIM_SET_2/0_498155.bmppp90_L1V1_freeview_scrambled_mapOnly.mp4","","",""
"","null","html-keyboard-response","184","482940","0.0-184.0","<span style=""color:Black; font-size:50px;"">Agent B","null","","","","","","",""
"","null","video-keyboard-response","185","485998","0.0-185.0","","null","","Agent B","veridical","/Users/kirstenziman/Desktop/Desktop/DIDEC_entire_corpus/analysis_3/STIM_SET_2/0_498155.bmppp90_L1V1_freeview_veridical_mapOnly.mp4","","",""
"","","call-function","186","485999","0.0-186.0","","","","","","","","",""
"","8670","survey-likert","187","494671","0.0-187.0","","","","","","","{""judgement"":0}","[0]","1"
"","3613.39999999851","survey-likert","188","498286","0.0-188.0","","","","","","","{""confidence"":2}","[0]",""
"","","call-function","189","498287","0.0-189.0","","","","","","","","",""
"","null","html-keyboard-response","190","501290","0.0-190.0","<span style=""color:Black; font-size:50px;"">Agent A","null","","","","","","",""
"","null","video-keyboard-response","191","504421","0.0-191.0","","null","","Agent A","veridical","/Users/kirstenziman/Desktop/Desktop/DIDEC_entire_corpus/analysis_3/STIM_SET_2/0_1591954.bmppp54_L1V1_freeview_veridical_mapOnly.mp4","","",""
"","null","html-keyboard-response","192","507426","0.0-192.0","<span style=""color:Black; font-size:50px;"">Agent B","null","","","","","","",""
"","null","video-keyboard-response","193","510505","0.0-193.0","","null","","Agent B","scrambled","/Users/kirstenziman/Desktop/Desktop/DIDEC_entire_corpus/analysis_3/STIM_SET_2/0_1591954.bmppp54_L1V1_freeview_scrambled_mapOnly.mp4","","",""
"","","call-function","194","510506","0.0-194.0","","","","","","","","",""
"","11706.70000000298","survey-likert","195","522214","0.0-195.0","","","","","","","{""judgement"":1}","[0]","0"
"","3974","survey-likert","196","526189","0.0-196.0","","","","","","","{""confidence"":1}","[0]",""
"","","call-function","197","526190","0.0-197.0","","","","","","","","",""
"","null","html-keyboard-response","198","529195","0.0-198.0","<span style=""color:Black; font-size:50px;"">Agent A","null","","","","","","",""
"","null","video-keyboard-response","199","532273","0.0-199.0","","null","","Agent A","veridical","/Users/kirstenziman/Desktop/Desktop/DIDEC_entire_corpus/analysis_3/STIM_SET_2/0_1591859.bmppp61_L1V1_freeview_veridical_mapOnly.mp4","","",""
"","null","html-keyboard-response","200","535278","0.0-200.0","<span style=""color:Black; font-size:50px;"">Agent B","null","","","","","","",""
"","null","video-keyboard-response","201","538354","0.0-201.0","","null","","Agent B","scrambled","/Users/kirstenziman/Desktop/Desktop/DIDEC_entire_corpus/analysis_3/STIM_SET_2/0_1591859.bmppp61_L1V1_freeview_scrambled_mapOnly.mp4","","",""
"","","call-function","202","538355","0.0-202.0","","","","","","","","",""
"","3223.10000000149","survey-likert","203","541580","0.0-203.0","","","","","","","{""judgement"":1}","[0]","0"
"","4477.30000000447","survey-likert","204","546058","0.0-204.0","","","","","","","{""confidence"":3}","[0]",""
"","","call-function","205","546059","0.0-205.0","","","","","","","","",""
"","null","html-keyboard-response","206","549060","0.0-206.0","<span style=""color:Black; font-size:50px;"">Agent A","null","","","","","","",""
"","null","video-keyboard-response","207","552127","0.0-207.0","","null","","Agent A","veridical","/Users/kirstenziman/Desktop/Desktop/DIDEC_entire_corpus/analysis_3/STIM_SET_2/0_1592656.bmppp95_L1V1_freeview_veridical_mapOnly.mp4","","",""
"","null","html-keyboard-response","208","555132","0.0-208.0","<span style=""color:Black; font-size:50px;"">Agent B","null","","","","","","",""
"","null","video-keyboard-response","209","558269","0.0-209.0","","null","","Agent B","scrambled","/Users/kirstenziman/Desktop/Desktop/DIDEC_entire_corpus/analysis_3/STIM_SET_2/0_1592656.bmppp95_L1V1_freeview_scrambled_mapOnly.mp4","","",""
"","","call-function","210","558269","0.0-210.0","","","","","","","","",""
"","9120","survey-likert","211","567390","0.0-211.0","","","","","","","{""judgement"":0}","[0]","0"
"","2707.4000000059605","survey-likert","212","570098","0.0-212.0","","","","","","","{""confidence"":0}","[0]",""
"","","call-function","213","570099","0.0-213.0","","","","","","","","",""
"","null","html-keyboard-response","214","573104","0.0-214.0","<span style=""color:Black; font-size:50px;"">Agent A","null","","","","","","",""
"","null","video-keyboard-response","215","576170","0.0-215.0","","null","","Agent A","veridical","/Users/kirstenziman/Desktop/Desktop/DIDEC_entire_corpus/analysis_3/STIM_SET_2/0_713730.bmppp82_L1V1_freeview_veridical_mapOnly.mp4","","",""
"","null","html-keyboard-response","216","579177","0.0-216.0","<span style=""color:Black; font-size:50px;"">Agent B","null","","","","","","",""
"","null","video-keyboard-response","217","582227","0.0-217.0","","null","","Agent B","scrambled","/Users/kirstenziman/Desktop/Desktop/DIDEC_entire_corpus/analysis_3/STIM_SET_2/0_713730.bmppp82_L1V1_freeview_scrambled_mapOnly.mp4","","",""
"","","call-function","218","582228","0.0-218.0","","","","","","","","",""
"","2548.2000000029802","survey-likert","219","584777","0.0-219.0","","","","","","","{""judgement"":1}","[0]","0"
"","1220.1000000014901","survey-likert","220","585998","0.0-220.0","","","","","","","{""confidence"":1}","[0]",""
"","","call-function","221","585999","0.0-221.0","","","","","","","","",""
"","null","html-keyboard-response","222","589005","0.0-222.0","<span style=""color:Black; font-size:50px;"">Agent A","null","","","","","","",""
"","null","video-keyboard-response","223","592079","0.0-223.0","","null","","Agent A","veridical","/Users/kirstenziman/Desktop/Desktop/DIDEC_entire_corpus/analysis_3/STIM_SET_2/0_285715.bmppp53_L1V1_freeview_veridical_mapOnly.mp4","","",""
"","null","html-keyboard-response","224","595083","0.0-224.0","<span style=""color:Black; font-size:50px;"">Agent B","null","","","","","","",""
"","null","video-keyboard-response","225","598146","0.0-225.0","","null","","Agent B","scrambled","/Users/kirstenziman/Desktop/Desktop/DIDEC_entire_corpus/analysis_3/STIM_SET_2/0_285715.bmppp53_L1V1_freeview_scrambled_mapOnly.mp4","","",""
"","","call-function","226","598147","0.0-226.0","","","","","","","","",""
"","11734.29999999702","survey-likert","227","609883","0.0-227.0","","","","","","","{""judgement"":1}","[0]","0"
"","5896.39999999851","survey-likert","228","615781","0.0-228.0","","","","","","","{""confidence"":1}","[0]",""
"","","call-function","229","615783","0.0-229.0","","","","","","","","",""
"","null","html-keyboard-response","230","618784","0.0-230.0","<span style=""color:Black; font-size:50px;"">Agent A","null","","","","","","",""
"","null","video-keyboard-response","231","621838","0.0-231.0","","null","","Agent A","veridical","/Users/kirstenziman/Desktop/Desktop/DIDEC_entire_corpus/analysis_3/STIM_SET_2/0_713146.bmppp61_L1V1_freeview_veridical_mapOnly.mp4","","",""
"","null","html-keyboard-response","232","624842","0.0-232.0","<span style=""color:Black; font-size:50px;"">Agent B","null","","","","","","",""
"","null","video-keyboard-response","233","627917","0.0-233.0","","null","","Agent B","scrambled","/Users/kirstenziman/Desktop/Desktop/DIDEC_entire_corpus/analysis_3/STIM_SET_2/0_713146.bmppp61_L1V1_freeview_scrambled_mapOnly.mp4","","",""
"","","call-function","234","627917","0.0-234.0","","","","","","","","",""
"","4224","survey-likert","235","632142","0.0-235.0","","","","","","","{""judgement"":1}","[0]","0"
"","1895.2999999970198","survey-likert","236","634038","0.0-236.0","","","","","","","{""confidence"":2}","[0]",""
"","","call-function","237","634039","0.0-237.0","","","","","","","","",""
"","null","html-keyboard-response","238","637041","0.0-238.0","<span style=""color:Black; font-size:50px;"">Agent A","null","","","","","","",""
"","null","video-keyboard-response","239","640110","0.0-239.0","","null","","Agent A","veridical","/Users/kirstenziman/Desktop/Desktop/DIDEC_entire_corpus/analysis_3/STIM_SET_2/0_1160127.bmppp62_L1V1_freeview_veridical_mapOnly.mp4","","",""
"","null","html-keyboard-response","240","643114","0.0-240.0","<span style=""color:Black; font-size:50px;"">Agent B","null","","","","","","",""
"","null","video-keyboard-response","241","646176","0.0-241.0","","null","","Agent B","scrambled","/Users/kirstenziman/Desktop/Desktop/DIDEC_entire_corpus/analysis_3/STIM_SET_2/0_1160127.bmppp62_L1V1_freeview_scrambled_mapOnly.mp4","","",""
"","","call-function","242","646177","0.0-242.0","","","","","","","","",""
"","2534.7999999970198","survey-likert","243","648714","0.0-243.0","","","","","","","{""judgement"":1}","[0]","0"
"","1338","survey-likert","244","650053","0.0-244.0","","","","","","","{""confidence"":3}","[0]",""
"","","call-function","245","650060","0.0-245.0","","","","","","","","",""
"","null","html-keyboard-response","246","653064","0.0-246.0","<span style=""color:Black; font-size:50px;"">Agent A","null","","","","","","",""
"","null","video-keyboard-response","247","656120","0.0-247.0","","null","","Agent A","veridical","/Users/kirstenziman/Desktop/Desktop/DIDEC_entire_corpus/analysis_3/STIM_SET_2/0_1159325.bmppp99_L1V1_freeview_veridical_mapOnly.mp4","","",""
"","null","html-keyboard-response","248","659124","0.0-248.0","<span style=""color:Black; font-size:50px;"">Agent B","null","","","","","","",""
"","null","video-keyboard-response","249","662203","0.0-249.0","","null","","Agent B","scrambled","/Users/kirstenziman/Desktop/Desktop/DIDEC_entire_corpus/analysis_3/STIM_SET_2/0_1159325.bmppp99_L1V1_freeview_scrambled_mapOnly.mp4","","",""
"","","call-function","250","662204","0.0-250.0","","","","","","","","",""
"","2698.39999999851","survey-likert","251","664904","0.0-251.0","","","","","","","{""judgement"":0}","[0]","0"
"","1458.6000000014901","survey-likert","252","666364","0.0-252.0","","","","","","","{""confidence"":3}","[0]",""
"[{""page_index"":0,""viewing_time"":1002.9000000059605},{""page_index"":1,""viewing_time"":395.79999999701977},{""page_index"":2,""viewing_time"":202.10000000149012}]","1601","instructions","253","667966","0.0-253.0","","","","","","","","",""
"[{""page_index"":0,""viewing_time"":376.6000000014901},{""page_index"":1,""viewing_time"":146.70000000298023},{""page_index"":2,""viewing_time"":460.3999999985099}]","984","instructions","254","668951","0.0-254.0","","","","","","","","",""
"","","call-function","255","668952","0.0-255.0","","","","","","","","",""
"","null","html-keyboard-response","256","671955","0.0-256.0","<span style=""color:Black; font-size:50px;"">Agent A","null","","","","","","",""
"","null","video-keyboard-response","257","675019","0.0-257.0","","null","","Agent A","veridical","/Users/kirstenziman/Desktop/Desktop/DIDEC_entire_corpus/analysis_3/STIM_SET_2/0_1159392.bmppp95_L1V1_freeview_veridical_mapOnly.mp4","","",""
"","null","html-keyboard-response","258","678023","0.0-258.0","<span style=""color:Black; font-size:50px;"">Agent B","null","","","","","","",""
"","null","video-keyboard-response","259","681100","0.0-259.0","","null","","Agent B","scrambled","/Users/kirstenziman/Desktop/Desktop/DIDEC_entire_corpus/analysis_3/STIM_SET_2/0_1159392.bmppp95_L1V1_freeview_scrambled_mapOnly.mp4","","",""
"","","call-function","260","681101","0.0-260.0","","","","","","","","",""
"","4393.70000000298","survey-likert","261","685495","0.0-261.0","","","","","","","{""judgement"":1}","[0]","0"
"","1818.5","survey-likert","262","687315","0.0-262.0","","","","","","","{""confidence"":2}","[0]",""
"","","call-function","263","687316","0.0-263.0","","","","","","","","",""
"","null","html-keyboard-response","264","690321","0.0-264.0","<span style=""color:Black; font-size:50px;"">Agent A","null","","","","","","",""
"","null","video-keyboard-response","265","693395","0.0-265.0","","null","","Agent A","scrambled","/Users/kirstenziman/Desktop/Desktop/DIDEC_entire_corpus/analysis_3/STIM_SET_2/0_1159329.bmppp99_L1V1_freeview_scrambled_mapOnly.mp4","","",""
"","null","html-keyboard-response","266","696398","0.0-266.0","<span style=""color:Black; font-size:50px;"">Agent B","null","","","","","","",""
"","null","video-keyboard-response","267","699476","0.0-267.0","","null","","Agent B","veridical","/Users/kirstenziman/Desktop/Desktop/DIDEC_entire_corpus/analysis_3/STIM_SET_2/0_1159329.bmppp99_L1V1_freeview_veridical_mapOnly.mp4","","",""
"","","call-function","268","699476","0.0-268.0","","","","","","","","",""
"","2307.5","survey-likert","269","701784","0.0-269.0","","","","","","","{""judgement"":0}","[0]","1"
"","2607.8000000044703","survey-likert","270","704394","0.0-270.0","","","","","","","{""confidence"":1}","[0]",""
"","","call-function","271","704395","0.0-271.0","","","","","","","","",""
"","null","html-keyboard-response","272","707399","0.0-272.0","<span style=""color:Black; font-size:50px;"">Agent A","null","","","","","","",""
"","null","video-keyboard-response","273","710473","0.0-273.0","","null","","Agent A","veridical","/Users/kirstenziman/Desktop/Desktop/DIDEC_entire_corpus/analysis_3/STIM_SET_2/0_1159882.bmppp96_L1V1_freeview_veridical_mapOnly.mp4","","",""
"","null","html-keyboard-response","274","713477","0.0-274.0","<span style=""color:Black; font-size:50px;"">Agent B","null","","","","","","",""
"","null","video-keyboard-response","275","716550","0.0-275.0","","null","","Agent B","scrambled","/Users/kirstenziman/Desktop/Desktop/DIDEC_entire_corpus/analysis_3/STIM_SET_2/0_1159882.bmppp96_L1V1_freeview_scrambled_mapOnly.mp4","","",""
"","","call-function","276","716551","0.0-276.0","","","","","","","","",""
"","2585.39999999851","survey-likert","277","719137","0.0-277.0","","","","","","","{""judgement"":0}","[0]","0"
"","1822.2999999970198","survey-likert","278","720961","0.0-278.0","","","","","","","{""confidence"":2}","[0]",""
"","","call-function","279","720962","0.0-279.0","","","","","","","","",""
"","null","html-keyboard-response","280","723967","0.0-280.0","<span style=""color:Black; font-size:50px;"">Agent A","null","","","","","","",""
"","null","video-keyboard-response","281","727075","0.0-281.0","","null","","Agent A","veridical","/Users/kirstenziman/Desktop/Desktop/DIDEC_entire_corpus/analysis_3/STIM_SET_2/0_713135.bmppp99_L1V1_freeview_veridical_mapOnly.mp4","","",""
"","null","html-keyboard-response","282","730080","0.0-282.0","<span style=""color:Black; font-size:50px;"">Agent B","null","","","","","","",""
"","null","video-keyboard-response","283","733143","0.0-283.0","","null","","Agent B","scrambled","/Users/kirstenziman/Desktop/Desktop/DIDEC_entire_corpus/analysis_3/STIM_SET_2/0_713135.bmppp99_L1V1_freeview_scrambled_mapOnly.mp4","","",""
"","","call-function","284","733143","0.0-284.0","","","","","","","","",""
"","2238.4000000059605","survey-likert","285","735382","0.0-285.0","","","","","","","{""judgement"":0}","[0]","0"
"","1794","survey-likert","286","737177","0.0-286.0","","","","","","","{""confidence"":3}","[0]",""
"","","call-function","287","737179","0.0-287.0","","","","","","","","",""
"","null","html-keyboard-response","288","740180","0.0-288.0","<span style=""color:Black; font-size:50px;"">Agent A","null","","","","","","",""
"","null","video-keyboard-response","289","743250","0.0-289.0","","null","","Agent A","veridical","/Users/kirstenziman/Desktop/Desktop/DIDEC_entire_corpus/analysis_3/STIM_SET_2/0_1159904.bmppp88_L1V1_freeview_veridical_mapOnly.mp4","","",""
"","null","html-keyboard-response","290","746253","0.0-290.0","<span style=""color:Black; font-size:50px;"">Agent B","null","","","","","","",""
"","null","video-keyboard-response","291","749335","0.0-291.0","","null","","Agent B","scrambled","/Users/kirstenziman/Desktop/Desktop/DIDEC_entire_corpus/analysis_3/STIM_SET_2/0_1159904.bmppp88_L1V1_freeview_scrambled_mapOnly.mp4","","",""
"","","call-function","292","749336","0.0-292.0","","","","","","","","",""
"","2271.2999999970198","survey-likert","293","751608","0.0-293.0","","","","","","","{""judgement"":0}","[0]","0"
"","2543.60000000149","survey-likert","294","754153","0.0-294.0","","","","","","","{""confidence"":2}","[0]",""
"","","call-function","295","754154","0.0-295.0","","","","","","","","",""
"","null","html-keyboard-response","296","757155","0.0-296.0","<span style=""color:Black; font-size:50px;"">Agent A","null","","","","","","",""
"","null","video-keyboard-response","297","760202","0.0-297.0","","null","","Agent A","scrambled","/Users/kirstenziman/Desktop/Desktop/DIDEC_entire_corpus/analysis_3/STIM_SET_2/0_498372.bmppp82_L1V1_freeview_scrambled_mapOnly.mp4","","",""
"","null","html-keyboard-response","298","763207","0.0-298.0","<span style=""color:Black; font-size:50px;"">Agent B","null","","","","","","",""
"","null","video-keyboard-response","299","766270","0.0-299.0","","null","","Agent B","veridical","/Users/kirstenziman/Desktop/Desktop/DIDEC_entire_corpus/analysis_3/STIM_SET_2/0_498372.bmppp82_L1V1_freeview_veridical_mapOnly.mp4","","",""
"","","call-function","300","766271","0.0-300.0","","","","","","","","",""
"","5380.79999999702","survey-likert","301","771653","0.0-301.0","","","","","","","{""judgement"":0}","[0]","1"
"","5636.39999999851","survey-likert","302","777291","0.0-302.0","","","","","","","{""confidence"":2}","[0]",""
"","","call-function","303","777292","0.0-303.0","","","","","","","","",""
"","null","html-keyboard-response","304","780297","0.0-304.0","<span style=""color:Black; font-size:50px;"">Agent A","null","","","","","","",""
"","null","video-keyboard-response","305","783362","0.0-305.0","","null","","Agent A","veridical","/Users/kirstenziman/Desktop/Desktop/DIDEC_entire_corpus/analysis_3/STIM_SET_2/0_107964.bmppp86_L1V1_freeview_veridical_mapOnly.mp4","","",""
"","null","html-keyboard-response","306","786367","0.0-306.0","<span style=""color:Black; font-size:50px;"">Agent B","null","","","","","","",""
"","null","video-keyboard-response","307","789443","0.0-307.0","","null","","Agent B","scrambled","/Users/kirstenziman/Desktop/Desktop/DIDEC_entire_corpus/analysis_3/STIM_SET_2/0_107964.bmppp86_L1V1_freeview_scrambled_mapOnly.mp4","","",""
"","","call-function","308","789443","0.0-308.0","","","","","","","","",""
"","2391.89999999851","survey-likert","309","791836","0.0-309.0","","","","","","","{""judgement"":0}","[0]","0"
"","1646.5","survey-likert","310","793484","0.0-310.0","","","","","","","{""confidence"":3}","[0]",""
"","","call-function","311","793485","0.0-311.0","","","","","","","","",""
"","null","html-keyboard-response","312","796490","0.0-312.0","<span style=""color:Black; font-size:50px;"">Agent A","null","","","","","","",""
"","null","video-keyboard-response","313","799557","0.0-313.0","","null","","Agent A","scrambled","/Users/kirstenziman/Desktop/Desktop/DIDEC_entire_corpus/analysis_3/STIM_SET_2/0_285859.bmppp53_L1V1_freeview_scrambled_mapOnly.mp4","","",""
"","null","html-keyboard-response","314","802562","0.0-314.0","<span style=""color:Black; font-size:50px;"">Agent B","null","","","","","","",""
"","null","video-keyboard-response","315","805637","0.0-315.0","","null","","Agent B","veridical","/Users/kirstenziman/Desktop/Desktop/DIDEC_entire_corpus/analysis_3/STIM_SET_2/0_285859.bmppp53_L1V1_freeview_veridical_mapOnly.mp4","","",""
"","","call-function","316","805638","0.0-316.0","","","","","","","","",""
"","11188.10000000149","survey-likert","317","816828","0.0-317.0","","","","","","","{""judgement"":0}","[0]","1"
"","6034.0999999940395","survey-likert","318","822864","0.0-318.0","","","","","","","{""confidence"":2}","[0]",""
"","","call-function","319","822865","0.0-319.0","","","","","","","","",""
"","null","html-keyboard-response","320","825869","0.0-320.0","<span style=""color:Black; font-size:50px;"">Agent A","null","","","","","","",""
"","null","video-keyboard-response","321","828928","0.0-321.0","","null","","Agent A","scrambled","/Users/kirstenziman/Desktop/Desktop/DIDEC_entire_corpus/analysis_3/STIM_SET_2/0_1160180.bmppp61_L1V1_freeview_scrambled_mapOnly.mp4","","",""
"","null","html-keyboard-response","322","831935","0.0-322.0","<span style=""color:Black; font-size:50px;"">Agent B","null","","","","","","",""
"","null","video-keyboard-response","323","835012","0.0-323.0","","null","","Agent B","veridical","/Users/kirstenziman/Desktop/Desktop/DIDEC_entire_corpus/analysis_3/STIM_SET_2/0_1160180.bmppp61_L1V1_freeview_veridical_mapOnly.mp4","","",""
"","","call-function","324","835013","0.0-324.0","","","","","","","","",""
"","2263.9000000059605","survey-likert","325","837278","0.0-325.0","","","","","","","{""judgement"":1}","[0]","1"
"","1913.3000000044703","survey-likert","326","839193","0.0-326.0","","","","","","","{""confidence"":3}","[0]",""
"","","call-function","327","839194","0.0-327.0","","","","","","","","",""
"","null","html-keyboard-response","328","842199","0.0-328.0","<span style=""color:Black; font-size:50px;"">Agent A","null","","","","","","",""
"","null","video-keyboard-response","329","845253","0.0-329.0","","null","","Agent A","scrambled","/Users/kirstenziman/Desktop/Desktop/DIDEC_entire_corpus/analysis_3/STIM_SET_2/0_150374.bmppp96_L1V1_freeview_scrambled_mapOnly.mp4","","",""
"","null","html-keyboard-response","330","848254","0.0-330.0","<span style=""color:Black; font-size:50px;"">Agent B","null","","","","","","",""
"","null","video-keyboard-response","331","851314","0.0-331.0","","null","","Agent B","veridical","/Users/kirstenziman/Desktop/Desktop/DIDEC_entire_corpus/analysis_3/STIM_SET_2/0_150374.bmppp96_L1V1_freeview_veridical_mapOnly.mp4","","",""
"","","call-function","332","851316","0.0-332.0","","","","","","","","",""
"","19719.60000000149","survey-likert","333","871037","0.0-333.0","","","","","","","{""judgement"":1}","[0]","1"
"","11560.70000000298","survey-likert","334","882600","0.0-334.0","","","","","","","{""confidence"":3}","[0]",""
"[{""page_index"":0,""viewing_time"":1836.3999999985099},{""page_index"":1,""viewing_time"":153.39999999850988},{""page_index"":2,""viewing_time"":374}]","2364.1999999955297","instructions","335","884965","0.0-335.0","","","","","","","","",""
"[{""page_index"":0,""viewing_time"":174.09999999403954},{""page_index"":1,""viewing_time"":430.5},{""page_index"":2,""viewing_time"":499.20000000298023}]","1104","instructions","336","886070","0.0-336.0","","","","","","","","",""
"","","call-function","337","886070","0.0-337.0","","","","","","","","",""
"","null","html-keyboard-response","338","889075","0.0-338.0","<span style=""color:Black; font-size:50px;"">Agent A","null","","","","","","",""
"","null","video-keyboard-response","339","892141","0.0-339.0","","null","","Agent A","veridical","/Users/kirstenziman/Desktop/Desktop/DIDEC_entire_corpus/analysis_3/STIM_SET_2/0_1592044.bmppp152_L1V1_freeview_veridical_mapOnly.mp4","","",""
"","null","html-keyboard-response","340","895145","0.0-340.0","<span style=""color:Black; font-size:50px;"">Agent B","null","","","","","","",""
"","null","video-keyboard-response","341","898195","0.0-341.0","","null","","Agent B","scrambled","/Users/kirstenziman/Desktop/Desktop/DIDEC_entire_corpus/analysis_3/STIM_SET_2/0_1592044.bmppp152_L1V1_freeview_scrambled_mapOnly.mp4","","",""
"","","call-function","342","898196","0.0-342.0","","","","","","","","",""
"","6480.70000000298","survey-likert","343","904677","0.0-343.0","","","","","","","{""judgement"":0}","[0]","0"
"","2027.3999999985099","survey-likert","344","906706","0.0-344.0","","","","","","","{""confidence"":1}","[0]",""
"","","call-function","345","906707","0.0-345.0","","","","","","","","",""
"","null","html-keyboard-response","346","909713","0.0-346.0","<span style=""color:Black; font-size:50px;"">Agent A","null","","","","","","",""
"","null","video-keyboard-response","347","912848","0.0-347.0","","null","","Agent A","veridical","/Users/kirstenziman/Desktop/Desktop/DIDEC_entire_corpus/analysis_3/STIM_SET_2/0_1159397.bmppp86_L1V1_freeview_veridical_mapOnly.mp4","","",""
"","null","html-keyboard-response","348","915848","0.0-348.0","<span style=""color:Black; font-size:50px;"">Agent B","null","","","","","","",""
"","null","video-keyboard-response","349","918915","0.0-349.0","","null","","Agent B","scrambled","/Users/kirstenziman/Desktop/Desktop/DIDEC_entire_corpus/analysis_3/STIM_SET_2/0_1159397.bmppp86_L1V1_freeview_scrambled_mapOnly.mp4","","",""
"","","call-function","350","918916","0.0-350.0","","","","","","","","",""
"","2578.2999999970198","survey-likert","351","921495","0.0-351.0","","","","","","","{""judgement"":0}","[0]","0"
"","1619.2999999970198","survey-likert","352","923116","0.0-352.0","","","","","","","{""confidence"":2}","[0]",""
"","","call-function","353","923117","0.0-353.0","","","","","","","","",""
"","null","html-keyboard-response","354","926118","0.0-354.0","<span style=""color:Black; font-size:50px;"">Agent A","null","","","","","","",""
"","null","video-keyboard-response","355","929195","0.0-355.0","","null","","Agent A","veridical","/Users/kirstenziman/Desktop/Desktop/DIDEC_entire_corpus/analysis_3/STIM_SET_2/0_1592352.bmppp82_L1V1_freeview_veridical_mapOnly.mp4","","",""
"","null","html-keyboard-response","356","932199","0.0-356.0","<span style=""color:Black; font-size:50px;"">Agent B","null","","","","","","",""
"","null","video-keyboard-response","357","935262","0.0-357.0","","null","","Agent B","scrambled","/Users/kirstenziman/Desktop/Desktop/DIDEC_entire_corpus/analysis_3/STIM_SET_2/0_1592352.bmppp82_L1V1_freeview_scrambled_mapOnly.mp4","","",""
"","","call-function","358","935264","0.0-358.0","","","","","","","","",""
"","5400","survey-likert","359","940666","0.0-359.0","","","","","","","{""judgement"":1}","[0]","0"
"","1817.1000000014901","survey-likert","360","942484","0.0-360.0","","","","","","","{""confidence"":2}","[0]",""
"","","call-function","361","942485","0.0-361.0","","","","","","","","",""
"","null","html-keyboard-response","362","945489","0.0-362.0","<span style=""color:Black; font-size:50px;"">Agent A","null","","","","","","",""
"","null","video-keyboard-response","363","948572","0.0-363.0","","null","","Agent A","veridical","/Users/kirstenziman/Desktop/Desktop/DIDEC_entire_corpus/analysis_3/STIM_SET_2/0_1159889.bmppp61_L1V1_freeview_veridical_mapOnly.mp4","","",""
"","null","html-keyboard-response","364","951585","0.0-364.0","<span style=""color:Black; font-size:50px;"">Agent B","null","","","","","","",""
"","null","video-keyboard-response","365","954659","0.0-365.0","","null","","Agent B","scrambled","/Users/kirstenziman/Desktop/Desktop/DIDEC_entire_corpus/analysis_3/STIM_SET_2/0_1159889.bmppp61_L1V1_freeview_scrambled_mapOnly.mp4","","",""
"","","call-function","366","954660","0.0-366.0","","","","","","","","",""
"","3325.89999999851","survey-likert","367","957988","0.0-367.0","","","","","","","{""judgement"":1}","[0]","0"
"","6477.69999999553","survey-likert","368","964467","0.0-368.0","","","","","","","{""confidence"":3}","[0]",""
"","","call-function","369","964469","0.0-369.0","","","","","","","","",""
"","null","html-keyboard-response","370","967473","0.0-370.0","<span style=""color:Black; font-size:50px;"">Agent A","null","","","","","","",""
"","null","video-keyboard-response","371","970542","0.0-371.0","","null","","Agent A","scrambled","/Users/kirstenziman/Desktop/Desktop/DIDEC_entire_corpus/analysis_3/STIM_SET_2/0_713017.bmppp53_L1V1_freeview_scrambled_mapOnly.mp4","","",""
"","null","html-keyboard-response","372","973546","0.0-372.0","<span style=""color:Black; font-size:50px;"">Agent B","null","","","","","","",""
"","null","video-keyboard-response","373","976615","0.0-373.0","","null","","Agent B","veridical","/Users/kirstenziman/Desktop/Desktop/DIDEC_entire_corpus/analysis_3/STIM_SET_2/0_713017.bmppp53_L1V1_freeview_veridical_mapOnly.mp4","","",""
"","","call-function","374","976617","0.0-374.0","","","","","","","","",""
"","2272","survey-likert","375","978890","0.0-375.0","","","","","","","{""judgement"":1}","[0]","1"
"","1291.1000000014901","survey-likert","376","980183","0.0-376.0","","","","","","","{""confidence"":3}","[0]",""
"","","call-function","377","980184","0.0-377.0","","","","","","","","",""
"","null","html-keyboard-response","378","983187","0.0-378.0","<span style=""color:Black; font-size:50px;"">Agent A","null","","","","","","",""
"","null","video-keyboard-response","379","986249","0.0-379.0","","null","","Agent A","scrambled","/Users/kirstenziman/Desktop/Desktop/DIDEC_entire_corpus/analysis_3/STIM_SET_2/0_713749.bmppp88_L1V1_freeview_scrambled_mapOnly.mp4","","",""
"","null","html-keyboard-response","380","989253","0.0-380.0","<span style=""color:Black; font-size:50px;"">Agent B","null","","","","","","",""
"","null","video-keyboard-response","381","992330","0.0-381.0","","null","","Agent B","veridical","/Users/kirstenziman/Desktop/Desktop/DIDEC_entire_corpus/analysis_3/STIM_SET_2/0_713749.bmppp88_L1V1_freeview_veridical_mapOnly.mp4","","",""
"","","call-function","382","992331","0.0-382.0","","","","","","","","",""
"","4742.19999999553","survey-likert","383","997075","0.0-383.0","","","","","","","{""judgement"":1}","[0]","1"
"","4195.10000000149","survey-likert","384","1001272","0.0-384.0","","","","","","","{""confidence"":3}","[0]",""
"","","call-function","385","1001272","0.0-385.0","","","","","","","","",""
"","null","html-keyboard-response","386","1004277","0.0-386.0","<span style=""color:Black; font-size:50px;"">Agent A","null","","","","","","",""
"","null","video-keyboard-response","387","1007330","0.0-387.0","","null","","Agent A","veridical","/Users/kirstenziman/Desktop/Desktop/DIDEC_entire_corpus/analysis_3/STIM_SET_2/0_713681.bmppp88_L1V1_freeview_veridical_mapOnly.mp4","","",""
"","null","html-keyboard-response","388","1010332","0.0-388.0","<span style=""color:Black; font-size:50px;"">Agent B","null","","","","","","",""
"","null","video-keyboard-response","389","1013415","0.0-389.0","","null","","Agent B","scrambled","/Users/kirstenziman/Desktop/Desktop/DIDEC_entire_corpus/analysis_3/STIM_SET_2/0_713681.bmppp88_L1V1_freeview_scrambled_mapOnly.mp4","","",""
"","","call-function","390","1013416","0.0-390.0","","","","","","","","",""
"","6065.69999999553","survey-likert","391","1019483","0.0-391.0","","","","","","","{""judgement"":1}","[0]","0"
"","2842.7999999970198","survey-likert","392","1022328","0.0-392.0","","","","","","","{""confidence"":3}","[0]",""
"","","call-function","393","1022329","0.0-393.0","","","","","","","","",""
"","null","html-keyboard-response","394","1025331","0.0-394.0","<span style=""color:Black; font-size:50px;"">Agent A","null","","","","","","",""
"","null","video-keyboard-response","395","1028402","0.0-395.0","","null","","Agent A","veridical","/Users/kirstenziman/Desktop/Desktop/DIDEC_entire_corpus/analysis_3/STIM_SET_2/0_1159897.bmppp53_L1V1_freeview_veridical_mapOnly.mp4","","",""
"","null","html-keyboard-response","396","1031405","0.0-396.0","<span style=""color:Black; font-size:50px;"">Agent B","null","","","","","","",""
"","null","video-keyboard-response","397","1034487","0.0-397.0","","null","","Agent B","scrambled","/Users/kirstenziman/Desktop/Desktop/DIDEC_entire_corpus/analysis_3/STIM_SET_2/0_1159897.bmppp53_L1V1_freeview_scrambled_mapOnly.mp4","","",""
"","","call-function","398","1034487","0.0-398.0","","","","","","","","",""
"","5915.79999999702","survey-likert","399","1040404","0.0-399.0","","","","","","","{""judgement"":0}","[0]","0"
"","2114","survey-likert","400","1042520","0.0-400.0","","","","","","","{""confidence"":3}","[0]",""
"","","call-function","401","1042521","0.0-401.0","","","","","","","","",""
"","null","html-keyboard-response","402","1045522","0.0-402.0","<span style=""color:Black; font-size:50px;"">Agent A","null","","","","","","",""
"","null","video-keyboard-response","403","1048585","0.0-403.0","","null","","Agent A","scrambled","/Users/kirstenziman/Desktop/Desktop/DIDEC_entire_corpus/analysis_3/STIM_SET_2/0_1592362.bmppp53_L1V1_freeview_scrambled_mapOnly.mp4","","",""
"","null","html-keyboard-response","404","1051589","0.0-404.0","<span style=""color:Black; font-size:50px;"">Agent B","null","","","","","","",""
"","null","video-keyboard-response","405","1054668","0.0-405.0","","null","","Agent B","veridical","/Users/kirstenziman/Desktop/Desktop/DIDEC_entire_corpus/analysis_3/STIM_SET_2/0_1592362.bmppp53_L1V1_freeview_veridical_mapOnly.mp4","","",""
"","","call-function","406","1054669","0.0-406.0","","","","","","","","",""
"","3015.39999999851","survey-likert","407","1057686","0.0-407.0","","","","","","","{""judgement"":0}","[0]","1"
"","10170.29999999702","survey-likert","408","1067858","0.0-408.0","","","","","","","{""confidence"":0}","[0]",""
"","","call-function","409","1067858","0.0-409.0","","","","","","","","",""
"","null","html-keyboard-response","410","1070862","0.0-410.0","<span style=""color:Black; font-size:50px;"">Agent A","null","","","","","","",""
"","null","video-keyboard-response","411","1073922","0.0-411.0","","null","","Agent A","scrambled","/Users/kirstenziman/Desktop/Desktop/DIDEC_entire_corpus/analysis_3/STIM_SET_2/0_1593006.bmppp94_L1V1_freeview_scrambled_mapOnly.mp4","","",""
"","null","html-keyboard-response","412","1076928","0.0-412.0","<span style=""color:Black; font-size:50px;"">Agent B","null","","","","","","",""
"","null","video-keyboard-response","413","1079989","0.0-413.0","","null","","Agent B","veridical","/Users/kirstenziman/Desktop/Desktop/DIDEC_entire_corpus/analysis_3/STIM_SET_2/0_1593006.bmppp94_L1V1_freeview_veridical_mapOnly.mp4","","",""
"","","call-function","414","1079990","0.0-414.0","","","","","","","","",""
"","3623.5","survey-likert","415","1083615","0.0-415.0","","","","","","","{""judgement"":1}","[0]","1"
"","1523.1000000014901","survey-likert","416","1085139","0.0-416.0","","","","","","","{""confidence"":3}","[0]",""
"[{""page_index"":0,""viewing_time"":1063.5},{""page_index"":1,""viewing_time"":129.5},{""page_index"":2,""viewing_time"":97.90000000596046}]","1291.1000000014901","instructions","417","1086431","0.0-417.0","","","","","","","","",""
"[{""page_index"":0,""viewing_time"":136.70000000298023},{""page_index"":1,""viewing_time"":153.39999999850988},{""page_index"":2,""viewing_time"":106.80000000447035}]","397.30000000447035","instructions","418","1086828","0.0-418.0","","","","","","","","",""
"","","call-function","419","1086829","0.0-419.0","","","","","","","","",""
"","null","html-keyboard-response","420","1089833","0.0-420.0","<span style=""color:Black; font-size:50px;"">Agent A","null","","","","","","",""
"","null","video-keyboard-response","421","1092907","0.0-421.0","","null","","Agent A","veridical","/Users/kirstenziman/Desktop/Desktop/DIDEC_entire_corpus/analysis_3/STIM_SET_2/0_1592193.bmppp70_L1V1_freeview_veridical_mapOnly.mp4","","",""
"","null","html-keyboard-response","422","1095910","0.0-422.0","<span style=""color:Black; font-size:50px;"">Agent B","null","","","","","","",""
"","null","video-keyboard-response","423","1098991","0.0-423.0","","null","","Agent B","scrambled","/Users/kirstenziman/Desktop/Desktop/DIDEC_entire_corpus/analysis_3/STIM_SET_2/0_1592193.bmppp70_L1V1_freeview_scrambled_mapOnly.mp4","","",""
"","","call-function","424","1098992","0.0-424.0","","","","","","","","",""
"","12370.39999999851","survey-likert","425","1111364","0.0-425.0","","","","","","","{""judgement"":1}","[0]","0"
"","6309.20000000298","survey-likert","426","1117675","0.0-426.0","","","","","","","{""confidence"":1}","[0]",""
"","","call-function","427","1117676","0.0-427.0","","","","","","","","",""
"","null","html-keyboard-response","428","1120681","0.0-428.0","<span style=""color:Black; font-size:50px;"">Agent A","null","","","","","","",""
"","null","video-keyboard-response","429","1123740","0.0-429.0","","null","","Agent A","scrambled","/Users/kirstenziman/Desktop/Desktop/DIDEC_entire_corpus/analysis_3/STIM_SET_2/0_498388.bmppp62_L1V1_freeview_scrambled_mapOnly.mp4","","",""
"","null","html-keyboard-response","430","1126741","0.0-430.0","<span style=""color:Black; font-size:50px;"">Agent B","null","","","","","","",""
"","null","video-keyboard-response","431","1129805","0.0-431.0","","null","","Agent B","veridical","/Users/kirstenziman/Desktop/Desktop/DIDEC_entire_corpus/analysis_3/STIM_SET_2/0_498388.bmppp62_L1V1_freeview_veridical_mapOnly.mp4","","",""
"","","call-function","432","1129806","0.0-432.0","","","","","","","","",""
"","3148","survey-likert","433","1132955","0.0-433.0","","","","","","","{""judgement"":1}","[0]","1"
"","3054.10000000149","survey-likert","434","1136010","0.0-434.0","","","","","","","{""confidence"":3}","[0]",""
"","","call-function","435","1136010","0.0-435.0","","","","","","","","",""
"","null","html-keyboard-response","436","1139014","0.0-436.0","<span style=""color:Black; font-size:50px;"">Agent A","null","","","","","","",""
"","null","video-keyboard-response","437","1142103","0.0-437.0","","null","","Agent A","scrambled","/Users/kirstenziman/Desktop/Desktop/DIDEC_entire_corpus/analysis_3/STIM_SET_2/0_1591961.bmppp88_L1V1_freeview_scrambled_mapOnly.mp4","","",""
"","null","html-keyboard-response","438","1145109","0.0-438.0","<span style=""color:Black; font-size:50px;"">Agent B","null","","","","","","",""
"","null","video-keyboard-response","439","1148186","0.0-439.0","","null","","Agent B","veridical","/Users/kirstenziman/Desktop/Desktop/DIDEC_entire_corpus/analysis_3/STIM_SET_2/0_1591961.bmppp88_L1V1_freeview_veridical_mapOnly.mp4","","",""
"","","call-function","440","1148187","0.0-440.0","","","","","","","","",""
"","8683.19999999553","survey-likert","441","1156872","0.0-441.0","","","","","","","{""judgement"":0}","[0]","1"
"","1534.8000000044703","survey-likert","442","1158407","0.0-442.0","","","","","","","{""confidence"":2}","[0]",""
"","","call-function","443","1158408","0.0-443.0","","","","","","","","",""
"","null","html-keyboard-response","444","1161409","0.0-444.0","<span style=""color:Black; font-size:50px;"">Agent A","null","","","","","","",""
"","null","video-keyboard-response","445","1164490","0.0-445.0","","null","","Agent A","veridical","/Users/kirstenziman/Desktop/Desktop/DIDEC_entire_corpus/analysis_3/STIM_SET_2/0_1160227.bmppp67_L1V1_freeview_veridical_mapOnly.mp4","","",""
"","null","html-keyboard-response","446","1167497","0.0-446.0","<span style=""color:Black; font-size:50px;"">Agent B","null","","","","","","",""
"","null","video-keyboard-response","447","1170573","0.0-447.0","","null","","Agent B","scrambled","/Users/kirstenziman/Desktop/Desktop/DIDEC_entire_corpus/analysis_3/STIM_SET_2/0_1160227.bmppp67_L1V1_freeview_scrambled_mapOnly.mp4","","",""
"","","call-function","448","1170573","0.0-448.0","","","","","","","","",""
"","1886.7999999970198","survey-likert","449","1172461","0.0-449.0","","","","","","","{""judgement"":1}","[0]","0"
"","2029.6999999955297","survey-likert","450","1174491","0.0-450.0","","","","","","","{""confidence"":2}","[0]",""
"","","call-function","451","1174492","0.0-451.0","","","","","","","","",""
"","null","html-keyboard-response","452","1177495","0.0-452.0","<span style=""color:Black; font-size:50px;"">Agent A","null","","","","","","",""
"","null","video-keyboard-response","453","1180675","0.0-453.0","","null","","Agent A","scrambled","/Users/kirstenziman/Desktop/Desktop/DIDEC_entire_corpus/analysis_3/STIM_SET_2/0_1592890.bmppp95_L1V1_freeview_scrambled_mapOnly.mp4","","",""
"","null","html-keyboard-response","454","1183678","0.0-454.0","<span style=""color:Black; font-size:50px;"">Agent B","null","","","","","","",""
"","null","video-keyboard-response","455","1186726","0.0-455.0","","null","","Agent B","veridical","/Users/kirstenziman/Desktop/Desktop/DIDEC_entire_corpus/analysis_3/STIM_SET_2/0_1592890.bmppp95_L1V1_freeview_veridical_mapOnly.mp4","","",""
"","","call-function","456","1186728","0.0-456.0","","","","","","","","",""
"","4634.60000000149","survey-likert","457","1191363","0.0-457.0","","","","","","","{""judgement"":1}","[0]","1"
"","3762.7000000029802","survey-likert","458","1195127","0.0-458.0","","","","","","","{""confidence"":1}","[0]",""
"","","call-function","459","1195127","0.0-459.0","","","","","","","","",""
"","null","html-keyboard-response","460","1198132","0.0-460.0","<span style=""color:Black; font-size:50px;"">Agent A","null","","","","","","",""
"","null","video-keyboard-response","461","1201392","0.0-461.0","","null","","Agent A","veridical","/Users/kirstenziman/Desktop/Desktop/DIDEC_entire_corpus/analysis_3/STIM_SET_2/0_1592038.bmppp94_L1V1_freeview_veridical_mapOnly.mp4","","",""
"","null","html-keyboard-response","462","1204396","0.0-462.0","<span style=""color:Black; font-size:50px;"">Agent B","null","","","","","","",""
"","null","video-keyboard-response","463","1207532","0.0-463.0","","null","","Agent B","scrambled","/Users/kirstenziman/Desktop/Desktop/DIDEC_entire_corpus/analysis_3/STIM_SET_2/0_1592038.bmppp94_L1V1_freeview_scrambled_mapOnly.mp4","","",""
"","","call-function","464","1207532","0.0-464.0","","","","","","","","",""
"","4550.29999999702","survey-likert","465","1212084","0.0-465.0","","","","","","","{""judgement"":0}","[0]","0"
"","15432.89999999851","survey-likert","466","1227518","0.0-466.0","","","","","","","{""confidence"":1}","[0]",""
"","","call-function","467","1227518","0.0-467.0","","","","","","","","",""
"","null","html-keyboard-response","468","1230519","0.0-468.0","<span style=""color:Black; font-size:50px;"">Agent A","null","","","","","","",""
"","null","video-keyboard-response","469","1233599","0.0-469.0","","null","","Agent A","veridical","/Users/kirstenziman/Desktop/Desktop/DIDEC_entire_corpus/analysis_3/STIM_SET_2/0_498153.bmppp86_L1V1_freeview_veridical_mapOnly.mp4","","",""
"","null","html-keyboard-response","470","1236604","0.0-470.0","<span style=""color:Black; font-size:50px;"">Agent B","null","","","","","","",""
"","null","video-keyboard-response","471","1239646","0.0-471.0","","null","","Agent B","scrambled","/Users/kirstenziman/Desktop/Desktop/DIDEC_entire_corpus/analysis_3/STIM_SET_2/0_498153.bmppp86_L1V1_freeview_scrambled_mapOnly.mp4","","",""
"","","call-function","472","1239647","0.0-472.0","","","","","","","","",""
"","3724.5","survey-likert","473","1243372","0.0-473.0","","","","","","","{""judgement"":1}","[0]","0"
"","3245.10000000149","survey-likert","474","1246618","0.0-474.0","","","","","","","{""confidence"":2}","[0]",""
"","","call-function","475","1246619","0.0-475.0","","","","","","","","",""
"","null","html-keyboard-response","476","1249623","0.0-476.0","<span style=""color:Black; font-size:50px;"">Agent A","null","","","","","","",""
"","null","video-keyboard-response","477","1252681","0.0-477.0","","null","","Agent A","scrambled","/Users/kirstenziman/Desktop/Desktop/DIDEC_entire_corpus/analysis_3/STIM_SET_2/0_498253.bmppp54_L1V1_freeview_scrambled_mapOnly.mp4","","",""
"","null","html-keyboard-response","478","1255684","0.0-478.0","<span style=""color:Black; font-size:50px;"">Agent B","null","","","","","","",""
"","null","video-keyboard-response","479","1258757","0.0-479.0","","null","","Agent B","veridical","/Users/kirstenziman/Desktop/Desktop/DIDEC_entire_corpus/analysis_3/STIM_SET_2/0_498253.bmppp54_L1V1_freeview_veridical_mapOnly.mp4","","",""
"","","call-function","480","1258758","0.0-480.0","","","","","","","","",""
"","12597.10000000149","survey-likert","481","1271356","0.0-481.0","","","","","","","{""judgement"":0}","[0]","1"
"","5048.5","survey-likert","482","1276406","0.0-482.0","","","","","","","{""confidence"":1}","[0]",""
"","","call-function","483","1276408","0.0-483.0","","","","","","","","",""
"","null","html-keyboard-response","484","1279409","0.0-484.0","<span style=""color:Black; font-size:50px;"">Agent A","null","","","","","","",""
"","null","video-keyboard-response","485","1282473","0.0-485.0","","null","","Agent A","veridical","/Users/kirstenziman/Desktop/Desktop/DIDEC_entire_corpus/analysis_3/STIM_SET_2/0_1592254.bmppp95_L1V1_freeview_veridical_mapOnly.mp4","","",""
"","null","html-keyboard-response","486","1285476","0.0-486.0","<span style=""color:Black; font-size:50px;"">Agent B","null","","","","","","",""
"","null","video-keyboard-response","487","1288539","0.0-487.0","","null","","Agent B","scrambled","/Users/kirstenziman/Desktop/Desktop/DIDEC_entire_corpus/analysis_3/STIM_SET_2/0_1592254.bmppp95_L1V1_freeview_scrambled_mapOnly.mp4","","",""
"","","call-function","488","1288539","0.0-488.0","","","","","","","","",""
"","2863.39999999851","survey-likert","489","1291403","0.0-489.0","","","","","","","{""judgement"":1}","[0]","0"
"","3327.60000000149","survey-likert","490","1294733","0.0-490.0","","","","","","","{""confidence"":2}","[0]",""
"","","call-function","491","1294734","0.0-491.0","","","","","","","","",""
"","null","html-keyboard-response","492","1297736","0.0-492.0","<span style=""color:Black; font-size:50px;"">Agent A","null","","","","","","",""
"","null","video-keyboard-response","493","1300801","0.0-493.0","","null","","Agent A","veridical","/Users/kirstenziman/Desktop/Desktop/DIDEC_entire_corpus/analysis_3/STIM_SET_2/0_1159813.bmppp54_L1V1_freeview_veridical_mapOnly.mp4","","",""
"","null","html-keyboard-response","494","1303802","0.0-494.0","<span style=""color:Black; font-size:50px;"">Agent B","null","","","","","","",""
"","null","video-keyboard-response","495","1306868","0.0-495.0","","null","","Agent B","scrambled","/Users/kirstenziman/Desktop/Desktop/DIDEC_entire_corpus/analysis_3/STIM_SET_2/0_1159813.bmppp54_L1V1_freeview_scrambled_mapOnly.mp4","","",""
"","","call-function","496","1306869","0.0-496.0","","","","","","","","",""
"","3959.7999999970198","survey-likert","497","1310830","0.0-497.0","","","","","","","{""judgement"":0}","[0]","0"
"","7885.29999999702","survey-likert","498","1318717","0.0-498.0","","","","","","","{""confidence"":1}","[0]",""
"[{""page_index"":0,""viewing_time"":1585.6000000014901},{""page_index"":1,""viewing_time"":419.79999999701977},{""page_index"":2,""viewing_time"":136.80000000447035}]","2142.5","instructions","499","1320860","0.0-499.0","","","","","","","","",""
"[{""page_index"":0,""viewing_time"":123.80000000447035},{""page_index"":1,""viewing_time"":442.3999999985099},{""page_index"":2,""viewing_time"":415.19999999552965}]","981.6000000014901","instructions","500","1321842","0.0-500.0","","","","","","","","",""
"","","call-function","501","1321843","0.0-501.0","","","","","","","","",""
"","null","html-keyboard-response","502","1324846","0.0-502.0","<span style=""color:Black; font-size:50px;"">Agent A","null","","","","","","",""
"","null","video-keyboard-response","503","1327902","0.0-503.0","","null","","Agent A","veridical","/Users/kirstenziman/Desktop/Desktop/DIDEC_entire_corpus/analysis_3/STIM_SET_2/0_713028.bmppp70_L1V1_freeview_veridical_mapOnly.mp4","","",""
"","null","html-keyboard-response","504","1330906","0.0-504.0","<span style=""color:Black; font-size:50px;"">Agent B","null","","","","","","",""
"","null","video-keyboard-response","505","1333963","0.0-505.0","","null","","Agent B","scrambled","/Users/kirstenziman/Desktop/Desktop/DIDEC_entire_corpus/analysis_3/STIM_SET_2/0_713028.bmppp70_L1V1_freeview_scrambled_mapOnly.mp4","","",""
"","","call-function","506","1333965","0.0-506.0","","","","","","","","",""
"","4593.70000000298","survey-likert","507","1338560","0.0-507.0","","","","","","","{""judgement"":1}","[0]","0"
"","1969.6000000014901","survey-likert","508","1340531","0.0-508.0","","","","","","","{""confidence"":2}","[0]",""
"","","call-function","509","1340532","0.0-509.0","","","","","","","","",""
"","null","html-keyboard-response","510","1343534","0.0-510.0","<span style=""color:Black; font-size:50px;"">Agent A","null","","","","","","",""
"","null","video-keyboard-response","511","1346604","0.0-511.0","","null","","Agent A","scrambled","/Users/kirstenziman/Desktop/Desktop/DIDEC_entire_corpus/analysis_3/STIM_SET_2/0_107909.bmppp94_L1V1_freeview_scrambled_mapOnly.mp4","","",""
"","null","html-keyboard-response","512","1349610","0.0-512.0","<span style=""color:Black; font-size:50px;"">Agent B","null","","","","","","",""
"","null","video-keyboard-response","513","1352670","0.0-513.0","","null","","Agent B","veridical","/Users/kirstenziman/Desktop/Desktop/DIDEC_entire_corpus/analysis_3/STIM_SET_2/0_107909.bmppp94_L1V1_freeview_veridical_mapOnly.mp4","","",""
"","","call-function","514","1352671","0.0-514.0","","","","","","","","",""
"","4934.69999999553","survey-likert","515","1357607","0.0-515.0","","","","","","","{""judgement"":1}","[0]","1"
"","3311.2000000029802","survey-likert","516","1360920","0.0-516.0","","","","","","","{""confidence"":1}","[0]",""
"","","call-function","517","1360921","0.0-517.0","","","","","","","","",""
"","null","html-keyboard-response","518","1363926","0.0-518.0","<span style=""color:Black; font-size:50px;"">Agent A","null","","","","","","",""
"","null","video-keyboard-response","519","1366984","0.0-519.0","","null","","Agent A","scrambled","/Users/kirstenziman/Desktop/Desktop/DIDEC_entire_corpus/analysis_3/STIM_SET_2/0_1160049.bmppp90_L1V1_freeview_scrambled_mapOnly.mp4","","",""
"","null","html-keyboard-response","520","1369986","0.0-520.0","<span style=""color:Black; font-size:50px;"">Agent B","null","","","","","","",""
"","null","video-keyboard-response","521","1373050","0.0-521.0","","null","","Agent B","veridical","/Users/kirstenziman/Desktop/Desktop/DIDEC_entire_corpus/analysis_3/STIM_SET_2/0_1160049.bmppp90_L1V1_freeview_veridical_mapOnly.mp4","","",""
"","","call-function","522","1373051","0.0-522.0","","","","","","","","",""
"","8240.29999999702","survey-likert","523","1381293","0.0-523.0","","","","","","","{""judgement"":0}","[0]","1"
"","4083.89999999851","survey-likert","524","1385378","0.0-524.0","","","","","","","{""confidence"":0}","[0]",""
"","","call-function","525","1385379","0.0-525.0","","","","","","","","",""
"","null","html-keyboard-response","526","1388382","0.0-526.0","<span style=""color:Black; font-size:50px;"">Agent A","null","","","","","","",""
"","null","video-keyboard-response","527","1391436","0.0-527.0","","null","","Agent A","scrambled","/Users/kirstenziman/Desktop/Desktop/DIDEC_entire_corpus/analysis_3/STIM_SET_2/0_713512.bmppp54_L1V1_freeview_scrambled_mapOnly.mp4","","",""
"","null","html-keyboard-response","528","1394439","0.0-528.0","<span style=""color:Black; font-size:50px;"">Agent B","null","","","","","","",""
"","null","video-keyboard-response","529","1397501","0.0-529.0","","null","","Agent B","veridical","/Users/kirstenziman/Desktop/Desktop/DIDEC_entire_corpus/analysis_3/STIM_SET_2/0_713512.bmppp54_L1V1_freeview_veridical_mapOnly.mp4","","",""
"","","call-function","530","1397501","0.0-530.0","","","","","","","","",""
"","2328","survey-likert","531","1399830","0.0-531.0","","","","","","","{""judgement"":1}","[0]","1"
"","1806.7000000029802","survey-likert","532","1401638","0.0-532.0","","","","","","","{""confidence"":3}","[0]",""
"","","call-function","533","1401639","0.0-533.0","","","","","","","","",""
"","null","html-keyboard-response","534","1404643","0.0-534.0","<span style=""color:Black; font-size:50px;"">Agent A","null","","","","","","",""
"","null","video-keyboard-response","535","1407703","0.0-535.0","","null","","Agent A","veridical","/Users/kirstenziman/Desktop/Desktop/DIDEC_entire_corpus/analysis_3/STIM_SET_2/0_150458.bmppp82_L1V1_freeview_veridical_mapOnly.mp4","","",""
"","null","html-keyboard-response","536","1410709","0.0-536.0","<span style=""color:Black; font-size:50px;"">Agent B","null","","","","","","",""
"","null","video-keyboard-response","537","1413767","0.0-537.0","","null","","Agent B","scrambled","/Users/kirstenziman/Desktop/Desktop/DIDEC_entire_corpus/analysis_3/STIM_SET_2/0_150458.bmppp82_L1V1_freeview_scrambled_mapOnly.mp4","","",""
"","","call-function","538","1413769","0.0-538.0","","","","","","","","",""
"","7378.30000000447","survey-likert","539","1421148","0.0-539.0","","","","","","","{""judgement"":0}","[0]","0"
"","4389.29999999702","survey-likert","540","1425539","0.0-540.0","","","","","","","{""confidence"":0}","[0]",""
"","","call-function","541","1425540","0.0-541.0","","","","","","","","",""
"","null","html-keyboard-response","542","1428542","0.0-542.0","<span style=""color:Black; font-size:50px;"">Agent A","null","","","","","","",""
"","null","video-keyboard-response","543","1431596","0.0-543.0","","null","","Agent A","veridical","/Users/kirstenziman/Desktop/Desktop/DIDEC_entire_corpus/analysis_3/STIM_SET_2/0_713142.bmppp79_L1V1_freeview_veridical_mapOnly.mp4","","",""
"","null","html-keyboard-response","544","1434603","0.0-544.0","<span style=""color:Black; font-size:50px;"">Agent B","null","","","","","","",""
"","null","video-keyboard-response","545","1437680","0.0-545.0","","null","","Agent B","scrambled","/Users/kirstenziman/Desktop/Desktop/DIDEC_entire_corpus/analysis_3/STIM_SET_2/0_713142.bmppp79_L1V1_freeview_scrambled_mapOnly.mp4","","",""
"","","call-function","546","1437680","0.0-546.0","","","","","","","","",""
"","2929.7999999970198","survey-likert","547","1440612","0.0-547.0","","","","","","","{""judgement"":0}","[0]","0"
"","3448.89999999851","survey-likert","548","1444063","0.0-548.0","","","","","","","{""confidence"":2}","[0]",""
"","","call-function","549","1444064","0.0-549.0","","","","","","","","",""
"","null","html-keyboard-response","550","1447066","0.0-550.0","<span style=""color:Black; font-size:50px;"">Agent A","null","","","","","","",""
"","null","video-keyboard-response","551","1450155","0.0-551.0","","null","","Agent A","veridical","/Users/kirstenziman/Desktop/Desktop/DIDEC_entire_corpus/analysis_3/STIM_SET_2/0_1592499.bmppp152_L1V1_freeview_veridical_mapOnly.mp4","","",""
"","null","html-keyboard-response","552","1453161","0.0-552.0","<span style=""color:Black; font-size:50px;"">Agent B","null","","","","","","",""
"","null","video-keyboard-response","553","1456228","0.0-553.0","","null","","Agent B","scrambled","/Users/kirstenziman/Desktop/Desktop/DIDEC_entire_corpus/analysis_3/STIM_SET_2/0_1592499.bmppp152_L1V1_freeview_scrambled_mapOnly.mp4","","",""
"","","call-function","554","1456229","0.0-554.0","","","","","","","","",""
"","2101.7000000029802","survey-likert","555","1458333","0.0-555.0","","","","","","","{""judgement"":1}","[0]","0"
"","1791.9000000059605","survey-likert","556","1460126","0.0-556.0","","","","","","","{""confidence"":2}","[0]",""
"","","call-function","557","1460127","0.0-557.0","","","","","","","","",""
"","null","html-keyboard-response","558","1463133","0.0-558.0","<span style=""color:Black; font-size:50px;"">Agent A","null","","","","","","",""
"","null","video-keyboard-response","559","1466195","0.0-559.0","","null","","Agent A","veridical","/Users/kirstenziman/Desktop/Desktop/DIDEC_entire_corpus/analysis_3/STIM_SET_2/0_1592033.bmppp94_L1V1_freeview_veridical_mapOnly.mp4","","",""
"","null","html-keyboard-response","560","1469201","0.0-560.0","<span style=""color:Black; font-size:50px;"">Agent B","null","","","","","","",""
"","null","video-keyboard-response","561","1472278","0.0-561.0","","null","","Agent B","scrambled","/Users/kirstenziman/Desktop/Desktop/DIDEC_entire_corpus/analysis_3/STIM_SET_2/0_1592033.bmppp94_L1V1_freeview_scrambled_mapOnly.mp4","","",""
"","","call-function","562","1472279","0.0-562.0","","","","","","","","",""
"","6439.39999999851","survey-likert","563","1478720","0.0-563.0","","","","","","","{""judgement"":0}","[0]","0"
"","5267.39999999851","survey-likert","564","1483988","0.0-564.0","","","","","","","{""confidence"":1}","[0]",""
"","","call-function","565","1483990","0.0-565.0","","","","","","","","",""
"","null","html-keyboard-response","566","1486994","0.0-566.0","<span style=""color:Black; font-size:50px;"">Agent A","null","","","","","","",""
"","null","video-keyboard-response","567","1490057","0.0-567.0","","null","","Agent A","scrambled","/Users/kirstenziman/Desktop/Desktop/DIDEC_entire_corpus/analysis_3/STIM_SET_2/0_61574.bmppp90_L1V1_freeview_scrambled_mapOnly.mp4","","",""
"","null","html-keyboard-response","568","1493059","0.0-568.0","<span style=""color:Black; font-size:50px;"">Agent B","null","","","","","","",""
"","null","video-keyboard-response","569","1496123","0.0-569.0","","null","","Agent B","veridical","/Users/kirstenziman/Desktop/Desktop/DIDEC_entire_corpus/analysis_3/STIM_SET_2/0_61574.bmppp90_L1V1_freeview_veridical_mapOnly.mp4","","",""
"","","call-function","570","1496124","0.0-570.0","","","","","","","","",""
"","2456.10000000149","survey-likert","571","1498581","0.0-571.0","","","","","","","{""judgement"":0}","[0]","1"
"","2381.89999999851","survey-likert","572","1500964","0.0-572.0","","","","","","","{""confidence"":2}","[0]",""
"","","call-function","573","1500965","0.0-573.0","","","","","","","","",""
"","null","html-keyboard-response","574","1503968","0.0-574.0","<span style=""color:Black; font-size:50px;"">Agent A","null","","","","","","",""
"","null","video-keyboard-response","575","1507038","0.0-575.0","","null","","Agent A","veridical","/Users/kirstenziman/Desktop/Desktop/DIDEC_entire_corpus/analysis_3/STIM_SET_2/0_1592394.bmppp86_L1V1_freeview_veridical_mapOnly.mp4","","",""
"","null","html-keyboard-response","576","1510041","0.0-576.0","<span style=""color:Black; font-size:50px;"">Agent B","null","","","","","","",""
"","null","video-keyboard-response","577","1513103","0.0-577.0","","null","","Agent B","scrambled","/Users/kirstenziman/Desktop/Desktop/DIDEC_entire_corpus/analysis_3/STIM_SET_2/0_1592394.bmppp86_L1V1_freeview_scrambled_mapOnly.mp4","","",""
"","","call-function","578","1513103","0.0-578.0","","","","","","","","",""
"","2104.9000000059605","survey-likert","579","1515208","0.0-579.0","","","","","","","{""judgement"":0}","[0]","0"
"","3838.39999999851","survey-likert","580","1519048","0.0-580.0","","","","","","","{""confidence"":3}","[0]",""
"[{""page_index"":0,""viewing_time"":1327.3999999985099}]","1327.5","instructions","581","1520376","0.0-581.0","","","","","","","","",""
"","19617.39999999851","survey-text","582","1540014","0.0-582.0","","","","","","","{""Q0"":""Difficult to track the highlighted regions sometimes due to how fast it moves""}","",""
"","124208.40000000596","survey-text","583","1664226","0.0-583.0","","","","","","","{""Q0"":""Less distracting images, since background was black. My strategy was to see if some of the movements would be able to be implemented by my own eyes in the same amount of time (ie between trials).""}","",""
"","89153","survey-text","584","1753382","0.0-584.0","","","","","","","{""Q0"":""It was difficult to remember how the two paths differed (of each of the 2 subjects subjects) sometimes since there was no background to help give me perspective. ""}","",""
"[{""page_index"":0,""viewing_time"":1094.9000000059605}]","1095.1000000014901","instructions","585","1754478","0.0-585.0","","","","","","","","",""
