"view_history","rt","trial_type","trial_index","time_elapsed","internal_node_id","stimulus","key_press","value","agent","condition","image","responses","question_order","correct_answer"
"[{""page_index"":0,""viewing_time"":58313}]","58313.40000000596","instructions","0","58302","0.0-0.0","","","","","","","","",""
"[{""page_index"":0,""viewing_time"":7245.4000000059605},{""page_index"":1,""viewing_time"":1960},{""page_index"":2,""viewing_time"":6756.800000011921}]","15962.40000000596","instructions","1","74266","0.0-1.0","","","","","","","","",""
"[{""page_index"":0,""viewing_time"":4175.0999999940395}]","4175.299999982119","instructions","2","78441","0.0-2.0","","","","","","","","",""
"","null","video-keyboard-response","3","81625","0.0-3.0","","null","","","","","","",""
"[{""page_index"":0,""viewing_time"":3702.5},{""page_index"":1,""viewing_time"":2842.5999999940395},{""page_index"":2,""viewing_time"":2658.5999999940395}]","9203.699999988079","instructions","4","90829","0.0-4.0","","","","","","","","",""
"[{""page_index"":0,""viewing_time"":3023.5999999940395}]","3024","instructions","5","93854","0.0-5.0","","","","","","","","",""
"","null","video-keyboard-response","6","96988","0.0-6.0","","null","","","","","","",""
"[{""page_index"":0,""viewing_time"":1261.5999999940395},{""page_index"":1,""viewing_time"":5790},{""page_index"":2,""viewing_time"":10598.90000000596}]","17650.69999998808","instructions","7","114640","0.0-7.0","","","","","","","","",""
"[{""page_index"":0,""viewing_time"":6052.5}]","6052.700000017881","instructions","8","120693","0.0-8.0","","","","","","","","",""
"","","call-function","9","120694","0.0-9.0","","","","","","","","",""
"","null","html-keyboard-response","10","123697","0.0-10.0","<span style=""color:Black; font-size:50px;"">Agent A","null","","","","","","",""
"","null","video-keyboard-response","11","126820","0.0-11.0","","null","","Agent A","scrambled","/Users/kirstenziman/Desktop/Desktop/DIDEC_entire_corpus/analysis_3/STIM_SET_2/0_1592254.bmppp95_L1V1_freeview_scrambled_mapOnly.mp4","","",""
"","null","html-keyboard-response","12","129824","0.0-12.0","<span style=""color:Black; font-size:50px;"">Agent B","null","","","","","","",""
"","null","video-keyboard-response","13","133001","0.0-13.0","","null","","Agent B","veridical","/Users/kirstenziman/Desktop/Desktop/DIDEC_entire_corpus/analysis_3/STIM_SET_2/0_1592254.bmppp95_L1V1_freeview_veridical_mapOnly.mp4","","",""
"","","call-function","14","133002","0.0-14.0","","","","","","","","",""
"","5732.100000023842","survey-likert","15","138736","0.0-15.0","","","","","","","{""judgement"":1}","[0]","1"
"","3593.9000000059605","survey-likert","16","142335","0.0-16.0","","","","","","","{""confidence"":2}","[0]",""
"","","call-function","17","142335","0.0-17.0","","","","","","","","",""
"","null","html-keyboard-response","18","145337","0.0-18.0","<span style=""color:Black; font-size:50px;"">Agent A","null","","","","","","",""
"","null","video-keyboard-response","19","148452","0.0-19.0","","null","","Agent A","veridical","/Users/kirstenziman/Desktop/Desktop/DIDEC_entire_corpus/analysis_3/STIM_SET_2/0_713028.bmppp70_L1V1_freeview_veridical_mapOnly.mp4","","",""
"","null","html-keyboard-response","20","151456","0.0-20.0","<span style=""color:Black; font-size:50px;"">Agent B","null","","","","","","",""
"","null","video-keyboard-response","21","154587","0.0-21.0","","null","","Agent B","scrambled","/Users/kirstenziman/Desktop/Desktop/DIDEC_entire_corpus/analysis_3/STIM_SET_2/0_713028.bmppp70_L1V1_freeview_scrambled_mapOnly.mp4","","",""
"","","call-function","22","154587","0.0-22.0","","","","","","","","",""
"","1784.5","survey-likert","23","156373","0.0-23.0","","","","","","","{""judgement"":0}","[0]","0"
"","2569","survey-likert","24","158943","0.0-24.0","","","","","","","{""confidence"":3}","[0]",""
"","","call-function","25","158944","0.0-25.0","","","","","","","","",""
"","null","html-keyboard-response","26","161946","0.0-26.0","<span style=""color:Black; font-size:50px;"">Agent A","null","","","","","","",""
"","null","video-keyboard-response","27","165161","0.0-27.0","","null","","Agent A","veridical","/Users/kirstenziman/Desktop/Desktop/DIDEC_entire_corpus/analysis_3/STIM_SET_2/0_1592044.bmppp152_L1V1_freeview_veridical_mapOnly.mp4","","",""
"","null","html-keyboard-response","28","168166","0.0-28.0","<span style=""color:Black; font-size:50px;"">Agent B","null","","","","","","",""
"","null","video-keyboard-response","29","171283","0.0-29.0","","null","","Agent B","scrambled","/Users/kirstenziman/Desktop/Desktop/DIDEC_entire_corpus/analysis_3/STIM_SET_2/0_1592044.bmppp152_L1V1_freeview_scrambled_mapOnly.mp4","","",""
"","","call-function","30","171283","0.0-30.0","","","","","","","","",""
"","2141.9000000059605","survey-likert","31","173426","0.0-31.0","","","","","","","{""judgement"":0}","[0]","0"
"","1760.5","survey-likert","32","175188","0.0-32.0","","","","","","","{""confidence"":3}","[0]",""
"","","call-function","33","175190","0.0-33.0","","","","","","","","",""
"","null","html-keyboard-response","34","178194","0.0-34.0","<span style=""color:Black; font-size:50px;"">Agent A","null","","","","","","",""
"","null","video-keyboard-response","35","181346","0.0-35.0","","null","","Agent A","scrambled","/Users/kirstenziman/Desktop/Desktop/DIDEC_entire_corpus/analysis_3/STIM_SET_2/0_713749.bmppp88_L1V1_freeview_scrambled_mapOnly.mp4","","",""
"","null","html-keyboard-response","36","184352","0.0-36.0","<span style=""color:Black; font-size:50px;"">Agent B","null","","","","","","",""
"","null","video-keyboard-response","37","187493","0.0-37.0","","null","","Agent B","veridical","/Users/kirstenziman/Desktop/Desktop/DIDEC_entire_corpus/analysis_3/STIM_SET_2/0_713749.bmppp88_L1V1_freeview_veridical_mapOnly.mp4","","",""
"","","call-function","38","187494","0.0-38.0","","","","","","","","",""
"","2754.0999999940395","survey-likert","39","190249","0.0-39.0","","","","","","","{""judgement"":0}","[0]","1"
"","1786","survey-likert","40","192036","0.0-40.0","","","","","","","{""confidence"":3}","[0]",""
"","","call-function","41","192037","0.0-41.0","","","","","","","","",""
"","null","html-keyboard-response","42","195046","0.0-42.0","<span style=""color:Black; font-size:50px;"">Agent A","null","","","","","","",""
"","null","video-keyboard-response","43","198170","0.0-43.0","","null","","Agent A","scrambled","/Users/kirstenziman/Desktop/Desktop/DIDEC_entire_corpus/analysis_3/STIM_SET_2/0_107909.bmppp94_L1V1_freeview_scrambled_mapOnly.mp4","","",""
"","null","html-keyboard-response","44","201172","0.0-44.0","<span style=""color:Black; font-size:50px;"">Agent B","null","","","","","","",""
"","null","video-keyboard-response","45","204365","0.0-45.0","","null","","Agent B","veridical","/Users/kirstenziman/Desktop/Desktop/DIDEC_entire_corpus/analysis_3/STIM_SET_2/0_107909.bmppp94_L1V1_freeview_veridical_mapOnly.mp4","","",""
"","","call-function","46","204366","0.0-46.0","","","","","","","","",""
"","2046.800000011921","survey-likert","47","206414","0.0-47.0","","","","","","","{""judgement"":1}","[0]","1"
"","1659.2999999821186","survey-likert","48","208075","0.0-48.0","","","","","","","{""confidence"":3}","[0]",""
"","","call-function","49","208076","0.0-49.0","","","","","","","","",""
"","null","html-keyboard-response","50","211079","0.0-50.0","<span style=""color:Black; font-size:50px;"">Agent A","null","","","","","","",""
"","null","video-keyboard-response","51","214236","0.0-51.0","","null","","Agent A","veridical","/Users/kirstenziman/Desktop/Desktop/DIDEC_entire_corpus/analysis_3/STIM_SET_2/0_1160155.bmppp67_L1V1_freeview_veridical_mapOnly.mp4","","",""
"","null","html-keyboard-response","52","217238","0.0-52.0","<span style=""color:Black; font-size:50px;"">Agent B","null","","","","","","",""
"","null","video-keyboard-response","53","220386","0.0-53.0","","null","","Agent B","scrambled","/Users/kirstenziman/Desktop/Desktop/DIDEC_entire_corpus/analysis_3/STIM_SET_2/0_1160155.bmppp67_L1V1_freeview_scrambled_mapOnly.mp4","","",""
"","","call-function","54","220387","0.0-54.0","","","","","","","","",""
"","1659.800000011921","survey-likert","55","222048","0.0-55.0","","","","","","","{""judgement"":0}","[0]","0"
"","1665.5999999940395","survey-likert","56","223715","0.0-56.0","","","","","","","{""confidence"":3}","[0]",""
"","","call-function","57","223715","0.0-57.0","","","","","","","","",""
"","null","html-keyboard-response","58","226719","0.0-58.0","<span style=""color:Black; font-size:50px;"">Agent A","null","","","","","","",""
"","null","video-keyboard-response","59","229915","0.0-59.0","","null","","Agent A","scrambled","/Users/kirstenziman/Desktop/Desktop/DIDEC_entire_corpus/analysis_3/STIM_SET_2/0_1159329.bmppp99_L1V1_freeview_scrambled_mapOnly.mp4","","",""
"","null","html-keyboard-response","60","232919","0.0-60.0","<span style=""color:Black; font-size:50px;"">Agent B","null","","","","","","",""
"","null","video-keyboard-response","61","236081","0.0-61.0","","null","","Agent B","veridical","/Users/kirstenziman/Desktop/Desktop/DIDEC_entire_corpus/analysis_3/STIM_SET_2/0_1159329.bmppp99_L1V1_freeview_veridical_mapOnly.mp4","","",""
"","","call-function","62","236082","0.0-62.0","","","","","","","","",""
"","1967.9000000059605","survey-likert","63","238050","0.0-63.0","","","","","","","{""judgement"":1}","[0]","1"
"","1668.0999999940395","survey-likert","64","239720","0.0-64.0","","","","","","","{""confidence"":3}","[0]",""
"","","call-function","65","239720","0.0-65.0","","","","","","","","",""
"","null","html-keyboard-response","66","242723","0.0-66.0","<span style=""color:Black; font-size:50px;"">Agent A","null","","","","","","",""
"","null","video-keyboard-response","67","245881","0.0-67.0","","null","","Agent A","veridical","/Users/kirstenziman/Desktop/Desktop/DIDEC_entire_corpus/analysis_3/STIM_SET_2/0_1159847.bmppp95_L1V1_freeview_veridical_mapOnly.mp4","","",""
"","null","html-keyboard-response","68","248885","0.0-68.0","<span style=""color:Black; font-size:50px;"">Agent B","null","","","","","","",""
"","null","video-keyboard-response","69","252032","0.0-69.0","","null","","Agent B","scrambled","/Users/kirstenziman/Desktop/Desktop/DIDEC_entire_corpus/analysis_3/STIM_SET_2/0_1159847.bmppp95_L1V1_freeview_scrambled_mapOnly.mp4","","",""
"","","call-function","70","252032","0.0-70.0","","","","","","","","",""
"","1683.7999999821186","survey-likert","71","253717","0.0-71.0","","","","","","","{""judgement"":0}","[0]","0"
"","1975.2000000178814","survey-likert","72","255693","0.0-72.0","","","","","","","{""confidence"":3}","[0]",""
"","","call-function","73","255694","0.0-73.0","","","","","","","","",""
"","null","html-keyboard-response","74","258699","0.0-74.0","<span style=""color:Black; font-size:50px;"">Agent A","null","","","","","","",""
"","null","video-keyboard-response","75","261820","0.0-75.0","","null","","Agent A","veridical","/Users/kirstenziman/Desktop/Desktop/DIDEC_entire_corpus/analysis_3/STIM_SET_2/0_1592083.bmppp99_L1V1_freeview_veridical_mapOnly.mp4","","",""
"","null","html-keyboard-response","76","264822","0.0-76.0","<span style=""color:Black; font-size:50px;"">Agent B","null","","","","","","",""
"","null","video-keyboard-response","77","267926","0.0-77.0","","null","","Agent B","scrambled","/Users/kirstenziman/Desktop/Desktop/DIDEC_entire_corpus/analysis_3/STIM_SET_2/0_1592083.bmppp99_L1V1_freeview_scrambled_mapOnly.mp4","","",""
"","","call-function","78","267926","0.0-78.0","","","","","","","","",""
"","2507.5999999940395","survey-likert","79","270435","0.0-79.0","","","","","","","{""judgement"":1}","[0]","0"
"","1476.5","survey-likert","80","271914","0.0-80.0","","","","","","","{""confidence"":2}","[0]",""
"","","call-function","81","271916","0.0-81.0","","","","","","","","",""
"","null","html-keyboard-response","82","274919","0.0-82.0","<span style=""color:Black; font-size:50px;"">Agent A","null","","","","","","",""
"","null","video-keyboard-response","83","278075","0.0-83.0","","null","","Agent A","scrambled","/Users/kirstenziman/Desktop/Desktop/DIDEC_entire_corpus/analysis_3/STIM_SET_2/0_713135.bmppp99_L1V1_freeview_scrambled_mapOnly.mp4","","",""
"","null","html-keyboard-response","84","281080","0.0-84.0","<span style=""color:Black; font-size:50px;"">Agent B","null","","","","","","",""
"","null","video-keyboard-response","85","284290","0.0-85.0","","null","","Agent B","veridical","/Users/kirstenziman/Desktop/Desktop/DIDEC_entire_corpus/analysis_3/STIM_SET_2/0_713135.bmppp99_L1V1_freeview_veridical_mapOnly.mp4","","",""
"","","call-function","86","284291","0.0-86.0","","","","","","","","",""
"","2501.800000011921","survey-likert","87","286793","0.0-87.0","","","","","","","{""judgement"":1}","[0]","1"
"","1397.300000011921","survey-likert","88","288191","0.0-88.0","","","","","","","{""confidence"":1}","[0]",""
"[{""page_index"":0,""viewing_time"":2494},{""page_index"":1,""viewing_time"":9621.09999999404},{""page_index"":2,""viewing_time"":1125.4000000059605}]","13240.799999982119","instructions","89","301433","0.0-89.0","","","","","","","","",""
"[{""page_index"":0,""viewing_time"":961.9000000059605},{""page_index"":1,""viewing_time"":2364},{""page_index"":2,""viewing_time"":753.2000000178814}]","4079.4000000059605","instructions","90","305514","0.0-90.0","","","","","","","","",""
"","","call-function","91","305514","0.0-91.0","","","","","","","","",""
"","null","html-keyboard-response","92","308519","0.0-92.0","<span style=""color:Black; font-size:50px;"">Agent A","null","","","","","","",""
"","null","video-keyboard-response","93","311781","0.0-93.0","","null","","Agent A","scrambled","/Users/kirstenziman/Desktop/Desktop/DIDEC_entire_corpus/analysis_3/STIM_SET_2/0_1592193.bmppp70_L1V1_freeview_scrambled_mapOnly.mp4","","",""
"","null","html-keyboard-response","94","314785","0.0-94.0","<span style=""color:Black; font-size:50px;"">Agent B","null","","","","","","",""
"","null","video-keyboard-response","95","317967","0.0-95.0","","null","","Agent B","veridical","/Users/kirstenziman/Desktop/Desktop/DIDEC_entire_corpus/analysis_3/STIM_SET_2/0_1592193.bmppp70_L1V1_freeview_veridical_mapOnly.mp4","","",""
"","","call-function","96","317968","0.0-96.0","","","","","","","","",""
"","2038.300000011921","survey-likert","97","320008","0.0-97.0","","","","","","","{""judgement"":0}","[0]","1"
"","1425.5999999940395","survey-likert","98","321436","0.0-98.0","","","","","","","{""confidence"":2}","[0]",""
"","","call-function","99","321436","0.0-99.0","","","","","","","","",""
"","null","html-keyboard-response","100","324439","0.0-100.0","<span style=""color:Black; font-size:50px;"">Agent A","null","","","","","","",""
"","null","video-keyboard-response","101","327614","0.0-101.0","","null","","Agent A","scrambled","/Users/kirstenziman/Desktop/Desktop/DIDEC_entire_corpus/analysis_3/STIM_SET_2/0_713328.bmppp62_L1V1_freeview_scrambled_mapOnly.mp4","","",""
"","null","html-keyboard-response","102","330619","0.0-102.0","<span style=""color:Black; font-size:50px;"">Agent B","null","","","","","","",""
"","null","video-keyboard-response","103","333742","0.0-103.0","","null","","Agent B","veridical","/Users/kirstenziman/Desktop/Desktop/DIDEC_entire_corpus/analysis_3/STIM_SET_2/0_713328.bmppp62_L1V1_freeview_veridical_mapOnly.mp4","","",""
"","","call-function","104","333742","0.0-104.0","","","","","","","","",""
"","2971.0999999940395","survey-likert","105","336714","0.0-105.0","","","","","","","{""judgement"":0}","[0]","1"
"","1728.9000000059605","survey-likert","106","338444","0.0-106.0","","","","","","","{""confidence"":3}","[0]",""
"","","call-function","107","338446","0.0-107.0","","","","","","","","",""
"","null","html-keyboard-response","108","341447","0.0-108.0","<span style=""color:Black; font-size:50px;"">Agent A","null","","","","","","",""
"","null","video-keyboard-response","109","344567","0.0-109.0","","null","","Agent A","scrambled","/Users/kirstenziman/Desktop/Desktop/DIDEC_entire_corpus/analysis_3/STIM_SET_2/0_1592352.bmppp82_L1V1_freeview_scrambled_mapOnly.mp4","","",""
"","null","html-keyboard-response","110","347571","0.0-110.0","<span style=""color:Black; font-size:50px;"">Agent B","null","","","","","","",""
"","null","video-keyboard-response","111","350751","0.0-111.0","","null","","Agent B","veridical","/Users/kirstenziman/Desktop/Desktop/DIDEC_entire_corpus/analysis_3/STIM_SET_2/0_1592352.bmppp82_L1V1_freeview_veridical_mapOnly.mp4","","",""
"","","call-function","112","350751","0.0-112.0","","","","","","","","",""
"","2325.2999999821186","survey-likert","113","353078","0.0-113.0","","","","","","","{""judgement"":1}","[0]","1"
"","2121.0999999940395","survey-likert","114","355201","0.0-114.0","","","","","","","{""confidence"":1}","[0]",""
"","","call-function","115","355201","0.0-115.0","","","","","","","","",""
"","null","html-keyboard-response","116","358206","0.0-116.0","<span style=""color:Black; font-size:50px;"">Agent A","null","","","","","","",""
"","null","video-keyboard-response","117","361355","0.0-117.0","","null","","Agent A","scrambled","/Users/kirstenziman/Desktop/Desktop/DIDEC_entire_corpus/analysis_3/STIM_SET_2/0_1591961.bmppp88_L1V1_freeview_scrambled_mapOnly.mp4","","",""
"","null","html-keyboard-response","118","364360","0.0-118.0","<span style=""color:Black; font-size:50px;"">Agent B","null","","","","","","",""
"","null","video-keyboard-response","119","367547","0.0-119.0","","null","","Agent B","veridical","/Users/kirstenziman/Desktop/Desktop/DIDEC_entire_corpus/analysis_3/STIM_SET_2/0_1591961.bmppp88_L1V1_freeview_veridical_mapOnly.mp4","","",""
"","","call-function","120","367547","0.0-120.0","","","","","","","","",""
"","1743.699999988079","survey-likert","121","369299","0.0-121.0","","","","","","","{""judgement"":0}","[0]","1"
"","1261.5","survey-likert","122","370562","0.0-122.0","","","","","","","{""confidence"":2}","[0]",""
"","","call-function","123","370562","0.0-123.0","","","","","","","","",""
"","null","html-keyboard-response","124","373568","0.0-124.0","<span style=""color:Black; font-size:50px;"">Agent A","null","","","","","","",""
"","null","video-keyboard-response","125","376697","0.0-125.0","","null","","Agent A","veridical","/Users/kirstenziman/Desktop/Desktop/DIDEC_entire_corpus/analysis_3/STIM_SET_2/0_498286.bmppp94_L1V1_freeview_veridical_mapOnly.mp4","","",""
"","null","html-keyboard-response","126","379702","0.0-126.0","<span style=""color:Black; font-size:50px;"">Agent B","null","","","","","","",""
"","null","video-keyboard-response","127","382864","0.0-127.0","","null","","Agent B","scrambled","/Users/kirstenziman/Desktop/Desktop/DIDEC_entire_corpus/analysis_3/STIM_SET_2/0_498286.bmppp94_L1V1_freeview_scrambled_mapOnly.mp4","","",""
"","","call-function","128","382864","0.0-128.0","","","","","","","","",""
"","1861.199999988079","survey-likert","129","384726","0.0-129.0","","","","","","","{""judgement"":0}","[0]","0"
"","1429.5999999940395","survey-likert","130","386157","0.0-130.0","","","","","","","{""confidence"":3}","[0]",""
"","","call-function","131","386158","0.0-131.0","","","","","","","","",""
"","null","html-keyboard-response","132","389164","0.0-132.0","<span style=""color:Black; font-size:50px;"">Agent A","null","","","","","","",""
"","null","video-keyboard-response","133","392292","0.0-133.0","","null","","Agent A","veridical","/Users/kirstenziman/Desktop/Desktop/DIDEC_entire_corpus/analysis_3/STIM_SET_2/0_1159392.bmppp95_L1V1_freeview_veridical_mapOnly.mp4","","",""
"","null","html-keyboard-response","134","395295","0.0-134.0","<span style=""color:Black; font-size:50px;"">Agent B","null","","","","","","",""
"","null","video-keyboard-response","135","398409","0.0-135.0","","null","","Agent B","scrambled","/Users/kirstenziman/Desktop/Desktop/DIDEC_entire_corpus/analysis_3/STIM_SET_2/0_1159392.bmppp95_L1V1_freeview_scrambled_mapOnly.mp4","","",""
"","","call-function","136","398409","0.0-136.0","","","","","","","","",""
"","3136.4000000059605","survey-likert","137","401547","0.0-137.0","","","","","","","{""judgement"":0}","[0]","0"
"","1766.1000000238419","survey-likert","138","403314","0.0-138.0","","","","","","","{""confidence"":2}","[0]",""
"","","call-function","139","403315","0.0-139.0","","","","","","","","",""
"","null","html-keyboard-response","140","406319","0.0-140.0","<span style=""color:Black; font-size:50px;"">Agent A","null","","","","","","",""
"","null","video-keyboard-response","141","409463","0.0-141.0","","null","","Agent A","scrambled","/Users/kirstenziman/Desktop/Desktop/DIDEC_entire_corpus/analysis_3/STIM_SET_2/0_713681.bmppp88_L1V1_freeview_scrambled_mapOnly.mp4","","",""
"","null","html-keyboard-response","142","412468","0.0-142.0","<span style=""color:Black; font-size:50px;"">Agent B","null","","","","","","",""
"","null","video-keyboard-response","143","415596","0.0-143.0","","null","","Agent B","veridical","/Users/kirstenziman/Desktop/Desktop/DIDEC_entire_corpus/analysis_3/STIM_SET_2/0_713681.bmppp88_L1V1_freeview_veridical_mapOnly.mp4","","",""
"","","call-function","144","415596","0.0-144.0","","","","","","","","",""
"","2550.199999988079","survey-likert","145","418147","0.0-145.0","","","","","","","{""judgement"":1}","[0]","1"
"","2577","survey-likert","146","420727","0.0-146.0","","","","","","","{""confidence"":2}","[0]",""
"","","call-function","147","420728","0.0-147.0","","","","","","","","",""
"","null","html-keyboard-response","148","423733","0.0-148.0","<span style=""color:Black; font-size:50px;"">Agent A","null","","","","","","",""
"","null","video-keyboard-response","149","426891","0.0-149.0","","null","","Agent A","scrambled","/Users/kirstenziman/Desktop/Desktop/DIDEC_entire_corpus/analysis_3/STIM_SET_2/0_1591859.bmppp61_L1V1_freeview_scrambled_mapOnly.mp4","","",""
"","null","html-keyboard-response","150","429892","0.0-150.0","<span style=""color:Black; font-size:50px;"">Agent B","null","","","","","","",""
"","null","video-keyboard-response","151","433042","0.0-151.0","","null","","Agent B","veridical","/Users/kirstenziman/Desktop/Desktop/DIDEC_entire_corpus/analysis_3/STIM_SET_2/0_1591859.bmppp61_L1V1_freeview_veridical_mapOnly.mp4","","",""
"","","call-function","152","433042","0.0-152.0","","","","","","","","",""
"","3223.5","survey-likert","153","436266","0.0-153.0","","","","","","","{""judgement"":0}","[0]","1"
"","1980.199999988079","survey-likert","154","438248","0.0-154.0","","","","","","","{""confidence"":3}","[0]",""
"","","call-function","155","438248","0.0-155.0","","","","","","","","",""
"","null","html-keyboard-response","156","441252","0.0-156.0","<span style=""color:Black; font-size:50px;"">Agent A","null","","","","","","",""
"","null","video-keyboard-response","157","444384","0.0-157.0","","null","","Agent A","veridical","/Users/kirstenziman/Desktop/Desktop/DIDEC_entire_corpus/analysis_3/STIM_SET_2/0_1592033.bmppp94_L1V1_freeview_veridical_mapOnly.mp4","","",""
"","null","html-keyboard-response","158","447388","0.0-158.0","<span style=""color:Black; font-size:50px;"">Agent B","null","","","","","","",""
"","null","video-keyboard-response","159","450574","0.0-159.0","","null","","Agent B","scrambled","/Users/kirstenziman/Desktop/Desktop/DIDEC_entire_corpus/analysis_3/STIM_SET_2/0_1592033.bmppp94_L1V1_freeview_scrambled_mapOnly.mp4","","",""
"","","call-function","160","450576","0.0-160.0","","","","","","","","",""
"","2806.7000000178814","survey-likert","161","453384","0.0-161.0","","","","","","","{""judgement"":0}","[0]","0"
"","1931.4000000059605","survey-likert","162","455317","0.0-162.0","","","","","","","{""confidence"":3}","[0]",""
"","","call-function","163","455319","0.0-163.0","","","","","","","","",""
"","null","html-keyboard-response","164","458325","0.0-164.0","<span style=""color:Black; font-size:50px;"">Agent A","null","","","","","","",""
"","null","video-keyboard-response","165","461482","0.0-165.0","","null","","Agent A","veridical","/Users/kirstenziman/Desktop/Desktop/DIDEC_entire_corpus/analysis_3/STIM_SET_2/0_61574.bmppp90_L1V1_freeview_veridical_mapOnly.mp4","","",""
"","null","html-keyboard-response","166","464485","0.0-166.0","<span style=""color:Black; font-size:50px;"">Agent B","null","","","","","","",""
"","null","video-keyboard-response","167","467629","0.0-167.0","","null","","Agent B","scrambled","/Users/kirstenziman/Desktop/Desktop/DIDEC_entire_corpus/analysis_3/STIM_SET_2/0_61574.bmppp90_L1V1_freeview_scrambled_mapOnly.mp4","","",""
"","","call-function","168","467630","0.0-168.0","","","","","","","","",""
"","2277.800000011921","survey-likert","169","469908","0.0-169.0","","","","","","","{""judgement"":1}","[0]","0"
"","1199.0999999940395","survey-likert","170","471108","0.0-170.0","","","","","","","{""confidence"":3}","[0]",""
"[{""page_index"":0,""viewing_time"":11014.800000011921},{""page_index"":1,""viewing_time"":1042.0999999940395},{""page_index"":2,""viewing_time"":709.0999999940395}]","12766.100000023842","instructions","171","483875","0.0-171.0","","","","","","","","",""
"[{""page_index"":0,""viewing_time"":662.0999999940395},{""page_index"":1,""viewing_time"":969.6000000238419},{""page_index"":2,""viewing_time"":591.5999999940395}]","2223.5","instructions","172","486099","0.0-172.0","","","","","","","","",""
"","","call-function","173","486100","0.0-173.0","","","","","","","","",""
"","null","html-keyboard-response","174","489102","0.0-174.0","<span style=""color:Black; font-size:50px;"">Agent A","null","","","","","","",""
"","null","video-keyboard-response","175","492199","0.0-175.0","","null","","Agent A","veridical","/Users/kirstenziman/Desktop/Desktop/DIDEC_entire_corpus/analysis_3/STIM_SET_2/0_713730.bmppp82_L1V1_freeview_veridical_mapOnly.mp4","","",""
"","null","html-keyboard-response","176","495204","0.0-176.0","<span style=""color:Black; font-size:50px;"">Agent B","null","","","","","","",""
"","null","video-keyboard-response","177","498350","0.0-177.0","","null","","Agent B","scrambled","/Users/kirstenziman/Desktop/Desktop/DIDEC_entire_corpus/analysis_3/STIM_SET_2/0_713730.bmppp82_L1V1_freeview_scrambled_mapOnly.mp4","","",""
"","","call-function","178","498350","0.0-178.0","","","","","","","","",""
"","2112.7999999821186","survey-likert","179","500464","0.0-179.0","","","","","","","{""judgement"":0}","[0]","0"
"","1618.2999999821186","survey-likert","180","502084","0.0-180.0","","","","","","","{""confidence"":3}","[0]",""
"","","call-function","181","502085","0.0-181.0","","","","","","","","",""
"","null","html-keyboard-response","182","505090","0.0-182.0","<span style=""color:Black; font-size:50px;"">Agent A","null","","","","","","",""
"","null","video-keyboard-response","183","508269","0.0-183.0","","null","","Agent A","veridical","/Users/kirstenziman/Desktop/Desktop/DIDEC_entire_corpus/analysis_3/STIM_SET_2/0_498253.bmppp54_L1V1_freeview_veridical_mapOnly.mp4","","",""
"","null","html-keyboard-response","184","511272","0.0-184.0","<span style=""color:Black; font-size:50px;"">Agent B","null","","","","","","",""
"","null","video-keyboard-response","185","514441","0.0-185.0","","null","","Agent B","scrambled","/Users/kirstenziman/Desktop/Desktop/DIDEC_entire_corpus/analysis_3/STIM_SET_2/0_498253.bmppp54_L1V1_freeview_scrambled_mapOnly.mp4","","",""
"","","call-function","186","514441","0.0-186.0","","","","","","","","",""
"","2143.2999999821186","survey-likert","187","516585","0.0-187.0","","","","","","","{""judgement"":0}","[0]","0"
"","1834.5999999940395","survey-likert","188","518420","0.0-188.0","","","","","","","{""confidence"":2}","[0]",""
"","","call-function","189","518421","0.0-189.0","","","","","","","","",""
"","null","html-keyboard-response","190","521425","0.0-190.0","<span style=""color:Black; font-size:50px;"">Agent A","null","","","","","","",""
"","null","video-keyboard-response","191","524603","0.0-191.0","","null","","Agent A","scrambled","/Users/kirstenziman/Desktop/Desktop/DIDEC_entire_corpus/analysis_3/STIM_SET_2/0_498281.bmppp90_L1V1_freeview_scrambled_mapOnly.mp4","","",""
"","null","html-keyboard-response","192","527607","0.0-192.0","<span style=""color:Black; font-size:50px;"">Agent B","null","","","","","","",""
"","null","video-keyboard-response","193","530728","0.0-193.0","","null","","Agent B","veridical","/Users/kirstenziman/Desktop/Desktop/DIDEC_entire_corpus/analysis_3/STIM_SET_2/0_498281.bmppp90_L1V1_freeview_veridical_mapOnly.mp4","","",""
"","","call-function","194","530728","0.0-194.0","","","","","","","","",""
"","3000","survey-likert","195","533729","0.0-195.0","","","","","","","{""judgement"":0}","[0]","1"
"","1841.800000011921","survey-likert","196","535573","0.0-196.0","","","","","","","{""confidence"":3}","[0]",""
"","","call-function","197","535574","0.0-197.0","","","","","","","","",""
"","null","html-keyboard-response","198","538578","0.0-198.0","<span style=""color:Black; font-size:50px;"">Agent A","null","","","","","","",""
"","null","video-keyboard-response","199","541765","0.0-199.0","","null","","Agent A","veridical","/Users/kirstenziman/Desktop/Desktop/DIDEC_entire_corpus/analysis_3/STIM_SET_2/0_1592367.bmppp79_L1V1_freeview_veridical_mapOnly.mp4","","",""
"","null","html-keyboard-response","200","544768","0.0-200.0","<span style=""color:Black; font-size:50px;"">Agent B","null","","","","","","",""
"","null","video-keyboard-response","201","547947","0.0-201.0","","null","","Agent B","scrambled","/Users/kirstenziman/Desktop/Desktop/DIDEC_entire_corpus/analysis_3/STIM_SET_2/0_1592367.bmppp79_L1V1_freeview_scrambled_mapOnly.mp4","","",""
"","","call-function","202","547948","0.0-202.0","","","","","","","","",""
"","1900.800000011921","survey-likert","203","549849","0.0-203.0","","","","","","","{""judgement"":0}","[0]","0"
"","1372.7000000178814","survey-likert","204","551223","0.0-204.0","","","","","","","{""confidence"":3}","[0]",""
"","","call-function","205","551224","0.0-205.0","","","","","","","","",""
"","null","html-keyboard-response","206","554228","0.0-206.0","<span style=""color:Black; font-size:50px;"">Agent A","null","","","","","","",""
"","null","video-keyboard-response","207","557384","0.0-207.0","","null","","Agent A","scrambled","/Users/kirstenziman/Desktop/Desktop/DIDEC_entire_corpus/analysis_3/STIM_SET_2/0_498221.bmppp88_L1V1_freeview_scrambled_mapOnly.mp4","","",""
"","null","html-keyboard-response","208","560388","0.0-208.0","<span style=""color:Black; font-size:50px;"">Agent B","null","","","","","","",""
"","null","video-keyboard-response","209","563549","0.0-209.0","","null","","Agent B","veridical","/Users/kirstenziman/Desktop/Desktop/DIDEC_entire_corpus/analysis_3/STIM_SET_2/0_498221.bmppp88_L1V1_freeview_veridical_mapOnly.mp4","","",""
"","","call-function","210","563549","0.0-210.0","","","","","","","","",""
"","3403.4000000059605","survey-likert","211","566954","0.0-211.0","","","","","","","{""judgement"":0}","[0]","1"
"","1519.2000000178814","survey-likert","212","568475","0.0-212.0","","","","","","","{""confidence"":2}","[0]",""
"","","call-function","213","568476","0.0-213.0","","","","","","","","",""
"","null","html-keyboard-response","214","571481","0.0-214.0","<span style=""color:Black; font-size:50px;"">Agent A","null","","","","","","",""
"","null","video-keyboard-response","215","574624","0.0-215.0","","null","","Agent A","veridical","/Users/kirstenziman/Desktop/Desktop/DIDEC_entire_corpus/analysis_3/STIM_SET_2/0_713017.bmppp53_L1V1_freeview_veridical_mapOnly.mp4","","",""
"","null","html-keyboard-response","216","577628","0.0-216.0","<span style=""color:Black; font-size:50px;"">Agent B","null","","","","","","",""
"","null","video-keyboard-response","217","580790","0.0-217.0","","null","","Agent B","scrambled","/Users/kirstenziman/Desktop/Desktop/DIDEC_entire_corpus/analysis_3/STIM_SET_2/0_713017.bmppp53_L1V1_freeview_scrambled_mapOnly.mp4","","",""
"","","call-function","218","580790","0.0-218.0","","","","","","","","",""
"","3174.899999976158","survey-likert","219","583966","0.0-219.0","","","","","","","{""judgement"":0}","[0]","0"
"","1642.4000000059605","survey-likert","220","585610","0.0-220.0","","","","","","","{""confidence"":2}","[0]",""
"","","call-function","221","585610","0.0-221.0","","","","","","","","",""
"","null","html-keyboard-response","222","588612","0.0-222.0","<span style=""color:Black; font-size:50px;"">Agent A","null","","","","","","",""
"","null","video-keyboard-response","223","591752","0.0-223.0","","null","","Agent A","scrambled","/Users/kirstenziman/Desktop/Desktop/DIDEC_entire_corpus/analysis_3/STIM_SET_2/0_285715.bmppp53_L1V1_freeview_scrambled_mapOnly.mp4","","",""
"","null","html-keyboard-response","224","594756","0.0-224.0","<span style=""color:Black; font-size:50px;"">Agent B","null","","","","","","",""
"","null","video-keyboard-response","225","597886","0.0-225.0","","null","","Agent B","veridical","/Users/kirstenziman/Desktop/Desktop/DIDEC_entire_corpus/analysis_3/STIM_SET_2/0_285715.bmppp53_L1V1_freeview_veridical_mapOnly.mp4","","",""
"","","call-function","226","597887","0.0-226.0","","","","","","","","",""
"","3026.9000000059605","survey-likert","227","600916","0.0-227.0","","","","","","","{""judgement"":0}","[0]","1"
"","1585.5999999940395","survey-likert","228","602502","0.0-228.0","","","","","","","{""confidence"":3}","[0]",""
"","","call-function","229","602504","0.0-229.0","","","","","","","","",""
"","null","html-keyboard-response","230","605509","0.0-230.0","<span style=""color:Black; font-size:50px;"">Agent A","null","","","","","","",""
"","null","video-keyboard-response","231","608612","0.0-231.0","","null","","Agent A","veridical","/Users/kirstenziman/Desktop/Desktop/DIDEC_entire_corpus/analysis_3/STIM_SET_2/0_1159889.bmppp61_L1V1_freeview_veridical_mapOnly.mp4","","",""
"","null","html-keyboard-response","232","611618","0.0-232.0","<span style=""color:Black; font-size:50px;"">Agent B","null","","","","","","",""
"","null","video-keyboard-response","233","614761","0.0-233.0","","null","","Agent B","scrambled","/Users/kirstenziman/Desktop/Desktop/DIDEC_entire_corpus/analysis_3/STIM_SET_2/0_1159889.bmppp61_L1V1_freeview_scrambled_mapOnly.mp4","","",""
"","","call-function","234","614762","0.0-234.0","","","","","","","","",""
"","1653.300000011921","survey-likert","235","616416","0.0-235.0","","","","","","","{""judgement"":0}","[0]","0"
"","1479.0999999940395","survey-likert","236","617897","0.0-236.0","","","","","","","{""confidence"":3}","[0]",""
"","","call-function","237","617898","0.0-237.0","","","","","","","","",""
"","null","html-keyboard-response","238","620902","0.0-238.0","<span style=""color:Black; font-size:50px;"">Agent A","null","","","","","","",""
"","null","video-keyboard-response","239","624060","0.0-239.0","","null","","Agent A","scrambled","/Users/kirstenziman/Desktop/Desktop/DIDEC_entire_corpus/analysis_3/STIM_SET_2/0_1159434.bmppp70_L1V1_freeview_scrambled_mapOnly.mp4","","",""
"","null","html-keyboard-response","240","627064","0.0-240.0","<span style=""color:Black; font-size:50px;"">Agent B","null","","","","","","",""
"","null","video-keyboard-response","241","630255","0.0-241.0","","null","","Agent B","veridical","/Users/kirstenziman/Desktop/Desktop/DIDEC_entire_corpus/analysis_3/STIM_SET_2/0_1159434.bmppp70_L1V1_freeview_veridical_mapOnly.mp4","","",""
"","","call-function","242","630255","0.0-242.0","","","","","","","","",""
"","1829","survey-likert","243","632085","0.0-243.0","","","","","","","{""judgement"":1}","[0]","1"
"","1574.7000000178814","survey-likert","244","633662","0.0-244.0","","","","","","","{""confidence"":3}","[0]",""
"","","call-function","245","633664","0.0-245.0","","","","","","","","",""
"","null","html-keyboard-response","246","636668","0.0-246.0","<span style=""color:Black; font-size:50px;"">Agent A","null","","","","","","",""
"","null","video-keyboard-response","247","639805","0.0-247.0","","null","","Agent A","veridical","/Users/kirstenziman/Desktop/Desktop/DIDEC_entire_corpus/analysis_3/STIM_SET_2/0_713146.bmppp61_L1V1_freeview_veridical_mapOnly.mp4","","",""
"","null","html-keyboard-response","248","642807","0.0-248.0","<span style=""color:Black; font-size:50px;"">Agent B","null","","","","","","",""
"","null","video-keyboard-response","249","645970","0.0-249.0","","null","","Agent B","scrambled","/Users/kirstenziman/Desktop/Desktop/DIDEC_entire_corpus/analysis_3/STIM_SET_2/0_713146.bmppp61_L1V1_freeview_scrambled_mapOnly.mp4","","",""
"","","call-function","250","645971","0.0-250.0","","","","","","","","",""
"","1514.199999988079","survey-likert","251","647487","0.0-251.0","","","","","","","{""judgement"":0}","[0]","0"
"","1507.8999999761581","survey-likert","252","649000","0.0-252.0","","","","","","","{""confidence"":3}","[0]",""
"[{""page_index"":0,""viewing_time"":63581.5},{""page_index"":1,""viewing_time"":899.5},{""page_index"":2,""viewing_time"":596.4000000059605}]","65077.59999999404","instructions","253","714078","0.0-253.0","","","","","","","","",""
"[{""page_index"":0,""viewing_time"":611},{""page_index"":1,""viewing_time"":1355},{""page_index"":2,""viewing_time"":454}]","2420.199999988079","instructions","254","716499","0.0-254.0","","","","","","","","",""
"","","call-function","255","716499","0.0-255.0","","","","","","","","",""
"","null","html-keyboard-response","256","719504","0.0-256.0","<span style=""color:Black; font-size:50px;"">Agent A","null","","","","","","",""
"","null","video-keyboard-response","257","722636","0.0-257.0","","null","","Agent A","scrambled","/Users/kirstenziman/Desktop/Desktop/DIDEC_entire_corpus/analysis_3/STIM_SET_2/0_1159882.bmppp96_L1V1_freeview_scrambled_mapOnly.mp4","","",""
"","null","html-keyboard-response","258","725638","0.0-258.0","<span style=""color:Black; font-size:50px;"">Agent B","null","","","","","","",""
"","null","video-keyboard-response","259","728835","0.0-259.0","","null","","Agent B","veridical","/Users/kirstenziman/Desktop/Desktop/DIDEC_entire_corpus/analysis_3/STIM_SET_2/0_1159882.bmppp96_L1V1_freeview_veridical_mapOnly.mp4","","",""
"","","call-function","260","728836","0.0-260.0","","","","","","","","",""
"","7548.4000000059605","survey-likert","261","736386","0.0-261.0","","","","","","","{""judgement"":0}","[0]","1"
"","1336.199999988079","survey-likert","262","737723","0.0-262.0","","","","","","","{""confidence"":2}","[0]",""
"","","call-function","263","737724","0.0-263.0","","","","","","","","",""
"","null","html-keyboard-response","264","740725","0.0-264.0","<span style=""color:Black; font-size:50px;"">Agent A","null","","","","","","",""
"","null","video-keyboard-response","265","743865","0.0-265.0","","null","","Agent A","veridical","/Users/kirstenziman/Desktop/Desktop/DIDEC_entire_corpus/analysis_3/STIM_SET_2/0_713142.bmppp79_L1V1_freeview_veridical_mapOnly.mp4","","",""
"","null","html-keyboard-response","266","746868","0.0-266.0","<span style=""color:Black; font-size:50px;"">Agent B","null","","","","","","",""
"","null","video-keyboard-response","267","750013","0.0-267.0","","null","","Agent B","scrambled","/Users/kirstenziman/Desktop/Desktop/DIDEC_entire_corpus/analysis_3/STIM_SET_2/0_713142.bmppp79_L1V1_freeview_scrambled_mapOnly.mp4","","",""
"","","call-function","268","750013","0.0-268.0","","","","","","","","",""
"","3088.5999999940395","survey-likert","269","753102","0.0-269.0","","","","","","","{""judgement"":0}","[0]","0"
"","1511.800000011921","survey-likert","270","754615","0.0-270.0","","","","","","","{""confidence"":3}","[0]",""
"","","call-function","271","754616","0.0-271.0","","","","","","","","",""
"","null","html-keyboard-response","272","757618","0.0-272.0","<span style=""color:Black; font-size:50px;"">Agent A","null","","","","","","",""
"","null","video-keyboard-response","273","760730","0.0-273.0","","null","","Agent A","veridical","/Users/kirstenziman/Desktop/Desktop/DIDEC_entire_corpus/analysis_3/STIM_SET_2/0_1159813.bmppp54_L1V1_freeview_veridical_mapOnly.mp4","","",""
"","null","html-keyboard-response","274","763736","0.0-274.0","<span style=""color:Black; font-size:50px;"">Agent B","null","","","","","","",""
"","null","video-keyboard-response","275","766848","0.0-275.0","","null","","Agent B","scrambled","/Users/kirstenziman/Desktop/Desktop/DIDEC_entire_corpus/analysis_3/STIM_SET_2/0_1159813.bmppp54_L1V1_freeview_scrambled_mapOnly.mp4","","",""
"","","call-function","276","766848","0.0-276.0","","","","","","","","",""
"","2056.7999999821186","survey-likert","277","768906","0.0-277.0","","","","","","","{""judgement"":1}","[0]","0"
"","1383.5","survey-likert","278","770291","0.0-278.0","","","","","","","{""confidence"":3}","[0]",""
"","","call-function","279","770292","0.0-279.0","","","","","","","","",""
"","null","html-keyboard-response","280","773296","0.0-280.0","<span style=""color:Black; font-size:50px;"">Agent A","null","","","","","","",""
"","null","video-keyboard-response","281","776450","0.0-281.0","","null","","Agent A","scrambled","/Users/kirstenziman/Desktop/Desktop/DIDEC_entire_corpus/analysis_3/STIM_SET_2/0_150458.bmppp82_L1V1_freeview_scrambled_mapOnly.mp4","","",""
"","null","html-keyboard-response","282","779456","0.0-282.0","<span style=""color:Black; font-size:50px;"">Agent B","null","","","","","","",""
"","null","video-keyboard-response","283","782575","0.0-283.0","","null","","Agent B","veridical","/Users/kirstenziman/Desktop/Desktop/DIDEC_entire_corpus/analysis_3/STIM_SET_2/0_150458.bmppp82_L1V1_freeview_veridical_mapOnly.mp4","","",""
"","","call-function","284","782576","0.0-284.0","","","","","","","","",""
"","1923.800000011921","survey-likert","285","784506","0.0-285.0","","","","","","","{""judgement"":0}","[0]","1"
"","2241.699999988079","survey-likert","286","786749","0.0-286.0","","","","","","","{""confidence"":3}","[0]",""
"","","call-function","287","786750","0.0-287.0","","","","","","","","",""
"","null","html-keyboard-response","288","789754","0.0-288.0","<span style=""color:Black; font-size:50px;"">Agent A","null","","","","","","",""
"","null","video-keyboard-response","289","792934","0.0-289.0","","null","","Agent A","scrambled","/Users/kirstenziman/Desktop/Desktop/DIDEC_entire_corpus/analysis_3/STIM_SET_2/0_285859.bmppp53_L1V1_freeview_scrambled_mapOnly.mp4","","",""
"","null","html-keyboard-response","290","795937","0.0-290.0","<span style=""color:Black; font-size:50px;"">Agent B","null","","","","","","",""
"","null","video-keyboard-response","291","799100","0.0-291.0","","null","","Agent B","veridical","/Users/kirstenziman/Desktop/Desktop/DIDEC_entire_corpus/analysis_3/STIM_SET_2/0_285859.bmppp53_L1V1_freeview_veridical_mapOnly.mp4","","",""
"","","call-function","292","799101","0.0-292.0","","","","","","","","",""
"","2260.199999988079","survey-likert","293","801362","0.0-293.0","","","","","","","{""judgement"":0}","[0]","1"
"","2841.800000011921","survey-likert","294","804205","0.0-294.0","","","","","","","{""confidence"":3}","[0]",""
"","","call-function","295","804206","0.0-295.0","","","","","","","","",""
"","null","html-keyboard-response","296","807209","0.0-296.0","<span style=""color:Black; font-size:50px;"">Agent A","null","","","","","","",""
"","null","video-keyboard-response","297","810354","0.0-297.0","","null","","Agent A","veridical","/Users/kirstenziman/Desktop/Desktop/DIDEC_entire_corpus/analysis_3/STIM_SET_2/0_1592747.bmppp62_L1V1_freeview_veridical_mapOnly.mp4","","",""
"","null","html-keyboard-response","298","813354","0.0-298.0","<span style=""color:Black; font-size:50px;"">Agent B","null","","","","","","",""
"","null","video-keyboard-response","299","816485","0.0-299.0","","null","","Agent B","scrambled","/Users/kirstenziman/Desktop/Desktop/DIDEC_entire_corpus/analysis_3/STIM_SET_2/0_1592747.bmppp62_L1V1_freeview_scrambled_mapOnly.mp4","","",""
"","","call-function","300","816486","0.0-300.0","","","","","","","","",""
"","2727.5","survey-likert","301","819214","0.0-301.0","","","","","","","{""judgement"":1}","[0]","0"
"","1441.7999999821186","survey-likert","302","820658","0.0-302.0","","","","","","","{""confidence"":2}","[0]",""
"","","call-function","303","820658","0.0-303.0","","","","","","","","",""
"","null","html-keyboard-response","304","823660","0.0-304.0","<span style=""color:Black; font-size:50px;"">Agent A","null","","","","","","",""
"","null","video-keyboard-response","305","826821","0.0-305.0","","null","","Agent A","veridical","/Users/kirstenziman/Desktop/Desktop/DIDEC_entire_corpus/analysis_3/STIM_SET_2/0_498153.bmppp86_L1V1_freeview_veridical_mapOnly.mp4","","",""
"","null","html-keyboard-response","306","829825","0.0-306.0","<span style=""color:Black; font-size:50px;"">Agent B","null","","","","","","",""
"","null","video-keyboard-response","307","832987","0.0-307.0","","null","","Agent B","scrambled","/Users/kirstenziman/Desktop/Desktop/DIDEC_entire_corpus/analysis_3/STIM_SET_2/0_498153.bmppp86_L1V1_freeview_scrambled_mapOnly.mp4","","",""
"","","call-function","308","832988","0.0-308.0","","","","","","","","",""
"","2463.9000000059605","survey-likert","309","835452","0.0-309.0","","","","","","","{""judgement"":0}","[0]","0"
"","1868.5999999940395","survey-likert","310","837322","0.0-310.0","","","","","","","{""confidence"":3}","[0]",""
"","","call-function","311","837323","0.0-311.0","","","","","","","","",""
"","null","html-keyboard-response","312","840327","0.0-312.0","<span style=""color:Black; font-size:50px;"">Agent A","null","","","","","","",""
"","null","video-keyboard-response","313","843463","0.0-313.0","","null","","Agent A","veridical","/Users/kirstenziman/Desktop/Desktop/DIDEC_entire_corpus/analysis_3/STIM_SET_2/0_498372.bmppp82_L1V1_freeview_veridical_mapOnly.mp4","","",""
"","null","html-keyboard-response","314","846469","0.0-314.0","<span style=""color:Black; font-size:50px;"">Agent B","null","","","","","","",""
"","null","video-keyboard-response","315","849650","0.0-315.0","","null","","Agent B","scrambled","/Users/kirstenziman/Desktop/Desktop/DIDEC_entire_corpus/analysis_3/STIM_SET_2/0_498372.bmppp82_L1V1_freeview_scrambled_mapOnly.mp4","","",""
"","","call-function","316","849651","0.0-316.0","","","","","","","","",""
"","2167.0999999940395","survey-likert","317","851819","0.0-317.0","","","","","","","{""judgement"":0}","[0]","0"
"","2838.0999999940395","survey-likert","318","854662","0.0-318.0","","","","","","","{""confidence"":3}","[0]",""
"","","call-function","319","854663","0.0-319.0","","","","","","","","",""
"","null","html-keyboard-response","320","857668","0.0-320.0","<span style=""color:Black; font-size:50px;"">Agent A","null","","","","","","",""
"","null","video-keyboard-response","321","860778","0.0-321.0","","null","","Agent A","veridical","/Users/kirstenziman/Desktop/Desktop/DIDEC_entire_corpus/analysis_3/STIM_SET_2/0_1159724.bmppp79_L1V1_freeview_veridical_mapOnly.mp4","","",""
"","null","html-keyboard-response","322","863786","0.0-322.0","<span style=""color:Black; font-size:50px;"">Agent B","null","","","","","","",""
"","null","video-keyboard-response","323","867023","0.0-323.0","","null","","Agent B","scrambled","/Users/kirstenziman/Desktop/Desktop/DIDEC_entire_corpus/analysis_3/STIM_SET_2/0_1159724.bmppp79_L1V1_freeview_scrambled_mapOnly.mp4","","",""
"","","call-function","324","867023","0.0-324.0","","","","","","","","",""
"","1633.2000000178814","survey-likert","325","868658","0.0-325.0","","","","","","","{""judgement"":0}","[0]","0"
"","1526","survey-likert","326","870186","0.0-326.0","","","","","","","{""confidence"":3}","[0]",""
"","","call-function","327","870188","0.0-327.0","","","","","","","","",""
"","null","html-keyboard-response","328","873194","0.0-328.0","<span style=""color:Black; font-size:50px;"">Agent A","null","","","","","","",""
"","null","video-keyboard-response","329","876324","0.0-329.0","","null","","Agent A","veridical","/Users/kirstenziman/Desktop/Desktop/DIDEC_entire_corpus/analysis_3/STIM_SET_2/0_1593006.bmppp94_L1V1_freeview_veridical_mapOnly.mp4","","",""
"","null","html-keyboard-response","330","879327","0.0-330.0","<span style=""color:Black; font-size:50px;"">Agent B","null","","","","","","",""
"","null","video-keyboard-response","331","882506","0.0-331.0","","null","","Agent B","scrambled","/Users/kirstenziman/Desktop/Desktop/DIDEC_entire_corpus/analysis_3/STIM_SET_2/0_1593006.bmppp94_L1V1_freeview_scrambled_mapOnly.mp4","","",""
"","","call-function","332","882506","0.0-332.0","","","","","","","","",""
"","4628.200000017881","survey-likert","333","887135","0.0-333.0","","","","","","","{""judgement"":1}","[0]","0"
"","2595.300000011921","survey-likert","334","889731","0.0-334.0","","","","","","","{""confidence"":2}","[0]",""
"[{""page_index"":0,""viewing_time"":58823.69999998808},{""page_index"":1,""viewing_time"":850.3000000119209},{""page_index"":2,""viewing_time"":760.8000000119209}]","60435","instructions","335","950167","0.0-335.0","","","","","","","","",""
"[{""page_index"":0,""viewing_time"":693.7999999821186},{""page_index"":1,""viewing_time"":667.7000000178814},{""page_index"":2,""viewing_time"":629.6999999880791}]","1991.5999999940395","instructions","336","952159","0.0-336.0","","","","","","","","",""
"","","call-function","337","952160","0.0-337.0","","","","","","","","",""
"","null","html-keyboard-response","338","955161","0.0-338.0","<span style=""color:Black; font-size:50px;"">Agent A","null","","","","","","",""
"","null","video-keyboard-response","339","958318","0.0-339.0","","null","","Agent A","veridical","/Users/kirstenziman/Desktop/Desktop/DIDEC_entire_corpus/analysis_3/STIM_SET_2/0_1591805.bmppp70_L1V1_freeview_veridical_mapOnly.mp4","","",""
"","null","html-keyboard-response","340","961320","0.0-340.0","<span style=""color:Black; font-size:50px;"">Agent B","null","","","","","","",""
"","null","video-keyboard-response","341","964451","0.0-341.0","","null","","Agent B","scrambled","/Users/kirstenziman/Desktop/Desktop/DIDEC_entire_corpus/analysis_3/STIM_SET_2/0_1591805.bmppp70_L1V1_freeview_scrambled_mapOnly.mp4","","",""
"","","call-function","342","964452","0.0-342.0","","","","","","","","",""
"","2202.699999988079","survey-likert","343","966655","0.0-343.0","","","","","","","{""judgement"":0}","[0]","0"
"","1783.800000011921","survey-likert","344","968440","0.0-344.0","","","","","","","{""confidence"":3}","[0]",""
"","","call-function","345","968440","0.0-345.0","","","","","","","","",""
"","null","html-keyboard-response","346","971444","0.0-346.0","<span style=""color:Black; font-size:50px;"">Agent A","null","","","","","","",""
"","null","video-keyboard-response","347","974545","0.0-347.0","","null","","Agent A","veridical","/Users/kirstenziman/Desktop/Desktop/DIDEC_entire_corpus/analysis_3/STIM_SET_2/0_107964.bmppp86_L1V1_freeview_veridical_mapOnly.mp4","","",""
"","null","html-keyboard-response","348","977551","0.0-348.0","<span style=""color:Black; font-size:50px;"">Agent B","null","","","","","","",""
"","null","video-keyboard-response","349","980703","0.0-349.0","","null","","Agent B","scrambled","/Users/kirstenziman/Desktop/Desktop/DIDEC_entire_corpus/analysis_3/STIM_SET_2/0_107964.bmppp86_L1V1_freeview_scrambled_mapOnly.mp4","","",""
"","","call-function","350","980703","0.0-350.0","","","","","","","","",""
"","2390.100000023842","survey-likert","351","983094","0.0-351.0","","","","","","","{""judgement"":0}","[0]","0"
"","1511.8999999761581","survey-likert","352","984607","0.0-352.0","","","","","","","{""confidence"":3}","[0]",""
"","","call-function","353","984608","0.0-353.0","","","","","","","","",""
"","null","html-keyboard-response","354","987611","0.0-354.0","<span style=""color:Black; font-size:50px;"">Agent A","null","","","","","","",""
"","null","video-keyboard-response","355","990768","0.0-355.0","","null","","Agent A","scrambled","/Users/kirstenziman/Desktop/Desktop/DIDEC_entire_corpus/analysis_3/STIM_SET_2/0_1159609.bmppp79_L1V1_freeview_scrambled_mapOnly.mp4","","",""
"","null","html-keyboard-response","356","993770","0.0-356.0","<span style=""color:Black; font-size:50px;"">Agent B","null","","","","","","",""
"","null","video-keyboard-response","357","996934","0.0-357.0","","null","","Agent B","veridical","/Users/kirstenziman/Desktop/Desktop/DIDEC_entire_corpus/analysis_3/STIM_SET_2/0_1159609.bmppp79_L1V1_freeview_veridical_mapOnly.mp4","","",""
"","","call-function","358","996934","0.0-358.0","","","","","","","","",""
"","2448.9000000059605","survey-likert","359","999385","0.0-359.0","","","","","","","{""judgement"":1}","[0]","1"
"","1729.199999988079","survey-likert","360","1001119","0.0-360.0","","","","","","","{""confidence"":2}","[0]",""
"","","call-function","361","1001119","0.0-361.0","","","","","","","","",""
"","null","html-keyboard-response","362","1004120","0.0-362.0","<span style=""color:Black; font-size:50px;"">Agent A","null","","","","","","",""
"","null","video-keyboard-response","363","1007238","0.0-363.0","","null","","Agent A","scrambled","/Users/kirstenziman/Desktop/Desktop/DIDEC_entire_corpus/analysis_3/STIM_SET_2/0_1592656.bmppp95_L1V1_freeview_scrambled_mapOnly.mp4","","",""
"","null","html-keyboard-response","364","1010241","0.0-364.0","<span style=""color:Black; font-size:50px;"">Agent B","null","","","","","","",""
"","null","video-keyboard-response","365","1013377","0.0-365.0","","null","","Agent B","veridical","/Users/kirstenziman/Desktop/Desktop/DIDEC_entire_corpus/analysis_3/STIM_SET_2/0_1592656.bmppp95_L1V1_freeview_veridical_mapOnly.mp4","","",""
"","","call-function","366","1013377","0.0-366.0","","","","","","","","",""
"","2215.199999988079","survey-likert","367","1015593","0.0-367.0","","","","","","","{""judgement"":0}","[0]","1"
"","1727.2000000178814","survey-likert","368","1017322","0.0-368.0","","","","","","","{""confidence"":3}","[0]",""
"","","call-function","369","1017322","0.0-369.0","","","","","","","","",""
"","null","html-keyboard-response","370","1020327","0.0-370.0","<span style=""color:Black; font-size:50px;"">Agent A","null","","","","","","",""
"","null","video-keyboard-response","371","1023461","0.0-371.0","","null","","Agent A","scrambled","/Users/kirstenziman/Desktop/Desktop/DIDEC_entire_corpus/analysis_3/STIM_SET_2/0_1159874.bmppp152_L1V1_freeview_scrambled_mapOnly.mp4","","",""
"","null","html-keyboard-response","372","1026466","0.0-372.0","<span style=""color:Black; font-size:50px;"">Agent B","null","","","","","","",""
"","null","video-keyboard-response","373","1029642","0.0-373.0","","null","","Agent B","veridical","/Users/kirstenziman/Desktop/Desktop/DIDEC_entire_corpus/analysis_3/STIM_SET_2/0_1159874.bmppp152_L1V1_freeview_veridical_mapOnly.mp4","","",""
"","","call-function","374","1029643","0.0-374.0","","","","","","","","",""
"","2304.5","survey-likert","375","1031948","0.0-375.0","","","","","","","{""judgement"":0}","[0]","1"
"","1653.2999999821186","survey-likert","376","1033603","0.0-376.0","","","","","","","{""confidence"":2}","[0]",""
"","","call-function","377","1033604","0.0-377.0","","","","","","","","",""
"","null","html-keyboard-response","378","1036607","0.0-378.0","<span style=""color:Black; font-size:50px;"">Agent A","null","","","","","","",""
"","null","video-keyboard-response","379","1039747","0.0-379.0","","null","","Agent A","veridical","/Users/kirstenziman/Desktop/Desktop/DIDEC_entire_corpus/analysis_3/STIM_SET_2/0_1592394.bmppp86_L1V1_freeview_veridical_mapOnly.mp4","","",""
"","null","html-keyboard-response","380","1042752","0.0-380.0","<span style=""color:Black; font-size:50px;"">Agent B","null","","","","","","",""
"","null","video-keyboard-response","381","1045882","0.0-381.0","","null","","Agent B","scrambled","/Users/kirstenziman/Desktop/Desktop/DIDEC_entire_corpus/analysis_3/STIM_SET_2/0_1592394.bmppp86_L1V1_freeview_scrambled_mapOnly.mp4","","",""
"","","call-function","382","1045883","0.0-382.0","","","","","","","","",""
"","3963.9000000059605","survey-likert","383","1049848","0.0-383.0","","","","","","","{""judgement"":0}","[0]","0"
"","2554.2999999821186","survey-likert","384","1052404","0.0-384.0","","","","","","","{""confidence"":2}","[0]",""
"","","call-function","385","1052405","0.0-385.0","","","","","","","","",""
"","null","html-keyboard-response","386","1055407","0.0-386.0","<span style=""color:Black; font-size:50px;"">Agent A","null","","","","","","",""
"","null","video-keyboard-response","387","1058555","0.0-387.0","","null","","Agent A","scrambled","/Users/kirstenziman/Desktop/Desktop/DIDEC_entire_corpus/analysis_3/STIM_SET_2/0_1159325.bmppp99_L1V1_freeview_scrambled_mapOnly.mp4","","",""
"","null","html-keyboard-response","388","1061560","0.0-388.0","<span style=""color:Black; font-size:50px;"">Agent B","null","","","","","","",""
"","null","video-keyboard-response","389","1064688","0.0-389.0","","null","","Agent B","veridical","/Users/kirstenziman/Desktop/Desktop/DIDEC_entire_corpus/analysis_3/STIM_SET_2/0_1159325.bmppp99_L1V1_freeview_veridical_mapOnly.mp4","","",""
"","","call-function","390","1064688","0.0-390.0","","","","","","","","",""
"","3234","survey-likert","391","1067923","0.0-391.0","","","","","","","{""judgement"":0}","[0]","1"
"","1620.199999988079","survey-likert","392","1069544","0.0-392.0","","","","","","","{""confidence"":3}","[0]",""
"","","call-function","393","1069544","0.0-393.0","","","","","","","","",""
"","null","html-keyboard-response","394","1072549","0.0-394.0","<span style=""color:Black; font-size:50px;"">Agent A","null","","","","","","",""
"","null","video-keyboard-response","395","1075677","0.0-395.0","","null","","Agent A","scrambled","/Users/kirstenziman/Desktop/Desktop/DIDEC_entire_corpus/analysis_3/STIM_SET_2/0_498155.bmppp90_L1V1_freeview_scrambled_mapOnly.mp4","","",""
"","null","html-keyboard-response","396","1078681","0.0-396.0","<span style=""color:Black; font-size:50px;"">Agent B","null","","","","","","",""
"","null","video-keyboard-response","397","1081799","0.0-397.0","","null","","Agent B","veridical","/Users/kirstenziman/Desktop/Desktop/DIDEC_entire_corpus/analysis_3/STIM_SET_2/0_498155.bmppp90_L1V1_freeview_veridical_mapOnly.mp4","","",""
"","","call-function","398","1081799","0.0-398.0","","","","","","","","",""
"","3028.5999999940395","survey-likert","399","1084829","0.0-399.0","","","","","","","{""judgement"":0}","[0]","1"
"","3156.0999999940395","survey-likert","400","1087987","0.0-400.0","","","","","","","{""confidence"":3}","[0]",""
"","","call-function","401","1087989","0.0-401.0","","","","","","","","",""
"","null","html-keyboard-response","402","1090991","0.0-402.0","<span style=""color:Black; font-size:50px;"">Agent A","null","","","","","","",""
"","null","video-keyboard-response","403","1094163","0.0-403.0","","null","","Agent A","scrambled","/Users/kirstenziman/Desktop/Desktop/DIDEC_entire_corpus/analysis_3/STIM_SET_2/0_1160180.bmppp61_L1V1_freeview_scrambled_mapOnly.mp4","","",""
"","null","html-keyboard-response","404","1097168","0.0-404.0","<span style=""color:Black; font-size:50px;"">Agent B","null","","","","","","",""
"","null","video-keyboard-response","405","1100311","0.0-405.0","","null","","Agent B","veridical","/Users/kirstenziman/Desktop/Desktop/DIDEC_entire_corpus/analysis_3/STIM_SET_2/0_1160180.bmppp61_L1V1_freeview_veridical_mapOnly.mp4","","",""
"","","call-function","406","1100312","0.0-406.0","","","","","","","","",""
"","4343.800000011921","survey-likert","407","1104657","0.0-407.0","","","","","","","{""judgement"":1}","[0]","1"
"","1385.7999999821186","survey-likert","408","1106044","0.0-408.0","","","","","","","{""confidence"":2}","[0]",""
"","","call-function","409","1106045","0.0-409.0","","","","","","","","",""
"","null","html-keyboard-response","410","1109050","0.0-410.0","<span style=""color:Black; font-size:50px;"">Agent A","null","","","","","","",""
"","null","video-keyboard-response","411","1112175","0.0-411.0","","null","","Agent A","scrambled","/Users/kirstenziman/Desktop/Desktop/DIDEC_entire_corpus/analysis_3/STIM_SET_2/0_61514.bmppp67_L1V1_freeview_scrambled_mapOnly.mp4","","",""
"","null","html-keyboard-response","412","1115180","0.0-412.0","<span style=""color:Black; font-size:50px;"">Agent B","null","","","","","","",""
"","null","video-keyboard-response","413","1118303","0.0-413.0","","null","","Agent B","veridical","/Users/kirstenziman/Desktop/Desktop/DIDEC_entire_corpus/analysis_3/STIM_SET_2/0_61514.bmppp67_L1V1_freeview_veridical_mapOnly.mp4","","",""
"","","call-function","414","1118303","0.0-414.0","","","","","","","","",""
"","2926.5999999940395","survey-likert","415","1121231","0.0-415.0","","","","","","","{""judgement"":0}","[0]","1"
"","1727.3999999761581","survey-likert","416","1122960","0.0-416.0","","","","","","","{""confidence"":3}","[0]",""
"[{""page_index"":0,""viewing_time"":2131.199999988079},{""page_index"":1,""viewing_time"":563.9000000059605},{""page_index"":2,""viewing_time"":444.5}]","3139.699999988079","instructions","417","1126100","0.0-417.0","","","","","","","","",""
"[{""page_index"":0,""viewing_time"":464.30000001192093},{""page_index"":1,""viewing_time"":535.5999999940395},{""page_index"":2,""viewing_time"":506.59999999403954}]","1506.800000011921","instructions","418","1127607","0.0-418.0","","","","","","","","",""
"","","call-function","419","1127608","0.0-419.0","","","","","","","","",""
"","null","html-keyboard-response","420","1130610","0.0-420.0","<span style=""color:Black; font-size:50px;"">Agent A","null","","","","","","",""
"","null","video-keyboard-response","421","1133791","0.0-421.0","","null","","Agent A","scrambled","/Users/kirstenziman/Desktop/Desktop/DIDEC_entire_corpus/analysis_3/STIM_SET_2/0_1592362.bmppp53_L1V1_freeview_scrambled_mapOnly.mp4","","",""
"","null","html-keyboard-response","422","1136792","0.0-422.0","<span style=""color:Black; font-size:50px;"">Agent B","null","","","","","","",""
"","null","video-keyboard-response","423","1139927","0.0-423.0","","null","","Agent B","veridical","/Users/kirstenziman/Desktop/Desktop/DIDEC_entire_corpus/analysis_3/STIM_SET_2/0_1592362.bmppp53_L1V1_freeview_veridical_mapOnly.mp4","","",""
"","","call-function","424","1139928","0.0-424.0","","","","","","","","",""
"","2024.3999999761581","survey-likert","425","1141954","0.0-425.0","","","","","","","{""judgement"":0}","[0]","1"
"","1253.2999999821186","survey-likert","426","1143210","0.0-426.0","","","","","","","{""confidence"":3}","[0]",""
"","","call-function","427","1143210","0.0-427.0","","","","","","","","",""
"","null","html-keyboard-response","428","1146214","0.0-428.0","<span style=""color:Black; font-size:50px;"">Agent A","null","","","","","","",""
"","null","video-keyboard-response","429","1149376","0.0-429.0","","null","","Agent A","veridical","/Users/kirstenziman/Desktop/Desktop/DIDEC_entire_corpus/analysis_3/STIM_SET_2/0_1160093.bmppp152_L1V1_freeview_veridical_mapOnly.mp4","","",""
"","null","html-keyboard-response","430","1152379","0.0-430.0","<span style=""color:Black; font-size:50px;"">Agent B","null","","","","","","",""
"","null","video-keyboard-response","431","1155511","0.0-431.0","","null","","Agent B","scrambled","/Users/kirstenziman/Desktop/Desktop/DIDEC_entire_corpus/analysis_3/STIM_SET_2/0_1160093.bmppp152_L1V1_freeview_scrambled_mapOnly.mp4","","",""
"","","call-function","432","1155512","0.0-432.0","","","","","","","","",""
"","1857.4000000059605","survey-likert","433","1157371","0.0-433.0","","","","","","","{""judgement"":0}","[0]","0"
"","2540.9000000059605","survey-likert","434","1159916","0.0-434.0","","","","","","","{""confidence"":3}","[0]",""
"","","call-function","435","1159918","0.0-435.0","","","","","","","","",""
"","null","html-keyboard-response","436","1162920","0.0-436.0","<span style=""color:Black; font-size:50px;"">Agent A","null","","","","","","",""
"","null","video-keyboard-response","437","1166125","0.0-437.0","","null","","Agent A","veridical","/Users/kirstenziman/Desktop/Desktop/DIDEC_entire_corpus/analysis_3/STIM_SET_2/0_1159397.bmppp86_L1V1_freeview_veridical_mapOnly.mp4","","",""
"","null","html-keyboard-response","438","1169126","0.0-438.0","<span style=""color:Black; font-size:50px;"">Agent B","null","","","","","","",""
"","null","video-keyboard-response","439","1172289","0.0-439.0","","null","","Agent B","scrambled","/Users/kirstenziman/Desktop/Desktop/DIDEC_entire_corpus/analysis_3/STIM_SET_2/0_1159397.bmppp86_L1V1_freeview_scrambled_mapOnly.mp4","","",""
"","","call-function","440","1172290","0.0-440.0","","","","","","","","",""
"","3035.9000000059605","survey-likert","441","1175327","0.0-441.0","","","","","","","{""judgement"":1}","[0]","0"
"","1951.5","survey-likert","442","1177279","0.0-442.0","","","","","","","{""confidence"":3}","[0]",""
"","","call-function","443","1177280","0.0-443.0","","","","","","","","",""
"","null","html-keyboard-response","444","1180283","0.0-444.0","<span style=""color:Black; font-size:50px;"">Agent A","null","","","","","","",""
"","null","video-keyboard-response","445","1183407","0.0-445.0","","null","","Agent A","scrambled","/Users/kirstenziman/Desktop/Desktop/DIDEC_entire_corpus/analysis_3/STIM_SET_2/0_1159904.bmppp88_L1V1_freeview_scrambled_mapOnly.mp4","","",""
"","null","html-keyboard-response","446","1186408","0.0-446.0","<span style=""color:Black; font-size:50px;"">Agent B","null","","","","","","",""
"","null","video-keyboard-response","447","1189540","0.0-447.0","","null","","Agent B","veridical","/Users/kirstenziman/Desktop/Desktop/DIDEC_entire_corpus/analysis_3/STIM_SET_2/0_1159904.bmppp88_L1V1_freeview_veridical_mapOnly.mp4","","",""
"","","call-function","448","1189540","0.0-448.0","","","","","","","","",""
"","1434.4000000059605","survey-likert","449","1190976","0.0-449.0","","","","","","","{""judgement"":0}","[0]","1"
"","1703.0999999940395","survey-likert","450","1192680","0.0-450.0","","","","","","","{""confidence"":3}","[0]",""
"","","call-function","451","1192681","0.0-451.0","","","","","","","","",""
"","null","html-keyboard-response","452","1195684","0.0-452.0","<span style=""color:Black; font-size:50px;"">Agent A","null","","","","","","",""
"","null","video-keyboard-response","453","1198812","0.0-453.0","","null","","Agent A","scrambled","/Users/kirstenziman/Desktop/Desktop/DIDEC_entire_corpus/analysis_3/STIM_SET_2/0_713513.bmppp96_L1V1_freeview_scrambled_mapOnly.mp4","","",""
"","null","html-keyboard-response","454","1201817","0.0-454.0","<span style=""color:Black; font-size:50px;"">Agent B","null","","","","","","",""
"","null","video-keyboard-response","455","1204977","0.0-455.0","","null","","Agent B","veridical","/Users/kirstenziman/Desktop/Desktop/DIDEC_entire_corpus/analysis_3/STIM_SET_2/0_713513.bmppp96_L1V1_freeview_veridical_mapOnly.mp4","","",""
"","","call-function","456","1204978","0.0-456.0","","","","","","","","",""
"","2484.5999999940395","survey-likert","457","1207464","0.0-457.0","","","","","","","{""judgement"":1}","[0]","1"
"","1557.5999999940395","survey-likert","458","1209024","0.0-458.0","","","","","","","{""confidence"":2}","[0]",""
"","","call-function","459","1209026","0.0-459.0","","","","","","","","",""
"","null","html-keyboard-response","460","1212030","0.0-460.0","<span style=""color:Black; font-size:50px;"">Agent A","null","","","","","","",""
"","null","video-keyboard-response","461","1215132","0.0-461.0","","null","","Agent A","scrambled","/Users/kirstenziman/Desktop/Desktop/DIDEC_entire_corpus/analysis_3/STIM_SET_2/0_1160127.bmppp62_L1V1_freeview_scrambled_mapOnly.mp4","","",""
"","null","html-keyboard-response","462","1218137","0.0-462.0","<span style=""color:Black; font-size:50px;"">Agent B","null","","","","","","",""
"","null","video-keyboard-response","463","1221263","0.0-463.0","","null","","Agent B","veridical","/Users/kirstenziman/Desktop/Desktop/DIDEC_entire_corpus/analysis_3/STIM_SET_2/0_1160127.bmppp62_L1V1_freeview_veridical_mapOnly.mp4","","",""
"","","call-function","464","1221263","0.0-464.0","","","","","","","","",""
"","2020.2999999821186","survey-likert","465","1223284","0.0-465.0","","","","","","","{""judgement"":0}","[0]","1"
"","2098.600000023842","survey-likert","466","1225384","0.0-466.0","","","","","","","{""confidence"":2}","[0]",""
"","","call-function","467","1225385","0.0-467.0","","","","","","","","",""
"","null","html-keyboard-response","468","1228390","0.0-468.0","<span style=""color:Black; font-size:50px;"">Agent A","null","","","","","","",""
"","null","video-keyboard-response","469","1231579","0.0-469.0","","null","","Agent A","veridical","/Users/kirstenziman/Desktop/Desktop/DIDEC_entire_corpus/analysis_3/STIM_SET_2/0_1592499.bmppp152_L1V1_freeview_veridical_mapOnly.mp4","","",""
"","null","html-keyboard-response","470","1234583","0.0-470.0","<span style=""color:Black; font-size:50px;"">Agent B","null","","","","","","",""
"","null","video-keyboard-response","471","1237875","0.0-471.0","","null","","Agent B","scrambled","/Users/kirstenziman/Desktop/Desktop/DIDEC_entire_corpus/analysis_3/STIM_SET_2/0_1592499.bmppp152_L1V1_freeview_scrambled_mapOnly.mp4","","",""
"","","call-function","472","1237876","0.0-472.0","","","","","","","","",""
"","1728.5","survey-likert","473","1239607","0.0-473.0","","","","","","","{""judgement"":0}","[0]","0"
"","1676.300000011921","survey-likert","474","1241285","0.0-474.0","","","","","","","{""confidence"":3}","[0]",""
"","","call-function","475","1241286","0.0-475.0","","","","","","","","",""
"","null","html-keyboard-response","476","1244289","0.0-476.0","<span style=""color:Black; font-size:50px;"">Agent A","null","","","","","","",""
"","null","video-keyboard-response","477","1247427","0.0-477.0","","null","","Agent A","scrambled","/Users/kirstenziman/Desktop/Desktop/DIDEC_entire_corpus/analysis_3/STIM_SET_2/0_1159897.bmppp53_L1V1_freeview_scrambled_mapOnly.mp4","","",""
"","null","html-keyboard-response","478","1250431","0.0-478.0","<span style=""color:Black; font-size:50px;"">Agent B","null","","","","","","",""
"","null","video-keyboard-response","479","1253624","0.0-479.0","","null","","Agent B","veridical","/Users/kirstenziman/Desktop/Desktop/DIDEC_entire_corpus/analysis_3/STIM_SET_2/0_1159897.bmppp53_L1V1_freeview_veridical_mapOnly.mp4","","",""
"","","call-function","480","1253625","0.0-480.0","","","","","","","","",""
"","1842.7000000178814","survey-likert","481","1255469","0.0-481.0","","","","","","","{""judgement"":1}","[0]","1"
"","1425.4000000059605","survey-likert","482","1256896","0.0-482.0","","","","","","","{""confidence"":2}","[0]",""
"","","call-function","483","1256897","0.0-483.0","","","","","","","","",""
"","null","html-keyboard-response","484","1259900","0.0-484.0","<span style=""color:Black; font-size:50px;"">Agent A","null","","","","","","",""
"","null","video-keyboard-response","485","1263019","0.0-485.0","","null","","Agent A","veridical","/Users/kirstenziman/Desktop/Desktop/DIDEC_entire_corpus/analysis_3/STIM_SET_2/0_150374.bmppp96_L1V1_freeview_veridical_mapOnly.mp4","","",""
"","null","html-keyboard-response","486","1266023","0.0-486.0","<span style=""color:Black; font-size:50px;"">Agent B","null","","","","","","",""
"","null","video-keyboard-response","487","1269183","0.0-487.0","","null","","Agent B","scrambled","/Users/kirstenziman/Desktop/Desktop/DIDEC_entire_corpus/analysis_3/STIM_SET_2/0_150374.bmppp96_L1V1_freeview_scrambled_mapOnly.mp4","","",""
"","","call-function","488","1269184","0.0-488.0","","","","","","","","",""
"","3569.5999999940395","survey-likert","489","1272764","0.0-489.0","","","","","","","{""judgement"":0}","[0]","0"
"","1701.2999999821186","survey-likert","490","1274466","0.0-490.0","","","","","","","{""confidence"":2}","[0]",""
"","","call-function","491","1274467","0.0-491.0","","","","","","","","",""
"","null","html-keyboard-response","492","1277471","0.0-492.0","<span style=""color:Black; font-size:50px;"">Agent A","null","","","","","","",""
"","null","video-keyboard-response","493","1280629","0.0-493.0","","null","","Agent A","scrambled","/Users/kirstenziman/Desktop/Desktop/DIDEC_entire_corpus/analysis_3/STIM_SET_2/0_713779.bmppp67_L1V1_freeview_scrambled_mapOnly.mp4","","",""
"","null","html-keyboard-response","494","1283633","0.0-494.0","<span style=""color:Black; font-size:50px;"">Agent B","null","","","","","","",""
"","null","video-keyboard-response","495","1286861","0.0-495.0","","null","","Agent B","veridical","/Users/kirstenziman/Desktop/Desktop/DIDEC_entire_corpus/analysis_3/STIM_SET_2/0_713779.bmppp67_L1V1_freeview_veridical_mapOnly.mp4","","",""
"","","call-function","496","1286862","0.0-496.0","","","","","","","","",""
"","16199.200000017881","survey-likert","497","1303062","0.0-497.0","","","","","","","{""judgement"":1}","[0]","1"
"","1934.1000000238419","survey-likert","498","1304997","0.0-498.0","","","","","","","{""confidence"":1}","[0]",""
"[{""page_index"":0,""viewing_time"":1100.1000000238419},{""page_index"":1,""viewing_time"":816.5999999940395},{""page_index"":2,""viewing_time"":886.6999999880791}]","2803.9000000059605","instructions","499","1307802","0.0-499.0","","","","","","","","",""
"[{""page_index"":0,""viewing_time"":848.5},{""page_index"":1,""viewing_time"":860.8000000119209},{""page_index"":2,""viewing_time"":727.2999999821186}]","2436.800000011921","instructions","500","1310240","0.0-500.0","","","","","","","","",""
"","","call-function","501","1310241","0.0-501.0","","","","","","","","",""
"","null","html-keyboard-response","502","1313242","0.0-502.0","<span style=""color:Black; font-size:50px;"">Agent A","null","","","","","","",""
"","null","video-keyboard-response","503","1316338","0.0-503.0","","null","","Agent A","veridical","/Users/kirstenziman/Desktop/Desktop/DIDEC_entire_corpus/analysis_3/STIM_SET_2/0_713003.bmppp82_L1V1_freeview_veridical_mapOnly.mp4","","",""
"","null","html-keyboard-response","504","1319342","0.0-504.0","<span style=""color:Black; font-size:50px;"">Agent B","null","","","","","","",""
"","null","video-keyboard-response","505","1322487","0.0-505.0","","null","","Agent B","scrambled","/Users/kirstenziman/Desktop/Desktop/DIDEC_entire_corpus/analysis_3/STIM_SET_2/0_713003.bmppp82_L1V1_freeview_scrambled_mapOnly.mp4","","",""
"","","call-function","506","1322487","0.0-506.0","","","","","","","","",""
"","4833","survey-likert","507","1327321","0.0-507.0","","","","","","","{""judgement"":0}","[0]","0"
"","2006","survey-likert","508","1329328","0.0-508.0","","","","","","","{""confidence"":1}","[0]",""
"","","call-function","509","1329329","0.0-509.0","","","","","","","","",""
"","null","html-keyboard-response","510","1332333","0.0-510.0","<span style=""color:Black; font-size:50px;"">Agent A","null","","","","","","",""
"","null","video-keyboard-response","511","1335473","0.0-511.0","","null","","Agent A","scrambled","/Users/kirstenziman/Desktop/Desktop/DIDEC_entire_corpus/analysis_3/STIM_SET_2/0_498396.bmppp79_L1V1_freeview_scrambled_mapOnly.mp4","","",""
"","null","html-keyboard-response","512","1338478","0.0-512.0","<span style=""color:Black; font-size:50px;"">Agent B","null","","","","","","",""
"","null","video-keyboard-response","513","1341610","0.0-513.0","","null","","Agent B","veridical","/Users/kirstenziman/Desktop/Desktop/DIDEC_entire_corpus/analysis_3/STIM_SET_2/0_498396.bmppp79_L1V1_freeview_veridical_mapOnly.mp4","","",""
"","","call-function","514","1341610","0.0-514.0","","","","","","","","",""
"","3873","survey-likert","515","1345484","0.0-515.0","","","","","","","{""judgement"":0}","[0]","1"
"","1704.5999999940395","survey-likert","516","1347190","0.0-516.0","","","","","","","{""confidence"":3}","[0]",""
"","","call-function","517","1347192","0.0-517.0","","","","","","","","",""
"","null","html-keyboard-response","518","1350195","0.0-518.0","<span style=""color:Black; font-size:50px;"">Agent A","null","","","","","","",""
"","null","video-keyboard-response","519","1353364","0.0-519.0","","null","","Agent A","scrambled","/Users/kirstenziman/Desktop/Desktop/DIDEC_entire_corpus/analysis_3/STIM_SET_2/0_1160227.bmppp67_L1V1_freeview_scrambled_mapOnly.mp4","","",""
"","null","html-keyboard-response","520","1356369","0.0-520.0","<span style=""color:Black; font-size:50px;"">Agent B","null","","","","","","",""
"","null","video-keyboard-response","521","1359530","0.0-521.0","","null","","Agent B","veridical","/Users/kirstenziman/Desktop/Desktop/DIDEC_entire_corpus/analysis_3/STIM_SET_2/0_1160227.bmppp67_L1V1_freeview_veridical_mapOnly.mp4","","",""
"","","call-function","522","1359531","0.0-522.0","","","","","","","","",""
"","3966.399999976158","survey-likert","523","1363498","0.0-523.0","","","","","","","{""judgement"":1}","[0]","1"
"","1816.4000000059605","survey-likert","524","1365317","0.0-524.0","","","","","","","{""confidence"":2}","[0]",""
"","","call-function","525","1365318","0.0-525.0","","","","","","","","",""
"","null","html-keyboard-response","526","1368324","0.0-526.0","<span style=""color:Black; font-size:50px;"">Agent A","null","","","","","","",""
"","null","video-keyboard-response","527","1371465","0.0-527.0","","null","","Agent A","scrambled","/Users/kirstenziman/Desktop/Desktop/DIDEC_entire_corpus/analysis_3/STIM_SET_2/0_1160049.bmppp90_L1V1_freeview_scrambled_mapOnly.mp4","","",""
"","null","html-keyboard-response","528","1374466","0.0-528.0","<span style=""color:Black; font-size:50px;"">Agent B","null","","","","","","",""
"","null","video-keyboard-response","529","1377597","0.0-529.0","","null","","Agent B","veridical","/Users/kirstenziman/Desktop/Desktop/DIDEC_entire_corpus/analysis_3/STIM_SET_2/0_1160049.bmppp90_L1V1_freeview_veridical_mapOnly.mp4","","",""
"","","call-function","530","1377598","0.0-530.0","","","","","","","","",""
"","3342.7000000178814","survey-likert","531","1380941","0.0-531.0","","","","","","","{""judgement"":0}","[0]","1"
"","2438.800000011921","survey-likert","532","1383381","0.0-532.0","","","","","","","{""confidence"":2}","[0]",""
"","","call-function","533","1383382","0.0-533.0","","","","","","","","",""
"","null","html-keyboard-response","534","1386383","0.0-534.0","<span style=""color:Black; font-size:50px;"">Agent A","null","","","","","","",""
"","null","video-keyboard-response","535","1389516","0.0-535.0","","null","","Agent A","veridical","/Users/kirstenziman/Desktop/Desktop/DIDEC_entire_corpus/analysis_3/STIM_SET_2/0_1592038.bmppp94_L1V1_freeview_veridical_mapOnly.mp4","","",""
"","null","html-keyboard-response","536","1392519","0.0-536.0","<span style=""color:Black; font-size:50px;"">Agent B","null","","","","","","",""
"","null","video-keyboard-response","537","1395677","0.0-537.0","","null","","Agent B","scrambled","/Users/kirstenziman/Desktop/Desktop/DIDEC_entire_corpus/analysis_3/STIM_SET_2/0_1592038.bmppp94_L1V1_freeview_scrambled_mapOnly.mp4","","",""
"","","call-function","538","1395677","0.0-538.0","","","","","","","","",""
"","6405.4000000059605","survey-likert","539","1402083","0.0-539.0","","","","","","","{""judgement"":0}","[0]","0"
"","2271","survey-likert","540","1404356","0.0-540.0","","","","","","","{""confidence"":1}","[0]",""
"","","call-function","541","1404357","0.0-541.0","","","","","","","","",""
"","null","html-keyboard-response","542","1407360","0.0-542.0","<span style=""color:Black; font-size:50px;"">Agent A","null","","","","","","",""
"","null","video-keyboard-response","543","1410457","0.0-543.0","","null","","Agent A","veridical","/Users/kirstenziman/Desktop/Desktop/DIDEC_entire_corpus/analysis_3/STIM_SET_2/0_1160168.bmppp96_L1V1_freeview_veridical_mapOnly.mp4","","",""
"","null","html-keyboard-response","544","1413459","0.0-544.0","<span style=""color:Black; font-size:50px;"">Agent B","null","","","","","","",""
"","null","video-keyboard-response","545","1416588","0.0-545.0","","null","","Agent B","scrambled","/Users/kirstenziman/Desktop/Desktop/DIDEC_entire_corpus/analysis_3/STIM_SET_2/0_1160168.bmppp96_L1V1_freeview_scrambled_mapOnly.mp4","","",""
"","","call-function","546","1416588","0.0-546.0","","","","","","","","",""
"","4114.299999982119","survey-likert","547","1420703","0.0-547.0","","","","","","","{""judgement"":0}","[0]","0"
"","2544.0999999940395","survey-likert","548","1423249","0.0-548.0","","","","","","","{""confidence"":1}","[0]",""
"","","call-function","549","1423250","0.0-549.0","","","","","","","","",""
"","null","html-keyboard-response","550","1426252","0.0-550.0","<span style=""color:Black; font-size:50px;"">Agent A","null","","","","","","",""
"","null","video-keyboard-response","551","1429381","0.0-551.0","","null","","Agent A","scrambled","/Users/kirstenziman/Desktop/Desktop/DIDEC_entire_corpus/analysis_3/STIM_SET_2/0_713512.bmppp54_L1V1_freeview_scrambled_mapOnly.mp4","","",""
"","null","html-keyboard-response","552","1432387","0.0-552.0","<span style=""color:Black; font-size:50px;"">Agent B","null","","","","","","",""
"","null","video-keyboard-response","553","1435521","0.0-553.0","","null","","Agent B","veridical","/Users/kirstenziman/Desktop/Desktop/DIDEC_entire_corpus/analysis_3/STIM_SET_2/0_713512.bmppp54_L1V1_freeview_veridical_mapOnly.mp4","","",""
"","","call-function","554","1435521","0.0-554.0","","","","","","","","",""
"","2279.300000011921","survey-likert","555","1437803","0.0-555.0","","","","","","","{""judgement"":1}","[0]","1"
"","1330","survey-likert","556","1439135","0.0-556.0","","","","","","","{""confidence"":2}","[0]",""
"","","call-function","557","1439135","0.0-557.0","","","","","","","","",""
"","null","html-keyboard-response","558","1442142","0.0-558.0","<span style=""color:Black; font-size:50px;"">Agent A","null","","","","","","",""
"","null","video-keyboard-response","559","1445287","0.0-559.0","","null","","Agent A","scrambled","/Users/kirstenziman/Desktop/Desktop/DIDEC_entire_corpus/analysis_3/STIM_SET_2/0_498388.bmppp62_L1V1_freeview_scrambled_mapOnly.mp4","","",""
"","null","html-keyboard-response","560","1448294","0.0-560.0","<span style=""color:Black; font-size:50px;"">Agent B","null","","","","","","",""
"","null","video-keyboard-response","561","1451423","0.0-561.0","","null","","Agent B","veridical","/Users/kirstenziman/Desktop/Desktop/DIDEC_entire_corpus/analysis_3/STIM_SET_2/0_498388.bmppp62_L1V1_freeview_veridical_mapOnly.mp4","","",""
"","","call-function","562","1451424","0.0-562.0","","","","","","","","",""
"","1990.9000000059605","survey-likert","563","1453417","0.0-563.0","","","","","","","{""judgement"":0}","[0]","1"
"","1341.800000011921","survey-likert","564","1454762","0.0-564.0","","","","","","","{""confidence"":2}","[0]",""
"","","call-function","565","1454763","0.0-565.0","","","","","","","","",""
"","null","html-keyboard-response","566","1457766","0.0-566.0","<span style=""color:Black; font-size:50px;"">Agent A","null","","","","","","",""
"","null","video-keyboard-response","567","1460907","0.0-567.0","","null","","Agent A","veridical","/Users/kirstenziman/Desktop/Desktop/DIDEC_entire_corpus/analysis_3/STIM_SET_2/0_1592890.bmppp95_L1V1_freeview_veridical_mapOnly.mp4","","",""
"","null","html-keyboard-response","568","1463913","0.0-568.0","<span style=""color:Black; font-size:50px;"">Agent B","null","","","","","","",""
"","null","video-keyboard-response","569","1467174","0.0-569.0","","null","","Agent B","scrambled","/Users/kirstenziman/Desktop/Desktop/DIDEC_entire_corpus/analysis_3/STIM_SET_2/0_1592890.bmppp95_L1V1_freeview_scrambled_mapOnly.mp4","","",""
"","","call-function","570","1467174","0.0-570.0","","","","","","","","",""
"","2950.4000000059605","survey-likert","571","1470126","0.0-571.0","","","","","","","{""judgement"":1}","[0]","0"
"","1363.300000011921","survey-likert","572","1471491","0.0-572.0","","","","","","","{""confidence"":2}","[0]",""
"","","call-function","573","1471491","0.0-573.0","","","","","","","","",""
"","null","html-keyboard-response","574","1474496","0.0-574.0","<span style=""color:Black; font-size:50px;"">Agent A","null","","","","","","",""
"","null","video-keyboard-response","575","1477617","0.0-575.0","","null","","Agent A","scrambled","/Users/kirstenziman/Desktop/Desktop/DIDEC_entire_corpus/analysis_3/STIM_SET_2/0_1591954.bmppp54_L1V1_freeview_scrambled_mapOnly.mp4","","",""
"","null","html-keyboard-response","576","1480621","0.0-576.0","<span style=""color:Black; font-size:50px;"">Agent B","null","","","","","","",""
"","null","video-keyboard-response","577","1483741","0.0-577.0","","null","","Agent B","veridical","/Users/kirstenziman/Desktop/Desktop/DIDEC_entire_corpus/analysis_3/STIM_SET_2/0_1591954.bmppp54_L1V1_freeview_veridical_mapOnly.mp4","","",""
"","","call-function","578","1483742","0.0-578.0","","","","","","","","",""
"","2288.300000011921","survey-likert","579","1486031","0.0-579.0","","","","","","","{""judgement"":1}","[0]","1"
"","1811.5999999940395","survey-likert","580","1487844","0.0-580.0","","","","","","","{""confidence"":2}","[0]",""
"[{""page_index"":0,""viewing_time"":83961.29999998212}]","83961.40000000596","instructions","581","1571808","0.0-581.0","","","","","","","","",""
"","32240","survey-text","582","1604066","0.0-582.0","","","","","","","{""Q0"":""Does the participant have incentive to complete the test?""}","",""
"","135720.09999999404","survey-text","583","1739788","0.0-583.0","","","","","","","{""Q0"":""Abrupt changes in spot position indicated that it might be a computer""}","",""
"","47527.90000000596","survey-text","584","1787317","0.0-584.0","","","","","","","{""Q0"":""Duration of each session and the number of sessions (7)""}","",""
"[{""page_index"":0,""viewing_time"":2478.5}]","2478.699999988079","instructions","585","1789796","0.0-585.0","","","","","","","","",""
