"view_history","rt","trial_type","trial_index","time_elapsed","internal_node_id","stimulus","key_press","value","agent","condition","image","responses","question_order","correct_answer"
"[{""page_index"":0,""viewing_time"":14100.40000000596}]","14100.90000000596","instructions","0","14102","0.0-0.0","","","","","","","","",""
"[{""page_index"":0,""viewing_time"":19858.399999976158},{""page_index"":1,""viewing_time"":1948.7000000178814},{""page_index"":2,""viewing_time"":7247.299999982119}]","29054.59999999404","instructions","1","43158","0.0-1.0","","","","","","","","",""
"[{""page_index"":0,""viewing_time"":6519.0999999940395}]","6519.300000011921","instructions","2","49678","0.0-2.0","","","","","","","","",""
"","null","video-keyboard-response","3","52765","0.0-3.0","","null","","","","","","",""
"[{""page_index"":0,""viewing_time"":3222.699999988079},{""page_index"":1,""viewing_time"":1266.7000000178814},{""page_index"":2,""viewing_time"":1085.199999988079},{""page_index"":1,""viewing_time"":3635.199999988079},{""page_index"":2,""viewing_time"":5188.100000023842}]","14398.09999999404","instructions","4","67165","0.0-4.0","","","","","","","","",""
"[{""page_index"":0,""viewing_time"":4851.5}]","4851.5999999940395","instructions","5","72018","0.0-5.0","","","","","","","","",""
"","null","video-keyboard-response","6","75070","0.0-6.0","","null","","","","","","",""
"[{""page_index"":0,""viewing_time"":2515.699999988079},{""page_index"":1,""viewing_time"":4335.800000011921},{""page_index"":2,""viewing_time"":7771}]","14622.59999999404","instructions","7","89694","0.0-7.0","","","","","","","","",""
"[{""page_index"":0,""viewing_time"":6561}]","6561.199999988079","instructions","8","96256","0.0-8.0","","","","","","","","",""
"","","call-function","9","96257","0.0-9.0","","","","","","","","",""
"","null","html-keyboard-response","10","99260","0.0-10.0","<span style=""color:Black; font-size:50px;"">Agent A","null","","","","","","",""
"","null","video-keyboard-response","11","102327","0.0-11.0","","null","","Agent A","scrambled","/Users/kirstenziman/Desktop/Desktop/DIDEC_entire_corpus/analysis_3/STIM_SET_2/0_1592362.bmppp53_L1V1_freeview_scrambled_mapOnly.mp4","","",""
"","null","html-keyboard-response","12","105332","0.0-12.0","<span style=""color:Black; font-size:50px;"">Agent B","null","","","","","","",""
"","null","video-keyboard-response","13","108394","0.0-13.0","","null","","Agent B","veridical","/Users/kirstenziman/Desktop/Desktop/DIDEC_entire_corpus/analysis_3/STIM_SET_2/0_1592362.bmppp53_L1V1_freeview_veridical_mapOnly.mp4","","",""
"","","call-function","14","108395","0.0-14.0","","","","","","","","",""
"","3241.7999999821186","survey-likert","15","111639","0.0-15.0","","","","","","","{""judgement"":0}","[0]","1"
"","2255.800000011921","survey-likert","16","113897","0.0-16.0","","","","","","","{""confidence"":3}","[0]",""
"","","call-function","17","113899","0.0-17.0","","","","","","","","",""
"","null","html-keyboard-response","18","116902","0.0-18.0","<span style=""color:Black; font-size:50px;"">Agent A","null","","","","","","",""
"","null","video-keyboard-response","19","119971","0.0-19.0","","null","","Agent A","scrambled","/Users/kirstenziman/Desktop/Desktop/DIDEC_entire_corpus/analysis_3/STIM_SET_2/0_1160227.bmppp67_L1V1_freeview_scrambled_mapOnly.mp4","","",""
"","null","html-keyboard-response","20","122976","0.0-20.0","<span style=""color:Black; font-size:50px;"">Agent B","null","","","","","","",""
"","null","video-keyboard-response","21","126050","0.0-21.0","","null","","Agent B","veridical","/Users/kirstenziman/Desktop/Desktop/DIDEC_entire_corpus/analysis_3/STIM_SET_2/0_1160227.bmppp67_L1V1_freeview_veridical_mapOnly.mp4","","",""
"","","call-function","22","126051","0.0-22.0","","","","","","","","",""
"","2312.9000000059605","survey-likert","23","128365","0.0-23.0","","","","","","","{""judgement"":1}","[0]","1"
"","1976.199999988079","survey-likert","24","130343","0.0-24.0","","","","","","","{""confidence"":3}","[0]",""
"","","call-function","25","130344","0.0-25.0","","","","","","","","",""
"","null","html-keyboard-response","26","133347","0.0-26.0","<span style=""color:Black; font-size:50px;"">Agent A","null","","","","","","",""
"","null","video-keyboard-response","27","136432","0.0-27.0","","null","","Agent A","veridical","/Users/kirstenziman/Desktop/Desktop/DIDEC_entire_corpus/analysis_3/STIM_SET_2/0_1591961.bmppp88_L1V1_freeview_veridical_mapOnly.mp4","","",""
"","null","html-keyboard-response","28","139437","0.0-28.0","<span style=""color:Black; font-size:50px;"">Agent B","null","","","","","","",""
"","null","video-keyboard-response","29","142515","0.0-29.0","","null","","Agent B","scrambled","/Users/kirstenziman/Desktop/Desktop/DIDEC_entire_corpus/analysis_3/STIM_SET_2/0_1591961.bmppp88_L1V1_freeview_scrambled_mapOnly.mp4","","",""
"","","call-function","30","142516","0.0-30.0","","","","","","","","",""
"","2940.7000000178814","survey-likert","31","145458","0.0-31.0","","","","","","","{""judgement"":0}","[0]","0"
"","2758.9000000059605","survey-likert","32","148219","0.0-32.0","","","","","","","{""confidence"":3}","[0]",""
"","","call-function","33","148219","0.0-33.0","","","","","","","","",""
"","null","html-keyboard-response","34","151221","0.0-34.0","<span style=""color:Black; font-size:50px;"">Agent A","null","","","","","","",""
"","null","video-keyboard-response","35","154284","0.0-35.0","","null","","Agent A","veridical","/Users/kirstenziman/Desktop/Desktop/DIDEC_entire_corpus/analysis_3/STIM_SET_2/0_1591805.bmppp70_L1V1_freeview_veridical_mapOnly.mp4","","",""
"","null","html-keyboard-response","36","157288","0.0-36.0","<span style=""color:Black; font-size:50px;"">Agent B","null","","","","","","",""
"","null","video-keyboard-response","37","160351","0.0-37.0","","null","","Agent B","scrambled","/Users/kirstenziman/Desktop/Desktop/DIDEC_entire_corpus/analysis_3/STIM_SET_2/0_1591805.bmppp70_L1V1_freeview_scrambled_mapOnly.mp4","","",""
"","","call-function","38","160352","0.0-38.0","","","","","","","","",""
"","2434.7999999821186","survey-likert","39","162789","0.0-39.0","","","","","","","{""judgement"":0}","[0]","0"
"","4716.700000017881","survey-likert","40","167506","0.0-40.0","","","","","","","{""confidence"":1}","[0]",""
"","","call-function","41","167507","0.0-41.0","","","","","","","","",""
"","null","html-keyboard-response","42","170511","0.0-42.0","<span style=""color:Black; font-size:50px;"">Agent A","null","","","","","","",""
"","null","video-keyboard-response","43","173711","0.0-43.0","","null","","Agent A","veridical","/Users/kirstenziman/Desktop/Desktop/DIDEC_entire_corpus/analysis_3/STIM_SET_2/0_1159874.bmppp152_L1V1_freeview_veridical_mapOnly.mp4","","",""
"","null","html-keyboard-response","44","176717","0.0-44.0","<span style=""color:Black; font-size:50px;"">Agent B","null","","","","","","",""
"","null","video-keyboard-response","45","179800","0.0-45.0","","null","","Agent B","scrambled","/Users/kirstenziman/Desktop/Desktop/DIDEC_entire_corpus/analysis_3/STIM_SET_2/0_1159874.bmppp152_L1V1_freeview_scrambled_mapOnly.mp4","","",""
"","","call-function","46","179801","0.0-46.0","","","","","","","","",""
"","2811.600000023842","survey-likert","47","182613","0.0-47.0","","","","","","","{""judgement"":0}","[0]","0"
"","3181.5","survey-likert","48","185796","0.0-48.0","","","","","","","{""confidence"":3}","[0]",""
"","","call-function","49","185797","0.0-49.0","","","","","","","","",""
"","null","html-keyboard-response","50","188798","0.0-50.0","<span style=""color:Black; font-size:50px;"">Agent A","null","","","","","","",""
"","null","video-keyboard-response","51","191925","0.0-51.0","","null","","Agent A","scrambled","/Users/kirstenziman/Desktop/Desktop/DIDEC_entire_corpus/analysis_3/STIM_SET_2/0_1159889.bmppp61_L1V1_freeview_scrambled_mapOnly.mp4","","",""
"","null","html-keyboard-response","52","194928","0.0-52.0","<span style=""color:Black; font-size:50px;"">Agent B","null","","","","","","",""
"","null","video-keyboard-response","53","198007","0.0-53.0","","null","","Agent B","veridical","/Users/kirstenziman/Desktop/Desktop/DIDEC_entire_corpus/analysis_3/STIM_SET_2/0_1159889.bmppp61_L1V1_freeview_veridical_mapOnly.mp4","","",""
"","","call-function","54","198007","0.0-54.0","","","","","","","","",""
"","5097","survey-likert","55","203105","0.0-55.0","","","","","","","{""judgement"":1}","[0]","1"
"","2132.199999988079","survey-likert","56","205238","0.0-56.0","","","","","","","{""confidence"":0}","[0]",""
"","","call-function","57","205238","0.0-57.0","","","","","","","","",""
"","null","html-keyboard-response","58","208244","0.0-58.0","<span style=""color:Black; font-size:50px;"">Agent A","null","","","","","","",""
"","null","video-keyboard-response","59","211319","0.0-59.0","","null","","Agent A","scrambled","/Users/kirstenziman/Desktop/Desktop/DIDEC_entire_corpus/analysis_3/STIM_SET_2/0_1159392.bmppp95_L1V1_freeview_scrambled_mapOnly.mp4","","",""
"","null","html-keyboard-response","60","214323","0.0-60.0","<span style=""color:Black; font-size:50px;"">Agent B","null","","","","","","",""
"","null","video-keyboard-response","61","217403","0.0-61.0","","null","","Agent B","veridical","/Users/kirstenziman/Desktop/Desktop/DIDEC_entire_corpus/analysis_3/STIM_SET_2/0_1159392.bmppp95_L1V1_freeview_veridical_mapOnly.mp4","","",""
"","","call-function","62","217404","0.0-62.0","","","","","","","","",""
"","2321.0999999940395","survey-likert","63","219726","0.0-63.0","","","","","","","{""judgement"":0}","[0]","1"
"","2237.600000023842","survey-likert","64","221964","0.0-64.0","","","","","","","{""confidence"":1}","[0]",""
"","","call-function","65","221964","0.0-65.0","","","","","","","","",""
"","null","html-keyboard-response","66","224967","0.0-66.0","<span style=""color:Black; font-size:50px;"">Agent A","null","","","","","","",""
"","null","video-keyboard-response","67","228041","0.0-67.0","","null","","Agent A","veridical","/Users/kirstenziman/Desktop/Desktop/DIDEC_entire_corpus/analysis_3/STIM_SET_2/0_713681.bmppp88_L1V1_freeview_veridical_mapOnly.mp4","","",""
"","null","html-keyboard-response","68","231043","0.0-68.0","<span style=""color:Black; font-size:50px;"">Agent B","null","","","","","","",""
"","null","video-keyboard-response","69","234116","0.0-69.0","","null","","Agent B","scrambled","/Users/kirstenziman/Desktop/Desktop/DIDEC_entire_corpus/analysis_3/STIM_SET_2/0_713681.bmppp88_L1V1_freeview_scrambled_mapOnly.mp4","","",""
"","","call-function","70","234116","0.0-70.0","","","","","","","","",""
"","4487.799999982119","survey-likert","71","238604","0.0-71.0","","","","","","","{""judgement"":0}","[0]","0"
"","2139.800000011921","survey-likert","72","240744","0.0-72.0","","","","","","","{""confidence"":0}","[0]",""
"","","call-function","73","240745","0.0-73.0","","","","","","","","",""
"","null","html-keyboard-response","74","243749","0.0-74.0","<span style=""color:Black; font-size:50px;"">Agent A","null","","","","","","",""
"","null","video-keyboard-response","75","246817","0.0-75.0","","null","","Agent A","veridical","/Users/kirstenziman/Desktop/Desktop/DIDEC_entire_corpus/analysis_3/STIM_SET_2/0_1592083.bmppp99_L1V1_freeview_veridical_mapOnly.mp4","","",""
"","null","html-keyboard-response","76","249822","0.0-76.0","<span style=""color:Black; font-size:50px;"">Agent B","null","","","","","","",""
"","null","video-keyboard-response","77","252915","0.0-77.0","","null","","Agent B","scrambled","/Users/kirstenziman/Desktop/Desktop/DIDEC_entire_corpus/analysis_3/STIM_SET_2/0_1592083.bmppp99_L1V1_freeview_scrambled_mapOnly.mp4","","",""
"","","call-function","78","252915","0.0-78.0","","","","","","","","",""
"","3042.7999999821186","survey-likert","79","255958","0.0-79.0","","","","","","","{""judgement"":1}","[0]","0"
"","1372.199999988079","survey-likert","80","257331","0.0-80.0","","","","","","","{""confidence"":2}","[0]",""
"","","call-function","81","257332","0.0-81.0","","","","","","","","",""
"","null","html-keyboard-response","82","260333","0.0-82.0","<span style=""color:Black; font-size:50px;"">Agent A","null","","","","","","",""
"","null","video-keyboard-response","83","263439","0.0-83.0","","null","","Agent A","scrambled","/Users/kirstenziman/Desktop/Desktop/DIDEC_entire_corpus/analysis_3/STIM_SET_2/0_1592193.bmppp70_L1V1_freeview_scrambled_mapOnly.mp4","","",""
"","null","html-keyboard-response","84","266440","0.0-84.0","<span style=""color:Black; font-size:50px;"">Agent B","null","","","","","","",""
"","null","video-keyboard-response","85","269511","0.0-85.0","","null","","Agent B","veridical","/Users/kirstenziman/Desktop/Desktop/DIDEC_entire_corpus/analysis_3/STIM_SET_2/0_1592193.bmppp70_L1V1_freeview_veridical_mapOnly.mp4","","",""
"","","call-function","86","269512","0.0-86.0","","","","","","","","",""
"","2858.800000011921","survey-likert","87","272371","0.0-87.0","","","","","","","{""judgement"":1}","[0]","1"
"","2731.899999976158","survey-likert","88","275104","0.0-88.0","","","","","","","{""confidence"":0}","[0]",""
"[{""page_index"":0,""viewing_time"":1385.8999999761581},{""page_index"":1,""viewing_time"":365.7000000178814},{""page_index"":2,""viewing_time"":396}]","2147.899999976158","instructions","89","277253","0.0-89.0","","","","","","","","",""
"[{""page_index"":0,""viewing_time"":386.7999999821186},{""page_index"":1,""viewing_time"":668.5999999940395},{""page_index"":2,""viewing_time"":543.5}]","1599.2999999821186","instructions","90","278853","0.0-90.0","","","","","","","","",""
"","","call-function","91","278854","0.0-91.0","","","","","","","","",""
"","null","html-keyboard-response","92","281858","0.0-92.0","<span style=""color:Black; font-size:50px;"">Agent A","null","","","","","","",""
"","null","video-keyboard-response","93","284927","0.0-93.0","","null","","Agent A","scrambled","/Users/kirstenziman/Desktop/Desktop/DIDEC_entire_corpus/analysis_3/STIM_SET_2/0_1160155.bmppp67_L1V1_freeview_scrambled_mapOnly.mp4","","",""
"","null","html-keyboard-response","94","287930","0.0-94.0","<span style=""color:Black; font-size:50px;"">Agent B","null","","","","","","",""
"","null","video-keyboard-response","95","291001","0.0-95.0","","null","","Agent B","veridical","/Users/kirstenziman/Desktop/Desktop/DIDEC_entire_corpus/analysis_3/STIM_SET_2/0_1160155.bmppp67_L1V1_freeview_veridical_mapOnly.mp4","","",""
"","","call-function","96","291002","0.0-96.0","","","","","","","","",""
"","2081.199999988079","survey-likert","97","293084","0.0-97.0","","","","","","","{""judgement"":1}","[0]","1"
"","1622.300000011921","survey-likert","98","294707","0.0-98.0","","","","","","","{""confidence"":2}","[0]",""
"","","call-function","99","294707","0.0-99.0","","","","","","","","",""
"","null","html-keyboard-response","100","297711","0.0-100.0","<span style=""color:Black; font-size:50px;"">Agent A","null","","","","","","",""
"","null","video-keyboard-response","101","300784","0.0-101.0","","null","","Agent A","veridical","/Users/kirstenziman/Desktop/Desktop/DIDEC_entire_corpus/analysis_3/STIM_SET_2/0_713328.bmppp62_L1V1_freeview_veridical_mapOnly.mp4","","",""
"","null","html-keyboard-response","102","303789","0.0-102.0","<span style=""color:Black; font-size:50px;"">Agent B","null","","","","","","",""
"","null","video-keyboard-response","103","306866","0.0-103.0","","null","","Agent B","scrambled","/Users/kirstenziman/Desktop/Desktop/DIDEC_entire_corpus/analysis_3/STIM_SET_2/0_713328.bmppp62_L1V1_freeview_scrambled_mapOnly.mp4","","",""
"","","call-function","104","306866","0.0-104.0","","","","","","","","",""
"","1586.3999999761581","survey-likert","105","308454","0.0-105.0","","","","","","","{""judgement"":0}","[0]","0"
"","2140.9000000059605","survey-likert","106","310596","0.0-106.0","","","","","","","{""confidence"":3}","[0]",""
"","","call-function","107","310596","0.0-107.0","","","","","","","","",""
"","null","html-keyboard-response","108","313600","0.0-108.0","<span style=""color:Black; font-size:50px;"">Agent A","null","","","","","","",""
"","null","video-keyboard-response","109","316690","0.0-109.0","","null","","Agent A","veridical","/Users/kirstenziman/Desktop/Desktop/DIDEC_entire_corpus/analysis_3/STIM_SET_2/0_285715.bmppp53_L1V1_freeview_veridical_mapOnly.mp4","","",""
"","null","html-keyboard-response","110","319696","0.0-110.0","<span style=""color:Black; font-size:50px;"">Agent B","null","","","","","","",""
"","null","video-keyboard-response","111","322783","0.0-111.0","","null","","Agent B","scrambled","/Users/kirstenziman/Desktop/Desktop/DIDEC_entire_corpus/analysis_3/STIM_SET_2/0_285715.bmppp53_L1V1_freeview_scrambled_mapOnly.mp4","","",""
"","","call-function","112","322784","0.0-112.0","","","","","","","","",""
"","3025.699999988079","survey-likert","113","325810","0.0-113.0","","","","","","","{""judgement"":0}","[0]","0"
"","2385.7999999821186","survey-likert","114","328197","0.0-114.0","","","","","","","{""confidence"":0}","[0]",""
"","","call-function","115","328198","0.0-115.0","","","","","","","","",""
"","null","html-keyboard-response","116","331201","0.0-116.0","<span style=""color:Black; font-size:50px;"">Agent A","null","","","","","","",""
"","null","video-keyboard-response","117","334279","0.0-117.0","","null","","Agent A","veridical","/Users/kirstenziman/Desktop/Desktop/DIDEC_entire_corpus/analysis_3/STIM_SET_2/0_61514.bmppp67_L1V1_freeview_veridical_mapOnly.mp4","","",""
"","null","html-keyboard-response","118","337285","0.0-118.0","<span style=""color:Black; font-size:50px;"">Agent B","null","","","","","","",""
"","null","video-keyboard-response","119","340362","0.0-119.0","","null","","Agent B","scrambled","/Users/kirstenziman/Desktop/Desktop/DIDEC_entire_corpus/analysis_3/STIM_SET_2/0_61514.bmppp67_L1V1_freeview_scrambled_mapOnly.mp4","","",""
"","","call-function","120","340362","0.0-120.0","","","","","","","","",""
"","1727","survey-likert","121","342090","0.0-121.0","","","","","","","{""judgement"":0}","[0]","0"
"","2219.300000011921","survey-likert","122","344311","0.0-122.0","","","","","","","{""confidence"":3}","[0]",""
"","","call-function","123","344311","0.0-123.0","","","","","","","","",""
"","null","html-keyboard-response","124","347316","0.0-124.0","<span style=""color:Black; font-size:50px;"">Agent A","null","","","","","","",""
"","null","video-keyboard-response","125","350377","0.0-125.0","","null","","Agent A","scrambled","/Users/kirstenziman/Desktop/Desktop/DIDEC_entire_corpus/analysis_3/STIM_SET_2/0_1160168.bmppp96_L1V1_freeview_scrambled_mapOnly.mp4","","",""
"","null","html-keyboard-response","126","353382","0.0-126.0","<span style=""color:Black; font-size:50px;"">Agent B","null","","","","","","",""
"","null","video-keyboard-response","127","356445","0.0-127.0","","null","","Agent B","veridical","/Users/kirstenziman/Desktop/Desktop/DIDEC_entire_corpus/analysis_3/STIM_SET_2/0_1160168.bmppp96_L1V1_freeview_veridical_mapOnly.mp4","","",""
"","","call-function","128","356445","0.0-128.0","","","","","","","","",""
"","2257.800000011921","survey-likert","129","358703","0.0-129.0","","","","","","","{""judgement"":1}","[0]","1"
"","2302.300000011921","survey-likert","130","361007","0.0-130.0","","","","","","","{""confidence"":1}","[0]",""
"","","call-function","131","361007","0.0-131.0","","","","","","","","",""
"","null","html-keyboard-response","132","364012","0.0-132.0","<span style=""color:Black; font-size:50px;"">Agent A","null","","","","","","",""
"","null","video-keyboard-response","133","367138","0.0-133.0","","null","","Agent A","scrambled","/Users/kirstenziman/Desktop/Desktop/DIDEC_entire_corpus/analysis_3/STIM_SET_2/0_1592499.bmppp152_L1V1_freeview_scrambled_mapOnly.mp4","","",""
"","null","html-keyboard-response","134","370141","0.0-134.0","<span style=""color:Black; font-size:50px;"">Agent B","null","","","","","","",""
"","null","video-keyboard-response","135","373222","0.0-135.0","","null","","Agent B","veridical","/Users/kirstenziman/Desktop/Desktop/DIDEC_entire_corpus/analysis_3/STIM_SET_2/0_1592499.bmppp152_L1V1_freeview_veridical_mapOnly.mp4","","",""
"","","call-function","136","373222","0.0-136.0","","","","","","","","",""
"","1554","survey-likert","137","374778","0.0-137.0","","","","","","","{""judgement"":1}","[0]","1"
"","1995.300000011921","survey-likert","138","376774","0.0-138.0","","","","","","","{""confidence"":3}","[0]",""
"","","call-function","139","376775","0.0-139.0","","","","","","","","",""
"","null","html-keyboard-response","140","379778","0.0-140.0","<span style=""color:Black; font-size:50px;"">Agent A","null","","","","","","",""
"","null","video-keyboard-response","141","382861","0.0-141.0","","null","","Agent A","scrambled","/Users/kirstenziman/Desktop/Desktop/DIDEC_entire_corpus/analysis_3/STIM_SET_2/0_1592038.bmppp94_L1V1_freeview_scrambled_mapOnly.mp4","","",""
"","null","html-keyboard-response","142","385867","0.0-142.0","<span style=""color:Black; font-size:50px;"">Agent B","null","","","","","","",""
"","null","video-keyboard-response","143","388946","0.0-143.0","","null","","Agent B","veridical","/Users/kirstenziman/Desktop/Desktop/DIDEC_entire_corpus/analysis_3/STIM_SET_2/0_1592038.bmppp94_L1V1_freeview_veridical_mapOnly.mp4","","",""
"","","call-function","144","388946","0.0-144.0","","","","","","","","",""
"","2244.699999988079","survey-likert","145","391193","0.0-145.0","","","","","","","{""judgement"":1}","[0]","1"
"","2769.0999999940395","survey-likert","146","393963","0.0-146.0","","","","","","","{""confidence"":3}","[0]",""
"","","call-function","147","393964","0.0-147.0","","","","","","","","",""
"","null","html-keyboard-response","148","396967","0.0-148.0","<span style=""color:Black; font-size:50px;"">Agent A","null","","","","","","",""
"","null","video-keyboard-response","149","400042","0.0-149.0","","null","","Agent A","scrambled","/Users/kirstenziman/Desktop/Desktop/DIDEC_entire_corpus/analysis_3/STIM_SET_2/0_1159609.bmppp79_L1V1_freeview_scrambled_mapOnly.mp4","","",""
"","null","html-keyboard-response","150","403045","0.0-150.0","<span style=""color:Black; font-size:50px;"">Agent B","null","","","","","","",""
"","null","video-keyboard-response","151","406291","0.0-151.0","","null","","Agent B","veridical","/Users/kirstenziman/Desktop/Desktop/DIDEC_entire_corpus/analysis_3/STIM_SET_2/0_1159609.bmppp79_L1V1_freeview_veridical_mapOnly.mp4","","",""
"","","call-function","152","406291","0.0-152.0","","","","","","","","",""
"","2815.5","survey-likert","153","409107","0.0-153.0","","","","","","","{""judgement"":1}","[0]","1"
"","1873.8999999761581","survey-likert","154","410982","0.0-154.0","","","","","","","{""confidence"":3}","[0]",""
"","","call-function","155","410983","0.0-155.0","","","","","","","","",""
"","null","html-keyboard-response","156","413987","0.0-156.0","<span style=""color:Black; font-size:50px;"">Agent A","null","","","","","","",""
"","null","video-keyboard-response","157","417033","0.0-157.0","","null","","Agent A","scrambled","/Users/kirstenziman/Desktop/Desktop/DIDEC_entire_corpus/analysis_3/STIM_SET_2/0_1159813.bmppp54_L1V1_freeview_scrambled_mapOnly.mp4","","",""
"","null","html-keyboard-response","158","420037","0.0-158.0","<span style=""color:Black; font-size:50px;"">Agent B","null","","","","","","",""
"","null","video-keyboard-response","159","423092","0.0-159.0","","null","","Agent B","veridical","/Users/kirstenziman/Desktop/Desktop/DIDEC_entire_corpus/analysis_3/STIM_SET_2/0_1159813.bmppp54_L1V1_freeview_veridical_mapOnly.mp4","","",""
"","","call-function","160","423092","0.0-160.0","","","","","","","","",""
"","2523.0999999940395","survey-likert","161","425616","0.0-161.0","","","","","","","{""judgement"":1}","[0]","1"
"","1695.0999999940395","survey-likert","162","427312","0.0-162.0","","","","","","","{""confidence"":2}","[0]",""
"","","call-function","163","427313","0.0-163.0","","","","","","","","",""
"","null","html-keyboard-response","164","430317","0.0-164.0","<span style=""color:Black; font-size:50px;"">Agent A","null","","","","","","",""
"","null","video-keyboard-response","165","433396","0.0-165.0","","null","","Agent A","veridical","/Users/kirstenziman/Desktop/Desktop/DIDEC_entire_corpus/analysis_3/STIM_SET_2/0_1160049.bmppp90_L1V1_freeview_veridical_mapOnly.mp4","","",""
"","null","html-keyboard-response","166","436401","0.0-166.0","<span style=""color:Black; font-size:50px;"">Agent B","null","","","","","","",""
"","null","video-keyboard-response","167","439546","0.0-167.0","","null","","Agent B","scrambled","/Users/kirstenziman/Desktop/Desktop/DIDEC_entire_corpus/analysis_3/STIM_SET_2/0_1160049.bmppp90_L1V1_freeview_scrambled_mapOnly.mp4","","",""
"","","call-function","168","439547","0.0-168.0","","","","","","","","",""
"","3033.800000011921","survey-likert","169","442582","0.0-169.0","","","","","","","{""judgement"":1}","[0]","0"
"","1915","survey-likert","170","444498","0.0-170.0","","","","","","","{""confidence"":2}","[0]",""
"[{""page_index"":0,""viewing_time"":961.2999999821186},{""page_index"":1,""viewing_time"":671.1000000238419},{""page_index"":2,""viewing_time"":451.5}]","2084.0999999940395","instructions","171","446582","0.0-171.0","","","","","","","","",""
"[{""page_index"":0,""viewing_time"":398.09999999403954},{""page_index"":1,""viewing_time"":428.59999999403954},{""page_index"":2,""viewing_time"":492.90000000596046}]","1319.8999999761581","instructions","172","447903","0.0-172.0","","","","","","","","",""
"","","call-function","173","447903","0.0-173.0","","","","","","","","",""
"","null","html-keyboard-response","174","450908","0.0-174.0","<span style=""color:Black; font-size:50px;"">Agent A","null","","","","","","",""
"","null","video-keyboard-response","175","453964","0.0-175.0","","null","","Agent A","scrambled","/Users/kirstenziman/Desktop/Desktop/DIDEC_entire_corpus/analysis_3/STIM_SET_2/0_1592254.bmppp95_L1V1_freeview_scrambled_mapOnly.mp4","","",""
"","null","html-keyboard-response","176","456968","0.0-176.0","<span style=""color:Black; font-size:50px;"">Agent B","null","","","","","","",""
"","null","video-keyboard-response","177","460047","0.0-177.0","","null","","Agent B","veridical","/Users/kirstenziman/Desktop/Desktop/DIDEC_entire_corpus/analysis_3/STIM_SET_2/0_1592254.bmppp95_L1V1_freeview_veridical_mapOnly.mp4","","",""
"","","call-function","178","460048","0.0-178.0","","","","","","","","",""
"","2128.5999999940395","survey-likert","179","462178","0.0-179.0","","","","","","","{""judgement"":0}","[0]","1"
"","1542.199999988079","survey-likert","180","463722","0.0-180.0","","","","","","","{""confidence"":2}","[0]",""
"","","call-function","181","463722","0.0-181.0","","","","","","","","",""
"","null","html-keyboard-response","182","466727","0.0-182.0","<span style=""color:Black; font-size:50px;"">Agent A","null","","","","","","",""
"","null","video-keyboard-response","183","469792","0.0-183.0","","null","","Agent A","veridical","/Users/kirstenziman/Desktop/Desktop/DIDEC_entire_corpus/analysis_3/STIM_SET_2/0_498286.bmppp94_L1V1_freeview_veridical_mapOnly.mp4","","",""
"","null","html-keyboard-response","184","472794","0.0-184.0","<span style=""color:Black; font-size:50px;"">Agent B","null","","","","","","",""
"","null","video-keyboard-response","185","475869","0.0-185.0","","null","","Agent B","scrambled","/Users/kirstenziman/Desktop/Desktop/DIDEC_entire_corpus/analysis_3/STIM_SET_2/0_498286.bmppp94_L1V1_freeview_scrambled_mapOnly.mp4","","",""
"","","call-function","186","475870","0.0-186.0","","","","","","","","",""
"","1878.5","survey-likert","187","477750","0.0-187.0","","","","","","","{""judgement"":0}","[0]","0"
"","1848.4000000059605","survey-likert","188","479600","0.0-188.0","","","","","","","{""confidence"":1}","[0]",""
"","","call-function","189","479601","0.0-189.0","","","","","","","","",""
"","null","html-keyboard-response","190","482604","0.0-190.0","<span style=""color:Black; font-size:50px;"">Agent A","null","","","","","","",""
"","null","video-keyboard-response","191","485685","0.0-191.0","","null","","Agent A","scrambled","/Users/kirstenziman/Desktop/Desktop/DIDEC_entire_corpus/analysis_3/STIM_SET_2/0_713135.bmppp99_L1V1_freeview_scrambled_mapOnly.mp4","","",""
"","null","html-keyboard-response","192","488688","0.0-192.0","<span style=""color:Black; font-size:50px;"">Agent B","null","","","","","","",""
"","null","video-keyboard-response","193","491786","0.0-193.0","","null","","Agent B","veridical","/Users/kirstenziman/Desktop/Desktop/DIDEC_entire_corpus/analysis_3/STIM_SET_2/0_713135.bmppp99_L1V1_freeview_veridical_mapOnly.mp4","","",""
"","","call-function","194","491787","0.0-194.0","","","","","","","","",""
"","2019.5","survey-likert","195","493807","0.0-195.0","","","","","","","{""judgement"":1}","[0]","1"
"","1297.199999988079","survey-likert","196","495106","0.0-196.0","","","","","","","{""confidence"":3}","[0]",""
"","","call-function","197","495106","0.0-197.0","","","","","","","","",""
"","null","html-keyboard-response","198","498109","0.0-198.0","<span style=""color:Black; font-size:50px;"">Agent A","null","","","","","","",""
"","null","video-keyboard-response","199","501173","0.0-199.0","","null","","Agent A","veridical","/Users/kirstenziman/Desktop/Desktop/DIDEC_entire_corpus/analysis_3/STIM_SET_2/0_498281.bmppp90_L1V1_freeview_veridical_mapOnly.mp4","","",""
"","null","html-keyboard-response","200","504176","0.0-200.0","<span style=""color:Black; font-size:50px;"">Agent B","null","","","","","","",""
"","null","video-keyboard-response","201","507236","0.0-201.0","","null","","Agent B","scrambled","/Users/kirstenziman/Desktop/Desktop/DIDEC_entire_corpus/analysis_3/STIM_SET_2/0_498281.bmppp90_L1V1_freeview_scrambled_mapOnly.mp4","","",""
"","","call-function","202","507236","0.0-202.0","","","","","","","","",""
"","2237.4000000059605","survey-likert","203","509480","0.0-203.0","","","","","","","{""judgement"":0}","[0]","0"
"","1345.800000011921","survey-likert","204","510827","0.0-204.0","","","","","","","{""confidence"":2}","[0]",""
"","","call-function","205","510828","0.0-205.0","","","","","","","","",""
"","null","html-keyboard-response","206","513829","0.0-206.0","<span style=""color:Black; font-size:50px;"">Agent A","null","","","","","","",""
"","null","video-keyboard-response","207","516903","0.0-207.0","","null","","Agent A","veridical","/Users/kirstenziman/Desktop/Desktop/DIDEC_entire_corpus/analysis_3/STIM_SET_2/0_498153.bmppp86_L1V1_freeview_veridical_mapOnly.mp4","","",""
"","null","html-keyboard-response","208","519907","0.0-208.0","<span style=""color:Black; font-size:50px;"">Agent B","null","","","","","","",""
"","null","video-keyboard-response","209","522986","0.0-209.0","","null","","Agent B","scrambled","/Users/kirstenziman/Desktop/Desktop/DIDEC_entire_corpus/analysis_3/STIM_SET_2/0_498153.bmppp86_L1V1_freeview_scrambled_mapOnly.mp4","","",""
"","","call-function","210","522987","0.0-210.0","","","","","","","","",""
"","2156.2000000178814","survey-likert","211","525145","0.0-211.0","","","","","","","{""judgement"":0}","[0]","0"
"","1653.0999999940395","survey-likert","212","526799","0.0-212.0","","","","","","","{""confidence"":3}","[0]",""
"","","call-function","213","526800","0.0-213.0","","","","","","","","",""
"","null","html-keyboard-response","214","529804","0.0-214.0","<span style=""color:Black; font-size:50px;"">Agent A","null","","","","","","",""
"","null","video-keyboard-response","215","532872","0.0-215.0","","null","","Agent A","scrambled","/Users/kirstenziman/Desktop/Desktop/DIDEC_entire_corpus/analysis_3/STIM_SET_2/0_713028.bmppp70_L1V1_freeview_scrambled_mapOnly.mp4","","",""
"","null","html-keyboard-response","216","535877","0.0-216.0","<span style=""color:Black; font-size:50px;"">Agent B","null","","","","","","",""
"","null","video-keyboard-response","217","538955","0.0-217.0","","null","","Agent B","veridical","/Users/kirstenziman/Desktop/Desktop/DIDEC_entire_corpus/analysis_3/STIM_SET_2/0_713028.bmppp70_L1V1_freeview_veridical_mapOnly.mp4","","",""
"","","call-function","218","538956","0.0-218.0","","","","","","","","",""
"","2157","survey-likert","219","541114","0.0-219.0","","","","","","","{""judgement"":1}","[0]","1"
"","1743.5999999940395","survey-likert","220","542860","0.0-220.0","","","","","","","{""confidence"":2}","[0]",""
"","","call-function","221","542861","0.0-221.0","","","","","","","","",""
"","null","html-keyboard-response","222","545862","0.0-222.0","<span style=""color:Black; font-size:50px;"">Agent A","null","","","","","","",""
"","null","video-keyboard-response","223","548946","0.0-223.0","","null","","Agent A","veridical","/Users/kirstenziman/Desktop/Desktop/DIDEC_entire_corpus/analysis_3/STIM_SET_2/0_1160180.bmppp61_L1V1_freeview_veridical_mapOnly.mp4","","",""
"","null","html-keyboard-response","224","551951","0.0-224.0","<span style=""color:Black; font-size:50px;"">Agent B","null","","","","","","",""
"","null","video-keyboard-response","225","555044","0.0-225.0","","null","","Agent B","scrambled","/Users/kirstenziman/Desktop/Desktop/DIDEC_entire_corpus/analysis_3/STIM_SET_2/0_1160180.bmppp61_L1V1_freeview_scrambled_mapOnly.mp4","","",""
"","","call-function","226","555045","0.0-226.0","","","","","","","","",""
"","3357.5999999940395","survey-likert","227","558403","0.0-227.0","","","","","","","{""judgement"":0}","[0]","0"
"","1148.3999999761581","survey-likert","228","559552","0.0-228.0","","","","","","","{""confidence"":1}","[0]",""
"","","call-function","229","559553","0.0-229.0","","","","","","","","",""
"","null","html-keyboard-response","230","562557","0.0-230.0","<span style=""color:Black; font-size:50px;"">Agent A","null","","","","","","",""
"","null","video-keyboard-response","231","565694","0.0-231.0","","null","","Agent A","veridical","/Users/kirstenziman/Desktop/Desktop/DIDEC_entire_corpus/analysis_3/STIM_SET_2/0_1159882.bmppp96_L1V1_freeview_veridical_mapOnly.mp4","","",""
"","null","html-keyboard-response","232","568699","0.0-232.0","<span style=""color:Black; font-size:50px;"">Agent B","null","","","","","","",""
"","null","video-keyboard-response","233","571773","0.0-233.0","","null","","Agent B","scrambled","/Users/kirstenziman/Desktop/Desktop/DIDEC_entire_corpus/analysis_3/STIM_SET_2/0_1159882.bmppp96_L1V1_freeview_scrambled_mapOnly.mp4","","",""
"","","call-function","234","571773","0.0-234.0","","","","","","","","",""
"","3616.4000000059605","survey-likert","235","575390","0.0-235.0","","","","","","","{""judgement"":0}","[0]","0"
"","1248.0999999940395","survey-likert","236","576641","0.0-236.0","","","","","","","{""confidence"":0}","[0]",""
"","","call-function","237","576641","0.0-237.0","","","","","","","","",""
"","null","html-keyboard-response","238","579644","0.0-238.0","<span style=""color:Black; font-size:50px;"">Agent A","null","","","","","","",""
"","null","video-keyboard-response","239","582711","0.0-239.0","","null","","Agent A","veridical","/Users/kirstenziman/Desktop/Desktop/DIDEC_entire_corpus/analysis_3/STIM_SET_2/0_713146.bmppp61_L1V1_freeview_veridical_mapOnly.mp4","","",""
"","null","html-keyboard-response","240","585713","0.0-240.0","<span style=""color:Black; font-size:50px;"">Agent B","null","","","","","","",""
"","null","video-keyboard-response","241","588796","0.0-241.0","","null","","Agent B","scrambled","/Users/kirstenziman/Desktop/Desktop/DIDEC_entire_corpus/analysis_3/STIM_SET_2/0_713146.bmppp61_L1V1_freeview_scrambled_mapOnly.mp4","","",""
"","","call-function","242","588797","0.0-242.0","","","","","","","","",""
"","1946.2000000178814","survey-likert","243","590744","0.0-243.0","","","","","","","{""judgement"":0}","[0]","0"
"","2438.7999999821186","survey-likert","244","593185","0.0-244.0","","","","","","","{""confidence"":2}","[0]",""
"","","call-function","245","593186","0.0-245.0","","","","","","","","",""
"","null","html-keyboard-response","246","596192","0.0-246.0","<span style=""color:Black; font-size:50px;"">Agent A","null","","","","","","",""
"","null","video-keyboard-response","247","599248","0.0-247.0","","null","","Agent A","veridical","/Users/kirstenziman/Desktop/Desktop/DIDEC_entire_corpus/analysis_3/STIM_SET_2/0_498155.bmppp90_L1V1_freeview_veridical_mapOnly.mp4","","",""
"","null","html-keyboard-response","248","602252","0.0-248.0","<span style=""color:Black; font-size:50px;"">Agent B","null","","","","","","",""
"","null","video-keyboard-response","249","605305","0.0-249.0","","null","","Agent B","scrambled","/Users/kirstenziman/Desktop/Desktop/DIDEC_entire_corpus/analysis_3/STIM_SET_2/0_498155.bmppp90_L1V1_freeview_scrambled_mapOnly.mp4","","",""
"","","call-function","250","605306","0.0-250.0","","","","","","","","",""
"","2321.0999999940395","survey-likert","251","607629","0.0-251.0","","","","","","","{""judgement"":0}","[0]","0"
"","1701","survey-likert","252","609331","0.0-252.0","","","","","","","{""confidence"":3}","[0]",""
"[{""page_index"":0,""viewing_time"":1771},{""page_index"":1,""viewing_time"":1721.4000000059605},{""page_index"":0,""viewing_time"":532.8000000119209},{""page_index"":1,""viewing_time"":259.19999998807907},{""page_index"":2,""viewing_time"":169.5}]","4454.300000011921","instructions","253","613786","0.0-253.0","","","","","","","","",""
"[{""page_index"":0,""viewing_time"":384.90000000596046},{""page_index"":1,""viewing_time"":471.09999999403954},{""page_index"":2,""viewing_time"":466.30000001192093}]","1322.4000000059605","instructions","254","615109","0.0-254.0","","","","","","","","",""
"","","call-function","255","615110","0.0-255.0","","","","","","","","",""
"","null","html-keyboard-response","256","618111","0.0-256.0","<span style=""color:Black; font-size:50px;"">Agent A","null","","","","","","",""
"","null","video-keyboard-response","257","621173","0.0-257.0","","null","","Agent A","veridical","/Users/kirstenziman/Desktop/Desktop/DIDEC_entire_corpus/analysis_3/STIM_SET_2/0_150458.bmppp82_L1V1_freeview_veridical_mapOnly.mp4","","",""
"","null","html-keyboard-response","258","624179","0.0-258.0","<span style=""color:Black; font-size:50px;"">Agent B","null","","","","","","",""
"","null","video-keyboard-response","259","627251","0.0-259.0","","null","","Agent B","scrambled","/Users/kirstenziman/Desktop/Desktop/DIDEC_entire_corpus/analysis_3/STIM_SET_2/0_150458.bmppp82_L1V1_freeview_scrambled_mapOnly.mp4","","",""
"","","call-function","260","627251","0.0-260.0","","","","","","","","",""
"","2218.300000011921","survey-likert","261","629471","0.0-261.0","","","","","","","{""judgement"":1}","[0]","0"
"","1216.4000000059605","survey-likert","262","630689","0.0-262.0","","","","","","","{""confidence"":1}","[0]",""
"","","call-function","263","630689","0.0-263.0","","","","","","","","",""
"","null","html-keyboard-response","264","633694","0.0-264.0","<span style=""color:Black; font-size:50px;"">Agent A","null","","","","","","",""
"","null","video-keyboard-response","265","636766","0.0-265.0","","null","","Agent A","veridical","/Users/kirstenziman/Desktop/Desktop/DIDEC_entire_corpus/analysis_3/STIM_SET_2/0_1159397.bmppp86_L1V1_freeview_veridical_mapOnly.mp4","","",""
"","null","html-keyboard-response","266","639770","0.0-266.0","<span style=""color:Black; font-size:50px;"">Agent B","null","","","","","","",""
"","null","video-keyboard-response","267","642882","0.0-267.0","","null","","Agent B","scrambled","/Users/kirstenziman/Desktop/Desktop/DIDEC_entire_corpus/analysis_3/STIM_SET_2/0_1159397.bmppp86_L1V1_freeview_scrambled_mapOnly.mp4","","",""
"","","call-function","268","642883","0.0-268.0","","","","","","","","",""
"","3957.899999976158","survey-likert","269","646841","0.0-269.0","","","","","","","{""judgement"":1}","[0]","0"
"","2417.9000000059605","survey-likert","270","649260","0.0-270.0","","","","","","","{""confidence"":2}","[0]",""
"","","call-function","271","649261","0.0-271.0","","","","","","","","",""
"","null","html-keyboard-response","272","652262","0.0-272.0","<span style=""color:Black; font-size:50px;"">Agent A","null","","","","","","",""
"","null","video-keyboard-response","273","655340","0.0-273.0","","null","","Agent A","veridical","/Users/kirstenziman/Desktop/Desktop/DIDEC_entire_corpus/analysis_3/STIM_SET_2/0_150374.bmppp96_L1V1_freeview_veridical_mapOnly.mp4","","",""
"","null","html-keyboard-response","274","658346","0.0-274.0","<span style=""color:Black; font-size:50px;"">Agent B","null","","","","","","",""
"","null","video-keyboard-response","275","661423","0.0-275.0","","null","","Agent B","scrambled","/Users/kirstenziman/Desktop/Desktop/DIDEC_entire_corpus/analysis_3/STIM_SET_2/0_150374.bmppp96_L1V1_freeview_scrambled_mapOnly.mp4","","",""
"","","call-function","276","661424","0.0-276.0","","","","","","","","",""
"","1637.5999999940395","survey-likert","277","663063","0.0-277.0","","","","","","","{""judgement"":0}","[0]","0"
"","4935.700000017881","survey-likert","278","668000","0.0-278.0","","","","","","","{""confidence"":3}","[0]",""
"","","call-function","279","668001","0.0-279.0","","","","","","","","",""
"","null","html-keyboard-response","280","671004","0.0-280.0","<span style=""color:Black; font-size:50px;"">Agent A","null","","","","","","",""
"","null","video-keyboard-response","281","674068","0.0-281.0","","null","","Agent A","veridical","/Users/kirstenziman/Desktop/Desktop/DIDEC_entire_corpus/analysis_3/STIM_SET_2/0_498372.bmppp82_L1V1_freeview_veridical_mapOnly.mp4","","",""
"","null","html-keyboard-response","282","677071","0.0-282.0","<span style=""color:Black; font-size:50px;"">Agent B","null","","","","","","",""
"","null","video-keyboard-response","283","680156","0.0-283.0","","null","","Agent B","scrambled","/Users/kirstenziman/Desktop/Desktop/DIDEC_entire_corpus/analysis_3/STIM_SET_2/0_498372.bmppp82_L1V1_freeview_scrambled_mapOnly.mp4","","",""
"","","call-function","284","680157","0.0-284.0","","","","","","","","",""
"","2694.9000000059605","survey-likert","285","682853","0.0-285.0","","","","","","","{""judgement"":1}","[0]","0"
"","2638.5999999940395","survey-likert","286","685493","0.0-286.0","","","","","","","{""confidence"":2}","[0]",""
"","","call-function","287","685493","0.0-287.0","","","","","","","","",""
"","null","html-keyboard-response","288","688496","0.0-288.0","<span style=""color:Black; font-size:50px;"">Agent A","null","","","","","","",""
"","null","video-keyboard-response","289","691571","0.0-289.0","","null","","Agent A","scrambled","/Users/kirstenziman/Desktop/Desktop/DIDEC_entire_corpus/analysis_3/STIM_SET_2/0_1591954.bmppp54_L1V1_freeview_scrambled_mapOnly.mp4","","",""
"","null","html-keyboard-response","290","694575","0.0-290.0","<span style=""color:Black; font-size:50px;"">Agent B","null","","","","","","",""
"","null","video-keyboard-response","291","697654","0.0-291.0","","null","","Agent B","veridical","/Users/kirstenziman/Desktop/Desktop/DIDEC_entire_corpus/analysis_3/STIM_SET_2/0_1591954.bmppp54_L1V1_freeview_veridical_mapOnly.mp4","","",""
"","","call-function","292","697655","0.0-292.0","","","","","","","","",""
"","1792.9000000059605","survey-likert","293","699448","0.0-293.0","","","","","","","{""judgement"":1}","[0]","1"
"","1800.5","survey-likert","294","701250","0.0-294.0","","","","","","","{""confidence"":0}","[0]",""
"","","call-function","295","701250","0.0-295.0","","","","","","","","",""
"","null","html-keyboard-response","296","704251","0.0-296.0","<span style=""color:Black; font-size:50px;"">Agent A","null","","","","","","",""
"","null","video-keyboard-response","297","707326","0.0-297.0","","null","","Agent A","veridical","/Users/kirstenziman/Desktop/Desktop/DIDEC_entire_corpus/analysis_3/STIM_SET_2/0_498253.bmppp54_L1V1_freeview_veridical_mapOnly.mp4","","",""
"","null","html-keyboard-response","298","710331","0.0-298.0","<span style=""color:Black; font-size:50px;"">Agent B","null","","","","","","",""
"","null","video-keyboard-response","299","713405","0.0-299.0","","null","","Agent B","scrambled","/Users/kirstenziman/Desktop/Desktop/DIDEC_entire_corpus/analysis_3/STIM_SET_2/0_498253.bmppp54_L1V1_freeview_scrambled_mapOnly.mp4","","",""
"","","call-function","300","713405","0.0-300.0","","","","","","","","",""
"","2641.0999999940395","survey-likert","301","716047","0.0-301.0","","","","","","","{""judgement"":0}","[0]","0"
"","1544.4000000059605","survey-likert","302","717593","0.0-302.0","","","","","","","{""confidence"":2}","[0]",""
"","","call-function","303","717594","0.0-303.0","","","","","","","","",""
"","null","html-keyboard-response","304","720597","0.0-304.0","<span style=""color:Black; font-size:50px;"">Agent A","null","","","","","","",""
"","null","video-keyboard-response","305","723666","0.0-305.0","","null","","Agent A","scrambled","/Users/kirstenziman/Desktop/Desktop/DIDEC_entire_corpus/analysis_3/STIM_SET_2/0_713142.bmppp79_L1V1_freeview_scrambled_mapOnly.mp4","","",""
"","null","html-keyboard-response","306","726672","0.0-306.0","<span style=""color:Black; font-size:50px;"">Agent B","null","","","","","","",""
"","null","video-keyboard-response","307","729731","0.0-307.0","","null","","Agent B","veridical","/Users/kirstenziman/Desktop/Desktop/DIDEC_entire_corpus/analysis_3/STIM_SET_2/0_713142.bmppp79_L1V1_freeview_veridical_mapOnly.mp4","","",""
"","","call-function","308","729733","0.0-308.0","","","","","","","","",""
"","1520.699999988079","survey-likert","309","731255","0.0-309.0","","","","","","","{""judgement"":1}","[0]","1"
"","1647.800000011921","survey-likert","310","732904","0.0-310.0","","","","","","","{""confidence"":3}","[0]",""
"","","call-function","311","732904","0.0-311.0","","","","","","","","",""
"","null","html-keyboard-response","312","735909","0.0-312.0","<span style=""color:Black; font-size:50px;"">Agent A","null","","","","","","",""
"","null","video-keyboard-response","313","738980","0.0-313.0","","null","","Agent A","scrambled","/Users/kirstenziman/Desktop/Desktop/DIDEC_entire_corpus/analysis_3/STIM_SET_2/0_713512.bmppp54_L1V1_freeview_scrambled_mapOnly.mp4","","",""
"","null","html-keyboard-response","314","741983","0.0-314.0","<span style=""color:Black; font-size:50px;"">Agent B","null","","","","","","",""
"","null","video-keyboard-response","315","745067","0.0-315.0","","null","","Agent B","veridical","/Users/kirstenziman/Desktop/Desktop/DIDEC_entire_corpus/analysis_3/STIM_SET_2/0_713512.bmppp54_L1V1_freeview_veridical_mapOnly.mp4","","",""
"","","call-function","316","745067","0.0-316.0","","","","","","","","",""
"","2082","survey-likert","317","747151","0.0-317.0","","","","","","","{""judgement"":1}","[0]","1"
"","3109.0999999940395","survey-likert","318","750262","0.0-318.0","","","","","","","{""confidence"":2}","[0]",""
"","","call-function","319","750263","0.0-319.0","","","","","","","","",""
"","null","html-keyboard-response","320","753267","0.0-320.0","<span style=""color:Black; font-size:50px;"">Agent A","null","","","","","","",""
"","null","video-keyboard-response","321","756357","0.0-321.0","","null","","Agent A","veridical","/Users/kirstenziman/Desktop/Desktop/DIDEC_entire_corpus/analysis_3/STIM_SET_2/0_1159434.bmppp70_L1V1_freeview_veridical_mapOnly.mp4","","",""
"","null","html-keyboard-response","322","759363","0.0-322.0","<span style=""color:Black; font-size:50px;"">Agent B","null","","","","","","",""
"","null","video-keyboard-response","323","762557","0.0-323.0","","null","","Agent B","scrambled","/Users/kirstenziman/Desktop/Desktop/DIDEC_entire_corpus/analysis_3/STIM_SET_2/0_1159434.bmppp70_L1V1_freeview_scrambled_mapOnly.mp4","","",""
"","","call-function","324","762558","0.0-324.0","","","","","","","","",""
"","1694.699999988079","survey-likert","325","764253","0.0-325.0","","","","","","","{""judgement"":0}","[0]","0"
"","2454.0999999940395","survey-likert","326","766709","0.0-326.0","","","","","","","{""confidence"":3}","[0]",""
"","","call-function","327","766710","0.0-327.0","","","","","","","","",""
"","null","html-keyboard-response","328","769714","0.0-328.0","<span style=""color:Black; font-size:50px;"">Agent A","null","","","","","","",""
"","null","video-keyboard-response","329","772795","0.0-329.0","","null","","Agent A","veridical","/Users/kirstenziman/Desktop/Desktop/DIDEC_entire_corpus/analysis_3/STIM_SET_2/0_498396.bmppp79_L1V1_freeview_veridical_mapOnly.mp4","","",""
"","null","html-keyboard-response","330","775797","0.0-330.0","<span style=""color:Black; font-size:50px;"">Agent B","null","","","","","","",""
"","null","video-keyboard-response","331","778877","0.0-331.0","","null","","Agent B","scrambled","/Users/kirstenziman/Desktop/Desktop/DIDEC_entire_corpus/analysis_3/STIM_SET_2/0_498396.bmppp79_L1V1_freeview_scrambled_mapOnly.mp4","","",""
"","","call-function","332","778877","0.0-332.0","","","","","","","","",""
"","2472.399999976158","survey-likert","333","781351","0.0-333.0","","","","","","","{""judgement"":0}","[0]","0"
"","2301.7999999821186","survey-likert","334","783655","0.0-334.0","","","","","","","{""confidence"":0}","[0]",""
"[{""page_index"":0,""viewing_time"":1008.8999999761581},{""page_index"":1,""viewing_time"":468.5},{""page_index"":2,""viewing_time"":248.5}]","1726","instructions","335","785382","0.0-335.0","","","","","","","","",""
"[{""page_index"":0,""viewing_time"":193.59999999403954},{""page_index"":1,""viewing_time"":478.30000001192093},{""page_index"":2,""viewing_time"":412.30000001192093}]","1084.5","instructions","336","786466","0.0-336.0","","","","","","","","",""
"","","call-function","337","786467","0.0-337.0","","","","","","","","",""
"","null","html-keyboard-response","338","789476","0.0-338.0","<span style=""color:Black; font-size:50px;"">Agent A","null","","","","","","",""
"","null","video-keyboard-response","339","792648","0.0-339.0","","null","","Agent A","veridical","/Users/kirstenziman/Desktop/Desktop/DIDEC_entire_corpus/analysis_3/STIM_SET_2/0_713749.bmppp88_L1V1_freeview_veridical_mapOnly.mp4","","",""
"","null","html-keyboard-response","340","795651","0.0-340.0","<span style=""color:Black; font-size:50px;"">Agent B","null","","","","","","",""
"","null","video-keyboard-response","341","798731","0.0-341.0","","null","","Agent B","scrambled","/Users/kirstenziman/Desktop/Desktop/DIDEC_entire_corpus/analysis_3/STIM_SET_2/0_713749.bmppp88_L1V1_freeview_scrambled_mapOnly.mp4","","",""
"","","call-function","342","798732","0.0-342.0","","","","","","","","",""
"","2153.9000000059605","survey-likert","343","800888","0.0-343.0","","","","","","","{""judgement"":0}","[0]","0"
"","1654.9000000059605","survey-likert","344","802544","0.0-344.0","","","","","","","{""confidence"":3}","[0]",""
"","","call-function","345","802545","0.0-345.0","","","","","","","","",""
"","null","html-keyboard-response","346","805550","0.0-346.0","<span style=""color:Black; font-size:50px;"">Agent A","null","","","","","","",""
"","null","video-keyboard-response","347","808625","0.0-347.0","","null","","Agent A","veridical","/Users/kirstenziman/Desktop/Desktop/DIDEC_entire_corpus/analysis_3/STIM_SET_2/0_1159724.bmppp79_L1V1_freeview_veridical_mapOnly.mp4","","",""
"","null","html-keyboard-response","348","811627","0.0-348.0","<span style=""color:Black; font-size:50px;"">Agent B","null","","","","","","",""
"","null","video-keyboard-response","349","814743","0.0-349.0","","null","","Agent B","scrambled","/Users/kirstenziman/Desktop/Desktop/DIDEC_entire_corpus/analysis_3/STIM_SET_2/0_1159724.bmppp79_L1V1_freeview_scrambled_mapOnly.mp4","","",""
"","","call-function","350","814743","0.0-350.0","","","","","","","","",""
"","2008.800000011921","survey-likert","351","816754","0.0-351.0","","","","","","","{""judgement"":0}","[0]","0"
"","1178.5","survey-likert","352","817934","0.0-352.0","","","","","","","{""confidence"":0}","[0]",""
"","","call-function","353","817935","0.0-353.0","","","","","","","","",""
"","null","html-keyboard-response","354","820939","0.0-354.0","<span style=""color:Black; font-size:50px;"">Agent A","null","","","","","","",""
"","null","video-keyboard-response","355","824016","0.0-355.0","","null","","Agent A","veridical","/Users/kirstenziman/Desktop/Desktop/DIDEC_entire_corpus/analysis_3/STIM_SET_2/0_1592033.bmppp94_L1V1_freeview_veridical_mapOnly.mp4","","",""
"","null","html-keyboard-response","356","827027","0.0-356.0","<span style=""color:Black; font-size:50px;"">Agent B","null","","","","","","",""
"","null","video-keyboard-response","357","830119","0.0-357.0","","null","","Agent B","scrambled","/Users/kirstenziman/Desktop/Desktop/DIDEC_entire_corpus/analysis_3/STIM_SET_2/0_1592033.bmppp94_L1V1_freeview_scrambled_mapOnly.mp4","","",""
"","","call-function","358","830119","0.0-358.0","","","","","","","","",""
"","1512.199999988079","survey-likert","359","831632","0.0-359.0","","","","","","","{""judgement"":0}","[0]","0"
"","1426.699999988079","survey-likert","360","833060","0.0-360.0","","","","","","","{""confidence"":3}","[0]",""
"","","call-function","361","833061","0.0-361.0","","","","","","","","",""
"","null","html-keyboard-response","362","836066","0.0-362.0","<span style=""color:Black; font-size:50px;"">Agent A","null","","","","","","",""
"","null","video-keyboard-response","363","839136","0.0-363.0","","null","","Agent A","veridical","/Users/kirstenziman/Desktop/Desktop/DIDEC_entire_corpus/analysis_3/STIM_SET_2/0_1592656.bmppp95_L1V1_freeview_veridical_mapOnly.mp4","","",""
"","null","html-keyboard-response","364","842138","0.0-364.0","<span style=""color:Black; font-size:50px;"">Agent B","null","","","","","","",""
"","null","video-keyboard-response","365","845218","0.0-365.0","","null","","Agent B","scrambled","/Users/kirstenziman/Desktop/Desktop/DIDEC_entire_corpus/analysis_3/STIM_SET_2/0_1592656.bmppp95_L1V1_freeview_scrambled_mapOnly.mp4","","",""
"","","call-function","366","845219","0.0-366.0","","","","","","","","",""
"","2421","survey-likert","367","847640","0.0-367.0","","","","","","","{""judgement"":0}","[0]","0"
"","2735.9000000059605","survey-likert","368","850378","0.0-368.0","","","","","","","{""confidence"":2}","[0]",""
"","","call-function","369","850378","0.0-369.0","","","","","","","","",""
"","null","html-keyboard-response","370","853383","0.0-370.0","<span style=""color:Black; font-size:50px;"">Agent A","null","","","","","","",""
"","null","video-keyboard-response","371","856458","0.0-371.0","","null","","Agent A","veridical","/Users/kirstenziman/Desktop/Desktop/DIDEC_entire_corpus/analysis_3/STIM_SET_2/0_285859.bmppp53_L1V1_freeview_veridical_mapOnly.mp4","","",""
"","null","html-keyboard-response","372","859461","0.0-372.0","<span style=""color:Black; font-size:50px;"">Agent B","null","","","","","","",""
"","null","video-keyboard-response","373","862568","0.0-373.0","","null","","Agent B","scrambled","/Users/kirstenziman/Desktop/Desktop/DIDEC_entire_corpus/analysis_3/STIM_SET_2/0_285859.bmppp53_L1V1_freeview_scrambled_mapOnly.mp4","","",""
"","","call-function","374","862568","0.0-374.0","","","","","","","","",""
"","1982.800000011921","survey-likert","375","864551","0.0-375.0","","","","","","","{""judgement"":0}","[0]","0"
"","1343","survey-likert","376","865895","0.0-376.0","","","","","","","{""confidence"":3}","[0]",""
"","","call-function","377","865896","0.0-377.0","","","","","","","","",""
"","null","html-keyboard-response","378","868899","0.0-378.0","<span style=""color:Black; font-size:50px;"">Agent A","null","","","","","","",""
"","null","video-keyboard-response","379","871986","0.0-379.0","","null","","Agent A","veridical","/Users/kirstenziman/Desktop/Desktop/DIDEC_entire_corpus/analysis_3/STIM_SET_2/0_1159904.bmppp88_L1V1_freeview_veridical_mapOnly.mp4","","",""
"","null","html-keyboard-response","380","874989","0.0-380.0","<span style=""color:Black; font-size:50px;"">Agent B","null","","","","","","",""
"","null","video-keyboard-response","381","878069","0.0-381.0","","null","","Agent B","scrambled","/Users/kirstenziman/Desktop/Desktop/DIDEC_entire_corpus/analysis_3/STIM_SET_2/0_1159904.bmppp88_L1V1_freeview_scrambled_mapOnly.mp4","","",""
"","","call-function","382","878070","0.0-382.0","","","","","","","","",""
"","2660.300000011921","survey-likert","383","880732","0.0-383.0","","","","","","","{""judgement"":0}","[0]","0"
"","2823.699999988079","survey-likert","384","883557","0.0-384.0","","","","","","","{""confidence"":2}","[0]",""
"","","call-function","385","883557","0.0-385.0","","","","","","","","",""
"","null","html-keyboard-response","386","886559","0.0-386.0","<span style=""color:Black; font-size:50px;"">Agent A","null","","","","","","",""
"","null","video-keyboard-response","387","889619","0.0-387.0","","null","","Agent A","veridical","/Users/kirstenziman/Desktop/Desktop/DIDEC_entire_corpus/analysis_3/STIM_SET_2/0_107909.bmppp94_L1V1_freeview_veridical_mapOnly.mp4","","",""
"","null","html-keyboard-response","388","892625","0.0-388.0","<span style=""color:Black; font-size:50px;"">Agent B","null","","","","","","",""
"","null","video-keyboard-response","389","895686","0.0-389.0","","null","","Agent B","scrambled","/Users/kirstenziman/Desktop/Desktop/DIDEC_entire_corpus/analysis_3/STIM_SET_2/0_107909.bmppp94_L1V1_freeview_scrambled_mapOnly.mp4","","",""
"","","call-function","390","895686","0.0-390.0","","","","","","","","",""
"","2115.4000000059605","survey-likert","391","897803","0.0-391.0","","","","","","","{""judgement"":0}","[0]","0"
"","2446.7999999821186","survey-likert","392","900251","0.0-392.0","","","","","","","{""confidence"":2}","[0]",""
"","","call-function","393","900252","0.0-393.0","","","","","","","","",""
"","null","html-keyboard-response","394","903254","0.0-394.0","<span style=""color:Black; font-size:50px;"">Agent A","null","","","","","","",""
"","null","video-keyboard-response","395","906300","0.0-395.0","","null","","Agent A","veridical","/Users/kirstenziman/Desktop/Desktop/DIDEC_entire_corpus/analysis_3/STIM_SET_2/0_713730.bmppp82_L1V1_freeview_veridical_mapOnly.mp4","","",""
"","null","html-keyboard-response","396","909303","0.0-396.0","<span style=""color:Black; font-size:50px;"">Agent B","null","","","","","","",""
"","null","video-keyboard-response","397","912367","0.0-397.0","","null","","Agent B","scrambled","/Users/kirstenziman/Desktop/Desktop/DIDEC_entire_corpus/analysis_3/STIM_SET_2/0_713730.bmppp82_L1V1_freeview_scrambled_mapOnly.mp4","","",""
"","","call-function","398","912367","0.0-398.0","","","","","","","","",""
"","2461.7999999821186","survey-likert","399","914830","0.0-399.0","","","","","","","{""judgement"":0}","[0]","0"
"","1567","survey-likert","400","916398","0.0-400.0","","","","","","","{""confidence"":1}","[0]",""
"","","call-function","401","916399","0.0-401.0","","","","","","","","",""
"","null","html-keyboard-response","402","919404","0.0-402.0","<span style=""color:Black; font-size:50px;"">Agent A","null","","","","","","",""
"","null","video-keyboard-response","403","922476","0.0-403.0","","null","","Agent A","veridical","/Users/kirstenziman/Desktop/Desktop/DIDEC_entire_corpus/analysis_3/STIM_SET_2/0_713003.bmppp82_L1V1_freeview_veridical_mapOnly.mp4","","",""
"","null","html-keyboard-response","404","925482","0.0-404.0","<span style=""color:Black; font-size:50px;"">Agent B","null","","","","","","",""
"","null","video-keyboard-response","405","928558","0.0-405.0","","null","","Agent B","scrambled","/Users/kirstenziman/Desktop/Desktop/DIDEC_entire_corpus/analysis_3/STIM_SET_2/0_713003.bmppp82_L1V1_freeview_scrambled_mapOnly.mp4","","",""
"","","call-function","406","928559","0.0-406.0","","","","","","","","",""
"","2142","survey-likert","407","930702","0.0-407.0","","","","","","","{""judgement"":0}","[0]","0"
"","1728.300000011921","survey-likert","408","932431","0.0-408.0","","","","","","","{""confidence"":2}","[0]",""
"","","call-function","409","932431","0.0-409.0","","","","","","","","",""
"","null","html-keyboard-response","410","935434","0.0-410.0","<span style=""color:Black; font-size:50px;"">Agent A","null","","","","","","",""
"","null","video-keyboard-response","411","938493","0.0-411.0","","null","","Agent A","veridical","/Users/kirstenziman/Desktop/Desktop/DIDEC_entire_corpus/analysis_3/STIM_SET_2/0_1159325.bmppp99_L1V1_freeview_veridical_mapOnly.mp4","","",""
"","null","html-keyboard-response","412","941498","0.0-412.0","<span style=""color:Black; font-size:50px;"">Agent B","null","","","","","","",""
"","null","video-keyboard-response","413","944575","0.0-413.0","","null","","Agent B","scrambled","/Users/kirstenziman/Desktop/Desktop/DIDEC_entire_corpus/analysis_3/STIM_SET_2/0_1159325.bmppp99_L1V1_freeview_scrambled_mapOnly.mp4","","",""
"","","call-function","414","944575","0.0-414.0","","","","","","","","",""
"","1817.7999999821186","survey-likert","415","946394","0.0-415.0","","","","","","","{""judgement"":0}","[0]","0"
"","1575.4000000059605","survey-likert","416","947970","0.0-416.0","","","","","","","{""confidence"":0}","[0]",""
"[{""page_index"":0,""viewing_time"":1372.8999999761581},{""page_index"":1,""viewing_time"":266.80000001192093},{""page_index"":2,""viewing_time"":161.59999999403954}]","1801.5","instructions","417","949772","0.0-417.0","","","","","","","","",""
"[{""page_index"":0,""viewing_time"":274.89999997615814},{""page_index"":1,""viewing_time"":169.7000000178814},{""page_index"":2,""viewing_time"":239.59999999403954}]","684.2999999821186","instructions","418","950457","0.0-418.0","","","","","","","","",""
"","","call-function","419","950458","0.0-419.0","","","","","","","","",""
"","null","html-keyboard-response","420","953463","0.0-420.0","<span style=""color:Black; font-size:50px;"">Agent A","null","","","","","","",""
"","null","video-keyboard-response","421","956525","0.0-421.0","","null","","Agent A","scrambled","/Users/kirstenziman/Desktop/Desktop/DIDEC_entire_corpus/analysis_3/STIM_SET_2/0_1592747.bmppp62_L1V1_freeview_scrambled_mapOnly.mp4","","",""
"","null","html-keyboard-response","422","959529","0.0-422.0","<span style=""color:Black; font-size:50px;"">Agent B","null","","","","","","",""
"","null","video-keyboard-response","423","962591","0.0-423.0","","null","","Agent B","veridical","/Users/kirstenziman/Desktop/Desktop/DIDEC_entire_corpus/analysis_3/STIM_SET_2/0_1592747.bmppp62_L1V1_freeview_veridical_mapOnly.mp4","","",""
"","","call-function","424","962592","0.0-424.0","","","","","","","","",""
"","2816.0999999940395","survey-likert","425","965409","0.0-425.0","","","","","","","{""judgement"":1}","[0]","1"
"","1840.0999999940395","survey-likert","426","967251","0.0-426.0","","","","","","","{""confidence"":0}","[0]",""
"","","call-function","427","967252","0.0-427.0","","","","","","","","",""
"","null","html-keyboard-response","428","970256","0.0-428.0","<span style=""color:Black; font-size:50px;"">Agent A","null","","","","","","",""
"","null","video-keyboard-response","429","973322","0.0-429.0","","null","","Agent A","veridical","/Users/kirstenziman/Desktop/Desktop/DIDEC_entire_corpus/analysis_3/STIM_SET_2/0_107964.bmppp86_L1V1_freeview_veridical_mapOnly.mp4","","",""
"","null","html-keyboard-response","430","976328","0.0-430.0","<span style=""color:Black; font-size:50px;"">Agent B","null","","","","","","",""
"","null","video-keyboard-response","431","979409","0.0-431.0","","null","","Agent B","scrambled","/Users/kirstenziman/Desktop/Desktop/DIDEC_entire_corpus/analysis_3/STIM_SET_2/0_107964.bmppp86_L1V1_freeview_scrambled_mapOnly.mp4","","",""
"","","call-function","432","979410","0.0-432.0","","","","","","","","",""
"","2158.0999999940395","survey-likert","433","981568","0.0-433.0","","","","","","","{""judgement"":0}","[0]","0"
"","2042.9000000059605","survey-likert","434","983612","0.0-434.0","","","","","","","{""confidence"":3}","[0]",""
"","","call-function","435","983613","0.0-435.0","","","","","","","","",""
"","null","html-keyboard-response","436","986618","0.0-436.0","<span style=""color:Black; font-size:50px;"">Agent A","null","","","","","","",""
"","null","video-keyboard-response","437","989693","0.0-437.0","","null","","Agent A","veridical","/Users/kirstenziman/Desktop/Desktop/DIDEC_entire_corpus/analysis_3/STIM_SET_2/0_1160093.bmppp152_L1V1_freeview_veridical_mapOnly.mp4","","",""
"","null","html-keyboard-response","438","992699","0.0-438.0","<span style=""color:Black; font-size:50px;"">Agent B","null","","","","","","",""
"","null","video-keyboard-response","439","995777","0.0-439.0","","null","","Agent B","scrambled","/Users/kirstenziman/Desktop/Desktop/DIDEC_entire_corpus/analysis_3/STIM_SET_2/0_1160093.bmppp152_L1V1_freeview_scrambled_mapOnly.mp4","","",""
"","","call-function","440","995777","0.0-440.0","","","","","","","","",""
"","2146","survey-likert","441","997924","0.0-441.0","","","","","","","{""judgement"":0}","[0]","0"
"","2677.4000000059605","survey-likert","442","1000603","0.0-442.0","","","","","","","{""confidence"":2}","[0]",""
"","","call-function","443","1000603","0.0-443.0","","","","","","","","",""
"","null","html-keyboard-response","444","1003607","0.0-444.0","<span style=""color:Black; font-size:50px;"">Agent A","null","","","","","","",""
"","null","video-keyboard-response","445","1006689","0.0-445.0","","null","","Agent A","veridical","/Users/kirstenziman/Desktop/Desktop/DIDEC_entire_corpus/analysis_3/STIM_SET_2/0_1592352.bmppp82_L1V1_freeview_veridical_mapOnly.mp4","","",""
"","null","html-keyboard-response","446","1009690","0.0-446.0","<span style=""color:Black; font-size:50px;"">Agent B","null","","","","","","",""
"","null","video-keyboard-response","447","1012765","0.0-447.0","","null","","Agent B","scrambled","/Users/kirstenziman/Desktop/Desktop/DIDEC_entire_corpus/analysis_3/STIM_SET_2/0_1592352.bmppp82_L1V1_freeview_scrambled_mapOnly.mp4","","",""
"","","call-function","448","1012766","0.0-448.0","","","","","","","","",""
"","3637","survey-likert","449","1016403","0.0-449.0","","","","","","","{""judgement"":1}","[0]","0"
"","1729.0999999940395","survey-likert","450","1018133","0.0-450.0","","","","","","","{""confidence"":0}","[0]",""
"","","call-function","451","1018134","0.0-451.0","","","","","","","","",""
"","null","html-keyboard-response","452","1021138","0.0-452.0","<span style=""color:Black; font-size:50px;"">Agent A","null","","","","","","",""
"","null","video-keyboard-response","453","1024212","0.0-453.0","","null","","Agent A","veridical","/Users/kirstenziman/Desktop/Desktop/DIDEC_entire_corpus/analysis_3/STIM_SET_2/0_1160127.bmppp62_L1V1_freeview_veridical_mapOnly.mp4","","",""
"","null","html-keyboard-response","454","1027216","0.0-454.0","<span style=""color:Black; font-size:50px;"">Agent B","null","","","","","","",""
"","null","video-keyboard-response","455","1030293","0.0-455.0","","null","","Agent B","scrambled","/Users/kirstenziman/Desktop/Desktop/DIDEC_entire_corpus/analysis_3/STIM_SET_2/0_1160127.bmppp62_L1V1_freeview_scrambled_mapOnly.mp4","","",""
"","","call-function","456","1030293","0.0-456.0","","","","","","","","",""
"","1626.5999999940395","survey-likert","457","1031921","0.0-457.0","","","","","","","{""judgement"":0}","[0]","0"
"","4798.699999988079","survey-likert","458","1036720","0.0-458.0","","","","","","","{""confidence"":2}","[0]",""
"","","call-function","459","1036721","0.0-459.0","","","","","","","","",""
"","null","html-keyboard-response","460","1039726","0.0-460.0","<span style=""color:Black; font-size:50px;"">Agent A","null","","","","","","",""
"","null","video-keyboard-response","461","1042803","0.0-461.0","","null","","Agent A","scrambled","/Users/kirstenziman/Desktop/Desktop/DIDEC_entire_corpus/analysis_3/STIM_SET_2/0_498388.bmppp62_L1V1_freeview_scrambled_mapOnly.mp4","","",""
"","null","html-keyboard-response","462","1045810","0.0-462.0","<span style=""color:Black; font-size:50px;"">Agent B","null","","","","","","",""
"","null","video-keyboard-response","463","1048903","0.0-463.0","","null","","Agent B","veridical","/Users/kirstenziman/Desktop/Desktop/DIDEC_entire_corpus/analysis_3/STIM_SET_2/0_498388.bmppp62_L1V1_freeview_veridical_mapOnly.mp4","","",""
"","","call-function","464","1048903","0.0-464.0","","","","","","","","",""
"","1907.199999988079","survey-likert","465","1050811","0.0-465.0","","","","","","","{""judgement"":1}","[0]","1"
"","1555.800000011921","survey-likert","466","1052368","0.0-466.0","","","","","","","{""confidence"":1}","[0]",""
"","","call-function","467","1052369","0.0-467.0","","","","","","","","",""
"","null","html-keyboard-response","468","1055371","0.0-468.0","<span style=""color:Black; font-size:50px;"">Agent A","null","","","","","","",""
"","null","video-keyboard-response","469","1058447","0.0-469.0","","null","","Agent A","veridical","/Users/kirstenziman/Desktop/Desktop/DIDEC_entire_corpus/analysis_3/STIM_SET_2/0_1159329.bmppp99_L1V1_freeview_veridical_mapOnly.mp4","","",""
"","null","html-keyboard-response","470","1061453","0.0-470.0","<span style=""color:Black; font-size:50px;"">Agent B","null","","","","","","",""
"","null","video-keyboard-response","471","1064529","0.0-471.0","","null","","Agent B","scrambled","/Users/kirstenziman/Desktop/Desktop/DIDEC_entire_corpus/analysis_3/STIM_SET_2/0_1159329.bmppp99_L1V1_freeview_scrambled_mapOnly.mp4","","",""
"","","call-function","472","1064530","0.0-472.0","","","","","","","","",""
"","2451.0999999940395","survey-likert","473","1066983","0.0-473.0","","","","","","","{""judgement"":0}","[0]","0"
"","2138","survey-likert","474","1069123","0.0-474.0","","","","","","","{""confidence"":3}","[0]",""
"","","call-function","475","1069124","0.0-475.0","","","","","","","","",""
"","null","html-keyboard-response","476","1072130","0.0-476.0","<span style=""color:Black; font-size:50px;"">Agent A","null","","","","","","",""
"","null","video-keyboard-response","477","1075205","0.0-477.0","","null","","Agent A","veridical","/Users/kirstenziman/Desktop/Desktop/DIDEC_entire_corpus/analysis_3/STIM_SET_2/0_1593006.bmppp94_L1V1_freeview_veridical_mapOnly.mp4","","",""
"","null","html-keyboard-response","478","1078208","0.0-478.0","<span style=""color:Black; font-size:50px;"">Agent B","null","","","","","","",""
"","null","video-keyboard-response","479","1081288","0.0-479.0","","null","","Agent B","scrambled","/Users/kirstenziman/Desktop/Desktop/DIDEC_entire_corpus/analysis_3/STIM_SET_2/0_1593006.bmppp94_L1V1_freeview_scrambled_mapOnly.mp4","","",""
"","","call-function","480","1081289","0.0-480.0","","","","","","","","",""
"","3979.7999999821186","survey-likert","481","1085270","0.0-481.0","","","","","","","{""judgement"":1}","[0]","0"
"","2477.9000000059605","survey-likert","482","1087749","0.0-482.0","","","","","","","{""confidence"":0}","[0]",""
"","","call-function","483","1087750","0.0-483.0","","","","","","","","",""
"","null","html-keyboard-response","484","1090753","0.0-484.0","<span style=""color:Black; font-size:50px;"">Agent A","null","","","","","","",""
"","null","video-keyboard-response","485","1093834","0.0-485.0","","null","","Agent A","veridical","/Users/kirstenziman/Desktop/Desktop/DIDEC_entire_corpus/analysis_3/STIM_SET_2/0_1591859.bmppp61_L1V1_freeview_veridical_mapOnly.mp4","","",""
"","null","html-keyboard-response","486","1096837","0.0-486.0","<span style=""color:Black; font-size:50px;"">Agent B","null","","","","","","",""
"","null","video-keyboard-response","487","1099935","0.0-487.0","","null","","Agent B","scrambled","/Users/kirstenziman/Desktop/Desktop/DIDEC_entire_corpus/analysis_3/STIM_SET_2/0_1591859.bmppp61_L1V1_freeview_scrambled_mapOnly.mp4","","",""
"","","call-function","488","1099935","0.0-488.0","","","","","","","","",""
"","2639.2999999821186","survey-likert","489","1102576","0.0-489.0","","","","","","","{""judgement"":0}","[0]","0"
"","2077.2000000178814","survey-likert","490","1104655","0.0-490.0","","","","","","","{""confidence"":2}","[0]",""
"","","call-function","491","1104655","0.0-491.0","","","","","","","","",""
"","null","html-keyboard-response","492","1107657","0.0-492.0","<span style=""color:Black; font-size:50px;"">Agent A","null","","","","","","",""
"","null","video-keyboard-response","493","1110728","0.0-493.0","","null","","Agent A","scrambled","/Users/kirstenziman/Desktop/Desktop/DIDEC_entire_corpus/analysis_3/STIM_SET_2/0_713017.bmppp53_L1V1_freeview_scrambled_mapOnly.mp4","","",""
"","null","html-keyboard-response","494","1113729","0.0-494.0","<span style=""color:Black; font-size:50px;"">Agent B","null","","","","","","",""
"","null","video-keyboard-response","495","1116796","0.0-495.0","","null","","Agent B","veridical","/Users/kirstenziman/Desktop/Desktop/DIDEC_entire_corpus/analysis_3/STIM_SET_2/0_713017.bmppp53_L1V1_freeview_veridical_mapOnly.mp4","","",""
"","","call-function","496","1116797","0.0-496.0","","","","","","","","",""
"","2457.9000000059605","survey-likert","497","1119256","0.0-497.0","","","","","","","{""judgement"":1}","[0]","1"
"","4305.300000011921","survey-likert","498","1123563","0.0-498.0","","","","","","","{""confidence"":2}","[0]",""
"[{""page_index"":0,""viewing_time"":1114.5},{""page_index"":1,""viewing_time"":469.19999998807907},{""page_index"":2,""viewing_time"":420.40000000596046}]","2004.4000000059605","instructions","499","1125568","0.0-499.0","","","","","","","","",""
"[{""page_index"":0,""viewing_time"":435.5},{""page_index"":1,""viewing_time"":565.6999999880791},{""page_index"":2,""viewing_time"":482.90000000596046}]","1484.300000011921","instructions","500","1127053","0.0-500.0","","","","","","","","",""
"","","call-function","501","1127053","0.0-501.0","","","","","","","","",""
"","null","html-keyboard-response","502","1130058","0.0-502.0","<span style=""color:Black; font-size:50px;"">Agent A","null","","","","","","",""
"","null","video-keyboard-response","503","1133123","0.0-503.0","","null","","Agent A","veridical","/Users/kirstenziman/Desktop/Desktop/DIDEC_entire_corpus/analysis_3/STIM_SET_2/0_1592044.bmppp152_L1V1_freeview_veridical_mapOnly.mp4","","",""
"","null","html-keyboard-response","504","1136125","0.0-504.0","<span style=""color:Black; font-size:50px;"">Agent B","null","","","","","","",""
"","null","video-keyboard-response","505","1139188","0.0-505.0","","null","","Agent B","scrambled","/Users/kirstenziman/Desktop/Desktop/DIDEC_entire_corpus/analysis_3/STIM_SET_2/0_1592044.bmppp152_L1V1_freeview_scrambled_mapOnly.mp4","","",""
"","","call-function","506","1139189","0.0-506.0","","","","","","","","",""
"","2557.100000023842","survey-likert","507","1141747","0.0-507.0","","","","","","","{""judgement"":0}","[0]","0"
"","3343","survey-likert","508","1145091","0.0-508.0","","","","","","","{""confidence"":2}","[0]",""
"","","call-function","509","1145091","0.0-509.0","","","","","","","","",""
"","null","html-keyboard-response","510","1148095","0.0-510.0","<span style=""color:Black; font-size:50px;"">Agent A","null","","","","","","",""
"","null","video-keyboard-response","511","1151192","0.0-511.0","","null","","Agent A","scrambled","/Users/kirstenziman/Desktop/Desktop/DIDEC_entire_corpus/analysis_3/STIM_SET_2/0_1159847.bmppp95_L1V1_freeview_scrambled_mapOnly.mp4","","",""
"","null","html-keyboard-response","512","1154198","0.0-512.0","<span style=""color:Black; font-size:50px;"">Agent B","null","","","","","","",""
"","null","video-keyboard-response","513","1157291","0.0-513.0","","null","","Agent B","veridical","/Users/kirstenziman/Desktop/Desktop/DIDEC_entire_corpus/analysis_3/STIM_SET_2/0_1159847.bmppp95_L1V1_freeview_veridical_mapOnly.mp4","","",""
"","","call-function","514","1157292","0.0-514.0","","","","","","","","",""
"","1596.5999999940395","survey-likert","515","1158897","0.0-515.0","","","","","","","{""judgement"":0}","[0]","1"
"","1932.199999988079","survey-likert","516","1160830","0.0-516.0","","","","","","","{""confidence"":2}","[0]",""
"","","call-function","517","1160831","0.0-517.0","","","","","","","","",""
"","null","html-keyboard-response","518","1163833","0.0-518.0","<span style=""color:Black; font-size:50px;"">Agent A","null","","","","","","",""
"","null","video-keyboard-response","519","1166901","0.0-519.0","","null","","Agent A","veridical","/Users/kirstenziman/Desktop/Desktop/DIDEC_entire_corpus/analysis_3/STIM_SET_2/0_1592394.bmppp86_L1V1_freeview_veridical_mapOnly.mp4","","",""
"","null","html-keyboard-response","520","1169905","0.0-520.0","<span style=""color:Black; font-size:50px;"">Agent B","null","","","","","","",""
"","null","video-keyboard-response","521","1172992","0.0-521.0","","null","","Agent B","scrambled","/Users/kirstenziman/Desktop/Desktop/DIDEC_entire_corpus/analysis_3/STIM_SET_2/0_1592394.bmppp86_L1V1_freeview_scrambled_mapOnly.mp4","","",""
"","","call-function","522","1172993","0.0-522.0","","","","","","","","",""
"","2270.5","survey-likert","523","1175264","0.0-523.0","","","","","","","{""judgement"":0}","[0]","0"
"","2017.699999988079","survey-likert","524","1177284","0.0-524.0","","","","","","","{""confidence"":3}","[0]",""
"","","call-function","525","1177284","0.0-525.0","","","","","","","","",""
"","null","html-keyboard-response","526","1180288","0.0-526.0","<span style=""color:Black; font-size:50px;"">Agent A","null","","","","","","",""
"","null","video-keyboard-response","527","1183373","0.0-527.0","","null","","Agent A","scrambled","/Users/kirstenziman/Desktop/Desktop/DIDEC_entire_corpus/analysis_3/STIM_SET_2/0_498221.bmppp88_L1V1_freeview_scrambled_mapOnly.mp4","","",""
"","null","html-keyboard-response","528","1186380","0.0-528.0","<span style=""color:Black; font-size:50px;"">Agent B","null","","","","","","",""
"","null","video-keyboard-response","529","1189455","0.0-529.0","","null","","Agent B","veridical","/Users/kirstenziman/Desktop/Desktop/DIDEC_entire_corpus/analysis_3/STIM_SET_2/0_498221.bmppp88_L1V1_freeview_veridical_mapOnly.mp4","","",""
"","","call-function","530","1189456","0.0-530.0","","","","","","","","",""
"","4764","survey-likert","531","1194220","0.0-531.0","","","","","","","{""judgement"":1}","[0]","1"
"","2075.199999988079","survey-likert","532","1196297","0.0-532.0","","","","","","","{""confidence"":0}","[0]",""
"","","call-function","533","1196297","0.0-533.0","","","","","","","","",""
"","null","html-keyboard-response","534","1199302","0.0-534.0","<span style=""color:Black; font-size:50px;"">Agent A","null","","","","","","",""
"","null","video-keyboard-response","535","1202389","0.0-535.0","","null","","Agent A","veridical","/Users/kirstenziman/Desktop/Desktop/DIDEC_entire_corpus/analysis_3/STIM_SET_2/0_1592367.bmppp79_L1V1_freeview_veridical_mapOnly.mp4","","",""
"","null","html-keyboard-response","536","1205391","0.0-536.0","<span style=""color:Black; font-size:50px;"">Agent B","null","","","","","","",""
"","null","video-keyboard-response","537","1208603","0.0-537.0","","null","","Agent B","scrambled","/Users/kirstenziman/Desktop/Desktop/DIDEC_entire_corpus/analysis_3/STIM_SET_2/0_1592367.bmppp79_L1V1_freeview_scrambled_mapOnly.mp4","","",""
"","","call-function","538","1208604","0.0-538.0","","","","","","","","",""
"","1805.2999999821186","survey-likert","539","1210410","0.0-539.0","","","","","","","{""judgement"":0}","[0]","0"
"","2215","survey-likert","540","1212626","0.0-540.0","","","","","","","{""confidence"":0}","[0]",""
"","","call-function","541","1212626","0.0-541.0","","","","","","","","",""
"","null","html-keyboard-response","542","1215632","0.0-542.0","<span style=""color:Black; font-size:50px;"">Agent A","null","","","","","","",""
"","null","video-keyboard-response","543","1218720","0.0-543.0","","null","","Agent A","scrambled","/Users/kirstenziman/Desktop/Desktop/DIDEC_entire_corpus/analysis_3/STIM_SET_2/0_1159897.bmppp53_L1V1_freeview_scrambled_mapOnly.mp4","","",""
"","null","html-keyboard-response","544","1221723","0.0-544.0","<span style=""color:Black; font-size:50px;"">Agent B","null","","","","","","",""
"","null","video-keyboard-response","545","1224794","0.0-545.0","","null","","Agent B","veridical","/Users/kirstenziman/Desktop/Desktop/DIDEC_entire_corpus/analysis_3/STIM_SET_2/0_1159897.bmppp53_L1V1_freeview_veridical_mapOnly.mp4","","",""
"","","call-function","546","1224795","0.0-546.0","","","","","","","","",""
"","1802.199999988079","survey-likert","547","1226598","0.0-547.0","","","","","","","{""judgement"":1}","[0]","1"
"","1831.300000011921","survey-likert","548","1228430","0.0-548.0","","","","","","","{""confidence"":3}","[0]",""
"","","call-function","549","1228431","0.0-549.0","","","","","","","","",""
"","null","html-keyboard-response","550","1231435","0.0-550.0","<span style=""color:Black; font-size:50px;"">Agent A","null","","","","","","",""
"","null","video-keyboard-response","551","1234492","0.0-551.0","","null","","Agent A","scrambled","/Users/kirstenziman/Desktop/Desktop/DIDEC_entire_corpus/analysis_3/STIM_SET_2/0_713513.bmppp96_L1V1_freeview_scrambled_mapOnly.mp4","","",""
"","null","html-keyboard-response","552","1237493","0.0-552.0","<span style=""color:Black; font-size:50px;"">Agent B","null","","","","","","",""
"","null","video-keyboard-response","553","1240543","0.0-553.0","","null","","Agent B","veridical","/Users/kirstenziman/Desktop/Desktop/DIDEC_entire_corpus/analysis_3/STIM_SET_2/0_713513.bmppp96_L1V1_freeview_veridical_mapOnly.mp4","","",""
"","","call-function","554","1240544","0.0-554.0","","","","","","","","",""
"","7533.5","survey-likert","555","1248077","0.0-555.0","","","","","","","{""judgement"":0}","[0]","1"
"","2383.600000023842","survey-likert","556","1250461","0.0-556.0","","","","","","","{""confidence"":1}","[0]",""
"","","call-function","557","1250462","0.0-557.0","","","","","","","","",""
"","null","html-keyboard-response","558","1253466","0.0-558.0","<span style=""color:Black; font-size:50px;"">Agent A","null","","","","","","",""
"","null","video-keyboard-response","559","1256532","0.0-559.0","","null","","Agent A","veridical","/Users/kirstenziman/Desktop/Desktop/DIDEC_entire_corpus/analysis_3/STIM_SET_2/0_1592890.bmppp95_L1V1_freeview_veridical_mapOnly.mp4","","",""
"","null","html-keyboard-response","560","1259537","0.0-560.0","<span style=""color:Black; font-size:50px;"">Agent B","null","","","","","","",""
"","null","video-keyboard-response","561","1262615","0.0-561.0","","null","","Agent B","scrambled","/Users/kirstenziman/Desktop/Desktop/DIDEC_entire_corpus/analysis_3/STIM_SET_2/0_1592890.bmppp95_L1V1_freeview_scrambled_mapOnly.mp4","","",""
"","","call-function","562","1262615","0.0-562.0","","","","","","","","",""
"","6123.199999988079","survey-likert","563","1268738","0.0-563.0","","","","","","","{""judgement"":0}","[0]","0"
"","2271.0999999940395","survey-likert","564","1271010","0.0-564.0","","","","","","","{""confidence"":0}","[0]",""
"","","call-function","565","1271011","0.0-565.0","","","","","","","","",""
"","null","html-keyboard-response","566","1274016","0.0-566.0","<span style=""color:Black; font-size:50px;"">Agent A","null","","","","","","",""
"","null","video-keyboard-response","567","1277088","0.0-567.0","","null","","Agent A","veridical","/Users/kirstenziman/Desktop/Desktop/DIDEC_entire_corpus/analysis_3/STIM_SET_2/0_713779.bmppp67_L1V1_freeview_veridical_mapOnly.mp4","","",""
"","null","html-keyboard-response","568","1280094","0.0-568.0","<span style=""color:Black; font-size:50px;"">Agent B","null","","","","","","",""
"","null","video-keyboard-response","569","1283172","0.0-569.0","","null","","Agent B","scrambled","/Users/kirstenziman/Desktop/Desktop/DIDEC_entire_corpus/analysis_3/STIM_SET_2/0_713779.bmppp67_L1V1_freeview_scrambled_mapOnly.mp4","","",""
"","","call-function","570","1283172","0.0-570.0","","","","","","","","",""
"","2479.0999999940395","survey-likert","571","1285653","0.0-571.0","","","","","","","{""judgement"":0}","[0]","0"
"","1889.300000011921","survey-likert","572","1287543","0.0-572.0","","","","","","","{""confidence"":3}","[0]",""
"","","call-function","573","1287544","0.0-573.0","","","","","","","","",""
"","null","html-keyboard-response","574","1290549","0.0-574.0","<span style=""color:Black; font-size:50px;"">Agent A","null","","","","","","",""
"","null","video-keyboard-response","575","1293643","0.0-575.0","","null","","Agent A","scrambled","/Users/kirstenziman/Desktop/Desktop/DIDEC_entire_corpus/analysis_3/STIM_SET_2/0_61574.bmppp90_L1V1_freeview_scrambled_mapOnly.mp4","","",""
"","null","html-keyboard-response","576","1296649","0.0-576.0","<span style=""color:Black; font-size:50px;"">Agent B","null","","","","","","",""
"","null","video-keyboard-response","577","1299713","0.0-577.0","","null","","Agent B","veridical","/Users/kirstenziman/Desktop/Desktop/DIDEC_entire_corpus/analysis_3/STIM_SET_2/0_61574.bmppp90_L1V1_freeview_veridical_mapOnly.mp4","","",""
"","","call-function","578","1299714","0.0-578.0","","","","","","","","",""
"","3260.199999988079","survey-likert","579","1302974","0.0-579.0","","","","","","","{""judgement"":1}","[0]","1"
"","4515.199999988079","survey-likert","580","1307490","0.0-580.0","","","","","","","{""confidence"":1}","[0]",""
"[{""page_index"":0,""viewing_time"":2608.7000000178814}]","2608.800000011921","instructions","581","1310100","0.0-581.0","","","","","","","","",""
"","12330.59999999404","survey-text","582","1322442","0.0-582.0","","","","","","","{""Q0"":""It was great!!! ""}","",""
"","32521.29999998212","survey-text","583","1354966","0.0-583.0","","","","","","","{""Q0"":""All of it was so easy and great!\n\nHuman gaze is less likely to be jumpy and revisiting the same spot multiple times. ""}","",""
"","9335.90000000596","survey-text","584","1364304","0.0-584.0","","","","","","","{""Q0"":""Nothing!""}","",""
"[{""page_index"":0,""viewing_time"":1509.8999999761581}]","1510.3999999761581","instructions","585","1365816","0.0-585.0","","","","","","","","",""
