"view_history","rt","trial_type","trial_index","time_elapsed","internal_node_id","stimulus","key_press","value","agent","condition","image","responses","question_order","correct_answer"
"[{""page_index"":0,""viewing_time"":129365.94499999999}]","129366.145","instructions","0","129370","0.0-0.0","","","","","","","","",""
"[{""page_index"":0,""viewing_time"":3542.534999999989},{""page_index"":1,""viewing_time"":74567.77000000002},{""page_index"":2,""viewing_time"":7360.454999999987}]","85470.87999999999","instructions","1","214842","0.0-1.0","","","","","","","","",""
"[{""page_index"":0,""viewing_time"":3671.040000000008}]","3671.1449999999895","instructions","2","218514","0.0-2.0","","","","","","","","",""
"","null","video-keyboard-response","3","221686","0.0-3.0","","null","","","","","","",""
"[{""page_index"":0,""viewing_time"":5044.290000000008},{""page_index"":1,""viewing_time"":77663.58499999999},{""page_index"":2,""viewing_time"":1448.179999999993}]","84156.64000000001","instructions","4","305843","0.0-4.0","","","","","","","","",""
"[{""page_index"":0,""viewing_time"":4373.844999999972}]","4373.950000000012","instructions","5","310218","0.0-5.0","","","","","","","","",""
"","null","video-keyboard-response","6","313321","0.0-6.0","","null","","","","","","",""
"[{""page_index"":0,""viewing_time"":1657.0950000000303},{""page_index"":1,""viewing_time"":3175.9000000000233},{""page_index"":2,""viewing_time"":4696.14499999996}]","9529.275000000023","instructions","7","322850","0.0-7.0","","","","","","","","",""
"[{""page_index"":0,""viewing_time"":2767.5499999999884}]","2767.670000000042","instructions","8","325618","0.0-8.0","","","","","","","","",""
"","","call-function","9","325619","0.0-9.0","","","","","","","","",""
"","null","html-keyboard-response","10","328625","0.0-10.0","<span style=""color:Black; font-size:50px;"">Agent A","null","","","","","","",""
"","null","video-keyboard-response","11","331732","0.0-11.0","","null","","Agent A","scrambled","STIM_SET_2/0_1159397.bmppp86_L1V1_freeview_scrambled_mapOnly.mp4","","",""
"","null","html-keyboard-response","12","334734","0.0-12.0","<span style=""color:Black; font-size:50px;"">Agent B","null","","","","","","",""
"","null","video-keyboard-response","13","337844","0.0-13.0","","null","","Agent B","veridical","STIM_SET_2/0_1159397.bmppp86_L1V1_freeview_veridical_mapOnly.mp4","","",""
"","","call-function","14","337845","0.0-14.0","","","","","","","","",""
"","24566.890000000014","survey-likert","15","362413","0.0-15.0","","","","","","","{""judgement"":1}","[0]","1"
"","23966.030000000028","survey-likert","16","386380","0.0-16.0","","","","","","","{""confidence"":1}","[0]",""
"","","call-function","17","386381","0.0-17.0","","","","","","","","",""
"","null","html-keyboard-response","18","389383","0.0-18.0","<span style=""color:Black; font-size:50px;"">Agent A","null","","","","","","",""
"","null","video-keyboard-response","19","392483","0.0-19.0","","null","","Agent A","veridical","STIM_SET_2/0_285859.bmppp53_L1V1_freeview_veridical_mapOnly.mp4","","",""
"","null","html-keyboard-response","20","395487","0.0-20.0","<span style=""color:Black; font-size:50px;"">Agent B","null","","","","","","",""
"","null","video-keyboard-response","21","398588","0.0-21.0","","null","","Agent B","scrambled","STIM_SET_2/0_285859.bmppp53_L1V1_freeview_scrambled_mapOnly.mp4","","",""
"","","call-function","22","398588","0.0-22.0","","","","","","","","",""
"","1942.0250000000233","survey-likert","23","400531","0.0-23.0","","","","","","","{""judgement"":0}","[0]","0"
"","4848.15499999997","survey-likert","24","405380","0.0-24.0","","","","","","","{""confidence"":1}","[0]",""
"","","call-function","25","405381","0.0-25.0","","","","","","","","",""
"","null","html-keyboard-response","26","408382","0.0-26.0","<span style=""color:Black; font-size:50px;"">Agent A","null","","","","","","",""
"","null","video-keyboard-response","27","411440","0.0-27.0","","null","","Agent A","veridical","STIM_SET_2/0_1160227.bmppp67_L1V1_freeview_veridical_mapOnly.mp4","","",""
"","null","html-keyboard-response","28","414442","0.0-28.0","<span style=""color:Black; font-size:50px;"">Agent B","null","","","","","","",""
"","null","video-keyboard-response","29","417499","0.0-29.0","","null","","Agent B","scrambled","STIM_SET_2/0_1160227.bmppp67_L1V1_freeview_scrambled_mapOnly.mp4","","",""
"","","call-function","30","417499","0.0-30.0","","","","","","","","",""
"","1351.7550000000047","survey-likert","31","418852","0.0-31.0","","","","","","","{""judgement"":0}","[0]","0"
"","1247.4249999999884","survey-likert","32","420100","0.0-32.0","","","","","","","{""confidence"":2}","[0]",""
"","","call-function","33","420100","0.0-33.0","","","","","","","","",""
"","null","html-keyboard-response","34","423103","0.0-34.0","<span style=""color:Black; font-size:50px;"">Agent A","null","","","","","","",""
"","null","video-keyboard-response","35","426162","0.0-35.0","","null","","Agent A","scrambled","STIM_SET_2/0_713681.bmppp88_L1V1_freeview_scrambled_mapOnly.mp4","","",""
"","null","html-keyboard-response","36","429169","0.0-36.0","<span style=""color:Black; font-size:50px;"">Agent B","null","","","","","","",""
"","null","video-keyboard-response","37","432226","0.0-37.0","","null","","Agent B","veridical","STIM_SET_2/0_713681.bmppp88_L1V1_freeview_veridical_mapOnly.mp4","","",""
"","","call-function","38","432226","0.0-38.0","","","","","","","","",""
"","2176.460000000021","survey-likert","39","434403","0.0-39.0","","","","","","","{""judgement"":1}","[0]","1"
"","1360.0749999999534","survey-likert","40","435764","0.0-40.0","","","","","","","{""confidence"":1}","[0]",""
"","","call-function","41","435764","0.0-41.0","","","","","","","","",""
"","null","html-keyboard-response","42","438771","0.0-42.0","<span style=""color:Black; font-size:50px;"">Agent A","null","","","","","","",""
"","null","video-keyboard-response","43","441864","0.0-43.0","","null","","Agent A","veridical","STIM_SET_2/0_498253.bmppp54_L1V1_freeview_veridical_mapOnly.mp4","","",""
"","null","html-keyboard-response","44","444866","0.0-44.0","<span style=""color:Black; font-size:50px;"">Agent B","null","","","","","","",""
"","null","video-keyboard-response","45","447957","0.0-45.0","","null","","Agent B","scrambled","STIM_SET_2/0_498253.bmppp54_L1V1_freeview_scrambled_mapOnly.mp4","","",""
"","","call-function","46","447957","0.0-46.0","","","","","","","","",""
"","5653.89499999996","survey-likert","47","453612","0.0-47.0","","","","","","","{""judgement"":0}","[0]","0"
"","2495.3399999999674","survey-likert","48","456108","0.0-48.0","","","","","","","{""confidence"":2}","[0]",""
"","","call-function","49","456108","0.0-49.0","","","","","","","","",""
"","null","html-keyboard-response","50","459111","0.0-50.0","<span style=""color:Black; font-size:50px;"">Agent A","null","","","","","","",""
"","null","video-keyboard-response","51","462217","0.0-51.0","","null","","Agent A","scrambled","STIM_SET_2/0_713003.bmppp82_L1V1_freeview_scrambled_mapOnly.mp4","","",""
"","null","html-keyboard-response","52","465223","0.0-52.0","<span style=""color:Black; font-size:50px;"">Agent B","null","","","","","","",""
"","null","video-keyboard-response","53","468329","0.0-53.0","","null","","Agent B","veridical","STIM_SET_2/0_713003.bmppp82_L1V1_freeview_veridical_mapOnly.mp4","","",""
"","","call-function","54","468330","0.0-54.0","","","","","","","","",""
"","2353.609999999986","survey-likert","55","470684","0.0-55.0","","","","","","","{""judgement"":1}","[0]","1"
"","966.9349999999977","survey-likert","56","471652","0.0-56.0","","","","","","","{""confidence"":1}","[0]",""
"","","call-function","57","471653","0.0-57.0","","","","","","","","",""
"","null","html-keyboard-response","58","474658","0.0-58.0","<span style=""color:Black; font-size:50px;"">Agent A","null","","","","","","",""
"","null","video-keyboard-response","59","477768","0.0-59.0","","null","","Agent A","veridical","STIM_SET_2/0_1159897.bmppp53_L1V1_freeview_veridical_mapOnly.mp4","","",""
"","null","html-keyboard-response","60","480774","0.0-60.0","<span style=""color:Black; font-size:50px;"">Agent B","null","","","","","","",""
"","null","video-keyboard-response","61","483885","0.0-61.0","","null","","Agent B","scrambled","STIM_SET_2/0_1159897.bmppp53_L1V1_freeview_scrambled_mapOnly.mp4","","",""
"","","call-function","62","483885","0.0-62.0","","","","","","","","",""
"","2462.1149999999907","survey-likert","63","486349","0.0-63.0","","","","","","","{""judgement"":0}","[0]","0"
"","2733.9099999999744","survey-likert","64","489084","0.0-64.0","","","","","","","{""confidence"":1}","[0]",""
"","","call-function","65","489085","0.0-65.0","","","","","","","","",""
"","null","html-keyboard-response","66","492086","0.0-66.0","<span style=""color:Black; font-size:50px;"">Agent A","null","","","","","","",""
"","null","video-keyboard-response","67","495195","0.0-67.0","","null","","Agent A","scrambled","STIM_SET_2/0_713749.bmppp88_L1V1_freeview_scrambled_mapOnly.mp4","","",""
"","null","html-keyboard-response","68","498199","0.0-68.0","<span style=""color:Black; font-size:50px;"">Agent B","null","","","","","","",""
"","null","video-keyboard-response","69","501307","0.0-69.0","","null","","Agent B","veridical","STIM_SET_2/0_713749.bmppp88_L1V1_freeview_veridical_mapOnly.mp4","","",""
"","","call-function","70","501308","0.0-70.0","","","","","","","","",""
"","2135.929999999993","survey-likert","71","503444","0.0-71.0","","","","","","","{""judgement"":1}","[0]","1"
"","1670.515000000014","survey-likert","72","505116","0.0-72.0","","","","","","","{""confidence"":1}","[0]",""
"","","call-function","73","505116","0.0-73.0","","","","","","","","",""
"","null","html-keyboard-response","74","508119","0.0-74.0","<span style=""color:Black; font-size:50px;"">Agent A","null","","","","","","",""
"","null","video-keyboard-response","75","511222","0.0-75.0","","null","","Agent A","scrambled","STIM_SET_2/0_713146.bmppp61_L1V1_freeview_scrambled_mapOnly.mp4","","",""
"","null","html-keyboard-response","76","514224","0.0-76.0","<span style=""color:Black; font-size:50px;"">Agent B","null","","","","","","",""
"","null","video-keyboard-response","77","517326","0.0-77.0","","null","","Agent B","veridical","STIM_SET_2/0_713146.bmppp61_L1V1_freeview_veridical_mapOnly.mp4","","",""
"","","call-function","78","517328","0.0-78.0","","","","","","","","",""
"","2051.304999999993","survey-likert","79","519380","0.0-79.0","","","","","","","{""judgement"":1}","[0]","1"
"","1943.1450000000186","survey-likert","80","521324","0.0-80.0","","","","","","","{""confidence"":0}","[0]",""
"","","call-function","81","521325","0.0-81.0","","","","","","","","",""
"","null","html-keyboard-response","82","524331","0.0-82.0","<span style=""color:Black; font-size:50px;"">Agent A","null","","","","","","",""
"","null","video-keyboard-response","83","527435","0.0-83.0","","null","","Agent A","veridical","STIM_SET_2/0_1591859.bmppp61_L1V1_freeview_veridical_mapOnly.mp4","","",""
"","null","html-keyboard-response","84","530438","0.0-84.0","<span style=""color:Black; font-size:50px;"">Agent B","null","","","","","","",""
"","null","video-keyboard-response","85","533545","0.0-85.0","","null","","Agent B","scrambled","STIM_SET_2/0_1591859.bmppp61_L1V1_freeview_scrambled_mapOnly.mp4","","",""
"","","call-function","86","533545","0.0-86.0","","","","","","","","",""
"","2097.125","survey-likert","87","535643","0.0-87.0","","","","","","","{""judgement"":0}","[0]","0"
"","1815.719999999972","survey-likert","88","537460","0.0-88.0","","","","","","","{""confidence"":1}","[0]",""
"[{""page_index"":0,""viewing_time"":2262.3649999999907},{""page_index"":1,""viewing_time"":703.1350000000093},{""page_index"":2,""viewing_time"":528.8499999999767}]","3494.515000000014","instructions","89","540955","0.0-89.0","","","","","","","","",""
"[{""page_index"":0,""viewing_time"":894.9649999999674},{""page_index"":1,""viewing_time"":648.0450000000419},{""page_index"":2,""viewing_time"":472.4749999999767}]","2015.5899999999674","instructions","90","542971","0.0-90.0","","","","","","","","",""
"","","call-function","91","542971","0.0-91.0","","","","","","","","",""
"","null","html-keyboard-response","92","545976","0.0-92.0","<span style=""color:Black; font-size:50px;"">Agent A","null","","","","","","",""
"","null","video-keyboard-response","93","549085","0.0-93.0","","null","","Agent A","veridical","STIM_SET_2/0_1159904.bmppp88_L1V1_freeview_veridical_mapOnly.mp4","","",""
"","null","html-keyboard-response","94","552090","0.0-94.0","<span style=""color:Black; font-size:50px;"">Agent B","null","","","","","","",""
"","null","video-keyboard-response","95","555197","0.0-95.0","","null","","Agent B","scrambled","STIM_SET_2/0_1159904.bmppp88_L1V1_freeview_scrambled_mapOnly.mp4","","",""
"","","call-function","96","555198","0.0-96.0","","","","","","","","",""
"","1309.890000000014","survey-likert","97","556508","0.0-97.0","","","","","","","{""judgement"":0}","[0]","0"
"","2999.125","survey-likert","98","559508","0.0-98.0","","","","","","","{""confidence"":2}","[0]",""
"","","call-function","99","559509","0.0-99.0","","","","","","","","",""
"","null","html-keyboard-response","100","562514","0.0-100.0","<span style=""color:Black; font-size:50px;"">Agent A","null","","","","","","",""
"","null","video-keyboard-response","101","565621","0.0-101.0","","null","","Agent A","scrambled","STIM_SET_2/0_1160180.bmppp61_L1V1_freeview_scrambled_mapOnly.mp4","","",""
"","null","html-keyboard-response","102","568627","0.0-102.0","<span style=""color:Black; font-size:50px;"">Agent B","null","","","","","","",""
"","null","video-keyboard-response","103","571732","0.0-103.0","","null","","Agent B","veridical","STIM_SET_2/0_1160180.bmppp61_L1V1_freeview_veridical_mapOnly.mp4","","",""
"","","call-function","104","571733","0.0-104.0","","","","","","","","",""
"","1559.109999999986","survey-likert","105","573293","0.0-105.0","","","","","","","{""judgement"":1}","[0]","1"
"","1181.7350000001024","survey-likert","106","574475","0.0-106.0","","","","","","","{""confidence"":1}","[0]",""
"","","call-function","107","574476","0.0-107.0","","","","","","","","",""
"","null","html-keyboard-response","108","577480","0.0-108.0","<span style=""color:Black; font-size:50px;"">Agent A","null","","","","","","",""
"","null","video-keyboard-response","109","580544","0.0-109.0","","null","","Agent A","scrambled","STIM_SET_2/0_61574.bmppp90_L1V1_freeview_scrambled_mapOnly.mp4","","",""
"","null","html-keyboard-response","110","583547","0.0-110.0","<span style=""color:Black; font-size:50px;"">Agent B","null","","","","","","",""
"","null","video-keyboard-response","111","586653","0.0-111.0","","null","","Agent B","veridical","STIM_SET_2/0_61574.bmppp90_L1V1_freeview_veridical_mapOnly.mp4","","",""
"","","call-function","112","586653","0.0-112.0","","","","","","","","",""
"","2006.545000000042","survey-likert","113","588660","0.0-113.0","","","","","","","{""judgement"":0}","[0]","1"
"","1382.0900000000838","survey-likert","114","590044","0.0-114.0","","","","","","","{""confidence"":0}","[0]",""
"","","call-function","115","590044","0.0-115.0","","","","","","","","",""
"","null","html-keyboard-response","116","593049","0.0-116.0","<span style=""color:Black; font-size:50px;"">Agent A","null","","","","","","",""
"","null","video-keyboard-response","117","596152","0.0-117.0","","null","","Agent A","veridical","STIM_SET_2/0_1592033.bmppp94_L1V1_freeview_veridical_mapOnly.mp4","","",""
"","null","html-keyboard-response","118","599157","0.0-118.0","<span style=""color:Black; font-size:50px;"">Agent B","null","","","","","","",""
"","null","video-keyboard-response","119","602261","0.0-119.0","","null","","Agent B","scrambled","STIM_SET_2/0_1592033.bmppp94_L1V1_freeview_scrambled_mapOnly.mp4","","",""
"","","call-function","120","602261","0.0-120.0","","","","","","","","",""
"","1606.3850000000093","survey-likert","121","603868","0.0-121.0","","","","","","","{""judgement"":0}","[0]","0"
"","1447.6049999999814","survey-likert","122","605317","0.0-122.0","","","","","","","{""confidence"":2}","[0]",""
"","","call-function","123","605317","0.0-123.0","","","","","","","","",""
"","null","html-keyboard-response","124","608321","0.0-124.0","<span style=""color:Black; font-size:50px;"">Agent A","null","","","","","","",""
"","null","video-keyboard-response","125","611405","0.0-125.0","","null","","Agent A","scrambled","STIM_SET_2/0_713142.bmppp79_L1V1_freeview_scrambled_mapOnly.mp4","","",""
"","null","html-keyboard-response","126","614407","0.0-126.0","<span style=""color:Black; font-size:50px;"">Agent B","null","","","","","","",""
"","null","video-keyboard-response","127","617495","0.0-127.0","","null","","Agent B","veridical","STIM_SET_2/0_713142.bmppp79_L1V1_freeview_veridical_mapOnly.mp4","","",""
"","","call-function","128","617496","0.0-128.0","","","","","","","","",""
"","1996.2300000000978","survey-likert","129","619493","0.0-129.0","","","","","","","{""judgement"":1}","[0]","1"
"","1846.7449999999953","survey-likert","130","621341","0.0-130.0","","","","","","","{""confidence"":0}","[0]",""
"","","call-function","131","621341","0.0-131.0","","","","","","","","",""
"","null","html-keyboard-response","132","624344","0.0-132.0","<span style=""color:Black; font-size:50px;"">Agent A","null","","","","","","",""
"","null","video-keyboard-response","133","627438","0.0-133.0","","null","","Agent A","veridical","STIM_SET_2/0_1159329.bmppp99_L1V1_freeview_veridical_mapOnly.mp4","","",""
"","null","html-keyboard-response","134","630440","0.0-134.0","<span style=""color:Black; font-size:50px;"">Agent B","null","","","","","","",""
"","null","video-keyboard-response","135","633538","0.0-135.0","","null","","Agent B","scrambled","STIM_SET_2/0_1159329.bmppp99_L1V1_freeview_scrambled_mapOnly.mp4","","",""
"","","call-function","136","633538","0.0-136.0","","","","","","","","",""
"","1432.5199999999022","survey-likert","137","634973","0.0-137.0","","","","","","","{""judgement"":0}","[0]","0"
"","1093.7000000000698","survey-likert","138","636068","0.0-138.0","","","","","","","{""confidence"":1}","[0]",""
"","","call-function","139","636068","0.0-139.0","","","","","","","","",""
"","null","html-keyboard-response","140","639073","0.0-140.0","<span style=""color:Black; font-size:50px;"">Agent A","null","","","","","","",""
"","null","video-keyboard-response","141","642174","0.0-141.0","","null","","Agent A","scrambled","STIM_SET_2/0_1159889.bmppp61_L1V1_freeview_scrambled_mapOnly.mp4","","",""
"","null","html-keyboard-response","142","645181","0.0-142.0","<span style=""color:Black; font-size:50px;"">Agent B","null","","","","","","",""
"","null","video-keyboard-response","143","648279","0.0-143.0","","null","","Agent B","veridical","STIM_SET_2/0_1159889.bmppp61_L1V1_freeview_veridical_mapOnly.mp4","","",""
"","","call-function","144","648279","0.0-144.0","","","","","","","","",""
"","1804.7149999999674","survey-likert","145","650084","0.0-145.0","","","","","","","{""judgement"":1}","[0]","1"
"","1054.6900000000605","survey-likert","146","651140","0.0-146.0","","","","","","","{""confidence"":0}","[0]",""
"","","call-function","147","651141","0.0-147.0","","","","","","","","",""
"","null","html-keyboard-response","148","654142","0.0-148.0","<span style=""color:Black; font-size:50px;"">Agent A","null","","","","","","",""
"","null","video-keyboard-response","149","657236","0.0-149.0","","null","","Agent A","scrambled","STIM_SET_2/0_1159392.bmppp95_L1V1_freeview_scrambled_mapOnly.mp4","","",""
"","null","html-keyboard-response","150","660238","0.0-150.0","<span style=""color:Black; font-size:50px;"">Agent B","null","","","","","","",""
"","null","video-keyboard-response","151","663331","0.0-151.0","","null","","Agent B","veridical","STIM_SET_2/0_1159392.bmppp95_L1V1_freeview_veridical_mapOnly.mp4","","",""
"","","call-function","152","663331","0.0-152.0","","","","","","","","",""
"","1927.5699999999488","survey-likert","153","665260","0.0-153.0","","","","","","","{""judgement"":0}","[0]","1"
"","1311.3999999999069","survey-likert","154","666572","0.0-154.0","","","","","","","{""confidence"":0}","[0]",""
"","","call-function","155","666572","0.0-155.0","","","","","","","","",""
"","null","html-keyboard-response","156","669577","0.0-156.0","<span style=""color:Black; font-size:50px;"">Agent A","null","","","","","","",""
"","null","video-keyboard-response","157","672677","0.0-157.0","","null","","Agent A","veridical","STIM_SET_2/0_498221.bmppp88_L1V1_freeview_veridical_mapOnly.mp4","","",""
"","null","html-keyboard-response","158","675679","0.0-158.0","<span style=""color:Black; font-size:50px;"">Agent B","null","","","","","","",""
"","null","video-keyboard-response","159","678772","0.0-159.0","","null","","Agent B","scrambled","STIM_SET_2/0_498221.bmppp88_L1V1_freeview_scrambled_mapOnly.mp4","","",""
"","","call-function","160","678773","0.0-160.0","","","","","","","","",""
"","2422.3649999999907","survey-likert","161","681196","0.0-161.0","","","","","","","{""judgement"":1}","[0]","0"
"","1287.0599999999395","survey-likert","162","682484","0.0-162.0","","","","","","","{""confidence"":0}","[0]",""
"","","call-function","163","682484","0.0-163.0","","","","","","","","",""
"","null","html-keyboard-response","164","685488","0.0-164.0","<span style=""color:Black; font-size:50px;"">Agent A","null","","","","","","",""
"","null","video-keyboard-response","165","688571","0.0-165.0","","null","","Agent A","scrambled","STIM_SET_2/0_498396.bmppp79_L1V1_freeview_scrambled_mapOnly.mp4","","",""
"","null","html-keyboard-response","166","691573","0.0-166.0","<span style=""color:Black; font-size:50px;"">Agent B","null","","","","","","",""
"","null","video-keyboard-response","167","694659","0.0-167.0","","null","","Agent B","veridical","STIM_SET_2/0_498396.bmppp79_L1V1_freeview_veridical_mapOnly.mp4","","",""
"","","call-function","168","694659","0.0-168.0","","","","","","","","",""
"","1799.8400000000838","survey-likert","169","696460","0.0-169.0","","","","","","","{""judgement"":1}","[0]","1"
"","3031.4899999999907","survey-likert","170","699492","0.0-170.0","","","","","","","{""confidence"":2}","[0]",""
"[{""page_index"":0,""viewing_time"":1470.4300000000512},{""page_index"":1,""viewing_time"":503.9749999999767},{""page_index"":2,""viewing_time"":480.0550000000512}]","2454.6900000000605","instructions","171","701948","0.0-171.0","","","","","","","","",""
"[{""page_index"":0,""viewing_time"":287.4450000000652},{""page_index"":1,""viewing_time"":231.17499999993015},{""page_index"":2,""viewing_time"":304.95000000006985}]","823.7100000000792","instructions","172","702772","0.0-172.0","","","","","","","","",""
"","","call-function","173","702772","0.0-173.0","","","","","","","","",""
"","null","html-keyboard-response","174","705778","0.0-174.0","<span style=""color:Black; font-size:50px;"">Agent A","null","","","","","","",""
"","null","video-keyboard-response","175","708873","0.0-175.0","","null","","Agent A","veridical","STIM_SET_2/0_713328.bmppp62_L1V1_freeview_veridical_mapOnly.mp4","","",""
"","null","html-keyboard-response","176","711879","0.0-176.0","<span style=""color:Black; font-size:50px;"">Agent B","null","","","","","","",""
"","null","video-keyboard-response","177","714972","0.0-177.0","","null","","Agent B","scrambled","STIM_SET_2/0_713328.bmppp62_L1V1_freeview_scrambled_mapOnly.mp4","","",""
"","","call-function","178","714973","0.0-178.0","","","","","","","","",""
"","1488.2799999999115","survey-likert","179","716462","0.0-179.0","","","","","","","{""judgement"":0}","[0]","0"
"","1061.1650000000373","survey-likert","180","717524","0.0-180.0","","","","","","","{""confidence"":1}","[0]",""
"","","call-function","181","717524","0.0-181.0","","","","","","","","",""
"","null","html-keyboard-response","182","720528","0.0-182.0","<span style=""color:Black; font-size:50px;"">Agent A","null","","","","","","",""
"","null","video-keyboard-response","183","723605","0.0-183.0","","null","","Agent A","veridical","STIM_SET_2/0_1159813.bmppp54_L1V1_freeview_veridical_mapOnly.mp4","","",""
"","null","html-keyboard-response","184","726612","0.0-184.0","<span style=""color:Black; font-size:50px;"">Agent B","null","","","","","","",""
"","null","video-keyboard-response","185","729688","0.0-185.0","","null","","Agent B","scrambled","STIM_SET_2/0_1159813.bmppp54_L1V1_freeview_scrambled_mapOnly.mp4","","",""
"","","call-function","186","729688","0.0-186.0","","","","","","","","",""
"","2002.875","survey-likert","187","731692","0.0-187.0","","","","","","","{""judgement"":1}","[0]","0"
"","1063.0850000000792","survey-likert","188","732756","0.0-188.0","","","","","","","{""confidence"":0}","[0]",""
"","","call-function","189","732756","0.0-189.0","","","","","","","","",""
"","null","html-keyboard-response","190","735760","0.0-190.0","<span style=""color:Black; font-size:50px;"">Agent A","null","","","","","","",""
"","null","video-keyboard-response","191","738857","0.0-191.0","","null","","Agent A","scrambled","STIM_SET_2/0_498155.bmppp90_L1V1_freeview_scrambled_mapOnly.mp4","","",""
"","null","html-keyboard-response","192","741862","0.0-192.0","<span style=""color:Black; font-size:50px;"">Agent B","null","","","","","","",""
"","null","video-keyboard-response","193","744955","0.0-193.0","","null","","Agent B","veridical","STIM_SET_2/0_498155.bmppp90_L1V1_freeview_veridical_mapOnly.mp4","","",""
"","","call-function","194","744955","0.0-194.0","","","","","","","","",""
"","1736.2299999999814","survey-likert","195","746692","0.0-195.0","","","","","","","{""judgement"":1}","[0]","1"
"","1222.625","survey-likert","196","747916","0.0-196.0","","","","","","","{""confidence"":1}","[0]",""
"","","call-function","197","747916","0.0-197.0","","","","","","","","",""
"","null","html-keyboard-response","198","750923","0.0-198.0","<span style=""color:Black; font-size:50px;"">Agent A","null","","","","","","",""
"","null","video-keyboard-response","199","753991","0.0-199.0","","null","","Agent A","veridical","STIM_SET_2/0_285715.bmppp53_L1V1_freeview_veridical_mapOnly.mp4","","",""
"","null","html-keyboard-response","200","756996","0.0-200.0","<span style=""color:Black; font-size:50px;"">Agent B","null","","","","","","",""
"","null","video-keyboard-response","201","760064","0.0-201.0","","null","","Agent B","scrambled","STIM_SET_2/0_285715.bmppp53_L1V1_freeview_scrambled_mapOnly.mp4","","",""
"","","call-function","202","760065","0.0-202.0","","","","","","","","",""
"","2131.4150000000373","survey-likert","203","762197","0.0-203.0","","","","","","","{""judgement"":1}","[0]","0"
"","1646.1650000000373","survey-likert","204","763845","0.0-204.0","","","","","","","{""confidence"":2}","[0]",""
"","","call-function","205","763845","0.0-205.0","","","","","","","","",""
"","null","html-keyboard-response","206","766850","0.0-206.0","<span style=""color:Black; font-size:50px;"">Agent A","null","","","","","","",""
"","null","video-keyboard-response","207","769946","0.0-207.0","","null","","Agent A","scrambled","STIM_SET_2/0_1591805.bmppp70_L1V1_freeview_scrambled_mapOnly.mp4","","",""
"","null","html-keyboard-response","208","772948","0.0-208.0","<span style=""color:Black; font-size:50px;"">Agent B","null","","","","","","",""
"","null","video-keyboard-response","209","776041","0.0-209.0","","null","","Agent B","veridical","STIM_SET_2/0_1591805.bmppp70_L1V1_freeview_veridical_mapOnly.mp4","","",""
"","","call-function","210","776042","0.0-210.0","","","","","","","","",""
"","2746.560000000056","survey-likert","211","778789","0.0-211.0","","","","","","","{""judgement"":1}","[0]","1"
"","1270.670000000042","survey-likert","212","780061","0.0-212.0","","","","","","","{""confidence"":0}","[0]",""
"","","call-function","213","780061","0.0-213.0","","","","","","","","",""
"","null","html-keyboard-response","214","783063","0.0-214.0","<span style=""color:Black; font-size:50px;"">Agent A","null","","","","","","",""
"","null","video-keyboard-response","215","786161","0.0-215.0","","null","","Agent A","scrambled","STIM_SET_2/0_150458.bmppp82_L1V1_freeview_scrambled_mapOnly.mp4","","",""
"","null","html-keyboard-response","216","789167","0.0-216.0","<span style=""color:Black; font-size:50px;"">Agent B","null","","","","","","",""
"","null","video-keyboard-response","217","792260","0.0-217.0","","null","","Agent B","veridical","STIM_SET_2/0_150458.bmppp82_L1V1_freeview_veridical_mapOnly.mp4","","",""
"","","call-function","218","792261","0.0-218.0","","","","","","","","",""
"","3087.67499999993","survey-likert","219","795349","0.0-219.0","","","","","","","{""judgement"":0}","[0]","1"
"","1438.8049999999348","survey-likert","220","796789","0.0-220.0","","","","","","","{""confidence"":0}","[0]",""
"","","call-function","221","796789","0.0-221.0","","","","","","","","",""
"","null","html-keyboard-response","222","799791","0.0-222.0","<span style=""color:Black; font-size:50px;"">Agent A","null","","","","","","",""
"","null","video-keyboard-response","223","802880","0.0-223.0","","null","","Agent A","veridical","STIM_SET_2/0_1592254.bmppp95_L1V1_freeview_veridical_mapOnly.mp4","","",""
"","null","html-keyboard-response","224","805885","0.0-224.0","<span style=""color:Black; font-size:50px;"">Agent B","null","","","","","","",""
"","null","video-keyboard-response","225","808981","0.0-225.0","","null","","Agent B","scrambled","STIM_SET_2/0_1592254.bmppp95_L1V1_freeview_scrambled_mapOnly.mp4","","",""
"","","call-function","226","808981","0.0-226.0","","","","","","","","",""
"","3230.524999999907","survey-likert","227","812212","0.0-227.0","","","","","","","{""judgement"":0}","[0]","0"
"","1543.579999999958","survey-likert","228","813757","0.0-228.0","","","","","","","{""confidence"":0}","[0]",""
"","","call-function","229","813757","0.0-229.0","","","","","","","","",""
"","null","html-keyboard-response","230","816759","0.0-230.0","<span style=""color:Black; font-size:50px;"">Agent A","null","","","","","","",""
"","null","video-keyboard-response","231","819854","0.0-231.0","","null","","Agent A","veridical","STIM_SET_2/0_1592044.bmppp152_L1V1_freeview_veridical_mapOnly.mp4","","",""
"","null","html-keyboard-response","232","822858","0.0-232.0","<span style=""color:Black; font-size:50px;"">Agent B","null","","","","","","",""
"","null","video-keyboard-response","233","825953","0.0-233.0","","null","","Agent B","scrambled","STIM_SET_2/0_1592044.bmppp152_L1V1_freeview_scrambled_mapOnly.mp4","","",""
"","","call-function","234","825953","0.0-234.0","","","","","","","","",""
"","1834.280000000028","survey-likert","235","827788","0.0-235.0","","","","","","","{""judgement"":0}","[0]","0"
"","1031.5050000000047","survey-likert","236","828820","0.0-236.0","","","","","","","{""confidence"":1}","[0]",""
"","","call-function","237","828821","0.0-237.0","","","","","","","","",""
"","null","html-keyboard-response","238","831822","0.0-238.0","<span style=""color:Black; font-size:50px;"">Agent A","null","","","","","","",""
"","null","video-keyboard-response","239","834921","0.0-239.0","","null","","Agent A","scrambled","STIM_SET_2/0_1160093.bmppp152_L1V1_freeview_scrambled_mapOnly.mp4","","",""
"","null","html-keyboard-response","240","837923","0.0-240.0","<span style=""color:Black; font-size:50px;"">Agent B","null","","","","","","",""
"","null","video-keyboard-response","241","841025","0.0-241.0","","null","","Agent B","veridical","STIM_SET_2/0_1160093.bmppp152_L1V1_freeview_veridical_mapOnly.mp4","","",""
"","","call-function","242","841025","0.0-242.0","","","","","","","","",""
"","2026.3649999999907","survey-likert","243","843052","0.0-243.0","","","","","","","{""judgement"":1}","[0]","1"
"","1031.6600000000326","survey-likert","244","844085","0.0-244.0","","","","","","","{""confidence"":0}","[0]",""
"","","call-function","245","844085","0.0-245.0","","","","","","","","",""
"","null","html-keyboard-response","246","847089","0.0-246.0","<span style=""color:Black; font-size:50px;"">Agent A","null","","","","","","",""
"","null","video-keyboard-response","247","850183","0.0-247.0","","null","","Agent A","scrambled","STIM_SET_2/0_1592038.bmppp94_L1V1_freeview_scrambled_mapOnly.mp4","","",""
"","null","html-keyboard-response","248","853184","0.0-248.0","<span style=""color:Black; font-size:50px;"">Agent B","null","","","","","","",""
"","null","video-keyboard-response","249","856282","0.0-249.0","","null","","Agent B","veridical","STIM_SET_2/0_1592038.bmppp94_L1V1_freeview_veridical_mapOnly.mp4","","",""
"","","call-function","250","856282","0.0-250.0","","","","","","","","",""
"","1537.5599999999395","survey-likert","251","857821","0.0-251.0","","","","","","","{""judgement"":1}","[0]","1"
"","1246.2550000000047","survey-likert","252","859068","0.0-252.0","","","","","","","{""confidence"":1}","[0]",""
"[{""page_index"":0,""viewing_time"":1222.8400000000838},{""page_index"":1,""viewing_time"":287.93499999993946},{""page_index"":2,""viewing_time"":263.9200000000419}]","1774.8450000000885","instructions","253","860844","0.0-253.0","","","","","","","","",""
"[{""page_index"":0,""viewing_time"":230.6699999999255},{""page_index"":1,""viewing_time"":279.9900000001071},{""page_index"":2,""viewing_time"":224.09499999997206}]","734.8549999999814","instructions","254","861579","0.0-254.0","","","","","","","","",""
"","","call-function","255","861579","0.0-255.0","","","","","","","","",""
"","null","html-keyboard-response","256","864580","0.0-256.0","<span style=""color:Black; font-size:50px;"">Agent A","null","","","","","","",""
"","null","video-keyboard-response","257","867649","0.0-257.0","","null","","Agent A","scrambled","STIM_SET_2/0_1592367.bmppp79_L1V1_freeview_scrambled_mapOnly.mp4","","",""
"","null","html-keyboard-response","258","870654","0.0-258.0","<span style=""color:Black; font-size:50px;"">Agent B","null","","","","","","",""
"","null","video-keyboard-response","259","873721","0.0-259.0","","null","","Agent B","veridical","STIM_SET_2/0_1592367.bmppp79_L1V1_freeview_veridical_mapOnly.mp4","","",""
"","","call-function","260","873722","0.0-260.0","","","","","","","","",""
"","1545.4450000000652","survey-likert","261","875268","0.0-261.0","","","","","","","{""judgement"":0}","[0]","1"
"","1255.9100000000326","survey-likert","262","876525","0.0-262.0","","","","","","","{""confidence"":0}","[0]",""
"","","call-function","263","876526","0.0-263.0","","","","","","","","",""
"","null","html-keyboard-response","264","879527","0.0-264.0","<span style=""color:Black; font-size:50px;"">Agent A","null","","","","","","",""
"","null","video-keyboard-response","265","882617","0.0-265.0","","null","","Agent A","veridical","STIM_SET_2/0_1591954.bmppp54_L1V1_freeview_veridical_mapOnly.mp4","","",""
"","null","html-keyboard-response","266","885622","0.0-266.0","<span style=""color:Black; font-size:50px;"">Agent B","null","","","","","","",""
"","null","video-keyboard-response","267","888718","0.0-267.0","","null","","Agent B","scrambled","STIM_SET_2/0_1591954.bmppp54_L1V1_freeview_scrambled_mapOnly.mp4","","",""
"","","call-function","268","888719","0.0-268.0","","","","","","","","",""
"","1844.6950000000652","survey-likert","269","890564","0.0-269.0","","","","","","","{""judgement"":0}","[0]","0"
"","1280.1900000000605","survey-likert","270","891845","0.0-270.0","","","","","","","{""confidence"":2}","[0]",""
"","","call-function","271","891846","0.0-271.0","","","","","","","","",""
"","null","html-keyboard-response","272","894851","0.0-272.0","<span style=""color:Black; font-size:50px;"">Agent A","null","","","","","","",""
"","null","video-keyboard-response","273","897954","0.0-273.0","","null","","Agent A","scrambled","STIM_SET_2/0_107964.bmppp86_L1V1_freeview_scrambled_mapOnly.mp4","","",""
"","null","html-keyboard-response","274","900959","0.0-274.0","<span style=""color:Black; font-size:50px;"">Agent B","null","","","","","","",""
"","null","video-keyboard-response","275","904060","0.0-275.0","","null","","Agent B","veridical","STIM_SET_2/0_107964.bmppp86_L1V1_freeview_veridical_mapOnly.mp4","","",""
"","","call-function","276","904060","0.0-276.0","","","","","","","","",""
"","1983.905000000028","survey-likert","277","906046","0.0-277.0","","","","","","","{""judgement"":1}","[0]","1"
"","1437.454999999958","survey-likert","278","907484","0.0-278.0","","","","","","","{""confidence"":1}","[0]",""
"","","call-function","279","907485","0.0-279.0","","","","","","","","",""
"","null","html-keyboard-response","280","910491","0.0-280.0","<span style=""color:Black; font-size:50px;"">Agent A","null","","","","","","",""
"","null","video-keyboard-response","281","913548","0.0-281.0","","null","","Agent A","scrambled","STIM_SET_2/0_1159609.bmppp79_L1V1_freeview_scrambled_mapOnly.mp4","","",""
"","null","html-keyboard-response","282","916550","0.0-282.0","<span style=""color:Black; font-size:50px;"">Agent B","null","","","","","","",""
"","null","video-keyboard-response","283","919647","0.0-283.0","","null","","Agent B","veridical","STIM_SET_2/0_1159609.bmppp79_L1V1_freeview_veridical_mapOnly.mp4","","",""
"","","call-function","284","919648","0.0-284.0","","","","","","","","",""
"","2444.75","survey-likert","285","922093","0.0-285.0","","","","","","","{""judgement"":1}","[0]","1"
"","1254.0999999999767","survey-likert","286","923349","0.0-286.0","","","","","","","{""confidence"":1}","[0]",""
"","","call-function","287","923349","0.0-287.0","","","","","","","","",""
"","null","html-keyboard-response","288","926356","0.0-288.0","<span style=""color:Black; font-size:50px;"">Agent A","null","","","","","","",""
"","null","video-keyboard-response","289","929456","0.0-289.0","","null","","Agent A","veridical","STIM_SET_2/0_1159724.bmppp79_L1V1_freeview_veridical_mapOnly.mp4","","",""
"","null","html-keyboard-response","290","932460","0.0-290.0","<span style=""color:Black; font-size:50px;"">Agent B","null","","","","","","",""
"","null","video-keyboard-response","291","935558","0.0-291.0","","null","","Agent B","scrambled","STIM_SET_2/0_1159724.bmppp79_L1V1_freeview_scrambled_mapOnly.mp4","","",""
"","","call-function","292","935558","0.0-292.0","","","","","","","","",""
"","2877.45000000007","survey-likert","293","938438","0.0-293.0","","","","","","","{""judgement"":1}","[0]","0"
"","1222.3850000000093","survey-likert","294","939661","0.0-294.0","","","","","","","{""confidence"":0}","[0]",""
"","","call-function","295","939662","0.0-295.0","","","","","","","","",""
"","null","html-keyboard-response","296","942667","0.0-296.0","<span style=""color:Black; font-size:50px;"">Agent A","null","","","","","","",""
"","null","video-keyboard-response","297","945762","0.0-297.0","","null","","Agent A","veridical","STIM_SET_2/0_498372.bmppp82_L1V1_freeview_veridical_mapOnly.mp4","","",""
"","null","html-keyboard-response","298","948764","0.0-298.0","<span style=""color:Black; font-size:50px;"">Agent B","null","","","","","","",""
"","null","video-keyboard-response","299","951859","0.0-299.0","","null","","Agent B","scrambled","STIM_SET_2/0_498372.bmppp82_L1V1_freeview_scrambled_mapOnly.mp4","","",""
"","","call-function","300","951860","0.0-300.0","","","","","","","","",""
"","1480.0199999999022","survey-likert","301","953341","0.0-301.0","","","","","","","{""judgement"":0}","[0]","0"
"","1512.030000000028","survey-likert","302","954854","0.0-302.0","","","","","","","{""confidence"":1}","[0]",""
"","","call-function","303","954854","0.0-303.0","","","","","","","","",""
"","null","html-keyboard-response","304","957860","0.0-304.0","<span style=""color:Black; font-size:50px;"">Agent A","null","","","","","","",""
"","null","video-keyboard-response","305","960952","0.0-305.0","","null","","Agent A","scrambled","STIM_SET_2/0_713513.bmppp96_L1V1_freeview_scrambled_mapOnly.mp4","","",""
"","null","html-keyboard-response","306","963955","0.0-306.0","<span style=""color:Black; font-size:50px;"">Agent B","null","","","","","","",""
"","null","video-keyboard-response","307","967045","0.0-307.0","","null","","Agent B","veridical","STIM_SET_2/0_713513.bmppp96_L1V1_freeview_veridical_mapOnly.mp4","","",""
"","","call-function","308","967045","0.0-308.0","","","","","","","","",""
"","2678.774999999907","survey-likert","309","969725","0.0-309.0","","","","","","","{""judgement"":1}","[0]","1"
"","1391.4500000000698","survey-likert","310","971118","0.0-310.0","","","","","","","{""confidence"":0}","[0]",""
"","","call-function","311","971118","0.0-311.0","","","","","","","","",""
"","null","html-keyboard-response","312","974120","0.0-312.0","<span style=""color:Black; font-size:50px;"">Agent A","null","","","","","","",""
"","null","video-keyboard-response","313","977212","0.0-313.0","","null","","Agent A","veridical","STIM_SET_2/0_498153.bmppp86_L1V1_freeview_veridical_mapOnly.mp4","","",""
"","null","html-keyboard-response","314","980215","0.0-314.0","<span style=""color:Black; font-size:50px;"">Agent B","null","","","","","","",""
"","null","video-keyboard-response","315","983308","0.0-315.0","","null","","Agent B","scrambled","STIM_SET_2/0_498153.bmppp86_L1V1_freeview_scrambled_mapOnly.mp4","","",""
"","","call-function","316","983309","0.0-316.0","","","","","","","","",""
"","1966.8699999999953","survey-likert","317","985276","0.0-317.0","","","","","","","{""judgement"":0}","[0]","0"
"","1856.5050000000047","survey-likert","318","987134","0.0-318.0","","","","","","","{""confidence"":1}","[0]",""
"","","call-function","319","987134","0.0-319.0","","","","","","","","",""
"","null","html-keyboard-response","320","990137","0.0-320.0","<span style=""color:Black; font-size:50px;"">Agent A","null","","","","","","",""
"","null","video-keyboard-response","321","993235","0.0-321.0","","null","","Agent A","veridical","STIM_SET_2/0_1592656.bmppp95_L1V1_freeview_veridical_mapOnly.mp4","","",""
"","null","html-keyboard-response","322","996237","0.0-322.0","<span style=""color:Black; font-size:50px;"">Agent B","null","","","","","","",""
"","null","video-keyboard-response","323","999335","0.0-323.0","","null","","Agent B","scrambled","STIM_SET_2/0_1592656.bmppp95_L1V1_freeview_scrambled_mapOnly.mp4","","",""
"","","call-function","324","999336","0.0-324.0","","","","","","","","",""
"","2164.0849999999627","survey-likert","325","1001501","0.0-325.0","","","","","","","{""judgement"":0}","[0]","0"
"","1951.0100000000093","survey-likert","326","1003453","0.0-326.0","","","","","","","{""confidence"":2}","[0]",""
"","","call-function","327","1003453","0.0-327.0","","","","","","","","",""
"","null","html-keyboard-response","328","1006460","0.0-328.0","<span style=""color:Black; font-size:50px;"">Agent A","null","","","","","","",""
"","null","video-keyboard-response","329","1009565","0.0-329.0","","null","","Agent A","scrambled","STIM_SET_2/0_1592890.bmppp95_L1V1_freeview_scrambled_mapOnly.mp4","","",""
"","null","html-keyboard-response","330","1012570","0.0-330.0","<span style=""color:Black; font-size:50px;"">Agent B","null","","","","","","",""
"","null","video-keyboard-response","331","1015677","0.0-331.0","","null","","Agent B","veridical","STIM_SET_2/0_1592890.bmppp95_L1V1_freeview_veridical_mapOnly.mp4","","",""
"","","call-function","332","1015678","0.0-332.0","","","","","","","","",""
"","4279.609999999986","survey-likert","333","1019958","0.0-333.0","","","","","","","{""judgement"":0}","[0]","1"
"","1446.4899999999907","survey-likert","334","1021405","0.0-334.0","","","","","","","{""confidence"":0}","[0]",""
"[{""page_index"":0,""viewing_time"":1022.0600000000559},{""page_index"":1,""viewing_time"":139000.0049999999},{""page_index"":2,""viewing_time"":2016.1000000000931}]","142038.32000000007","instructions","335","1163445","0.0-335.0","","","","","","","","",""
"[{""page_index"":0,""viewing_time"":1471.4500000001863},{""page_index"":1,""viewing_time"":1792.0499999998137},{""page_index"":2,""viewing_time"":1744.0700000000652},{""page_index"":1,""viewing_time"":2079.9950000001118},{""page_index"":2,""viewing_time"":615.964999999851}]","7703.635000000009","instructions","336","1171149","0.0-336.0","","","","","","","","",""
"","","call-function","337","1171149","0.0-337.0","","","","","","","","",""
"","null","html-keyboard-response","338","1174154","0.0-338.0","<span style=""color:Black; font-size:50px;"">Agent A","null","","","","","","",""
"","null","video-keyboard-response","339","1177253","0.0-339.0","","null","","Agent A","scrambled","STIM_SET_2/0_1160127.bmppp62_L1V1_freeview_scrambled_mapOnly.mp4","","",""
"","null","html-keyboard-response","340","1180255","0.0-340.0","<span style=""color:Black; font-size:50px;"">Agent B","null","","","","","","",""
"","null","video-keyboard-response","341","1183356","0.0-341.0","","null","","Agent B","veridical","STIM_SET_2/0_1160127.bmppp62_L1V1_freeview_veridical_mapOnly.mp4","","",""
"","","call-function","342","1183357","0.0-342.0","","","","","","","","",""
"","1543.4599999999627","survey-likert","343","1184901","0.0-343.0","","","","","","","{""judgement"":1}","[0]","1"
"","1143.8149999999441","survey-likert","344","1186046","0.0-344.0","","","","","","","{""confidence"":1}","[0]",""
"","","call-function","345","1186046","0.0-345.0","","","","","","","","",""
"","null","html-keyboard-response","346","1189047","0.0-346.0","<span style=""color:Black; font-size:50px;"">Agent A","null","","","","","","",""
"","null","video-keyboard-response","347","1192108","0.0-347.0","","null","","Agent A","scrambled","STIM_SET_2/0_1592362.bmppp53_L1V1_freeview_scrambled_mapOnly.mp4","","",""
"","null","html-keyboard-response","348","1195110","0.0-348.0","<span style=""color:Black; font-size:50px;"">Agent B","null","","","","","","",""
"","null","video-keyboard-response","349","1198215","0.0-349.0","","null","","Agent B","veridical","STIM_SET_2/0_1592362.bmppp53_L1V1_freeview_veridical_mapOnly.mp4","","",""
"","","call-function","350","1198215","0.0-350.0","","","","","","","","",""
"","4005.725000000093","survey-likert","351","1202222","0.0-351.0","","","","","","","{""judgement"":1}","[0]","1"
"","3582.7349999998696","survey-likert","352","1205805","0.0-352.0","","","","","","","{""confidence"":0}","[0]",""
"","","call-function","353","1205806","0.0-353.0","","","","","","","","",""
"","null","html-keyboard-response","354","1208809","0.0-354.0","<span style=""color:Black; font-size:50px;"">Agent A","null","","","","","","",""
"","null","video-keyboard-response","355","1211918","0.0-355.0","","null","","Agent A","scrambled","STIM_SET_2/0_1159434.bmppp70_L1V1_freeview_scrambled_mapOnly.mp4","","",""
"","null","html-keyboard-response","356","1214923","0.0-356.0","<span style=""color:Black; font-size:50px;"">Agent B","null","","","","","","",""
"","null","video-keyboard-response","357","1218028","0.0-357.0","","null","","Agent B","veridical","STIM_SET_2/0_1159434.bmppp70_L1V1_freeview_veridical_mapOnly.mp4","","",""
"","","call-function","358","1218029","0.0-358.0","","","","","","","","",""
"","1663.9850000001024","survey-likert","359","1219694","0.0-359.0","","","","","","","{""judgement"":1}","[0]","1"
"","2142.9250000000466","survey-likert","360","1221838","0.0-360.0","","","","","","","{""confidence"":3}","[0]",""
"","","call-function","361","1221839","0.0-361.0","","","","","","","","",""
"","null","html-keyboard-response","362","1224843","0.0-362.0","<span style=""color:Black; font-size:50px;"">Agent A","null","","","","","","",""
"","null","video-keyboard-response","363","1227935","0.0-363.0","","null","","Agent A","scrambled","STIM_SET_2/0_1160168.bmppp96_L1V1_freeview_scrambled_mapOnly.mp4","","",""
"","null","html-keyboard-response","364","1230938","0.0-364.0","<span style=""color:Black; font-size:50px;"">Agent B","null","","","","","","",""
"","null","video-keyboard-response","365","1234026","0.0-365.0","","null","","Agent B","veridical","STIM_SET_2/0_1160168.bmppp96_L1V1_freeview_veridical_mapOnly.mp4","","",""
"","","call-function","366","1234027","0.0-366.0","","","","","","","","",""
"","1602.1350000000093","survey-likert","367","1235630","0.0-367.0","","","","","","","{""judgement"":0}","[0]","1"
"","1055.4199999999255","survey-likert","368","1236686","0.0-368.0","","","","","","","{""confidence"":1}","[0]",""
"","","call-function","369","1236687","0.0-369.0","","","","","","","","",""
"","null","html-keyboard-response","370","1239693","0.0-370.0","<span style=""color:Black; font-size:50px;"">Agent A","null","","","","","","",""
"","null","video-keyboard-response","371","1242779","0.0-371.0","","null","","Agent A","veridical","STIM_SET_2/0_1592083.bmppp99_L1V1_freeview_veridical_mapOnly.mp4","","",""
"","null","html-keyboard-response","372","1245782","0.0-372.0","<span style=""color:Black; font-size:50px;"">Agent B","null","","","","","","",""
"","null","video-keyboard-response","373","1248864","0.0-373.0","","null","","Agent B","scrambled","STIM_SET_2/0_1592083.bmppp99_L1V1_freeview_scrambled_mapOnly.mp4","","",""
"","","call-function","374","1248865","0.0-374.0","","","","","","","","",""
"","2291.9599999999627","survey-likert","375","1251157","0.0-375.0","","","","","","","{""judgement"":1}","[0]","0"
"","2127.4899999999907","survey-likert","376","1253286","0.0-376.0","","","","","","","{""confidence"":1}","[0]",""
"","","call-function","377","1253286","0.0-377.0","","","","","","","","",""
"","null","html-keyboard-response","378","1256289","0.0-378.0","<span style=""color:Black; font-size:50px;"">Agent A","null","","","","","","",""
"","null","video-keyboard-response","379","1259392","0.0-379.0","","null","","Agent A","veridical","STIM_SET_2/0_713017.bmppp53_L1V1_freeview_veridical_mapOnly.mp4","","",""
"","null","html-keyboard-response","380","1262395","0.0-380.0","<span style=""color:Black; font-size:50px;"">Agent B","null","","","","","","",""
"","null","video-keyboard-response","381","1265495","0.0-381.0","","null","","Agent B","scrambled","STIM_SET_2/0_713017.bmppp53_L1V1_freeview_scrambled_mapOnly.mp4","","",""
"","","call-function","382","1265496","0.0-382.0","","","","","","","","",""
"","1276.5349999999162","survey-likert","383","1266773","0.0-383.0","","","","","","","{""judgement"":1}","[0]","0"
"","1462.8649999999907","survey-likert","384","1268237","0.0-384.0","","","","","","","{""confidence"":1}","[0]",""
"","","call-function","385","1268237","0.0-385.0","","","","","","","","",""
"","null","html-keyboard-response","386","1271241","0.0-386.0","<span style=""color:Black; font-size:50px;"">Agent A","null","","","","","","",""
"","null","video-keyboard-response","387","1274335","0.0-387.0","","null","","Agent A","veridical","STIM_SET_2/0_1592499.bmppp152_L1V1_freeview_veridical_mapOnly.mp4","","",""
"","null","html-keyboard-response","388","1277338","0.0-388.0","<span style=""color:Black; font-size:50px;"">Agent B","null","","","","","","",""
"","null","video-keyboard-response","389","1280431","0.0-389.0","","null","","Agent B","scrambled","STIM_SET_2/0_1592499.bmppp152_L1V1_freeview_scrambled_mapOnly.mp4","","",""
"","","call-function","390","1280431","0.0-390.0","","","","","","","","",""
"","2093.695000000065","survey-likert","391","1282526","0.0-391.0","","","","","","","{""judgement"":0}","[0]","0"
"","1407","survey-likert","392","1283934","0.0-392.0","","","","","","","{""confidence"":0}","[0]",""
"","","call-function","393","1283934","0.0-393.0","","","","","","","","",""
"","null","html-keyboard-response","394","1286939","0.0-394.0","<span style=""color:Black; font-size:50px;"">Agent A","null","","","","","","",""
"","null","video-keyboard-response","395","1290045","0.0-395.0","","null","","Agent A","scrambled","STIM_SET_2/0_1159882.bmppp96_L1V1_freeview_scrambled_mapOnly.mp4","","",""
"","null","html-keyboard-response","396","1293050","0.0-396.0","<span style=""color:Black; font-size:50px;"">Agent B","null","","","","","","",""
"","null","video-keyboard-response","397","1296156","0.0-397.0","","null","","Agent B","veridical","STIM_SET_2/0_1159882.bmppp96_L1V1_freeview_veridical_mapOnly.mp4","","",""
"","","call-function","398","1296156","0.0-398.0","","","","","","","","",""
"","2192.590000000084","survey-likert","399","1298350","0.0-399.0","","","","","","","{""judgement"":1}","[0]","1"
"","1551.2700000000186","survey-likert","400","1299902","0.0-400.0","","","","","","","{""confidence"":1}","[0]",""
"","","call-function","401","1299903","0.0-401.0","","","","","","","","",""
"","null","html-keyboard-response","402","1302909","0.0-402.0","<span style=""color:Black; font-size:50px;"">Agent A","null","","","","","","",""
"","null","video-keyboard-response","403","1306020","0.0-403.0","","null","","Agent A","scrambled","STIM_SET_2/0_1591961.bmppp88_L1V1_freeview_scrambled_mapOnly.mp4","","",""
"","null","html-keyboard-response","404","1309022","0.0-404.0","<span style=""color:Black; font-size:50px;"">Agent B","null","","","","","","",""
"","null","video-keyboard-response","405","1312130","0.0-405.0","","null","","Agent B","veridical","STIM_SET_2/0_1591961.bmppp88_L1V1_freeview_veridical_mapOnly.mp4","","",""
"","","call-function","406","1312130","0.0-406.0","","","","","","","","",""
"","2347.594999999972","survey-likert","407","1314478","0.0-407.0","","","","","","","{""judgement"":1}","[0]","1"
"","1325.969999999972","survey-likert","408","1315805","0.0-408.0","","","","","","","{""confidence"":3}","[0]",""
"","","call-function","409","1315806","0.0-409.0","","","","","","","","",""
"","null","html-keyboard-response","410","1318808","0.0-410.0","<span style=""color:Black; font-size:50px;"">Agent A","null","","","","","","",""
"","null","video-keyboard-response","411","1321891","0.0-411.0","","null","","Agent A","scrambled","STIM_SET_2/0_498281.bmppp90_L1V1_freeview_scrambled_mapOnly.mp4","","",""
"","null","html-keyboard-response","412","1324893","0.0-412.0","<span style=""color:Black; font-size:50px;"">Agent B","null","","","","","","",""
"","null","video-keyboard-response","413","1327975","0.0-413.0","","null","","Agent B","veridical","STIM_SET_2/0_498281.bmppp90_L1V1_freeview_veridical_mapOnly.mp4","","",""
"","","call-function","414","1327975","0.0-414.0","","","","","","","","",""
"","1573.4849999998696","survey-likert","415","1329550","0.0-415.0","","","","","","","{""judgement"":1}","[0]","1"
"","1150.7399999999907","survey-likert","416","1330702","0.0-416.0","","","","","","","{""confidence"":3}","[0]",""
"[{""page_index"":0,""viewing_time"":1557.7650000001304},{""page_index"":1,""viewing_time"":304.0649999999441},{""page_index"":2,""viewing_time"":447.5999999998603}]","2309.5800000000745","instructions","417","1333013","0.0-417.0","","","","","","","","",""
"[{""page_index"":0,""viewing_time"":439.4849999998696},{""page_index"":1,""viewing_time"":496.160000000149},{""page_index"":2,""viewing_time"":479.9549999998417}]","1415.7049999998417","instructions","418","1334429","0.0-418.0","","","","","","","","",""
"","","call-function","419","1334430","0.0-419.0","","","","","","","","",""
"","null","html-keyboard-response","420","1337432","0.0-420.0","<span style=""color:Black; font-size:50px;"">Agent A","null","","","","","","",""
"","null","video-keyboard-response","421","1340529","0.0-421.0","","null","","Agent A","scrambled","STIM_SET_2/0_1593006.bmppp94_L1V1_freeview_scrambled_mapOnly.mp4","","",""
"","null","html-keyboard-response","422","1343533","0.0-422.0","<span style=""color:Black; font-size:50px;"">Agent B","null","","","","","","",""
"","null","video-keyboard-response","423","1346632","0.0-423.0","","null","","Agent B","veridical","STIM_SET_2/0_1593006.bmppp94_L1V1_freeview_veridical_mapOnly.mp4","","",""
"","","call-function","424","1346632","0.0-424.0","","","","","","","","",""
"","2101.0200000000186","survey-likert","425","1348734","0.0-425.0","","","","","","","{""judgement"":0}","[0]","1"
"","1055.3000000000466","survey-likert","426","1349790","0.0-426.0","","","","","","","{""confidence"":0}","[0]",""
"","","call-function","427","1349791","0.0-427.0","","","","","","","","",""
"","null","html-keyboard-response","428","1352797","0.0-428.0","<span style=""color:Black; font-size:50px;"">Agent A","null","","","","","","",""
"","null","video-keyboard-response","429","1355888","0.0-429.0","","null","","Agent A","veridical","STIM_SET_2/0_150374.bmppp96_L1V1_freeview_veridical_mapOnly.mp4","","",""
"","null","html-keyboard-response","430","1358893","0.0-430.0","<span style=""color:Black; font-size:50px;"">Agent B","null","","","","","","",""
"","null","video-keyboard-response","431","1361985","0.0-431.0","","null","","Agent B","scrambled","STIM_SET_2/0_150374.bmppp96_L1V1_freeview_scrambled_mapOnly.mp4","","",""
"","","call-function","432","1361986","0.0-432.0","","","","","","","","",""
"","1532.0450000001583","survey-likert","433","1363519","0.0-433.0","","","","","","","{""judgement"":0}","[0]","0"
"","3615.4799999999814","survey-likert","434","1367136","0.0-434.0","","","","","","","{""confidence"":3}","[0]",""
"","","call-function","435","1367137","0.0-435.0","","","","","","","","",""
"","null","html-keyboard-response","436","1370143","0.0-436.0","<span style=""color:Black; font-size:50px;"">Agent A","null","","","","","","",""
"","null","video-keyboard-response","437","1373236","0.0-437.0","","null","","Agent A","scrambled","STIM_SET_2/0_1160049.bmppp90_L1V1_freeview_scrambled_mapOnly.mp4","","",""
"","null","html-keyboard-response","438","1376238","0.0-438.0","<span style=""color:Black; font-size:50px;"">Agent B","null","","","","","","",""
"","null","video-keyboard-response","439","1379326","0.0-439.0","","null","","Agent B","veridical","STIM_SET_2/0_1160049.bmppp90_L1V1_freeview_veridical_mapOnly.mp4","","",""
"","","call-function","440","1379326","0.0-440.0","","","","","","","","",""
"","3031.344999999972","survey-likert","441","1382359","0.0-441.0","","","","","","","{""judgement"":0}","[0]","1"
"","2726.684999999823","survey-likert","442","1385086","0.0-442.0","","","","","","","{""confidence"":0}","[0]",""
"","","call-function","443","1385087","0.0-443.0","","","","","","","","",""
"","null","html-keyboard-response","444","1388092","0.0-444.0","<span style=""color:Black; font-size:50px;"">Agent A","null","","","","","","",""
"","null","video-keyboard-response","445","1391209","0.0-445.0","","null","","Agent A","veridical","STIM_SET_2/0_1160155.bmppp67_L1V1_freeview_veridical_mapOnly.mp4","","",""
"","null","html-keyboard-response","446","1394211","0.0-446.0","<span style=""color:Black; font-size:50px;"">Agent B","null","","","","","","",""
"","null","video-keyboard-response","447","1397321","0.0-447.0","","null","","Agent B","scrambled","STIM_SET_2/0_1160155.bmppp67_L1V1_freeview_scrambled_mapOnly.mp4","","",""
"","","call-function","448","1397322","0.0-448.0","","","","","","","","",""
"","1828.3149999999441","survey-likert","449","1399151","0.0-449.0","","","","","","","{""judgement"":0}","[0]","0"
"","1366.6850000000559","survey-likert","450","1400519","0.0-450.0","","","","","","","{""confidence"":2}","[0]",""
"","","call-function","451","1400519","0.0-451.0","","","","","","","","",""
"","null","html-keyboard-response","452","1403522","0.0-452.0","<span style=""color:Black; font-size:50px;"">Agent A","null","","","","","","",""
"","null","video-keyboard-response","453","1406612","0.0-453.0","","null","","Agent A","scrambled","STIM_SET_2/0_1592747.bmppp62_L1V1_freeview_scrambled_mapOnly.mp4","","",""
"","null","html-keyboard-response","454","1409617","0.0-454.0","<span style=""color:Black; font-size:50px;"">Agent B","null","","","","","","",""
"","null","video-keyboard-response","455","1412705","0.0-455.0","","null","","Agent B","veridical","STIM_SET_2/0_1592747.bmppp62_L1V1_freeview_veridical_mapOnly.mp4","","",""
"","","call-function","456","1412705","0.0-456.0","","","","","","","","",""
"","2668.094999999972","survey-likert","457","1415374","0.0-457.0","","","","","","","{""judgement"":1}","[0]","1"
"","1134.625","survey-likert","458","1416510","0.0-458.0","","","","","","","{""confidence"":1}","[0]",""
"","","call-function","459","1416510","0.0-459.0","","","","","","","","",""
"","null","html-keyboard-response","460","1419514","0.0-460.0","<span style=""color:Black; font-size:50px;"">Agent A","null","","","","","","",""
"","null","video-keyboard-response","461","1422601","0.0-461.0","","null","","Agent A","veridical","STIM_SET_2/0_713512.bmppp54_L1V1_freeview_veridical_mapOnly.mp4","","",""
"","null","html-keyboard-response","462","1425604","0.0-462.0","<span style=""color:Black; font-size:50px;"">Agent B","null","","","","","","",""
"","null","video-keyboard-response","463","1428692","0.0-463.0","","null","","Agent B","scrambled","STIM_SET_2/0_713512.bmppp54_L1V1_freeview_scrambled_mapOnly.mp4","","",""
"","","call-function","464","1428692","0.0-464.0","","","","","","","","",""
"","4105.465000000084","survey-likert","465","1432798","0.0-465.0","","","","","","","{""judgement"":0}","[0]","0"
"","1143.3549999999814","survey-likert","466","1433943","0.0-466.0","","","","","","","{""confidence"":0}","[0]",""
"","","call-function","467","1433943","0.0-467.0","","","","","","","","",""
"","null","html-keyboard-response","468","1436947","0.0-468.0","<span style=""color:Black; font-size:50px;"">Agent A","null","","","","","","",""
"","null","video-keyboard-response","469","1440046","0.0-469.0","","null","","Agent A","veridical","STIM_SET_2/0_1159874.bmppp152_L1V1_freeview_veridical_mapOnly.mp4","","",""
"","null","html-keyboard-response","470","1443050","0.0-470.0","<span style=""color:Black; font-size:50px;"">Agent B","null","","","","","","",""
"","null","video-keyboard-response","471","1446149","0.0-471.0","","null","","Agent B","scrambled","STIM_SET_2/0_1159874.bmppp152_L1V1_freeview_scrambled_mapOnly.mp4","","",""
"","","call-function","472","1446150","0.0-472.0","","","","","","","","",""
"","2496.0799999998417","survey-likert","473","1448647","0.0-473.0","","","","","","","{""judgement"":1}","[0]","0"
"","2103.314999999944","survey-likert","474","1450751","0.0-474.0","","","","","","","{""confidence"":0}","[0]",""
"","","call-function","475","1450751","0.0-475.0","","","","","","","","",""
"","null","html-keyboard-response","476","1453754","0.0-476.0","<span style=""color:Black; font-size:50px;"">Agent A","null","","","","","","",""
"","null","video-keyboard-response","477","1456858","0.0-477.0","","null","","Agent A","scrambled","STIM_SET_2/0_1592394.bmppp86_L1V1_freeview_scrambled_mapOnly.mp4","","",""
"","null","html-keyboard-response","478","1459864","0.0-478.0","<span style=""color:Black; font-size:50px;"">Agent B","null","","","","","","",""
"","null","video-keyboard-response","479","1462964","0.0-479.0","","null","","Agent B","veridical","STIM_SET_2/0_1592394.bmppp86_L1V1_freeview_veridical_mapOnly.mp4","","",""
"","","call-function","480","1462965","0.0-480.0","","","","","","","","",""
"","2184.965000000084","survey-likert","481","1465150","0.0-481.0","","","","","","","{""judgement"":1}","[0]","1"
"","1127.1700000001583","survey-likert","482","1466279","0.0-482.0","","","","","","","{""confidence"":3}","[0]",""
"","","call-function","483","1466279","0.0-483.0","","","","","","","","",""
"","null","html-keyboard-response","484","1469280","0.0-484.0","<span style=""color:Black; font-size:50px;"">Agent A","null","","","","","","",""
"","null","video-keyboard-response","485","1472368","0.0-485.0","","null","","Agent A","scrambled","STIM_SET_2/0_1159325.bmppp99_L1V1_freeview_scrambled_mapOnly.mp4","","",""
"","null","html-keyboard-response","486","1475373","0.0-486.0","<span style=""color:Black; font-size:50px;"">Agent B","null","","","","","","",""
"","null","video-keyboard-response","487","1478464","0.0-487.0","","null","","Agent B","veridical","STIM_SET_2/0_1159325.bmppp99_L1V1_freeview_veridical_mapOnly.mp4","","",""
"","","call-function","488","1478464","0.0-488.0","","","","","","","","",""
"","1693.5700000000652","survey-likert","489","1480158","0.0-489.0","","","","","","","{""judgement"":1}","[0]","1"
"","1038.4799999999814","survey-likert","490","1481198","0.0-490.0","","","","","","","{""confidence"":1}","[0]",""
"","","call-function","491","1481198","0.0-491.0","","","","","","","","",""
"","null","html-keyboard-response","492","1484200","0.0-492.0","<span style=""color:Black; font-size:50px;"">Agent A","null","","","","","","",""
"","null","video-keyboard-response","493","1487299","0.0-493.0","","null","","Agent A","scrambled","STIM_SET_2/0_107909.bmppp94_L1V1_freeview_scrambled_mapOnly.mp4","","",""
"","null","html-keyboard-response","494","1490301","0.0-494.0","<span style=""color:Black; font-size:50px;"">Agent B","null","","","","","","",""
"","null","video-keyboard-response","495","1493394","0.0-495.0","","null","","Agent B","veridical","STIM_SET_2/0_107909.bmppp94_L1V1_freeview_veridical_mapOnly.mp4","","",""
"","","call-function","496","1493395","0.0-496.0","","","","","","","","",""
"","3171.2700000000186","survey-likert","497","1496567","0.0-497.0","","","","","","","{""judgement"":1}","[0]","1"
"","1422.744999999879","survey-likert","498","1497991","0.0-498.0","","","","","","","{""confidence"":2}","[0]",""
"[{""page_index"":0,""viewing_time"":50565.715000000084},{""page_index"":1,""viewing_time"":1319.8549999999814},{""page_index"":2,""viewing_time"":784}]","52669.71999999997","instructions","499","1550662","0.0-499.0","","","","","","","","",""
"[{""page_index"":0,""viewing_time"":582.4550000000745},{""page_index"":1,""viewing_time"":592.1200000001118},{""page_index"":2,""viewing_time"":696.0249999999069}]","1870.7050000000745","instructions","500","1552534","0.0-500.0","","","","","","","","",""
"","","call-function","501","1552535","0.0-501.0","","","","","","","","",""
"","null","html-keyboard-response","502","1555537","0.0-502.0","<span style=""color:Black; font-size:50px;"">Agent A","null","","","","","","",""
"","null","video-keyboard-response","503","1558633","0.0-503.0","","null","","Agent A","veridical","STIM_SET_2/0_61514.bmppp67_L1V1_freeview_veridical_mapOnly.mp4","","",""
"","null","html-keyboard-response","504","1561637","0.0-504.0","<span style=""color:Black; font-size:50px;"">Agent B","null","","","","","","",""
"","null","video-keyboard-response","505","1564728","0.0-505.0","","null","","Agent B","scrambled","STIM_SET_2/0_61514.bmppp67_L1V1_freeview_scrambled_mapOnly.mp4","","",""
"","","call-function","506","1564728","0.0-506.0","","","","","","","","",""
"","2277.090000000084","survey-likert","507","1567006","0.0-507.0","","","","","","","{""judgement"":0}","[0]","0"
"","1910.875","survey-likert","508","1568918","0.0-508.0","","","","","","","{""confidence"":2}","[0]",""
"","","call-function","509","1568919","0.0-509.0","","","","","","","","",""
"","null","html-keyboard-response","510","1571925","0.0-510.0","<span style=""color:Black; font-size:50px;"">Agent A","null","","","","","","",""
"","null","video-keyboard-response","511","1575003","0.0-511.0","","null","","Agent A","scrambled","STIM_SET_2/0_713730.bmppp82_L1V1_freeview_scrambled_mapOnly.mp4","","",""
"","null","html-keyboard-response","512","1578009","0.0-512.0","<span style=""color:Black; font-size:50px;"">Agent B","null","","","","","","",""
"","null","video-keyboard-response","513","1581090","0.0-513.0","","null","","Agent B","veridical","STIM_SET_2/0_713730.bmppp82_L1V1_freeview_veridical_mapOnly.mp4","","",""
"","","call-function","514","1581091","0.0-514.0","","","","","","","","",""
"","1403.4650000000838","survey-likert","515","1582495","0.0-515.0","","","","","","","{""judgement"":1}","[0]","1"
"","1326.8000000000466","survey-likert","516","1583823","0.0-516.0","","","","","","","{""confidence"":2}","[0]",""
"","","call-function","517","1583823","0.0-517.0","","","","","","","","",""
"","null","html-keyboard-response","518","1586826","0.0-518.0","<span style=""color:Black; font-size:50px;"">Agent A","null","","","","","","",""
"","null","video-keyboard-response","519","1589918","0.0-519.0","","null","","Agent A","veridical","STIM_SET_2/0_713779.bmppp67_L1V1_freeview_veridical_mapOnly.mp4","","",""
"","null","html-keyboard-response","520","1592922","0.0-520.0","<span style=""color:Black; font-size:50px;"">Agent B","null","","","","","","",""
"","null","video-keyboard-response","521","1596011","0.0-521.0","","null","","Agent B","scrambled","STIM_SET_2/0_713779.bmppp67_L1V1_freeview_scrambled_mapOnly.mp4","","",""
"","","call-function","522","1596011","0.0-522.0","","","","","","","","",""
"","1426.255000000121","survey-likert","523","1597438","0.0-523.0","","","","","","","{""judgement"":0}","[0]","0"
"","1311.719999999972","survey-likert","524","1598751","0.0-524.0","","","","","","","{""confidence"":3}","[0]",""
"","","call-function","525","1598751","0.0-525.0","","","","","","","","",""
"","null","html-keyboard-response","526","1601757","0.0-526.0","<span style=""color:Black; font-size:50px;"">Agent A","null","","","","","","",""
"","null","video-keyboard-response","527","1604820","0.0-527.0","","null","","Agent A","veridical","STIM_SET_2/0_1592352.bmppp82_L1V1_freeview_veridical_mapOnly.mp4","","",""
"","null","html-keyboard-response","528","1607822","0.0-528.0","<span style=""color:Black; font-size:50px;"">Agent B","null","","","","","","",""
"","null","video-keyboard-response","529","1610885","0.0-529.0","","null","","Agent B","scrambled","STIM_SET_2/0_1592352.bmppp82_L1V1_freeview_scrambled_mapOnly.mp4","","",""
"","","call-function","530","1610885","0.0-530.0","","","","","","","","",""
"","1544.4350000000559","survey-likert","531","1612431","0.0-531.0","","","","","","","{""judgement"":1}","[0]","0"
"","1158.9550000000745","survey-likert","532","1613591","0.0-532.0","","","","","","","{""confidence"":0}","[0]",""
"","","call-function","533","1613591","0.0-533.0","","","","","","","","",""
"","null","html-keyboard-response","534","1616594","0.0-534.0","<span style=""color:Black; font-size:50px;"">Agent A","null","","","","","","",""
"","null","video-keyboard-response","535","1619662","0.0-535.0","","null","","Agent A","scrambled","STIM_SET_2/0_1592193.bmppp70_L1V1_freeview_scrambled_mapOnly.mp4","","",""
"","null","html-keyboard-response","536","1622666","0.0-536.0","<span style=""color:Black; font-size:50px;"">Agent B","null","","","","","","",""
"","null","video-keyboard-response","537","1625732","0.0-537.0","","null","","Agent B","veridical","STIM_SET_2/0_1592193.bmppp70_L1V1_freeview_veridical_mapOnly.mp4","","",""
"","","call-function","538","1625732","0.0-538.0","","","","","","","","",""
"","1337.785000000149","survey-likert","539","1627071","0.0-539.0","","","","","","","{""judgement"":1}","[0]","1"
"","1214.6850000000559","survey-likert","540","1628287","0.0-540.0","","","","","","","{""confidence"":0}","[0]",""
"","","call-function","541","1628287","0.0-541.0","","","","","","","","",""
"","null","html-keyboard-response","542","1631292","0.0-542.0","<span style=""color:Black; font-size:50px;"">Agent A","null","","","","","","",""
"","null","video-keyboard-response","543","1634401","0.0-543.0","","null","","Agent A","veridical","STIM_SET_2/0_1159847.bmppp95_L1V1_freeview_veridical_mapOnly.mp4","","",""
"","null","html-keyboard-response","544","1637405","0.0-544.0","<span style=""color:Black; font-size:50px;"">Agent B","null","","","","","","",""
"","null","video-keyboard-response","545","1640514","0.0-545.0","","null","","Agent B","scrambled","STIM_SET_2/0_1159847.bmppp95_L1V1_freeview_scrambled_mapOnly.mp4","","",""
"","","call-function","546","1640515","0.0-546.0","","","","","","","","",""
"","1892.3200000000652","survey-likert","547","1642408","0.0-547.0","","","","","","","{""judgement"":1}","[0]","0"
"","1245.155000000028","survey-likert","548","1643654","0.0-548.0","","","","","","","{""confidence"":1}","[0]",""
"","","call-function","549","1643655","0.0-549.0","","","","","","","","",""
"","null","html-keyboard-response","550","1646658","0.0-550.0","<span style=""color:Black; font-size:50px;"">Agent A","null","","","","","","",""
"","null","video-keyboard-response","551","1649758","0.0-551.0","","null","","Agent A","scrambled","STIM_SET_2/0_498388.bmppp62_L1V1_freeview_scrambled_mapOnly.mp4","","",""
"","null","html-keyboard-response","552","1652759","0.0-552.0","<span style=""color:Black; font-size:50px;"">Agent B","null","","","","","","",""
"","null","video-keyboard-response","553","1655856","0.0-553.0","","null","","Agent B","veridical","STIM_SET_2/0_498388.bmppp62_L1V1_freeview_veridical_mapOnly.mp4","","",""
"","","call-function","554","1655857","0.0-554.0","","","","","","","","",""
"","1653.4599999999627","survey-likert","555","1657511","0.0-555.0","","","","","","","{""judgement"":1}","[0]","1"
"","840.2349999998696","survey-likert","556","1658353","0.0-556.0","","","","","","","{""confidence"":1}","[0]",""
"","","call-function","557","1658353","0.0-557.0","","","","","","","","",""
"","null","html-keyboard-response","558","1661357","0.0-558.0","<span style=""color:Black; font-size:50px;"">Agent A","null","","","","","","",""
"","null","video-keyboard-response","559","1664456","0.0-559.0","","null","","Agent A","scrambled","STIM_SET_2/0_498286.bmppp94_L1V1_freeview_scrambled_mapOnly.mp4","","",""
"","null","html-keyboard-response","560","1667458","0.0-560.0","<span style=""color:Black; font-size:50px;"">Agent B","null","","","","","","",""
"","null","video-keyboard-response","561","1670557","0.0-561.0","","null","","Agent B","veridical","STIM_SET_2/0_498286.bmppp94_L1V1_freeview_veridical_mapOnly.mp4","","",""
"","","call-function","562","1670558","0.0-562.0","","","","","","","","",""
"","1559.9299999999348","survey-likert","563","1672119","0.0-563.0","","","","","","","{""judgement"":1}","[0]","1"
"","1054.714999999851","survey-likert","564","1673175","0.0-564.0","","","","","","","{""confidence"":1}","[0]",""
"","","call-function","565","1673176","0.0-565.0","","","","","","","","",""
"","null","html-keyboard-response","566","1676177","0.0-566.0","<span style=""color:Black; font-size:50px;"">Agent A","null","","","","","","",""
"","null","video-keyboard-response","567","1679238","0.0-567.0","","null","","Agent A","veridical","STIM_SET_2/0_713135.bmppp99_L1V1_freeview_veridical_mapOnly.mp4","","",""
"","null","html-keyboard-response","568","1682239","0.0-568.0","<span style=""color:Black; font-size:50px;"">Agent B","null","","","","","","",""
"","null","video-keyboard-response","569","1685298","0.0-569.0","","null","","Agent B","scrambled","STIM_SET_2/0_713135.bmppp99_L1V1_freeview_scrambled_mapOnly.mp4","","",""
"","","call-function","570","1685298","0.0-570.0","","","","","","","","",""
"","1907.2000000001863","survey-likert","571","1687206","0.0-571.0","","","","","","","{""judgement"":0}","[0]","0"
"","1951.0149999998976","survey-likert","572","1689158","0.0-572.0","","","","","","","{""confidence"":0}","[0]",""
"","","call-function","573","1689159","0.0-573.0","","","","","","","","",""
"","null","html-keyboard-response","574","1692164","0.0-574.0","<span style=""color:Black; font-size:50px;"">Agent A","null","","","","","","",""
"","null","video-keyboard-response","575","1695257","0.0-575.0","","null","","Agent A","scrambled","STIM_SET_2/0_713028.bmppp70_L1V1_freeview_scrambled_mapOnly.mp4","","",""
"","null","html-keyboard-response","576","1698259","0.0-576.0","<span style=""color:Black; font-size:50px;"">Agent B","null","","","","","","",""
"","null","video-keyboard-response","577","1701353","0.0-577.0","","null","","Agent B","veridical","STIM_SET_2/0_713028.bmppp70_L1V1_freeview_veridical_mapOnly.mp4","","",""
"","","call-function","578","1701354","0.0-578.0","","","","","","","","",""
"","1396.0799999998417","survey-likert","579","1702751","0.0-579.0","","","","","","","{""judgement"":0}","[0]","1"
"","1695.4099999999162","survey-likert","580","1704448","0.0-580.0","","","","","","","{""confidence"":1}","[0]",""
"[{""page_index"":0,""viewing_time"":1365.464999999851}]","1365.6149999999907","instructions","581","1705814","0.0-581.0","","","","","","","","",""
"","48284.840000000084","survey-text","582","1754111","0.0-582.0","","","","","","","{""Q0"":""there was a trial with only two spotlights, and it was the same for agent A and B. I found it more difficult to focus and easier to zone out during this one compared to the other.""}","",""
"","31819.804999999935","survey-text","583","1785935","0.0-583.0","","","","","","","{""Q0"":""looked for \""smoother\"" movements and judged those as human. Jumpy movements were fake.""}","",""
"","27636.78500000015","survey-text","584","1813575","0.0-584.0","","","","","","","{""Q0"":""keeping focused""}","",""
"[{""page_index"":0,""viewing_time"":1110.3500000000931}]","1110.4600000001956","instructions","585","1814686","0.0-585.0","","","","","","","","",""
