"view_history","rt","trial_type","trial_index","time_elapsed","internal_node_id","stimulus","key_press","value","agent","condition","image","responses","question_order","correct_answer"
"[{""page_index"":0,""viewing_time"":291746.885}]","291747.59500000003","instructions","0","291753","0.0-0.0","","","","","","","","",""
"[{""page_index"":0,""viewing_time"":2268.805000000051},{""page_index"":1,""viewing_time"":16415.755000000005},{""page_index"":2,""viewing_time"":5280.349999999977}]","23965.34500000003","instructions","1","315720","0.0-1.0","","","","","","","","",""
"[{""page_index"":0,""viewing_time"":10782.75}]","10783.060000000056","instructions","2","326504","0.0-2.0","","","","","","","","",""
"","null","video-keyboard-response","3","329553","0.0-3.0","","null","","","","","","",""
"[{""page_index"":0,""viewing_time"":4766.684999999998},{""page_index"":1,""viewing_time"":4591.940000000002},{""page_index"":2,""viewing_time"":1359.7099999999627},{""page_index"":3,""viewing_time"":6608.179999999993},{""page_index"":4,""viewing_time"":7543.685000000056}]","24870.54999999999","instructions","4","354424","0.0-4.0","","","","","","","","",""
"[{""page_index"":0,""viewing_time"":5855.340000000026}]","5855.675000000047","instructions","5","360280","0.0-5.0","","","","","","","","",""
"","","call-function","6","360281","0.0-6.0","","","","","","","","",""
"","null","html-keyboard-response","7","363286","0.0-7.0","<span style=""color:Black; font-size:50px;"">Agent A","null","","","","","","",""
"","null","video-keyboard-response","8","366321","0.0-8.0","","null","","Agent A","veridical","STIM_SET_1/0_1592530.bmppp89_L1V1_freeview_veridical.mp4","","",""
"","null","html-keyboard-response","9","369326","0.0-9.0","<span style=""color:Black; font-size:50px;"">Agent B","null","","","","","","",""
"","null","video-keyboard-response","10","372363","0.0-10.0","","null","","Agent B","scrambled","STIM_SET_1/0_1592530.bmppp89_L1V1_freeview_scrambled.mp4","","",""
"","","call-function","11","372364","0.0-11.0","","","","","","","","",""
"","3587.1399999999558","survey-likert","12","375953","0.0-12.0","","","","","","","{""judgement"":0}","[0]","0"
"","4621.459999999963","survey-likert","13","380576","0.0-13.0","","","","","","","{""confidence"":1}","[0]",""
"","","call-function","14","380577","0.0-14.0","","","","","","","","",""
"","null","html-keyboard-response","15","383582","0.0-15.0","<span style=""color:Black; font-size:50px;"">Agent A","null","","","","","","",""
"","null","video-keyboard-response","16","386626","0.0-16.0","","null","","Agent A","scrambled","STIM_SET_1/0_1592568.bmppp93_L1V1_freeview_scrambled.mp4","","",""
"","null","html-keyboard-response","17","389632","0.0-17.0","<span style=""color:Black; font-size:50px;"">Agent B","null","","","","","","",""
"","null","video-keyboard-response","18","392709","0.0-18.0","","null","","Agent B","veridical","STIM_SET_1/0_1592568.bmppp93_L1V1_freeview_veridical.mp4","","",""
"","","call-function","19","392709","0.0-19.0","","","","","","","","",""
"","9474.380000000005","survey-likert","20","402184","0.0-20.0","","","","","","","{""judgement"":1}","[0]","1"
"","14998.930000000051","survey-likert","21","417185","0.0-21.0","","","","","","","{""confidence"":0}","[0]",""
"","","call-function","22","417185","0.0-22.0","","","","","","","","",""
"","null","html-keyboard-response","23","420189","0.0-23.0","<span style=""color:Black; font-size:50px;"">Agent A","null","","","","","","",""
"","null","video-keyboard-response","24","423242","0.0-24.0","","null","","Agent A","veridical","STIM_SET_1/0_1160189.bmppp89_L1V1_freeview_veridical.mp4","","",""
"","null","html-keyboard-response","25","426243","0.0-25.0","<span style=""color:Black; font-size:50px;"">Agent B","null","","","","","","",""
"","null","video-keyboard-response","26","429492","0.0-26.0","","null","","Agent B","scrambled","STIM_SET_1/0_1160189.bmppp89_L1V1_freeview_scrambled.mp4","","",""
"","","call-function","27","429492","0.0-27.0","","","","","","","","",""
"","9178.854999999981","survey-likert","28","438672","0.0-28.0","","","","","","","{""judgement"":0}","[0]","0"
"","3270.4249999999884","survey-likert","29","441944","0.0-29.0","","","","","","","{""confidence"":1}","[0]",""
"","","call-function","30","441944","0.0-30.0","","","","","","","","",""
"","null","html-keyboard-response","31","444947","0.0-31.0","<span style=""color:Black; font-size:50px;"">Agent A","null","","","","","","",""
"","null","video-keyboard-response","32","448012","0.0-32.0","","null","","Agent A","scrambled","STIM_SET_1/0_713936.bmppp76_L1V1_freeview_scrambled.mp4","","",""
"","null","html-keyboard-response","33","451013","0.0-33.0","<span style=""color:Black; font-size:50px;"">Agent B","null","","","","","","",""
"","null","video-keyboard-response","34","454074","0.0-34.0","","null","","Agent B","veridical","STIM_SET_1/0_713936.bmppp76_L1V1_freeview_veridical.mp4","","",""
"","","call-function","35","454075","0.0-35.0","","","","","","","","",""
"","2996.905000000028","survey-likert","36","457073","0.0-36.0","","","","","","","{""judgement"":1}","[0]","1"
"","4118.614999999991","survey-likert","37","461193","0.0-37.0","","","","","","","{""confidence"":1}","[0]",""
"","","call-function","38","461193","0.0-38.0","","","","","","","","",""
"","null","html-keyboard-response","39","464196","0.0-39.0","<span style=""color:Black; font-size:50px;"">Agent A","null","","","","","","",""
"","null","video-keyboard-response","40","467260","0.0-40.0","","null","","Agent A","veridical","STIM_SET_1/0_285933.bmppp52_L1V1_freeview_veridical.mp4","","",""
"","null","html-keyboard-response","41","470263","0.0-41.0","<span style=""color:Black; font-size:50px;"">Agent B","null","","","","","","",""
"","null","video-keyboard-response","42","473329","0.0-42.0","","null","","Agent B","scrambled","STIM_SET_1/0_285933.bmppp52_L1V1_freeview_scrambled.mp4","","",""
"","","call-function","43","473330","0.0-43.0","","","","","","","","",""
"","9165.590000000026","survey-likert","44","482496","0.0-44.0","","","","","","","{""judgement"":0}","[0]","0"
"","2590.8799999999464","survey-likert","45","485089","0.0-45.0","","","","","","","{""confidence"":1}","[0]",""
"","","call-function","46","485089","0.0-46.0","","","","","","","","",""
"","null","html-keyboard-response","47","488090","0.0-47.0","<span style=""color:Black; font-size:50px;"">Agent A","null","","","","","","",""
"","null","video-keyboard-response","48","491162","0.0-48.0","","null","","Agent A","scrambled","STIM_SET_1/0_498326.bmppp63_L1V1_freeview_scrambled.mp4","","",""
"","null","html-keyboard-response","49","494168","0.0-49.0","<span style=""color:Black; font-size:50px;"">Agent B","null","","","","","","",""
"","null","video-keyboard-response","50","497239","0.0-50.0","","null","","Agent B","veridical","STIM_SET_1/0_498326.bmppp63_L1V1_freeview_veridical.mp4","","",""
"","","call-function","51","497239","0.0-51.0","","","","","","","","",""
"","11464.635000000068","survey-likert","52","508705","0.0-52.0","","","","","","","{""judgement"":1}","[0]","1"
"","2262.6450000000186","survey-likert","53","510969","0.0-53.0","","","","","","","{""confidence"":0}","[0]",""
"","","call-function","54","510969","0.0-54.0","","","","","","","","",""
"","null","html-keyboard-response","55","513975","0.0-55.0","<span style=""color:Black; font-size:50px;"">Agent A","null","","","","","","",""
"","null","video-keyboard-response","56","517058","0.0-56.0","","null","","Agent A","veridical","STIM_SET_1/0_1159440.bmppp98_L1V1_freeview_veridical.mp4","","",""
"","null","html-keyboard-response","57","520058","0.0-57.0","<span style=""color:Black; font-size:50px;"">Agent B","null","","","","","","",""
"","null","video-keyboard-response","58","523841","0.0-58.0","","null","","Agent B","scrambled","STIM_SET_1/0_1159440.bmppp98_L1V1_freeview_scrambled.mp4","","",""
"","","call-function","59","523842","0.0-59.0","","","","","","","","",""
"","2701.350000000035","survey-likert","60","526544","0.0-60.0","","","","","","","{""judgement"":0}","[0]","0"
"","4423.195000000065","survey-likert","61","530969","0.0-61.0","","","","","","","{""confidence"":1}","[0]",""
"","","call-function","62","530969","0.0-62.0","","","","","","","","",""
"","null","html-keyboard-response","63","533973","0.0-63.0","<span style=""color:Black; font-size:50px;"">Agent A","null","","","","","","",""
"","null","video-keyboard-response","64","537021","0.0-64.0","","null","","Agent A","veridical","STIM_SET_1/0_498280.bmppp81_L1V1_freeview_veridical.mp4","","",""
"","null","html-keyboard-response","65","540022","0.0-65.0","<span style=""color:Black; font-size:50px;"">Agent B","null","","","","","","",""
"","null","video-keyboard-response","66","543063","0.0-66.0","","null","","Agent B","scrambled","STIM_SET_1/0_498280.bmppp81_L1V1_freeview_scrambled.mp4","","",""
"","","call-function","67","543064","0.0-67.0","","","","","","","","",""
"","2551.1049999999814","survey-likert","68","545617","0.0-68.0","","","","","","","{""judgement"":0}","[0]","0"
"","1822.265000000014","survey-likert","69","547440","0.0-69.0","","","","","","","{""confidence"":2}","[0]",""
"","","call-function","70","547441","0.0-70.0","","","","","","","","",""
"","null","html-keyboard-response","71","550447","0.0-71.0","<span style=""color:Black; font-size:50px;"">Agent A","null","","","","","","",""
"","null","video-keyboard-response","72","553492","0.0-72.0","","null","","Agent A","scrambled","STIM_SET_1/0_1592133.bmppp63_L1V1_freeview_scrambled.mp4","","",""
"","null","html-keyboard-response","73","556496","0.0-73.0","<span style=""color:Black; font-size:50px;"">Agent B","null","","","","","","",""
"","null","video-keyboard-response","74","559562","0.0-74.0","","null","","Agent B","veridical","STIM_SET_1/0_1592133.bmppp63_L1V1_freeview_veridical.mp4","","",""
"","","call-function","75","559562","0.0-75.0","","","","","","","","",""
"","2197.469999999972","survey-likert","76","561761","0.0-76.0","","","","","","","{""judgement"":1}","[0]","1"
"","2350.1550000001444","survey-likert","77","564113","0.0-77.0","","","","","","","{""confidence"":2}","[0]",""
"","","call-function","78","564113","0.0-78.0","","","","","","","","",""
"","null","html-keyboard-response","79","567119","0.0-79.0","<span style=""color:Black; font-size:50px;"">Agent A","null","","","","","","",""
"","null","video-keyboard-response","80","570193","0.0-80.0","","null","","Agent A","scrambled","STIM_SET_1/0_1159425.bmppp58_L1V1_freeview_scrambled.mp4","","",""
"","null","html-keyboard-response","81","573198","0.0-81.0","<span style=""color:Black; font-size:50px;"">Agent B","null","","","","","","",""
"","null","video-keyboard-response","82","576262","0.0-82.0","","null","","Agent B","veridical","STIM_SET_1/0_1159425.bmppp58_L1V1_freeview_veridical.mp4","","",""
"","","call-function","83","576263","0.0-83.0","","","","","","","","",""
"","4896.869999999995","survey-likert","84","581161","0.0-84.0","","","","","","","{""judgement"":1}","[0]","1"
"","1862.6049999999814","survey-likert","85","583025","0.0-85.0","","","","","","","{""confidence"":1}","[0]",""
"[{""page_index"":0,""viewing_time"":2022.4150000000373},{""page_index"":1,""viewing_time"":1271.8699999999953},{""page_index"":2,""viewing_time"":1080.1149999999907}]","4374.744999999995","instructions","86","587400","0.0-86.0","","","","","","","","",""
"[{""page_index"":0,""viewing_time"":1727.0449999999255},{""page_index"":1,""viewing_time"":3127.9000000000233},{""page_index"":2,""viewing_time"":1672.1450000000186}]","6527.42499999993","instructions","87","593928","0.0-87.0","","","","","","","","",""
"","","call-function","88","593929","0.0-88.0","","","","","","","","",""
"","null","html-keyboard-response","89","596934","0.0-89.0","<span style=""color:Black; font-size:50px;"">Agent A","null","","","","","","",""
"","null","video-keyboard-response","90","599998","0.0-90.0","","null","","Agent A","veridical","STIM_SET_1/0_713371.bmppp93_L1V1_freeview_veridical.mp4","","",""
"","null","html-keyboard-response","91","603000","0.0-91.0","<span style=""color:Black; font-size:50px;"">Agent B","null","","","","","","",""
"","null","video-keyboard-response","92","606059","0.0-92.0","","null","","Agent B","scrambled","STIM_SET_1/0_713371.bmppp93_L1V1_freeview_scrambled.mp4","","",""
"","","call-function","93","606059","0.0-93.0","","","","","","","","",""
"","2331.914999999921","survey-likert","94","608392","0.0-94.0","","","","","","","{""judgement"":0}","[0]","0"
"","2126.839999999851","survey-likert","95","610521","0.0-95.0","","","","","","","{""confidence"":2}","[0]",""
"","","call-function","96","610521","0.0-96.0","","","","","","","","",""
"","null","html-keyboard-response","97","613524","0.0-97.0","<span style=""color:Black; font-size:50px;"">Agent A","null","","","","","","",""
"","null","video-keyboard-response","98","616586","0.0-98.0","","null","","Agent A","veridical","STIM_SET_1/0_286066.bmppp151_L1V1_freeview_veridical.mp4","","",""
"","null","html-keyboard-response","99","619590","0.0-99.0","<span style=""color:Black; font-size:50px;"">Agent B","null","","","","","","",""
"","null","video-keyboard-response","100","622656","0.0-100.0","","null","","Agent B","scrambled","STIM_SET_1/0_286066.bmppp151_L1V1_freeview_scrambled.mp4","","",""
"","","call-function","101","622656","0.0-101.0","","","","","","","","",""
"","16495.265000000014","survey-likert","102","639153","0.0-102.0","","","","","","","{""judgement"":1}","[0]","0"
"","2598.535000000149","survey-likert","103","641753","0.0-103.0","","","","","","","{""confidence"":0}","[0]",""
"","","call-function","104","641753","0.0-104.0","","","","","","","","",""
"","null","html-keyboard-response","105","644755","0.0-105.0","<span style=""color:Black; font-size:50px;"">Agent A","null","","","","","","",""
"","null","video-keyboard-response","106","647821","0.0-106.0","","null","","Agent A","veridical","STIM_SET_1/0_1592286.bmppp57_L1V1_freeview_veridical.mp4","","",""
"","null","html-keyboard-response","107","650825","0.0-107.0","<span style=""color:Black; font-size:50px;"">Agent B","null","","","","","","",""
"","null","video-keyboard-response","108","653891","0.0-108.0","","null","","Agent B","scrambled","STIM_SET_1/0_1592286.bmppp57_L1V1_freeview_scrambled.mp4","","",""
"","","call-function","109","653891","0.0-109.0","","","","","","","","",""
"","2452.6500000000233","survey-likert","110","656345","0.0-110.0","","","","","","","{""judgement"":0}","[0]","0"
"","2422.5","survey-likert","111","658769","0.0-111.0","","","","","","","{""confidence"":2}","[0]",""
"","","call-function","112","658770","0.0-112.0","","","","","","","","",""
"","null","html-keyboard-response","113","661775","0.0-113.0","<span style=""color:Black; font-size:50px;"">Agent A","null","","","","","","",""
"","null","video-keyboard-response","114","664834","0.0-114.0","","null","","Agent A","veridical","STIM_SET_1/0_1592233.bmppp58_L1V1_freeview_veridical.mp4","","",""
"","null","html-keyboard-response","115","667836","0.0-115.0","<span style=""color:Black; font-size:50px;"">Agent B","null","","","","","","",""
"","null","video-keyboard-response","116","670897","0.0-116.0","","null","","Agent B","scrambled","STIM_SET_1/0_1592233.bmppp58_L1V1_freeview_scrambled.mp4","","",""
"","","call-function","117","670897","0.0-117.0","","","","","","","","",""
"","7982.710000000079","survey-likert","118","678881","0.0-118.0","","","","","","","{""judgement"":1}","[0]","0"
"","2414.2149999999674","survey-likert","119","681297","0.0-119.0","","","","","","","{""confidence"":1}","[0]",""
"","","call-function","120","681298","0.0-120.0","","","","","","","","",""
"","null","html-keyboard-response","121","684299","0.0-121.0","<span style=""color:Black; font-size:50px;"">Agent A","null","","","","","","",""
"","null","video-keyboard-response","122","687340","0.0-122.0","","null","","Agent A","scrambled","STIM_SET_1/0_713760.bmppp75_L1V1_freeview_scrambled.mp4","","",""
"","null","html-keyboard-response","123","690342","0.0-123.0","<span style=""color:Black; font-size:50px;"">Agent B","null","","","","","","",""
"","null","video-keyboard-response","124","693382","0.0-124.0","","null","","Agent B","veridical","STIM_SET_1/0_713760.bmppp75_L1V1_freeview_veridical.mp4","","",""
"","","call-function","125","693382","0.0-125.0","","","","","","","","",""
"","7497.145000000019","survey-likert","126","700881","0.0-126.0","","","","","","","{""judgement"":0}","[0]","1"
"","2502.804999999935","survey-likert","127","703385","0.0-127.0","","","","","","","{""confidence"":0}","[0]",""
"","","call-function","128","703386","0.0-128.0","","","","","","","","",""
"","null","html-keyboard-response","129","706387","0.0-129.0","<span style=""color:Black; font-size:50px;"">Agent A","null","","","","","","",""
"","null","video-keyboard-response","130","709429","0.0-130.0","","null","","Agent A","veridical","STIM_SET_1/0_1593041.bmppp89_L1V1_freeview_veridical.mp4","","",""
"","null","html-keyboard-response","131","712436","0.0-131.0","<span style=""color:Black; font-size:50px;"">Agent B","null","","","","","","",""
"","null","video-keyboard-response","132","715477","0.0-132.0","","null","","Agent B","scrambled","STIM_SET_1/0_1593041.bmppp89_L1V1_freeview_scrambled.mp4","","",""
"","","call-function","133","715477","0.0-133.0","","","","","","","","",""
"","5178.334999999963","survey-likert","134","720657","0.0-134.0","","","","","","","{""judgement"":0}","[0]","0"
"","10790.430000000051","survey-likert","135","731449","0.0-135.0","","","","","","","{""confidence"":2}","[0]",""
"","","call-function","136","731450","0.0-136.0","","","","","","","","",""
"","null","html-keyboard-response","137","734454","0.0-137.0","<span style=""color:Black; font-size:50px;"">Agent A","null","","","","","","",""
"","null","video-keyboard-response","138","737539","0.0-138.0","","null","","Agent A","veridical","STIM_SET_1/0_713888.bmppp68_L1V1_freeview_veridical.mp4","","",""
"","null","html-keyboard-response","139","740544","0.0-139.0","<span style=""color:Black; font-size:50px;"">Agent B","null","","","","","","",""
"","null","video-keyboard-response","140","743628","0.0-140.0","","null","","Agent B","scrambled","STIM_SET_1/0_713888.bmppp68_L1V1_freeview_scrambled.mp4","","",""
"","","call-function","141","743629","0.0-141.0","","","","","","","","",""
"","2275.195000000065","survey-likert","142","745905","0.0-142.0","","","","","","","{""judgement"":0}","[0]","0"
"","2334.185000000056","survey-likert","143","748241","0.0-143.0","","","","","","","{""confidence"":1}","[0]",""
"","","call-function","144","748242","0.0-144.0","","","","","","","","",""
"","null","html-keyboard-response","145","751243","0.0-145.0","<span style=""color:Black; font-size:50px;"">Agent A","null","","","","","","",""
"","null","video-keyboard-response","146","754302","0.0-146.0","","null","","Agent A","veridical","STIM_SET_1/0_713920.bmppp76_L1V1_freeview_veridical.mp4","","",""
"","null","html-keyboard-response","147","757308","0.0-147.0","<span style=""color:Black; font-size:50px;"">Agent B","null","","","","","","",""
"","null","video-keyboard-response","148","760371","0.0-148.0","","null","","Agent B","scrambled","STIM_SET_1/0_713920.bmppp76_L1V1_freeview_scrambled.mp4","","",""
"","","call-function","149","760371","0.0-149.0","","","","","","","","",""
"","5244.6699999999255","survey-likert","150","765617","0.0-150.0","","","","","","","{""judgement"":0}","[0]","0"
"","1678.6300000000047","survey-likert","151","767297","0.0-151.0","","","","","","","{""confidence"":0}","[0]",""
"","","call-function","152","767298","0.0-152.0","","","","","","","","",""
"","null","html-keyboard-response","153","770300","0.0-153.0","<span style=""color:Black; font-size:50px;"">Agent A","null","","","","","","",""
"","null","video-keyboard-response","154","773350","0.0-154.0","","null","","Agent A","scrambled","STIM_SET_1/0_713788.bmppp81_L1V1_freeview_scrambled.mp4","","",""
"","null","html-keyboard-response","155","776355","0.0-155.0","<span style=""color:Black; font-size:50px;"">Agent B","null","","","","","","",""
"","null","video-keyboard-response","156","779404","0.0-156.0","","null","","Agent B","veridical","STIM_SET_1/0_713788.bmppp81_L1V1_freeview_veridical.mp4","","",""
"","","call-function","157","779405","0.0-157.0","","","","","","","","",""
"","2514.969999999972","survey-likert","158","781921","0.0-158.0","","","","","","","{""judgement"":1}","[0]","1"
"","1454.344999999972","survey-likert","159","783377","0.0-159.0","","","","","","","{""confidence"":1}","[0]",""
"","","call-function","160","783378","0.0-160.0","","","","","","","","",""
"","null","html-keyboard-response","161","786380","0.0-161.0","<span style=""color:Black; font-size:50px;"">Agent A","null","","","","","","",""
"","null","video-keyboard-response","162","789439","0.0-162.0","","null","","Agent A","veridical","STIM_SET_1/0_713228.bmppp51_L1V1_freeview_veridical.mp4","","",""
"","null","html-keyboard-response","163","792440","0.0-163.0","<span style=""color:Black; font-size:50px;"">Agent B","null","","","","","","",""
"","null","video-keyboard-response","164","795501","0.0-164.0","","null","","Agent B","scrambled","STIM_SET_1/0_713228.bmppp51_L1V1_freeview_scrambled.mp4","","",""
"","","call-function","165","795502","0.0-165.0","","","","","","","","",""
"","9905.709999999963","survey-likert","166","805409","0.0-166.0","","","","","","","{""judgement"":0}","[0]","0"
"","1390.969999999972","survey-likert","167","806801","0.0-167.0","","","","","","","{""confidence"":1}","[0]",""
"[{""page_index"":0,""viewing_time"":9766.18499999994},{""page_index"":1,""viewing_time"":4864.035000000033},{""page_index"":2,""viewing_time"":1119.9899999998743}]","15750.530000000028","instructions","168","822553","0.0-168.0","","","","","","","","",""
"[{""page_index"":0,""viewing_time"":879.2000000000698},{""page_index"":1,""viewing_time"":1439.5800000000745},{""page_index"":2,""viewing_time"":792.3399999999674}]","3111.4700000000885","instructions","169","825665","0.0-169.0","","","","","","","","",""
"","","call-function","170","825666","0.0-170.0","","","","","","","","",""
"","null","html-keyboard-response","171","828670","0.0-171.0","<span style=""color:Black; font-size:50px;"">Agent A","null","","","","","","",""
"","null","video-keyboard-response","172","831736","0.0-172.0","","null","","Agent A","scrambled","STIM_SET_1/0_497950.bmppp51_L1V1_freeview_scrambled.mp4","","",""
"","null","html-keyboard-response","173","834738","0.0-173.0","<span style=""color:Black; font-size:50px;"">Agent B","null","","","","","","",""
"","null","video-keyboard-response","174","837805","0.0-174.0","","null","","Agent B","veridical","STIM_SET_1/0_497950.bmppp51_L1V1_freeview_veridical.mp4","","",""
"","","call-function","175","837805","0.0-175.0","","","","","","","","",""
"","7658.780000000144","survey-likert","176","845466","0.0-176.0","","","","","","","{""judgement"":0}","[0]","1"
"","2293.8450000000885","survey-likert","177","847761","0.0-177.0","","","","","","","{""confidence"":0}","[0]",""
"","","call-function","178","847762","0.0-178.0","","","","","","","","",""
"","null","html-keyboard-response","179","850764","0.0-179.0","<span style=""color:Black; font-size:50px;"">Agent A","null","","","","","","",""
"","null","video-keyboard-response","180","853810","0.0-180.0","","null","","Agent A","veridical","STIM_SET_1/0_285905.bmppp151_L1V1_freeview_veridical.mp4","","",""
"","null","html-keyboard-response","181","856812","0.0-181.0","<span style=""color:Black; font-size:50px;"">Agent B","null","","","","","","",""
"","null","video-keyboard-response","182","859859","0.0-182.0","","null","","Agent B","scrambled","STIM_SET_1/0_285905.bmppp151_L1V1_freeview_scrambled.mp4","","",""
"","","call-function","183","859859","0.0-183.0","","","","","","","","",""
"","2179.9899999999907","survey-likert","184","862041","0.0-184.0","","","","","","","{""judgement"":0}","[0]","0"
"","2359.2299999999814","survey-likert","185","864401","0.0-185.0","","","","","","","{""confidence"":0}","[0]",""
"","","call-function","186","864402","0.0-186.0","","","","","","","","",""
"","null","html-keyboard-response","187","867406","0.0-187.0","<span style=""color:Black; font-size:50px;"">Agent A","null","","","","","","",""
"","null","video-keyboard-response","188","870448","0.0-188.0","","null","","Agent A","scrambled","STIM_SET_1/0_713786.bmppp68_L1V1_freeview_scrambled.mp4","","",""
"","null","html-keyboard-response","189","873449","0.0-189.0","<span style=""color:Black; font-size:50px;"">Agent B","null","","","","","","",""
"","null","video-keyboard-response","190","876490","0.0-190.0","","null","","Agent B","veridical","STIM_SET_1/0_713786.bmppp68_L1V1_freeview_veridical.mp4","","",""
"","","call-function","191","876491","0.0-191.0","","","","","","","","",""
"","3405.3099999999395","survey-likert","192","879897","0.0-192.0","","","","","","","{""judgement"":1}","[0]","1"
"","6286.800000000047","survey-likert","193","886186","0.0-193.0","","","","","","","{""confidence"":0}","[0]",""
"","","call-function","194","886186","0.0-194.0","","","","","","","","",""
"","null","html-keyboard-response","195","889190","0.0-195.0","<span style=""color:Black; font-size:50px;"">Agent A","null","","","","","","",""
"","null","video-keyboard-response","196","892267","0.0-196.0","","null","","Agent A","scrambled","STIM_SET_1/0_150273.bmppp57_L1V1_freeview_scrambled.mp4","","",""
"","null","html-keyboard-response","197","895270","0.0-197.0","<span style=""color:Black; font-size:50px;"">Agent B","null","","","","","","",""
"","null","video-keyboard-response","198","898350","0.0-198.0","","null","","Agent B","veridical","STIM_SET_1/0_150273.bmppp57_L1V1_freeview_veridical.mp4","","",""
"","","call-function","199","898350","0.0-199.0","","","","","","","","",""
"","4249.945000000065","survey-likert","200","902601","0.0-200.0","","","","","","","{""judgement"":1}","[0]","1"
"","1205.75","survey-likert","201","903809","0.0-201.0","","","","","","","{""confidence"":0}","[0]",""
"","","call-function","202","903810","0.0-202.0","","","","","","","","",""
"","null","html-keyboard-response","203","906814","0.0-203.0","<span style=""color:Black; font-size:50px;"">Agent A","null","","","","","","",""
"","null","video-keyboard-response","204","909877","0.0-204.0","","null","","Agent A","scrambled","STIM_SET_1/0_285992.bmppp64_L1V1_freeview_scrambled.mp4","","",""
"","null","html-keyboard-response","205","912880","0.0-205.0","<span style=""color:Black; font-size:50px;"">Agent B","null","","","","","","",""
"","null","video-keyboard-response","206","915940","0.0-206.0","","null","","Agent B","veridical","STIM_SET_1/0_285992.bmppp64_L1V1_freeview_veridical.mp4","","",""
"","","call-function","207","915941","0.0-207.0","","","","","","","","",""
"","7563.405000000144","survey-likert","208","923505","0.0-208.0","","","","","","","{""judgement"":0}","[0]","1"
"","1390.75","survey-likert","209","924898","0.0-209.0","","","","","","","{""confidence"":0}","[0]",""
"","","call-function","210","924899","0.0-210.0","","","","","","","","",""
"","null","html-keyboard-response","211","927900","0.0-211.0","<span style=""color:Black; font-size:50px;"">Agent A","null","","","","","","",""
"","null","video-keyboard-response","212","930960","0.0-212.0","","null","","Agent A","scrambled","STIM_SET_1/0_498398.bmppp93_L1V1_freeview_scrambled.mp4","","",""
"","null","html-keyboard-response","213","933965","0.0-213.0","<span style=""color:Black; font-size:50px;"">Agent B","null","","","","","","",""
"","null","video-keyboard-response","214","937022","0.0-214.0","","null","","Agent B","veridical","STIM_SET_1/0_498398.bmppp93_L1V1_freeview_veridical.mp4","","",""
"","","call-function","215","937023","0.0-215.0","","","","","","","","",""
"","10425.57500000007","survey-likert","216","947450","0.0-216.0","","","","","","","{""judgement"":1}","[0]","1"
"","1598.080000000191","survey-likert","217","949049","0.0-217.0","","","","","","","{""confidence"":0}","[0]",""
"","","call-function","218","949050","0.0-218.0","","","","","","","","",""
"","null","html-keyboard-response","219","952055","0.0-219.0","<span style=""color:Black; font-size:50px;"">Agent A","null","","","","","","",""
"","null","video-keyboard-response","220","955126","0.0-220.0","","null","","Agent A","scrambled","STIM_SET_1/0_285807.bmppp51_L1V1_freeview_scrambled.mp4","","",""
"","null","html-keyboard-response","221","958127","0.0-221.0","<span style=""color:Black; font-size:50px;"">Agent B","null","","","","","","",""
"","null","video-keyboard-response","222","961201","0.0-222.0","","null","","Agent B","veridical","STIM_SET_1/0_285807.bmppp51_L1V1_freeview_veridical.mp4","","",""
"","","call-function","223","961202","0.0-223.0","","","","","","","","",""
"","4766.265000000014","survey-likert","224","965970","0.0-224.0","","","","","","","{""judgement"":1}","[0]","1"
"","1222.0150000001304","survey-likert","225","967194","0.0-225.0","","","","","","","{""confidence"":0}","[0]",""
"","","call-function","226","967195","0.0-226.0","","","","","","","","",""
"","null","html-keyboard-response","227","970196","0.0-227.0","<span style=""color:Black; font-size:50px;"">Agent A","null","","","","","","",""
"","null","video-keyboard-response","228","973249","0.0-228.0","","null","","Agent A","veridical","STIM_SET_1/0_1592857.bmppp64_L1V1_freeview_veridical.mp4","","",""
"","null","html-keyboard-response","229","976251","0.0-229.0","<span style=""color:Black; font-size:50px;"">Agent B","null","","","","","","",""
"","null","video-keyboard-response","230","979304","0.0-230.0","","null","","Agent B","scrambled","STIM_SET_1/0_1592857.bmppp64_L1V1_freeview_scrambled.mp4","","",""
"","","call-function","231","979305","0.0-231.0","","","","","","","","",""
"","1719.6650000001537","survey-likert","232","981026","0.0-232.0","","","","","","","{""judgement"":0}","[0]","0"
"","1382.6499999999069","survey-likert","233","982410","0.0-233.0","","","","","","","{""confidence"":2}","[0]",""
"","","call-function","234","982411","0.0-234.0","","","","","","","","",""
"","null","html-keyboard-response","235","985414","0.0-235.0","<span style=""color:Black; font-size:50px;"">Agent A","null","","","","","","",""
"","null","video-keyboard-response","236","988477","0.0-236.0","","null","","Agent A","scrambled","STIM_SET_1/0_713174.bmppp154_L1V1_freeview_scrambled.mp4","","",""
"","null","html-keyboard-response","237","991482","0.0-237.0","<span style=""color:Black; font-size:50px;"">Agent B","null","","","","","","",""
"","null","video-keyboard-response","238","994553","0.0-238.0","","null","","Agent B","veridical","STIM_SET_1/0_713174.bmppp154_L1V1_freeview_veridical.mp4","","",""
"","","call-function","239","994554","0.0-239.0","","","","","","","","",""
"","4710.375000000116","survey-likert","240","999266","0.0-240.0","","","","","","","{""judgement"":1}","[0]","1"
"","1301.8850000000093","survey-likert","241","1000570","0.0-241.0","","","","","","","{""confidence"":1}","[0]",""
"","","call-function","242","1000570","0.0-242.0","","","","","","","","",""
"","null","html-keyboard-response","243","1003575","0.0-243.0","<span style=""color:Black; font-size:50px;"">Agent A","null","","","","","","",""
"","null","video-keyboard-response","244","1006622","0.0-244.0","","null","","Agent A","scrambled","STIM_SET_1/0_285959.bmppp71_L1V1_freeview_scrambled.mp4","","",""
"","null","html-keyboard-response","245","1009623","0.0-245.0","<span style=""color:Black; font-size:50px;"">Agent B","null","","","","","","",""
"","null","video-keyboard-response","246","1012671","0.0-246.0","","null","","Agent B","veridical","STIM_SET_1/0_285959.bmppp71_L1V1_freeview_veridical.mp4","","",""
"","","call-function","247","1012672","0.0-247.0","","","","","","","","",""
"","6304.354999999981","survey-likert","248","1018977","0.0-248.0","","","","","","","{""judgement"":1}","[0]","1"
"","1271.0899999999674","survey-likert","249","1020250","0.0-249.0","","","","","","","{""confidence"":0}","[0]",""
"[{""page_index"":0,""viewing_time"":64238.65000000014},{""page_index"":1,""viewing_time"":2111.445000000065},{""page_index"":2,""viewing_time"":1640.464999999851}]","67990.87999999989","instructions","250","1088242","0.0-250.0","","","","","","","","",""
"[{""page_index"":0,""viewing_time"":566.8850000000093},{""page_index"":1,""viewing_time"":496.03000000002794},{""page_index"":2,""viewing_time"":495.70999999996275}]","1558.8850000000093","instructions","251","1089801","0.0-251.0","","","","","","","","",""
"","","call-function","252","1089802","0.0-252.0","","","","","","","","",""
"","null","html-keyboard-response","253","1092803","0.0-253.0","<span style=""color:Black; font-size:50px;"">Agent A","null","","","","","","",""
"","null","video-keyboard-response","254","1095875","0.0-254.0","","null","","Agent A","veridical","STIM_SET_1/0_1591909.bmppp89_L1V1_freeview_veridical.mp4","","",""
"","null","html-keyboard-response","255","1098881","0.0-255.0","<span style=""color:Black; font-size:50px;"">Agent B","null","","","","","","",""
"","null","video-keyboard-response","256","1102708","0.0-256.0","","null","","Agent B","scrambled","STIM_SET_1/0_1591909.bmppp89_L1V1_freeview_scrambled.mp4","","",""
"","","call-function","257","1102709","0.0-257.0","","","","","","","","",""
"","3099.464999999851","survey-likert","258","1105810","0.0-258.0","","","","","","","{""judgement"":0}","[0]","0"
"","1317.7299999999814","survey-likert","259","1107130","0.0-259.0","","","","","","","{""confidence"":0}","[0]",""
"","","call-function","260","1107131","0.0-260.0","","","","","","","","",""
"","null","html-keyboard-response","261","1110132","0.0-261.0","<span style=""color:Black; font-size:50px;"">Agent A","null","","","","","","",""
"","null","video-keyboard-response","262","1113173","0.0-262.0","","null","","Agent A","veridical","STIM_SET_1/0_150303.bmppp68_L1V1_freeview_veridical.mp4","","",""
"","null","html-keyboard-response","263","1116177","0.0-263.0","<span style=""color:Black; font-size:50px;"">Agent B","null","","","","","","",""
"","null","video-keyboard-response","264","1119221","0.0-264.0","","null","","Agent B","scrambled","STIM_SET_1/0_150303.bmppp68_L1V1_freeview_scrambled.mp4","","",""
"","","call-function","265","1119221","0.0-265.0","","","","","","","","",""
"","2834.935000000056","survey-likert","266","1122058","0.0-266.0","","","","","","","{""judgement"":1}","[0]","0"
"","1422.8149999999441","survey-likert","267","1123482","0.0-267.0","","","","","","","{""confidence"":1}","[0]",""
"","","call-function","268","1123483","0.0-268.0","","","","","","","","",""
"","null","html-keyboard-response","269","1126486","0.0-269.0","<span style=""color:Black; font-size:50px;"">Agent A","null","","","","","","",""
"","null","video-keyboard-response","270","1129533","0.0-270.0","","null","","Agent A","scrambled","STIM_SET_1/0_1592017.bmppp64_L1V1_freeview_scrambled.mp4","","",""
"","null","html-keyboard-response","271","1132539","0.0-271.0","<span style=""color:Black; font-size:50px;"">Agent B","null","","","","","","",""
"","null","video-keyboard-response","272","1135609","0.0-272.0","","null","","Agent B","veridical","STIM_SET_1/0_1592017.bmppp64_L1V1_freeview_veridical.mp4","","",""
"","","call-function","273","1135610","0.0-273.0","","","","","","","","",""
"","2830.1999999999534","survey-likert","274","1138442","0.0-274.0","","","","","","","{""judgement"":1}","[0]","1"
"","1022.5500000000466","survey-likert","275","1139466","0.0-275.0","","","","","","","{""confidence"":1}","[0]",""
"","","call-function","276","1139467","0.0-276.0","","","","","","","","",""
"","null","html-keyboard-response","277","1142471","0.0-277.0","<span style=""color:Black; font-size:50px;"">Agent A","null","","","","","","",""
"","null","video-keyboard-response","278","1145539","0.0-278.0","","null","","Agent A","scrambled","STIM_SET_1/0_1592137.bmppp52_L1V1_freeview_scrambled.mp4","","",""
"","null","html-keyboard-response","279","1148542","0.0-279.0","<span style=""color:Black; font-size:50px;"">Agent B","null","","","","","","",""
"","null","video-keyboard-response","280","1151629","0.0-280.0","","null","","Agent B","veridical","STIM_SET_1/0_1592137.bmppp52_L1V1_freeview_veridical.mp4","","",""
"","","call-function","281","1151630","0.0-281.0","","","","","","","","",""
"","2330.4449999998324","survey-likert","282","1153962","0.0-282.0","","","","","","","{""judgement"":1}","[0]","1"
"","1149.6400000001304","survey-likert","283","1155114","0.0-283.0","","","","","","","{""confidence"":1}","[0]",""
"","","call-function","284","1155115","0.0-284.0","","","","","","","","",""
"","null","html-keyboard-response","285","1158121","0.0-285.0","<span style=""color:Black; font-size:50px;"">Agent A","null","","","","","","",""
"","null","video-keyboard-response","286","1161198","0.0-286.0","","null","","Agent A","veridical","STIM_SET_1/0_713633.bmppp57_L1V1_freeview_veridical.mp4","","",""
"","null","html-keyboard-response","287","1164201","0.0-287.0","<span style=""color:Black; font-size:50px;"">Agent B","null","","","","","","",""
"","null","video-keyboard-response","288","1167260","0.0-288.0","","null","","Agent B","scrambled","STIM_SET_1/0_713633.bmppp57_L1V1_freeview_scrambled.mp4","","",""
"","","call-function","289","1167261","0.0-289.0","","","","","","","","",""
"","2235.350000000093","survey-likert","290","1169498","0.0-290.0","","","","","","","{""judgement"":0}","[0]","0"
"","3054.529999999795","survey-likert","291","1172554","0.0-291.0","","","","","","","{""confidence"":2}","[0]",""
"","","call-function","292","1172555","0.0-292.0","","","","","","","","",""
"","null","html-keyboard-response","293","1175556","0.0-293.0","<span style=""color:Black; font-size:50px;"">Agent A","null","","","","","","",""
"","null","video-keyboard-response","294","1178613","0.0-294.0","","null","","Agent A","veridical","STIM_SET_1/0_498258.bmppp76_L1V1_freeview_veridical.mp4","","",""
"","null","html-keyboard-response","295","1181618","0.0-295.0","<span style=""color:Black; font-size:50px;"">Agent B","null","","","","","","",""
"","null","video-keyboard-response","296","1184682","0.0-296.0","","null","","Agent B","scrambled","STIM_SET_1/0_498258.bmppp76_L1V1_freeview_scrambled.mp4","","",""
"","","call-function","297","1184683","0.0-297.0","","","","","","","","",""
"","2509.8000000000466","survey-likert","298","1187194","0.0-298.0","","","","","","","{""judgement"":0}","[0]","0"
"","1662.5199999997858","survey-likert","299","1188858","0.0-299.0","","","","","","","{""confidence"":2}","[0]",""
"","","call-function","300","1188859","0.0-300.0","","","","","","","","",""
"","null","html-keyboard-response","301","1191860","0.0-301.0","<span style=""color:Black; font-size:50px;"">Agent A","null","","","","","","",""
"","null","video-keyboard-response","302","1194925","0.0-302.0","","null","","Agent A","veridical","STIM_SET_1/0_713769.bmppp58_L1V1_freeview_veridical.mp4","","",""
"","null","html-keyboard-response","303","1197932","0.0-303.0","<span style=""color:Black; font-size:50px;"">Agent B","null","","","","","","",""
"","null","video-keyboard-response","304","1200994","0.0-304.0","","null","","Agent B","scrambled","STIM_SET_1/0_713769.bmppp58_L1V1_freeview_scrambled.mp4","","",""
"","","call-function","305","1200995","0.0-305.0","","","","","","","","",""
"","1981.3149999999441","survey-likert","306","1202978","0.0-306.0","","","","","","","{""judgement"":0}","[0]","0"
"","1198.0549999999348","survey-likert","307","1204178","0.0-307.0","","","","","","","{""confidence"":1}","[0]",""
"","","call-function","308","1204179","0.0-308.0","","","","","","","","",""
"","null","html-keyboard-response","309","1207185","0.0-309.0","<span style=""color:Black; font-size:50px;"">Agent A","null","","","","","","",""
"","null","video-keyboard-response","310","1210244","0.0-310.0","","null","","Agent A","veridical","STIM_SET_1/0_1592189.bmppp151_L1V1_freeview_veridical.mp4","","",""
"","null","html-keyboard-response","311","1213248","0.0-311.0","<span style=""color:Black; font-size:50px;"">Agent B","null","","","","","","",""
"","null","video-keyboard-response","312","1216313","0.0-312.0","","null","","Agent B","scrambled","STIM_SET_1/0_1592189.bmppp151_L1V1_freeview_scrambled.mp4","","",""
"","","call-function","313","1216314","0.0-313.0","","","","","","","","",""
"","2374.934999999823","survey-likert","314","1218690","0.0-314.0","","","","","","","{""judgement"":0}","[0]","0"
"","1829.9899999999907","survey-likert","315","1220522","0.0-315.0","","","","","","","{""confidence"":2}","[0]",""
"","","call-function","316","1220523","0.0-316.0","","","","","","","","",""
"","null","html-keyboard-response","317","1223526","0.0-317.0","<span style=""color:Black; font-size:50px;"">Agent A","null","","","","","","",""
"","null","video-keyboard-response","318","1226597","0.0-318.0","","null","","Agent A","scrambled","STIM_SET_1/0_713707.bmppp154_L1V1_freeview_scrambled.mp4","","",""
"","null","html-keyboard-response","319","1229600","0.0-319.0","<span style=""color:Black; font-size:50px;"">Agent B","null","","","","","","",""
"","null","video-keyboard-response","320","1232674","0.0-320.0","","null","","Agent B","veridical","STIM_SET_1/0_713707.bmppp154_L1V1_freeview_veridical.mp4","","",""
"","","call-function","321","1232675","0.0-321.0","","","","","","","","",""
"","3006.1450000000186","survey-likert","322","1235682","0.0-322.0","","","","","","","{""judgement"":0}","[0]","1"
"","1422.375","survey-likert","323","1237106","0.0-323.0","","","","","","","{""confidence"":0}","[0]",""
"","","call-function","324","1237107","0.0-324.0","","","","","","","","",""
"","null","html-keyboard-response","325","1240111","0.0-325.0","<span style=""color:Black; font-size:50px;"">Agent A","null","","","","","","",""
"","null","video-keyboard-response","326","1243173","0.0-326.0","","null","","Agent A","scrambled","STIM_SET_1/0_1592874.bmppp64_L1V1_freeview_scrambled.mp4","","",""
"","null","html-keyboard-response","327","1246177","0.0-327.0","<span style=""color:Black; font-size:50px;"">Agent B","null","","","","","","",""
"","null","video-keyboard-response","328","1249236","0.0-328.0","","null","","Agent B","veridical","STIM_SET_1/0_1592874.bmppp64_L1V1_freeview_veridical.mp4","","",""
"","","call-function","329","1249236","0.0-329.0","","","","","","","","",""
"","5116.704999999842","survey-likert","330","1254354","0.0-330.0","","","","","","","{""judgement"":0}","[0]","1"
"","1998.244999999879","survey-likert","331","1256354","0.0-331.0","","","","","","","{""confidence"":0}","[0]",""
"[{""page_index"":0,""viewing_time"":1686.0400000000373},{""page_index"":1,""viewing_time"":1816.3749999997672},{""page_index"":2,""viewing_time"":559.695000000298}]","4062.4849999998696","instructions","332","1260418","0.0-332.0","","","","","","","","",""
"[{""page_index"":0,""viewing_time"":806.9300000001676},{""page_index"":1,""viewing_time"":1064.220000000205},{""page_index"":2,""viewing_time"":1055.9899999997579}]","2927.475000000326","instructions","333","1263346","0.0-333.0","","","","","","","","",""
"","","call-function","334","1263347","0.0-334.0","","","","","","","","",""
"","null","html-keyboard-response","335","1266349","0.0-335.0","<span style=""color:Black; font-size:50px;"">Agent A","null","","","","","","",""
"","null","video-keyboard-response","336","1269380","0.0-336.0","","null","","Agent A","veridical","STIM_SET_1/0_712977.bmppp68_L1V1_freeview_veridical.mp4","","",""
"","null","html-keyboard-response","337","1272386","0.0-337.0","<span style=""color:Black; font-size:50px;"">Agent B","null","","","","","","",""
"","null","video-keyboard-response","338","1275415","0.0-338.0","","null","","Agent B","scrambled","STIM_SET_1/0_712977.bmppp68_L1V1_freeview_scrambled.mp4","","",""
"","","call-function","339","1275416","0.0-339.0","","","","","","","","",""
"","3144.820000000065","survey-likert","340","1278562","0.0-340.0","","","","","","","{""judgement"":1}","[0]","0"
"","1294.125","survey-likert","341","1279858","0.0-341.0","","","","","","","{""confidence"":1}","[0]",""
"","","call-function","342","1279859","0.0-342.0","","","","","","","","",""
"","null","html-keyboard-response","343","1282865","0.0-343.0","<span style=""color:Black; font-size:50px;"">Agent A","null","","","","","","",""
"","null","video-keyboard-response","344","1285900","0.0-344.0","","null","","Agent A","scrambled","STIM_SET_1/0_1592079.bmppp71_L1V1_freeview_scrambled.mp4","","",""
"","null","html-keyboard-response","345","1288902","0.0-345.0","<span style=""color:Black; font-size:50px;"">Agent B","null","","","","","","",""
"","null","video-keyboard-response","346","1291935","0.0-346.0","","null","","Agent B","veridical","STIM_SET_1/0_1592079.bmppp71_L1V1_freeview_veridical.mp4","","",""
"","","call-function","347","1291936","0.0-347.0","","","","","","","","",""
"","5288.8300000000745","survey-likert","348","1297226","0.0-348.0","","","","","","","{""judgement"":1}","[0]","1"
"","1822.3350000001956","survey-likert","349","1299050","0.0-349.0","","","","","","","{""confidence"":0}","[0]",""
"","","call-function","350","1299051","0.0-350.0","","","","","","","","",""
"","null","html-keyboard-response","351","1302056","0.0-351.0","<span style=""color:Black; font-size:50px;"">Agent A","null","","","","","","",""
"","null","video-keyboard-response","352","1305135","0.0-352.0","","null","","Agent A","scrambled","STIM_SET_1/0_713450.bmppp154_L1V1_freeview_scrambled.mp4","","",""
"","null","html-keyboard-response","353","1308140","0.0-353.0","<span style=""color:Black; font-size:50px;"">Agent B","null","","","","","","",""
"","null","video-keyboard-response","354","1311218","0.0-354.0","","null","","Agent B","veridical","STIM_SET_1/0_713450.bmppp154_L1V1_freeview_veridical.mp4","","",""
"","","call-function","355","1311219","0.0-355.0","","","","","","","","",""
"","2133.9899999999907","survey-likert","356","1313354","0.0-356.0","","","","","","","{""judgement"":1}","[0]","1"
"","1270.4099999999162","survey-likert","357","1314626","0.0-357.0","","","","","","","{""confidence"":1}","[0]",""
"","","call-function","358","1314627","0.0-358.0","","","","","","","","",""
"","null","html-keyboard-response","359","1317631","0.0-359.0","<span style=""color:Black; font-size:50px;"">Agent A","null","","","","","","",""
"","null","video-keyboard-response","360","1320697","0.0-360.0","","null","","Agent A","scrambled","STIM_SET_1/0_1159365.bmppp58_L1V1_freeview_scrambled.mp4","","",""
"","null","html-keyboard-response","361","1323703","0.0-361.0","<span style=""color:Black; font-size:50px;"">Agent B","null","","","","","","",""
"","null","video-keyboard-response","362","1326766","0.0-362.0","","null","","Agent B","veridical","STIM_SET_1/0_1159365.bmppp58_L1V1_freeview_veridical.mp4","","",""
"","","call-function","363","1326767","0.0-363.0","","","","","","","","",""
"","2090.1150000002235","survey-likert","364","1328859","0.0-364.0","","","","","","","{""judgement"":1}","[0]","1"
"","1237.4750000000931","survey-likert","365","1330099","0.0-365.0","","","","","","","{""confidence"":1}","[0]",""
"","","call-function","366","1330100","0.0-366.0","","","","","","","","",""
"","null","html-keyboard-response","367","1333101","0.0-367.0","<span style=""color:Black; font-size:50px;"">Agent A","null","","","","","","",""
"","null","video-keyboard-response","368","1336168","0.0-368.0","","null","","Agent A","scrambled","STIM_SET_1/0_1159318.bmppp98_L1V1_freeview_scrambled.mp4","","",""
"","null","html-keyboard-response","369","1339173","0.0-369.0","<span style=""color:Black; font-size:50px;"">Agent B","null","","","","","","",""
"","null","video-keyboard-response","370","1342252","0.0-370.0","","null","","Agent B","veridical","STIM_SET_1/0_1159318.bmppp98_L1V1_freeview_veridical.mp4","","",""
"","","call-function","371","1342253","0.0-371.0","","","","","","","","",""
"","3140.5499999998137","survey-likert","372","1345395","0.0-372.0","","","","","","","{""judgement"":1}","[0]","1"
"","1349.8700000001118","survey-likert","373","1346746","0.0-373.0","","","","","","","{""confidence"":1}","[0]",""
"","","call-function","374","1346747","0.0-374.0","","","","","","","","",""
"","null","html-keyboard-response","375","1349750","0.0-375.0","<span style=""color:Black; font-size:50px;"">Agent A","null","","","","","","",""
"","null","video-keyboard-response","376","1352814","0.0-376.0","","null","","Agent A","veridical","STIM_SET_1/0_1159463.bmppp63_L1V1_freeview_veridical.mp4","","",""
"","null","html-keyboard-response","377","1355816","0.0-377.0","<span style=""color:Black; font-size:50px;"">Agent B","null","","","","","","",""
"","null","video-keyboard-response","378","1358876","0.0-378.0","","null","","Agent B","scrambled","STIM_SET_1/0_1159463.bmppp63_L1V1_freeview_scrambled.mp4","","",""
"","","call-function","379","1358877","0.0-379.0","","","","","","","","",""
"","1204.720000000205","survey-likert","380","1360083","0.0-380.0","","","","","","","{""judgement"":0}","[0]","0"
"","1373.4150000000373","survey-likert","381","1361458","0.0-381.0","","","","","","","{""confidence"":2}","[0]",""
"","","call-function","382","1361459","0.0-382.0","","","","","","","","",""
"","null","html-keyboard-response","383","1364465","0.0-383.0","<span style=""color:Black; font-size:50px;"">Agent A","null","","","","","","",""
"","null","video-keyboard-response","384","1367528","0.0-384.0","","null","","Agent A","scrambled","STIM_SET_1/0_713652.bmppp71_L1V1_freeview_scrambled.mp4","","",""
"","null","html-keyboard-response","385","1370532","0.0-385.0","<span style=""color:Black; font-size:50px;"">Agent B","null","","","","","","",""
"","null","video-keyboard-response","386","1373597","0.0-386.0","","null","","Agent B","veridical","STIM_SET_1/0_713652.bmppp71_L1V1_freeview_veridical.mp4","","",""
"","","call-function","387","1373598","0.0-387.0","","","","","","","","",""
"","1819.2299999997485","survey-likert","388","1375418","0.0-388.0","","","","","","","{""judgement"":1}","[0]","1"
"","1629.869999999879","survey-likert","389","1377050","0.0-389.0","","","","","","","{""confidence"":2}","[0]",""
"","","call-function","390","1377052","0.0-390.0","","","","","","","","",""
"","null","html-keyboard-response","391","1380054","0.0-391.0","<span style=""color:Black; font-size:50px;"">Agent A","null","","","","","","",""
"","null","video-keyboard-response","392","1383111","0.0-392.0","","null","","Agent A","scrambled","STIM_SET_1/0_285932.bmppp151_L1V1_freeview_scrambled.mp4","","",""
"","null","html-keyboard-response","393","1386113","0.0-393.0","<span style=""color:Black; font-size:50px;"">Agent B","null","","","","","","",""
"","null","video-keyboard-response","394","1389173","0.0-394.0","","null","","Agent B","veridical","STIM_SET_1/0_285932.bmppp151_L1V1_freeview_veridical.mp4","","",""
"","","call-function","395","1389174","0.0-395.0","","","","","","","","",""
"","3291.429999999935","survey-likert","396","1392467","0.0-396.0","","","","","","","{""judgement"":1}","[0]","1"
"","1142.3600000001024","survey-likert","397","1393611","0.0-397.0","","","","","","","{""confidence"":0}","[0]",""
"","","call-function","398","1393611","0.0-398.0","","","","","","","","",""
"","null","html-keyboard-response","399","1396613","0.0-399.0","<span style=""color:Black; font-size:50px;"">Agent A","null","","","","","","",""
"","null","video-keyboard-response","400","1399666","0.0-400.0","","null","","Agent A","veridical","STIM_SET_1/0_1160140.bmppp76_L1V1_freeview_veridical.mp4","","",""
"","null","html-keyboard-response","401","1402668","0.0-401.0","<span style=""color:Black; font-size:50px;"">Agent B","null","","","","","","",""
"","null","video-keyboard-response","402","1405721","0.0-402.0","","null","","Agent B","scrambled","STIM_SET_1/0_1160140.bmppp76_L1V1_freeview_scrambled.mp4","","",""
"","","call-function","403","1405722","0.0-403.0","","","","","","","","",""
"","2335.484999999637","survey-likert","404","1408059","0.0-404.0","","","","","","","{""judgement"":0}","[0]","0"
"","1134.2100000001956","survey-likert","405","1409195","0.0-405.0","","","","","","","{""confidence"":1}","[0]",""
"","","call-function","406","1409196","0.0-406.0","","","","","","","","",""
"","null","html-keyboard-response","407","1412200","0.0-407.0","<span style=""color:Black; font-size:50px;"">Agent A","null","","","","","","",""
"","null","video-keyboard-response","408","1415276","0.0-408.0","","null","","Agent A","veridical","STIM_SET_1/0_498108.bmppp75_L1V1_freeview_veridical.mp4","","",""
"","null","html-keyboard-response","409","1418278","0.0-409.0","<span style=""color:Black; font-size:50px;"">Agent B","null","","","","","","",""
"","null","video-keyboard-response","410","1421352","0.0-410.0","","null","","Agent B","scrambled","STIM_SET_1/0_498108.bmppp75_L1V1_freeview_scrambled.mp4","","",""
"","","call-function","411","1421352","0.0-411.0","","","","","","","","",""
"","1968.4399999999441","survey-likert","412","1423322","0.0-412.0","","","","","","","{""judgement"":0}","[0]","0"
"","2182.1049999999814","survey-likert","413","1425506","0.0-413.0","","","","","","","{""confidence"":2}","[0]",""
"[{""page_index"":0,""viewing_time"":5990.649999999907},{""page_index"":1,""viewing_time"":1000.125},{""page_index"":2,""viewing_time"":791.9699999999721}]","7783.040000000037","instructions","414","1433290","0.0-414.0","","","","","","","","",""
"[{""page_index"":0,""viewing_time"":486.8400000000838},{""page_index"":1,""viewing_time"":464.12499999976717},{""page_index"":2,""viewing_time"":471.9650000000838}]","1423.280000000028","instructions","415","1434715","0.0-415.0","","","","","","","","",""
"","","call-function","416","1434715","0.0-416.0","","","","","","","","",""
"","null","html-keyboard-response","417","1437716","0.0-417.0","<span style=""color:Black; font-size:50px;"">Agent A","null","","","","","","",""
"","null","video-keyboard-response","418","1440781","0.0-418.0","","null","","Agent A","veridical","STIM_SET_1/0_713858.bmppp75_L1V1_freeview_veridical.mp4","","",""
"","null","html-keyboard-response","419","1443785","0.0-419.0","<span style=""color:Black; font-size:50px;"">Agent B","null","","","","","","",""
"","null","video-keyboard-response","420","1446851","0.0-420.0","","null","","Agent B","scrambled","STIM_SET_1/0_713858.bmppp75_L1V1_freeview_scrambled.mp4","","",""
"","","call-function","421","1446851","0.0-421.0","","","","","","","","",""
"","3213.8600000001024","survey-likert","422","1450067","0.0-422.0","","","","","","","{""judgement"":1}","[0]","0"
"","2470.065000000177","survey-likert","423","1452538","0.0-423.0","","","","","","","{""confidence"":0}","[0]",""
"","","call-function","424","1452540","0.0-424.0","","","","","","","","",""
"","null","html-keyboard-response","425","1455546","0.0-425.0","<span style=""color:Black; font-size:50px;"">Agent A","null","","","","","","",""
"","null","video-keyboard-response","426","1458586","0.0-426.0","","null","","Agent A","veridical","STIM_SET_1/0_1592119.bmppp63_L1V1_freeview_veridical.mp4","","",""
"","null","html-keyboard-response","427","1461589","0.0-427.0","<span style=""color:Black; font-size:50px;"">Agent B","null","","","","","","",""
"","null","video-keyboard-response","428","1464690","0.0-428.0","","null","","Agent B","scrambled","STIM_SET_1/0_1592119.bmppp63_L1V1_freeview_scrambled.mp4","","",""
"","","call-function","429","1464691","0.0-429.0","","","","","","","","",""
"","2374.0799999998417","survey-likert","430","1467067","0.0-430.0","","","","","","","{""judgement"":1}","[0]","0"
"","1470.3600000001024","survey-likert","431","1468539","0.0-431.0","","","","","","","{""confidence"":0}","[0]",""
"","","call-function","432","1468540","0.0-432.0","","","","","","","","",""
"","null","html-keyboard-response","433","1471545","0.0-433.0","<span style=""color:Black; font-size:50px;"">Agent A","null","","","","","","",""
"","null","video-keyboard-response","434","1474586","0.0-434.0","","null","","Agent A","scrambled","STIM_SET_1/0_1159486.bmppp98_L1V1_freeview_scrambled.mp4","","",""
"","null","html-keyboard-response","435","1477588","0.0-435.0","<span style=""color:Black; font-size:50px;"">Agent B","null","","","","","","",""
"","null","video-keyboard-response","436","1480633","0.0-436.0","","null","","Agent B","veridical","STIM_SET_1/0_1159486.bmppp98_L1V1_freeview_veridical.mp4","","",""
"","","call-function","437","1480634","0.0-437.0","","","","","","","","",""
"","1895.1049999997485","survey-likert","438","1482531","0.0-438.0","","","","","","","{""judgement"":0}","[0]","1"
"","1477.9799999999814","survey-likert","439","1484010","0.0-439.0","","","","","","","{""confidence"":0}","[0]",""
"","","call-function","440","1484011","0.0-440.0","","","","","","","","",""
"","null","html-keyboard-response","441","1487015","0.0-441.0","<span style=""color:Black; font-size:50px;"">Agent A","null","","","","","","",""
"","null","video-keyboard-response","442","1490077","0.0-442.0","","null","","Agent A","veridical","STIM_SET_1/0_1593056.bmppp51_L1V1_freeview_veridical.mp4","","",""
"","null","html-keyboard-response","443","1493081","0.0-443.0","<span style=""color:Black; font-size:50px;"">Agent B","null","","","","","","",""
"","null","video-keyboard-response","444","1496140","0.0-444.0","","null","","Agent B","scrambled","STIM_SET_1/0_1593056.bmppp51_L1V1_freeview_scrambled.mp4","","",""
"","","call-function","445","1496141","0.0-445.0","","","","","","","","",""
"","2044.6699999999255","survey-likert","446","1498187","0.0-446.0","","","","","","","{""judgement"":0}","[0]","0"
"","1445.9950000001118","survey-likert","447","1499635","0.0-447.0","","","","","","","{""confidence"":2}","[0]",""
"","","call-function","448","1499636","0.0-448.0","","","","","","","","",""
"","null","html-keyboard-response","449","1502642","0.0-449.0","<span style=""color:Black; font-size:50px;"">Agent A","null","","","","","","",""
"","null","video-keyboard-response","450","1505708","0.0-450.0","","null","","Agent A","scrambled","STIM_SET_1/0_1591838.bmppp154_L1V1_freeview_scrambled.mp4","","",""
"","null","html-keyboard-response","451","1508714","0.0-451.0","<span style=""color:Black; font-size:50px;"">Agent B","null","","","","","","",""
"","null","video-keyboard-response","452","1511785","0.0-452.0","","null","","Agent B","veridical","STIM_SET_1/0_1591838.bmppp154_L1V1_freeview_veridical.mp4","","",""
"","","call-function","453","1511786","0.0-453.0","","","","","","","","",""
"","1967.7949999999255","survey-likert","454","1513755","0.0-454.0","","","","","","","{""judgement"":1}","[0]","1"
"","2366.149999999907","survey-likert","455","1516123","0.0-455.0","","","","","","","{""confidence"":2}","[0]",""
"","","call-function","456","1516124","0.0-456.0","","","","","","","","",""
"","null","html-keyboard-response","457","1519128","0.0-457.0","<span style=""color:Black; font-size:50px;"">Agent A","null","","","","","","",""
"","null","video-keyboard-response","458","1522187","0.0-458.0","","null","","Agent A","veridical","STIM_SET_1/0_498339.bmppp63_L1V1_freeview_veridical.mp4","","",""
"","null","html-keyboard-response","459","1525189","0.0-459.0","<span style=""color:Black; font-size:50px;"">Agent B","null","","","","","","",""
"","null","video-keyboard-response","460","1528249","0.0-460.0","","null","","Agent B","scrambled","STIM_SET_1/0_498339.bmppp63_L1V1_freeview_scrambled.mp4","","",""
"","","call-function","461","1528250","0.0-461.0","","","","","","","","",""
"","1591.3049999999348","survey-likert","462","1529843","0.0-462.0","","","","","","","{""judgement"":0}","[0]","0"
"","1142.3000000000466","survey-likert","463","1530987","0.0-463.0","","","","","","","{""confidence"":1}","[0]",""
"","","call-function","464","1530988","0.0-464.0","","","","","","","","",""
"","null","html-keyboard-response","465","1533994","0.0-465.0","<span style=""color:Black; font-size:50px;"">Agent A","null","","","","","","",""
"","null","video-keyboard-response","466","1537054","0.0-466.0","","null","","Agent A","veridical","STIM_SET_1/0_150432.bmppp81_L1V1_freeview_veridical.mp4","","",""
"","null","html-keyboard-response","467","1540060","0.0-467.0","<span style=""color:Black; font-size:50px;"">Agent B","null","","","","","","",""
"","null","video-keyboard-response","468","1543117","0.0-468.0","","null","","Agent B","scrambled","STIM_SET_1/0_150432.bmppp81_L1V1_freeview_scrambled.mp4","","",""
"","","call-function","469","1543117","0.0-469.0","","","","","","","","",""
"","3292.195000000065","survey-likert","470","1546411","0.0-470.0","","","","","","","{""judgement"":0}","[0]","0"
"","1078.0600000000559","survey-likert","471","1547491","0.0-471.0","","","","","","","{""confidence"":0}","[0]",""
"","","call-function","472","1547492","0.0-472.0","","","","","","","","",""
"","null","html-keyboard-response","473","1550499","0.0-473.0","<span style=""color:Black; font-size:50px;"">Agent A","null","","","","","","",""
"","null","video-keyboard-response","474","1553553","0.0-474.0","","null","","Agent A","veridical","STIM_SET_1/0_1159508.bmppp154_L1V1_freeview_veridical.mp4","","",""
"","null","html-keyboard-response","475","1556559","0.0-475.0","<span style=""color:Black; font-size:50px;"">Agent B","null","","","","","","",""
"","null","video-keyboard-response","476","1559623","0.0-476.0","","null","","Agent B","scrambled","STIM_SET_1/0_1159508.bmppp154_L1V1_freeview_scrambled.mp4","","",""
"","","call-function","477","1559624","0.0-477.0","","","","","","","","",""
"","2841.3850000000093","survey-likert","478","1562467","0.0-478.0","","","","","","","{""judgement"":0}","[0]","0"
"","1245.5900000000838","survey-likert","479","1563715","0.0-479.0","","","","","","","{""confidence"":1}","[0]",""
"","","call-function","480","1563716","0.0-480.0","","","","","","","","",""
"","null","html-keyboard-response","481","1566718","0.0-481.0","<span style=""color:Black; font-size:50px;"">Agent A","null","","","","","","",""
"","null","video-keyboard-response","482","1569788","0.0-482.0","","null","","Agent A","veridical","STIM_SET_1/0_497974.bmppp98_L1V1_freeview_veridical.mp4","","",""
"","null","html-keyboard-response","483","1572790","0.0-483.0","<span style=""color:Black; font-size:50px;"">Agent B","null","","","","","","",""
"","null","video-keyboard-response","484","1575858","0.0-484.0","","null","","Agent B","scrambled","STIM_SET_1/0_497974.bmppp98_L1V1_freeview_scrambled.mp4","","",""
"","","call-function","485","1575859","0.0-485.0","","","","","","","","",""
"","3182.6400000001304","survey-likert","486","1579043","0.0-486.0","","","","","","","{""judgement"":1}","[0]","0"
"","1958.4899999999907","survey-likert","487","1581003","0.0-487.0","","","","","","","{""confidence"":0}","[0]",""
"","","call-function","488","1581005","0.0-488.0","","","","","","","","",""
"","null","html-keyboard-response","489","1584006","0.0-489.0","<span style=""color:Black; font-size:50px;"">Agent A","null","","","","","","",""
"","null","video-keyboard-response","490","1587065","0.0-490.0","","null","","Agent A","veridical","STIM_SET_1/0_285851.bmppp64_L1V1_freeview_veridical.mp4","","",""
"","null","html-keyboard-response","491","1590071","0.0-491.0","<span style=""color:Black; font-size:50px;"">Agent B","null","","","","","","",""
"","null","video-keyboard-response","492","1593128","0.0-492.0","","null","","Agent B","scrambled","STIM_SET_1/0_285851.bmppp64_L1V1_freeview_scrambled.mp4","","",""
"","","call-function","493","1593129","0.0-493.0","","","","","","","","",""
"","3896.8600000001024","survey-likert","494","1597027","0.0-494.0","","","","","","","{""judgement"":0}","[0]","0"
"","1158.4150000000373","survey-likert","495","1598187","0.0-495.0","","","","","","","{""confidence"":1}","[0]",""
"[{""page_index"":0,""viewing_time"":11174.315000000177},{""page_index"":1,""viewing_time"":1128.1649999998044},{""page_index"":2,""viewing_time"":3535.869999999879}]","15838.669999999925","instructions","496","1614027","0.0-496.0","","","","","","","","",""
"[{""page_index"":0,""viewing_time"":495.04000000003725},{""page_index"":1,""viewing_time"":511.79000000003725},{""page_index"":2,""viewing_time"":463.5549999999348}]","1470.780000000028","instructions","497","1615499","0.0-497.0","","","","","","","","",""
"","","call-function","498","1615499","0.0-498.0","","","","","","","","",""
"","null","html-keyboard-response","499","1618504","0.0-499.0","<span style=""color:Black; font-size:50px;"">Agent A","null","","","","","","",""
"","null","video-keyboard-response","500","1621564","0.0-500.0","","null","","Agent A","scrambled","STIM_SET_1/0_713770.bmppp52_L1V1_freeview_scrambled.mp4","","",""
"","null","html-keyboard-response","501","1624570","0.0-501.0","<span style=""color:Black; font-size:50px;"">Agent B","null","","","","","","",""
"","null","video-keyboard-response","502","1627633","0.0-502.0","","null","","Agent B","veridical","STIM_SET_1/0_713770.bmppp52_L1V1_freeview_veridical.mp4","","",""
"","","call-function","503","1627634","0.0-503.0","","","","","","","","",""
"","1751.3100000000559","survey-likert","504","1629387","0.0-504.0","","","","","","","{""judgement"":1}","[0]","1"
"","2206.195000000065","survey-likert","505","1631595","0.0-505.0","","","","","","","{""confidence"":2}","[0]",""
"","","call-function","506","1631597","0.0-506.0","","","","","","","","",""
"","null","html-keyboard-response","507","1634601","0.0-507.0","<span style=""color:Black; font-size:50px;"">Agent A","null","","","","","","",""
"","null","video-keyboard-response","508","1637660","0.0-508.0","","null","","Agent A","scrambled","STIM_SET_1/0_1160062.bmppp71_L1V1_freeview_scrambled.mp4","","",""
"","null","html-keyboard-response","509","1640662","0.0-509.0","<span style=""color:Black; font-size:50px;"">Agent B","null","","","","","","",""
"","null","video-keyboard-response","510","1643722","0.0-510.0","","null","","Agent B","veridical","STIM_SET_1/0_1160062.bmppp71_L1V1_freeview_veridical.mp4","","",""
"","","call-function","511","1643723","0.0-511.0","","","","","","","","",""
"","1478.464999999851","survey-likert","512","1645203","0.0-512.0","","","","","","","{""judgement"":1}","[0]","1"
"","1862.1049999999814","survey-likert","513","1647067","0.0-513.0","","","","","","","{""confidence"":2}","[0]",""
"","","call-function","514","1647069","0.0-514.0","","","","","","","","",""
"","null","html-keyboard-response","515","1650072","0.0-515.0","<span style=""color:Black; font-size:50px;"">Agent A","null","","","","","","",""
"","null","video-keyboard-response","516","1653125","0.0-516.0","","null","","Agent A","veridical","STIM_SET_1/0_713418.bmppp81_L1V1_freeview_veridical.mp4","","",""
"","null","html-keyboard-response","517","1656131","0.0-517.0","<span style=""color:Black; font-size:50px;"">Agent B","null","","","","","","",""
"","null","video-keyboard-response","518","1659180","0.0-518.0","","null","","Agent B","scrambled","STIM_SET_1/0_713418.bmppp81_L1V1_freeview_scrambled.mp4","","",""
"","","call-function","519","1659181","0.0-519.0","","","","","","","","",""
"","1724.1700000003912","survey-likert","520","1660907","0.0-520.0","","","","","","","{""judgement"":0}","[0]","0"
"","4742.199999999953","survey-likert","521","1665651","0.0-521.0","","","","","","","{""confidence"":2}","[0]",""
"","","call-function","522","1665653","0.0-522.0","","","","","","","","",""
"","null","html-keyboard-response","523","1668659","0.0-523.0","<span style=""color:Black; font-size:50px;"">Agent A","null","","","","","","",""
"","null","video-keyboard-response","524","1671707","0.0-524.0","","null","","Agent A","scrambled","STIM_SET_1/0_1592836.bmppp68_L1V1_freeview_scrambled.mp4","","",""
"","null","html-keyboard-response","525","1674714","0.0-525.0","<span style=""color:Black; font-size:50px;"">Agent B","null","","","","","","",""
"","null","video-keyboard-response","526","1677762","0.0-526.0","","null","","Agent B","veridical","STIM_SET_1/0_1592836.bmppp68_L1V1_freeview_veridical.mp4","","",""
"","","call-function","527","1677763","0.0-527.0","","","","","","","","",""
"","1918.094999999972","survey-likert","528","1679683","0.0-528.0","","","","","","","{""judgement"":1}","[0]","1"
"","1662.0800000000745","survey-likert","529","1681347","0.0-529.0","","","","","","","{""confidence"":2}","[0]",""
"","","call-function","530","1681348","0.0-530.0","","","","","","","","",""
"","null","html-keyboard-response","531","1684350","0.0-531.0","<span style=""color:Black; font-size:50px;"">Agent A","null","","","","","","",""
"","null","video-keyboard-response","532","1687408","0.0-532.0","","null","","Agent A","veridical","STIM_SET_1/0_107930.bmppp51_L1V1_freeview_veridical.mp4","","",""
"","null","html-keyboard-response","533","1690411","0.0-533.0","<span style=""color:Black; font-size:50px;"">Agent B","null","","","","","","",""
"","null","video-keyboard-response","534","1693470","0.0-534.0","","null","","Agent B","scrambled","STIM_SET_1/0_107930.bmppp51_L1V1_freeview_scrambled.mp4","","",""
"","","call-function","535","1693471","0.0-535.0","","","","","","","","",""
"","2282.9199999999255","survey-likert","536","1695755","0.0-536.0","","","","","","","{""judgement"":0}","[0]","0"
"","1094.1950000000652","survey-likert","537","1696852","0.0-537.0","","","","","","","{""confidence"":0}","[0]",""
"","","call-function","538","1696853","0.0-538.0","","","","","","","","",""
"","null","html-keyboard-response","539","1699855","0.0-539.0","<span style=""color:Black; font-size:50px;"">Agent A","null","","","","","","",""
"","null","video-keyboard-response","540","1702921","0.0-540.0","","null","","Agent A","scrambled","STIM_SET_1/0_1159353.bmppp151_L1V1_freeview_scrambled.mp4","","",""
"","null","html-keyboard-response","541","1705927","0.0-541.0","<span style=""color:Black; font-size:50px;"">Agent B","null","","","","","","",""
"","null","video-keyboard-response","542","1708983","0.0-542.0","","null","","Agent B","veridical","STIM_SET_1/0_1159353.bmppp151_L1V1_freeview_veridical.mp4","","",""
"","","call-function","543","1708984","0.0-543.0","","","","","","","","",""
"","2289.7399999999907","survey-likert","544","1711276","0.0-544.0","","","","","","","{""judgement"":1}","[0]","1"
"","1005.9399999999441","survey-likert","545","1712283","0.0-545.0","","","","","","","{""confidence"":1}","[0]",""
"","","call-function","546","1712285","0.0-546.0","","","","","","","","",""
"","null","html-keyboard-response","547","1715291","0.0-547.0","<span style=""color:Black; font-size:50px;"">Agent A","null","","","","","","",""
"","null","video-keyboard-response","548","1718351","0.0-548.0","","null","","Agent A","scrambled","STIM_SET_1/0_713593.bmppp75_L1V1_freeview_scrambled.mp4","","",""
"","null","html-keyboard-response","549","1721356","0.0-549.0","<span style=""color:Black; font-size:50px;"">Agent B","null","","","","","","",""
"","null","video-keyboard-response","550","1724420","0.0-550.0","","null","","Agent B","veridical","STIM_SET_1/0_713593.bmppp75_L1V1_freeview_veridical.mp4","","",""
"","","call-function","551","1724421","0.0-551.0","","","","","","","","",""
"","1972.9250000000466","survey-likert","552","1726395","0.0-552.0","","","","","","","{""judgement"":1}","[0]","1"
"","1350.2450000001118","survey-likert","553","1727748","0.0-553.0","","","","","","","{""confidence"":2}","[0]",""
"","","call-function","554","1727749","0.0-554.0","","","","","","","","",""
"","null","html-keyboard-response","555","1730751","0.0-555.0","<span style=""color:Black; font-size:50px;"">Agent A","null","","","","","","",""
"","null","video-keyboard-response","556","1733802","0.0-556.0","","null","","Agent A","scrambled","STIM_SET_1/0_1592025.bmppp57_L1V1_freeview_scrambled.mp4","","",""
"","null","html-keyboard-response","557","1736804","0.0-557.0","<span style=""color:Black; font-size:50px;"">Agent B","null","","","","","","",""
"","null","video-keyboard-response","558","1739857","0.0-558.0","","null","","Agent B","veridical","STIM_SET_1/0_1592025.bmppp57_L1V1_freeview_veridical.mp4","","",""
"","","call-function","559","1739858","0.0-559.0","","","","","","","","",""
"","2184.380000000121","survey-likert","560","1742044","0.0-560.0","","","","","","","{""judgement"":1}","[0]","1"
"","1173.8149999997113","survey-likert","561","1743220","0.0-561.0","","","","","","","{""confidence"":1}","[0]",""
"","","call-function","562","1743221","0.0-562.0","","","","","","","","",""
"","null","html-keyboard-response","563","1746225","0.0-563.0","<span style=""color:Black; font-size:50px;"">Agent A","null","","","","","","",""
"","null","video-keyboard-response","564","1749322","0.0-564.0","","null","","Agent A","scrambled","STIM_SET_1/0_1159819.bmppp52_L1V1_freeview_scrambled.mp4","","",""
"","null","html-keyboard-response","565","1752327","0.0-565.0","<span style=""color:Black; font-size:50px;"">Agent B","null","","","","","","",""
"","null","video-keyboard-response","566","1755425","0.0-566.0","","null","","Agent B","veridical","STIM_SET_1/0_1159819.bmppp52_L1V1_freeview_veridical.mp4","","",""
"","","call-function","567","1755426","0.0-567.0","","","","","","","","",""
"","2167.9499999997206","survey-likert","568","1757595","0.0-568.0","","","","","","","{""judgement"":1}","[0]","1"
"","942.1899999999441","survey-likert","569","1758540","0.0-569.0","","","","","","","{""confidence"":1}","[0]",""
"","","call-function","570","1758541","0.0-570.0","","","","","","","","",""
"","null","html-keyboard-response","571","1761545","0.0-571.0","<span style=""color:Black; font-size:50px;"">Agent A","null","","","","","","",""
"","null","video-keyboard-response","572","1764598","0.0-572.0","","null","","Agent A","veridical","STIM_SET_1/0_713765.bmppp93_L1V1_freeview_veridical.mp4","","",""
"","null","html-keyboard-response","573","1767600","0.0-573.0","<span style=""color:Black; font-size:50px;"">Agent B","null","","","","","","",""
"","null","video-keyboard-response","574","1770654","0.0-574.0","","null","","Agent B","scrambled","STIM_SET_1/0_713765.bmppp93_L1V1_freeview_scrambled.mp4","","",""
"","","call-function","575","1770655","0.0-575.0","","","","","","","","",""
"","2482.9500000001863","survey-likert","576","1773139","0.0-576.0","","","","","","","{""judgement"":1}","[0]","0"
"","1150.2099999999627","survey-likert","577","1774291","0.0-577.0","","","","","","","{""confidence"":1}","[0]",""
"[{""page_index"":0,""viewing_time"":2414.4849999998696}]","2415.005000000121","instructions","578","1776708","0.0-578.0","","","","","","","","",""
"","72629.36499999999","survey-text","579","1849340","0.0-579.0","","","","","","","{""Q0"":""usually picked the agent that seemed to have more logical or smooth patterns. I considered more \""jumpy\"" patterns to be fake.""}","",""
"","53197.254999999655","survey-text","580","1902540","0.0-580.0","","","","","","","{""Q0"":""I thought many of the trials were very difficult, and others were easier. I judged smoother, more logical patterns to be real people. More \""jumpy\"" patterns were fake.""}","",""
"","61397.63000000012","survey-text","581","1963940","0.0-581.0","","","","","","","{""Q0"":""Some of the shorter trials with less movements to judge were more difficult. Outdoor scenes or scenes without a clear structure for what to attend to first (such as two large trucks next to each other) were more difficult.""}","",""
"[{""page_index"":0,""viewing_time"":2094.6399999998976}]","2094.9849999998696","instructions","582","1966036","0.0-582.0","","","","","","","","",""
