"view_history","rt","trial_type","trial_index","time_elapsed","internal_node_id","stimulus","key_press","value","agent","condition","image","responses","question_order","correct_answer"
"[{""page_index"":0,""viewing_time"":4210.80000000447}]","4211","instructions","0","4213","0.0-0.0","","","","","","","","",""
"[{""page_index"":0,""viewing_time"":491},{""page_index"":1,""viewing_time"":1034.6000000014901},{""page_index"":2,""viewing_time"":1123.6999999955297}]","2649.39999999851","instructions","1","6863","0.0-1.0","","","","","","","","",""
"[{""page_index"":0,""viewing_time"":1340}]","1340.1000000014901","instructions","2","8203","0.0-2.0","","","","","","","","",""
"","null","video-keyboard-response","3","11312","0.0-3.0","","null","","","","","","",""
"[{""page_index"":0,""viewing_time"":2185.2000000029802},{""page_index"":1,""viewing_time"":2356.2999999970198},{""page_index"":2,""viewing_time"":888.8000000044703},{""page_index"":3,""viewing_time"":4453.5},{""page_index"":4,""viewing_time"":3316.39999999851}]","13200.39999999851","instructions","4","24513","0.0-4.0","","","","","","","","",""
"[{""page_index"":0,""viewing_time"":1673.5999999940395}]","1673.7999999970198","instructions","5","26187","0.0-5.0","","","","","","","","",""
"","","call-function","6","26188","0.0-6.0","","","","","","","","",""
"","null","html-keyboard-response","7","29191","0.0-7.0","<span style=""color:Black; font-size:50px;"">Agent A","null","","","","","","",""
"","null","video-keyboard-response","8","32257","0.0-8.0","","null","","Agent A","scrambled","/Users/kirstenziman/Desktop/Desktop/DIDEC_entire_corpus/analysis_3/STIM_SET_1/0_285959.bmppp71_L1V1_freeview_scrambled.mp4","","",""
"","null","html-keyboard-response","9","35261","0.0-9.0","<span style=""color:Black; font-size:50px;"">Agent B","null","","","","","","",""
"","null","video-keyboard-response","10","38307","0.0-10.0","","null","","Agent B","veridical","/Users/kirstenziman/Desktop/Desktop/DIDEC_entire_corpus/analysis_3/STIM_SET_1/0_285959.bmppp71_L1V1_freeview_veridical.mp4","","",""
"","","call-function","11","38308","0.0-11.0","","","","","","","","",""
"","2601","survey-likert","12","40910","0.0-12.0","","","","","","","{""judgement"":1}","[0]","1"
"","3436.5999999940395","survey-likert","13","44348","0.0-13.0","","","","","","","{""confidence"":2}","[0]",""
"","","call-function","14","44349","0.0-14.0","","","","","","","","",""
"","null","html-keyboard-response","15","47354","0.0-15.0","<span style=""color:Black; font-size:50px;"">Agent A","null","","","","","","",""
"","null","video-keyboard-response","16","50549","0.0-16.0","","null","","Agent A","scrambled","/Users/kirstenziman/Desktop/Desktop/DIDEC_entire_corpus/analysis_3/STIM_SET_1/0_1592189.bmppp151_L1V1_freeview_scrambled.mp4","","",""
"","null","html-keyboard-response","17","53555","0.0-17.0","<span style=""color:Black; font-size:50px;"">Agent B","null","","","","","","",""
"","null","video-keyboard-response","18","56649","0.0-18.0","","null","","Agent B","veridical","/Users/kirstenziman/Desktop/Desktop/DIDEC_entire_corpus/analysis_3/STIM_SET_1/0_1592189.bmppp151_L1V1_freeview_veridical.mp4","","",""
"","","call-function","19","56650","0.0-19.0","","","","","","","","",""
"","2871.2000000029802","survey-likert","20","59523","0.0-20.0","","","","","","","{""judgement"":1}","[0]","1"
"","2315.60000000149","survey-likert","21","61840","0.0-21.0","","","","","","","{""confidence"":3}","[0]",""
"","","call-function","22","61840","0.0-22.0","","","","","","","","",""
"","null","html-keyboard-response","23","64845","0.0-23.0","<span style=""color:Black; font-size:50px;"">Agent A","null","","","","","","",""
"","null","video-keyboard-response","24","67931","0.0-24.0","","null","","Agent A","veridical","/Users/kirstenziman/Desktop/Desktop/DIDEC_entire_corpus/analysis_3/STIM_SET_1/0_1160140.bmppp76_L1V1_freeview_veridical.mp4","","",""
"","null","html-keyboard-response","25","70934","0.0-25.0","<span style=""color:Black; font-size:50px;"">Agent B","null","","","","","","",""
"","null","video-keyboard-response","26","74032","0.0-26.0","","null","","Agent B","scrambled","/Users/kirstenziman/Desktop/Desktop/DIDEC_entire_corpus/analysis_3/STIM_SET_1/0_1160140.bmppp76_L1V1_freeview_scrambled.mp4","","",""
"","","call-function","27","74032","0.0-27.0","","","","","","","","",""
"","2465.39999999851","survey-likert","28","76498","0.0-28.0","","","","","","","{""judgement"":0}","[0]","0"
"","1614.7000000029802","survey-likert","29","78114","0.0-29.0","","","","","","","{""confidence"":2}","[0]",""
"","","call-function","30","78116","0.0-30.0","","","","","","","","",""
"","null","html-keyboard-response","31","81117","0.0-31.0","<span style=""color:Black; font-size:50px;"">Agent A","null","","","","","","",""
"","null","video-keyboard-response","32","84176","0.0-32.0","","null","","Agent A","scrambled","/Users/kirstenziman/Desktop/Desktop/DIDEC_entire_corpus/analysis_3/STIM_SET_1/0_286066.bmppp151_L1V1_freeview_scrambled.mp4","","",""
"","null","html-keyboard-response","33","87179","0.0-33.0","<span style=""color:Black; font-size:50px;"">Agent B","null","","","","","","",""
"","null","video-keyboard-response","34","90259","0.0-34.0","","null","","Agent B","veridical","/Users/kirstenziman/Desktop/Desktop/DIDEC_entire_corpus/analysis_3/STIM_SET_1/0_286066.bmppp151_L1V1_freeview_veridical.mp4","","",""
"","","call-function","35","90259","0.0-35.0","","","","","","","","",""
"","2575.10000000149","survey-likert","36","92835","0.0-36.0","","","","","","","{""judgement"":0}","[0]","1"
"","2477.10000000149","survey-likert","37","95314","0.0-37.0","","","","","","","{""confidence"":3}","[0]",""
"","","call-function","38","95314","0.0-38.0","","","","","","","","",""
"","null","html-keyboard-response","39","98316","0.0-39.0","<span style=""color:Black; font-size:50px;"">Agent A","null","","","","","","",""
"","null","video-keyboard-response","40","101407","0.0-40.0","","null","","Agent A","scrambled","/Users/kirstenziman/Desktop/Desktop/DIDEC_entire_corpus/analysis_3/STIM_SET_1/0_1591838.bmppp154_L1V1_freeview_scrambled.mp4","","",""
"","null","html-keyboard-response","41","104411","0.0-41.0","<span style=""color:Black; font-size:50px;"">Agent B","null","","","","","","",""
"","null","video-keyboard-response","42","107539","0.0-42.0","","null","","Agent B","veridical","/Users/kirstenziman/Desktop/Desktop/DIDEC_entire_corpus/analysis_3/STIM_SET_1/0_1591838.bmppp154_L1V1_freeview_veridical.mp4","","",""
"","","call-function","43","107540","0.0-43.0","","","","","","","","",""
"","2661.5","survey-likert","44","110202","0.0-44.0","","","","","","","{""judgement"":1}","[0]","1"
"","2310.3000000044703","survey-likert","45","112514","0.0-45.0","","","","","","","{""confidence"":1}","[0]",""
"","","call-function","46","112514","0.0-46.0","","","","","","","","",""
"","null","html-keyboard-response","47","115516","0.0-47.0","<span style=""color:Black; font-size:50px;"">Agent A","null","","","","","","",""
"","null","video-keyboard-response","48","118587","0.0-48.0","","null","","Agent A","scrambled","/Users/kirstenziman/Desktop/Desktop/DIDEC_entire_corpus/analysis_3/STIM_SET_1/0_150432.bmppp81_L1V1_freeview_scrambled.mp4","","",""
"","null","html-keyboard-response","49","121589","0.0-49.0","<span style=""color:Black; font-size:50px;"">Agent B","null","","","","","","",""
"","null","video-keyboard-response","50","124672","0.0-50.0","","null","","Agent B","veridical","/Users/kirstenziman/Desktop/Desktop/DIDEC_entire_corpus/analysis_3/STIM_SET_1/0_150432.bmppp81_L1V1_freeview_veridical.mp4","","",""
"","","call-function","51","124673","0.0-51.0","","","","","","","","",""
"","2362","survey-likert","52","127037","0.0-52.0","","","","","","","{""judgement"":1}","[0]","1"
"","1887.4000000059605","survey-likert","53","128925","0.0-53.0","","","","","","","{""confidence"":2}","[0]",""
"","","call-function","54","128926","0.0-54.0","","","","","","","","",""
"","null","html-keyboard-response","55","131926","0.0-55.0","<span style=""color:Black; font-size:50px;"">Agent A","null","","","","","","",""
"","null","video-keyboard-response","56","135010","0.0-56.0","","null","","Agent A","scrambled","/Users/kirstenziman/Desktop/Desktop/DIDEC_entire_corpus/analysis_3/STIM_SET_1/0_1592836.bmppp68_L1V1_freeview_scrambled.mp4","","",""
"","null","html-keyboard-response","57","138016","0.0-57.0","<span style=""color:Black; font-size:50px;"">Agent B","null","","","","","","",""
"","null","video-keyboard-response","58","141095","0.0-58.0","","null","","Agent B","veridical","/Users/kirstenziman/Desktop/Desktop/DIDEC_entire_corpus/analysis_3/STIM_SET_1/0_1592836.bmppp68_L1V1_freeview_veridical.mp4","","",""
"","","call-function","59","141095","0.0-59.0","","","","","","","","",""
"","3770.2999999970198","survey-likert","60","144867","0.0-60.0","","","","","","","{""judgement"":1}","[0]","1"
"","2319.5","survey-likert","61","147187","0.0-61.0","","","","","","","{""confidence"":1}","[0]",""
"","","call-function","62","147188","0.0-62.0","","","","","","","","",""
"","null","html-keyboard-response","63","150189","0.0-63.0","<span style=""color:Black; font-size:50px;"">Agent A","null","","","","","","",""
"","null","video-keyboard-response","64","153271","0.0-64.0","","null","","Agent A","veridical","/Users/kirstenziman/Desktop/Desktop/DIDEC_entire_corpus/analysis_3/STIM_SET_1/0_713858.bmppp75_L1V1_freeview_veridical.mp4","","",""
"","null","html-keyboard-response","65","156274","0.0-65.0","<span style=""color:Black; font-size:50px;"">Agent B","null","","","","","","",""
"","null","video-keyboard-response","66","159420","0.0-66.0","","null","","Agent B","scrambled","/Users/kirstenziman/Desktop/Desktop/DIDEC_entire_corpus/analysis_3/STIM_SET_1/0_713858.bmppp75_L1V1_freeview_scrambled.mp4","","",""
"","","call-function","67","159420","0.0-67.0","","","","","","","","",""
"","2206.89999999851","survey-likert","68","161629","0.0-68.0","","","","","","","{""judgement"":0}","[0]","0"
"","2589.89999999851","survey-likert","69","164220","0.0-69.0","","","","","","","{""confidence"":3}","[0]",""
"","","call-function","70","164221","0.0-70.0","","","","","","","","",""
"","null","html-keyboard-response","71","167226","0.0-71.0","<span style=""color:Black; font-size:50px;"">Agent A","null","","","","","","",""
"","null","video-keyboard-response","72","170379","0.0-72.0","","null","","Agent A","scrambled","/Users/kirstenziman/Desktop/Desktop/DIDEC_entire_corpus/analysis_3/STIM_SET_1/0_713652.bmppp71_L1V1_freeview_scrambled.mp4","","",""
"","null","html-keyboard-response","73","173383","0.0-73.0","<span style=""color:Black; font-size:50px;"">Agent B","null","","","","","","",""
"","null","video-keyboard-response","74","176456","0.0-74.0","","null","","Agent B","veridical","/Users/kirstenziman/Desktop/Desktop/DIDEC_entire_corpus/analysis_3/STIM_SET_1/0_713652.bmppp71_L1V1_freeview_veridical.mp4","","",""
"","","call-function","75","176457","0.0-75.0","","","","","","","","",""
"","3952.7999999970198","survey-likert","76","180411","0.0-76.0","","","","","","","{""judgement"":1}","[0]","1"
"","2132.89999999851","survey-likert","77","182545","0.0-77.0","","","","","","","{""confidence"":1}","[0]",""
"","","call-function","78","182545","0.0-78.0","","","","","","","","",""
"","null","html-keyboard-response","79","185547","0.0-79.0","<span style=""color:Black; font-size:50px;"">Agent A","null","","","","","","",""
"","null","video-keyboard-response","80","188603","0.0-80.0","","null","","Agent A","veridical","/Users/kirstenziman/Desktop/Desktop/DIDEC_entire_corpus/analysis_3/STIM_SET_1/0_713418.bmppp81_L1V1_freeview_veridical.mp4","","",""
"","null","html-keyboard-response","81","191607","0.0-81.0","<span style=""color:Black; font-size:50px;"">Agent B","null","","","","","","",""
"","null","video-keyboard-response","82","194685","0.0-82.0","","null","","Agent B","scrambled","/Users/kirstenziman/Desktop/Desktop/DIDEC_entire_corpus/analysis_3/STIM_SET_1/0_713418.bmppp81_L1V1_freeview_scrambled.mp4","","",""
"","","call-function","83","194685","0.0-83.0","","","","","","","","",""
"","3955.10000000149","survey-likert","84","198641","0.0-84.0","","","","","","","{""judgement"":0}","[0]","0"
"","1622.7000000029802","survey-likert","85","200265","0.0-85.0","","","","","","","{""confidence"":2}","[0]",""
"[{""page_index"":0,""viewing_time"":1024.7000000029802},{""page_index"":1,""viewing_time"":879.8999999985099},{""page_index"":2,""viewing_time"":734}]","2638.8000000044703","instructions","86","202905","0.0-86.0","","","","","","","","",""
"[{""page_index"":0,""viewing_time"":1114.5},{""page_index"":1,""viewing_time"":1052.5},{""page_index"":2,""viewing_time"":822.3000000044703}]","2989.5","instructions","87","205895","0.0-87.0","","","","","","","","",""
"","","call-function","88","205895","0.0-88.0","","","","","","","","",""
"","null","html-keyboard-response","89","208900","0.0-89.0","<span style=""color:Black; font-size:50px;"">Agent A","null","","","","","","",""
"","null","video-keyboard-response","90","211974","0.0-90.0","","null","","Agent A","veridical","/Users/kirstenziman/Desktop/Desktop/DIDEC_entire_corpus/analysis_3/STIM_SET_1/0_150303.bmppp68_L1V1_freeview_veridical.mp4","","",""
"","null","html-keyboard-response","91","214977","0.0-91.0","<span style=""color:Black; font-size:50px;"">Agent B","null","","","","","","",""
"","null","video-keyboard-response","92","218056","0.0-92.0","","null","","Agent B","scrambled","/Users/kirstenziman/Desktop/Desktop/DIDEC_entire_corpus/analysis_3/STIM_SET_1/0_150303.bmppp68_L1V1_freeview_scrambled.mp4","","",""
"","","call-function","93","218057","0.0-93.0","","","","","","","","",""
"","2731.39999999851","survey-likert","94","220790","0.0-94.0","","","","","","","{""judgement"":0}","[0]","0"
"","1315.3999999985099","survey-likert","95","222107","0.0-95.0","","","","","","","{""confidence"":3}","[0]",""
"","","call-function","96","222108","0.0-96.0","","","","","","","","",""
"","null","html-keyboard-response","97","225113","0.0-97.0","<span style=""color:Black; font-size:50px;"">Agent A","null","","","","","","",""
"","null","video-keyboard-response","98","228219","0.0-98.0","","null","","Agent A","veridical","/Users/kirstenziman/Desktop/Desktop/DIDEC_entire_corpus/analysis_3/STIM_SET_1/0_713450.bmppp154_L1V1_freeview_veridical.mp4","","",""
"","null","html-keyboard-response","99","231220","0.0-99.0","<span style=""color:Black; font-size:50px;"">Agent B","null","","","","","","",""
"","null","video-keyboard-response","100","234300","0.0-100.0","","null","","Agent B","scrambled","/Users/kirstenziman/Desktop/Desktop/DIDEC_entire_corpus/analysis_3/STIM_SET_1/0_713450.bmppp154_L1V1_freeview_scrambled.mp4","","",""
"","","call-function","101","234301","0.0-101.0","","","","","","","","",""
"","2841.89999999851","survey-likert","102","237143","0.0-102.0","","","","","","","{""judgement"":0}","[0]","0"
"","1527.5","survey-likert","103","238672","0.0-103.0","","","","","","","{""confidence"":1}","[0]",""
"","","call-function","104","238673","0.0-104.0","","","","","","","","",""
"","null","html-keyboard-response","105","241675","0.0-105.0","<span style=""color:Black; font-size:50px;"">Agent A","null","","","","","","",""
"","null","video-keyboard-response","106","244771","0.0-106.0","","null","","Agent A","veridical","/Users/kirstenziman/Desktop/Desktop/DIDEC_entire_corpus/analysis_3/STIM_SET_1/0_1159819.bmppp52_L1V1_freeview_veridical.mp4","","",""
"","null","html-keyboard-response","107","247775","0.0-107.0","<span style=""color:Black; font-size:50px;"">Agent B","null","","","","","","",""
"","null","video-keyboard-response","108","250879","0.0-108.0","","null","","Agent B","scrambled","/Users/kirstenziman/Desktop/Desktop/DIDEC_entire_corpus/analysis_3/STIM_SET_1/0_1159819.bmppp52_L1V1_freeview_scrambled.mp4","","",""
"","","call-function","109","250879","0.0-109.0","","","","","","","","",""
"","1965.1000000014901","survey-likert","110","252846","0.0-110.0","","","","","","","{""judgement"":0}","[0]","0"
"","1444.3999999985099","survey-likert","111","254292","0.0-111.0","","","","","","","{""confidence"":3}","[0]",""
"","","call-function","112","254292","0.0-112.0","","","","","","","","",""
"","null","html-keyboard-response","113","257296","0.0-113.0","<span style=""color:Black; font-size:50px;"">Agent A","null","","","","","","",""
"","null","video-keyboard-response","114","260362","0.0-114.0","","null","","Agent A","veridical","/Users/kirstenziman/Desktop/Desktop/DIDEC_entire_corpus/analysis_3/STIM_SET_1/0_498398.bmppp93_L1V1_freeview_veridical.mp4","","",""
"","null","html-keyboard-response","115","263367","0.0-115.0","<span style=""color:Black; font-size:50px;"">Agent B","null","","","","","","",""
"","null","video-keyboard-response","116","266476","0.0-116.0","","null","","Agent B","scrambled","/Users/kirstenziman/Desktop/Desktop/DIDEC_entire_corpus/analysis_3/STIM_SET_1/0_498398.bmppp93_L1V1_freeview_scrambled.mp4","","",""
"","","call-function","117","266476","0.0-117.0","","","","","","","","",""
"","5072.70000000298","survey-likert","118","271549","0.0-118.0","","","","","","","{""judgement"":1}","[0]","0"
"","1784.2999999970198","survey-likert","119","273335","0.0-119.0","","","","","","","{""confidence"":0}","[0]",""
"","","call-function","120","273336","0.0-120.0","","","","","","","","",""
"","null","html-keyboard-response","121","276342","0.0-121.0","<span style=""color:Black; font-size:50px;"">Agent A","null","","","","","","",""
"","null","video-keyboard-response","122","279443","0.0-122.0","","null","","Agent A","scrambled","/Users/kirstenziman/Desktop/Desktop/DIDEC_entire_corpus/analysis_3/STIM_SET_1/0_713593.bmppp75_L1V1_freeview_scrambled.mp4","","",""
"","null","html-keyboard-response","123","282448","0.0-123.0","<span style=""color:Black; font-size:50px;"">Agent B","null","","","","","","",""
"","null","video-keyboard-response","124","285542","0.0-124.0","","null","","Agent B","veridical","/Users/kirstenziman/Desktop/Desktop/DIDEC_entire_corpus/analysis_3/STIM_SET_1/0_713593.bmppp75_L1V1_freeview_veridical.mp4","","",""
"","","call-function","125","285543","0.0-125.0","","","","","","","","",""
"","3451","survey-likert","126","288995","0.0-126.0","","","","","","","{""judgement"":1}","[0]","1"
"","1875.7000000029802","survey-likert","127","290871","0.0-127.0","","","","","","","{""confidence"":1}","[0]",""
"","","call-function","128","290872","0.0-128.0","","","","","","","","",""
"","null","html-keyboard-response","129","293878","0.0-129.0","<span style=""color:Black; font-size:50px;"">Agent A","null","","","","","","",""
"","null","video-keyboard-response","130","296960","0.0-130.0","","null","","Agent A","veridical","/Users/kirstenziman/Desktop/Desktop/DIDEC_entire_corpus/analysis_3/STIM_SET_1/0_713707.bmppp154_L1V1_freeview_veridical.mp4","","",""
"","null","html-keyboard-response","131","299962","0.0-131.0","<span style=""color:Black; font-size:50px;"">Agent B","null","","","","","","",""
"","null","video-keyboard-response","132","303044","0.0-132.0","","null","","Agent B","scrambled","/Users/kirstenziman/Desktop/Desktop/DIDEC_entire_corpus/analysis_3/STIM_SET_1/0_713707.bmppp154_L1V1_freeview_scrambled.mp4","","",""
"","","call-function","133","303046","0.0-133.0","","","","","","","","",""
"","2481.7999999970198","survey-likert","134","305529","0.0-134.0","","","","","","","{""judgement"":0}","[0]","0"
"","1463.7000000029802","survey-likert","135","306994","0.0-135.0","","","","","","","{""confidence"":2}","[0]",""
"","","call-function","136","306994","0.0-136.0","","","","","","","","",""
"","null","html-keyboard-response","137","309999","0.0-137.0","<span style=""color:Black; font-size:50px;"">Agent A","null","","","","","","",""
"","null","video-keyboard-response","138","313076","0.0-138.0","","null","","Agent A","scrambled","/Users/kirstenziman/Desktop/Desktop/DIDEC_entire_corpus/analysis_3/STIM_SET_1/0_713936.bmppp76_L1V1_freeview_scrambled.mp4","","",""
"","null","html-keyboard-response","139","316080","0.0-139.0","<span style=""color:Black; font-size:50px;"">Agent B","null","","","","","","",""
"","null","video-keyboard-response","140","319143","0.0-140.0","","null","","Agent B","veridical","/Users/kirstenziman/Desktop/Desktop/DIDEC_entire_corpus/analysis_3/STIM_SET_1/0_713936.bmppp76_L1V1_freeview_veridical.mp4","","",""
"","","call-function","141","319143","0.0-141.0","","","","","","","","",""
"","3618.9000000059605","survey-likert","142","322763","0.0-142.0","","","","","","","{""judgement"":1}","[0]","1"
"","2511","survey-likert","143","325275","0.0-143.0","","","","","","","{""confidence"":0}","[0]",""
"","","call-function","144","325275","0.0-144.0","","","","","","","","",""
"","null","html-keyboard-response","145","328278","0.0-145.0","<span style=""color:Black; font-size:50px;"">Agent A","null","","","","","","",""
"","null","video-keyboard-response","146","331345","0.0-146.0","","null","","Agent A","veridical","/Users/kirstenziman/Desktop/Desktop/DIDEC_entire_corpus/analysis_3/STIM_SET_1/0_713920.bmppp76_L1V1_freeview_veridical.mp4","","",""
"","null","html-keyboard-response","147","334350","0.0-147.0","<span style=""color:Black; font-size:50px;"">Agent B","null","","","","","","",""
"","null","video-keyboard-response","148","337479","0.0-148.0","","null","","Agent B","scrambled","/Users/kirstenziman/Desktop/Desktop/DIDEC_entire_corpus/analysis_3/STIM_SET_1/0_713920.bmppp76_L1V1_freeview_scrambled.mp4","","",""
"","","call-function","149","337479","0.0-149.0","","","","","","","","",""
"","4555.5","survey-likert","150","342035","0.0-150.0","","","","","","","{""judgement"":0}","[0]","0"
"","2108.0999999940395","survey-likert","151","344144","0.0-151.0","","","","","","","{""confidence"":2}","[0]",""
"","","call-function","152","344145","0.0-152.0","","","","","","","","",""
"","null","html-keyboard-response","153","347149","0.0-153.0","<span style=""color:Black; font-size:50px;"">Agent A","null","","","","","","",""
"","null","video-keyboard-response","154","350303","0.0-154.0","","null","","Agent A","scrambled","/Users/kirstenziman/Desktop/Desktop/DIDEC_entire_corpus/analysis_3/STIM_SET_1/0_713760.bmppp75_L1V1_freeview_scrambled.mp4","","",""
"","null","html-keyboard-response","155","353304","0.0-155.0","<span style=""color:Black; font-size:50px;"">Agent B","null","","","","","","",""
"","null","video-keyboard-response","156","356517","0.0-156.0","","null","","Agent B","veridical","/Users/kirstenziman/Desktop/Desktop/DIDEC_entire_corpus/analysis_3/STIM_SET_1/0_713760.bmppp75_L1V1_freeview_veridical.mp4","","",""
"","","call-function","157","356517","0.0-157.0","","","","","","","","",""
"","3774.8000000044703","survey-likert","158","360292","0.0-158.0","","","","","","","{""judgement"":0}","[0]","1"
"","2179.89999999851","survey-likert","159","362474","0.0-159.0","","","","","","","{""confidence"":3}","[0]",""
"","","call-function","160","362475","0.0-160.0","","","","","","","","",""
"","null","html-keyboard-response","161","365476","0.0-161.0","<span style=""color:Black; font-size:50px;"">Agent A","null","","","","","","",""
"","null","video-keyboard-response","162","368590","0.0-162.0","","null","","Agent A","veridical","/Users/kirstenziman/Desktop/Desktop/DIDEC_entire_corpus/analysis_3/STIM_SET_1/0_1592286.bmppp57_L1V1_freeview_veridical.mp4","","",""
"","null","html-keyboard-response","163","371594","0.0-163.0","<span style=""color:Black; font-size:50px;"">Agent B","null","","","","","","",""
"","null","video-keyboard-response","164","374764","0.0-164.0","","null","","Agent B","scrambled","/Users/kirstenziman/Desktop/Desktop/DIDEC_entire_corpus/analysis_3/STIM_SET_1/0_1592286.bmppp57_L1V1_freeview_scrambled.mp4","","",""
"","","call-function","165","374765","0.0-165.0","","","","","","","","",""
"","2955.5","survey-likert","166","377721","0.0-166.0","","","","","","","{""judgement"":0}","[0]","0"
"","1738.8999999985099","survey-likert","167","379461","0.0-167.0","","","","","","","{""confidence"":3}","[0]",""
"[{""page_index"":0,""viewing_time"":1086.6000000014901},{""page_index"":1,""viewing_time"":470.6000000014901},{""page_index"":2,""viewing_time"":493}]","2050.5","instructions","168","381512","0.0-168.0","","","","","","","","",""
"[{""page_index"":0,""viewing_time"":435.3999999985099},{""page_index"":1,""viewing_time"":428.30000000447035},{""page_index"":2,""viewing_time"":442.69999999552965}]","1306.5","instructions","169","382819","0.0-169.0","","","","","","","","",""
"","","call-function","170","382820","0.0-170.0","","","","","","","","",""
"","null","html-keyboard-response","171","385822","0.0-171.0","<span style=""color:Black; font-size:50px;"">Agent A","null","","","","","","",""
"","null","video-keyboard-response","172","388900","0.0-172.0","","null","","Agent A","veridical","/Users/kirstenziman/Desktop/Desktop/DIDEC_entire_corpus/analysis_3/STIM_SET_1/0_1592017.bmppp64_L1V1_freeview_veridical.mp4","","",""
"","null","html-keyboard-response","173","391906","0.0-173.0","<span style=""color:Black; font-size:50px;"">Agent B","null","","","","","","",""
"","null","video-keyboard-response","174","394983","0.0-174.0","","null","","Agent B","scrambled","/Users/kirstenziman/Desktop/Desktop/DIDEC_entire_corpus/analysis_3/STIM_SET_1/0_1592017.bmppp64_L1V1_freeview_scrambled.mp4","","",""
"","","call-function","175","394984","0.0-175.0","","","","","","","","",""
"","5793.80000000447","survey-likert","176","400779","0.0-176.0","","","","","","","{""judgement"":0}","[0]","0"
"","3365.39999999851","survey-likert","177","404146","0.0-177.0","","","","","","","{""confidence"":0}","[0]",""
"","","call-function","178","404146","0.0-178.0","","","","","","","","",""
"","null","html-keyboard-response","179","407149","0.0-179.0","<span style=""color:Black; font-size:50px;"">Agent A","null","","","","","","",""
"","null","video-keyboard-response","180","410220","0.0-180.0","","null","","Agent A","veridical","/Users/kirstenziman/Desktop/Desktop/DIDEC_entire_corpus/analysis_3/STIM_SET_1/0_1592568.bmppp93_L1V1_freeview_veridical.mp4","","",""
"","null","html-keyboard-response","181","413223","0.0-181.0","<span style=""color:Black; font-size:50px;"">Agent B","null","","","","","","",""
"","null","video-keyboard-response","182","416305","0.0-182.0","","null","","Agent B","scrambled","/Users/kirstenziman/Desktop/Desktop/DIDEC_entire_corpus/analysis_3/STIM_SET_1/0_1592568.bmppp93_L1V1_freeview_scrambled.mp4","","",""
"","","call-function","183","416306","0.0-183.0","","","","","","","","",""
"","2679.6999999955297","survey-likert","184","418986","0.0-184.0","","","","","","","{""judgement"":1}","[0]","0"
"","2304","survey-likert","185","421292","0.0-185.0","","","","","","","{""confidence"":1}","[0]",""
"","","call-function","186","421293","0.0-186.0","","","","","","","","",""
"","null","html-keyboard-response","187","424298","0.0-187.0","<span style=""color:Black; font-size:50px;"">Agent A","null","","","","","","",""
"","null","video-keyboard-response","188","427378","0.0-188.0","","null","","Agent A","scrambled","/Users/kirstenziman/Desktop/Desktop/DIDEC_entire_corpus/analysis_3/STIM_SET_1/0_1592119.bmppp63_L1V1_freeview_scrambled.mp4","","",""
"","null","html-keyboard-response","189","430383","0.0-189.0","<span style=""color:Black; font-size:50px;"">Agent B","null","","","","","","",""
"","null","video-keyboard-response","190","433461","0.0-190.0","","null","","Agent B","veridical","/Users/kirstenziman/Desktop/Desktop/DIDEC_entire_corpus/analysis_3/STIM_SET_1/0_1592119.bmppp63_L1V1_freeview_veridical.mp4","","",""
"","","call-function","191","433462","0.0-191.0","","","","","","","","",""
"","2823.6999999955297","survey-likert","192","436287","0.0-192.0","","","","","","","{""judgement"":1}","[0]","1"
"","1574.1000000014901","survey-likert","193","437862","0.0-193.0","","","","","","","{""confidence"":2}","[0]",""
"","","call-function","194","437863","0.0-194.0","","","","","","","","",""
"","null","html-keyboard-response","195","440865","0.0-195.0","<span style=""color:Black; font-size:50px;"">Agent A","null","","","","","","",""
"","null","video-keyboard-response","196","443934","0.0-196.0","","null","","Agent A","veridical","/Users/kirstenziman/Desktop/Desktop/DIDEC_entire_corpus/analysis_3/STIM_SET_1/0_712977.bmppp68_L1V1_freeview_veridical.mp4","","",""
"","null","html-keyboard-response","197","446938","0.0-197.0","<span style=""color:Black; font-size:50px;"">Agent B","null","","","","","","",""
"","null","video-keyboard-response","198","450001","0.0-198.0","","null","","Agent B","scrambled","/Users/kirstenziman/Desktop/Desktop/DIDEC_entire_corpus/analysis_3/STIM_SET_1/0_712977.bmppp68_L1V1_freeview_scrambled.mp4","","",""
"","","call-function","199","450001","0.0-199.0","","","","","","","","",""
"","3274.1999999955297","survey-likert","200","453277","0.0-200.0","","","","","","","{""judgement"":1}","[0]","0"
"","2011.7000000029802","survey-likert","201","455289","0.0-201.0","","","","","","","{""confidence"":1}","[0]",""
"","","call-function","202","455290","0.0-202.0","","","","","","","","",""
"","null","html-keyboard-response","203","458291","0.0-203.0","<span style=""color:Black; font-size:50px;"">Agent A","null","","","","","","",""
"","null","video-keyboard-response","204","461362","0.0-204.0","","null","","Agent A","veridical","/Users/kirstenziman/Desktop/Desktop/DIDEC_entire_corpus/analysis_3/STIM_SET_1/0_285905.bmppp151_L1V1_freeview_veridical.mp4","","",""
"","null","html-keyboard-response","205","464363","0.0-205.0","<span style=""color:Black; font-size:50px;"">Agent B","null","","","","","","",""
"","null","video-keyboard-response","206","467445","0.0-206.0","","null","","Agent B","scrambled","/Users/kirstenziman/Desktop/Desktop/DIDEC_entire_corpus/analysis_3/STIM_SET_1/0_285905.bmppp151_L1V1_freeview_scrambled.mp4","","",""
"","","call-function","207","467446","0.0-207.0","","","","","","","","",""
"","2051.10000000149","survey-likert","208","469498","0.0-208.0","","","","","","","{""judgement"":0}","[0]","0"
"","1914.1999999955297","survey-likert","209","471413","0.0-209.0","","","","","","","{""confidence"":2}","[0]",""
"","","call-function","210","471414","0.0-210.0","","","","","","","","",""
"","null","html-keyboard-response","211","474417","0.0-211.0","<span style=""color:Black; font-size:50px;"">Agent A","null","","","","","","",""
"","null","video-keyboard-response","212","477500","0.0-212.0","","null","","Agent A","veridical","/Users/kirstenziman/Desktop/Desktop/DIDEC_entire_corpus/analysis_3/STIM_SET_1/0_1592137.bmppp52_L1V1_freeview_veridical.mp4","","",""
"","null","html-keyboard-response","213","480501","0.0-213.0","<span style=""color:Black; font-size:50px;"">Agent B","null","","","","","","",""
"","null","video-keyboard-response","214","483588","0.0-214.0","","null","","Agent B","scrambled","/Users/kirstenziman/Desktop/Desktop/DIDEC_entire_corpus/analysis_3/STIM_SET_1/0_1592137.bmppp52_L1V1_freeview_scrambled.mp4","","",""
"","","call-function","215","483589","0.0-215.0","","","","","","","","",""
"","1835.2999999970198","survey-likert","216","485426","0.0-216.0","","","","","","","{""judgement"":0}","[0]","0"
"","1485","survey-likert","217","486912","0.0-217.0","","","","","","","{""confidence"":3}","[0]",""
"","","call-function","218","486913","0.0-218.0","","","","","","","","",""
"","null","html-keyboard-response","219","489916","0.0-219.0","<span style=""color:Black; font-size:50px;"">Agent A","null","","","","","","",""
"","null","video-keyboard-response","220","493053","0.0-220.0","","null","","Agent A","scrambled","/Users/kirstenziman/Desktop/Desktop/DIDEC_entire_corpus/analysis_3/STIM_SET_1/0_498108.bmppp75_L1V1_freeview_scrambled.mp4","","",""
"","null","html-keyboard-response","221","496058","0.0-221.0","<span style=""color:Black; font-size:50px;"">Agent B","null","","","","","","",""
"","null","video-keyboard-response","222","499136","0.0-222.0","","null","","Agent B","veridical","/Users/kirstenziman/Desktop/Desktop/DIDEC_entire_corpus/analysis_3/STIM_SET_1/0_498108.bmppp75_L1V1_freeview_veridical.mp4","","",""
"","","call-function","223","499136","0.0-223.0","","","","","","","","",""
"","2661.1999999955297","survey-likert","224","501798","0.0-224.0","","","","","","","{""judgement"":1}","[0]","1"
"","2081.7000000029802","survey-likert","225","503881","0.0-225.0","","","","","","","{""confidence"":2}","[0]",""
"","","call-function","226","503882","0.0-226.0","","","","","","","","",""
"","null","html-keyboard-response","227","506883","0.0-227.0","<span style=""color:Black; font-size:50px;"">Agent A","null","","","","","","",""
"","null","video-keyboard-response","228","509956","0.0-228.0","","null","","Agent A","veridical","/Users/kirstenziman/Desktop/Desktop/DIDEC_entire_corpus/analysis_3/STIM_SET_1/0_285992.bmppp64_L1V1_freeview_veridical.mp4","","",""
"","null","html-keyboard-response","229","512962","0.0-229.0","<span style=""color:Black; font-size:50px;"">Agent B","null","","","","","","",""
"","null","video-keyboard-response","230","516029","0.0-230.0","","null","","Agent B","scrambled","/Users/kirstenziman/Desktop/Desktop/DIDEC_entire_corpus/analysis_3/STIM_SET_1/0_285992.bmppp64_L1V1_freeview_scrambled.mp4","","",""
"","","call-function","231","516029","0.0-231.0","","","","","","","","",""
"","3343.0999999940395","survey-likert","232","519373","0.0-232.0","","","","","","","{""judgement"":1}","[0]","0"
"","3536","survey-likert","233","522910","0.0-233.0","","","","","","","{""confidence"":2}","[0]",""
"","","call-function","234","522911","0.0-234.0","","","","","","","","",""
"","null","html-keyboard-response","235","525914","0.0-235.0","<span style=""color:Black; font-size:50px;"">Agent A","null","","","","","","",""
"","null","video-keyboard-response","236","528984","0.0-236.0","","null","","Agent A","scrambled","/Users/kirstenziman/Desktop/Desktop/DIDEC_entire_corpus/analysis_3/STIM_SET_1/0_1159353.bmppp151_L1V1_freeview_scrambled.mp4","","",""
"","null","html-keyboard-response","237","531988","0.0-237.0","<span style=""color:Black; font-size:50px;"">Agent B","null","","","","","","",""
"","null","video-keyboard-response","238","535084","0.0-238.0","","null","","Agent B","veridical","/Users/kirstenziman/Desktop/Desktop/DIDEC_entire_corpus/analysis_3/STIM_SET_1/0_1159353.bmppp151_L1V1_freeview_veridical.mp4","","",""
"","","call-function","239","535084","0.0-239.0","","","","","","","","",""
"","4591.60000000149","survey-likert","240","539677","0.0-240.0","","","","","","","{""judgement"":1}","[0]","1"
"","2252","survey-likert","241","541931","0.0-241.0","","","","","","","{""confidence"":1}","[0]",""
"","","call-function","242","541932","0.0-242.0","","","","","","","","",""
"","null","html-keyboard-response","243","544935","0.0-243.0","<span style=""color:Black; font-size:50px;"">Agent A","null","","","","","","",""
"","null","video-keyboard-response","244","548007","0.0-244.0","","null","","Agent A","scrambled","/Users/kirstenziman/Desktop/Desktop/DIDEC_entire_corpus/analysis_3/STIM_SET_1/0_1160189.bmppp89_L1V1_freeview_scrambled.mp4","","",""
"","null","html-keyboard-response","245","551021","0.0-245.0","<span style=""color:Black; font-size:50px;"">Agent B","null","","","","","","",""
"","null","video-keyboard-response","246","554093","0.0-246.0","","null","","Agent B","veridical","/Users/kirstenziman/Desktop/Desktop/DIDEC_entire_corpus/analysis_3/STIM_SET_1/0_1160189.bmppp89_L1V1_freeview_veridical.mp4","","",""
"","","call-function","247","554094","0.0-247.0","","","","","","","","",""
"","3737.60000000149","survey-likert","248","557833","0.0-248.0","","","","","","","{""judgement"":1}","[0]","1"
"","3303.7000000029802","survey-likert","249","561138","0.0-249.0","","","","","","","{""confidence"":3}","[0]",""
"[{""page_index"":0,""viewing_time"":1062.8999999985099},{""page_index"":1,""viewing_time"":325.79999999701977},{""page_index"":2,""viewing_time"":274.1000000014901}]","1663.1000000014901","instructions","250","562803","0.0-250.0","","","","","","","","",""
"[{""page_index"":0,""viewing_time"":136.80000000447035},{""page_index"":1,""viewing_time"":120.69999999552965},{""page_index"":2,""viewing_time"":460.6000000014901}]","718.3999999985099","instructions","251","563522","0.0-251.0","","","","","","","","",""
"","","call-function","252","563522","0.0-252.0","","","","","","","","",""
"","null","html-keyboard-response","253","566526","0.0-253.0","<span style=""color:Black; font-size:50px;"">Agent A","null","","","","","","",""
"","null","video-keyboard-response","254","569594","0.0-254.0","","null","","Agent A","veridical","/Users/kirstenziman/Desktop/Desktop/DIDEC_entire_corpus/analysis_3/STIM_SET_1/0_1592874.bmppp64_L1V1_freeview_veridical.mp4","","",""
"","null","html-keyboard-response","255","572596","0.0-255.0","<span style=""color:Black; font-size:50px;"">Agent B","null","","","","","","",""
"","null","video-keyboard-response","256","575676","0.0-256.0","","null","","Agent B","scrambled","/Users/kirstenziman/Desktop/Desktop/DIDEC_entire_corpus/analysis_3/STIM_SET_1/0_1592874.bmppp64_L1V1_freeview_scrambled.mp4","","",""
"","","call-function","257","575677","0.0-257.0","","","","","","","","",""
"","1967","survey-likert","258","577645","0.0-258.0","","","","","","","{""judgement"":0}","[0]","0"
"","1826.8999999985099","survey-likert","259","579473","0.0-259.0","","","","","","","{""confidence"":3}","[0]",""
"","","call-function","260","579474","0.0-260.0","","","","","","","","",""
"","null","html-keyboard-response","261","582476","0.0-261.0","<span style=""color:Black; font-size:50px;"">Agent A","null","","","","","","",""
"","null","video-keyboard-response","262","585546","0.0-262.0","","null","","Agent A","veridical","/Users/kirstenziman/Desktop/Desktop/DIDEC_entire_corpus/analysis_3/STIM_SET_1/0_713770.bmppp52_L1V1_freeview_veridical.mp4","","",""
"","null","html-keyboard-response","263","588547","0.0-263.0","<span style=""color:Black; font-size:50px;"">Agent B","null","","","","","","",""
"","null","video-keyboard-response","264","591725","0.0-264.0","","null","","Agent B","scrambled","/Users/kirstenziman/Desktop/Desktop/DIDEC_entire_corpus/analysis_3/STIM_SET_1/0_713770.bmppp52_L1V1_freeview_scrambled.mp4","","",""
"","","call-function","265","591725","0.0-265.0","","","","","","","","",""
"","4025.2000000029802","survey-likert","266","595751","0.0-266.0","","","","","","","{""judgement"":0}","[0]","0"
"","1830.5","survey-likert","267","597583","0.0-267.0","","","","","","","{""confidence"":1}","[0]",""
"","","call-function","268","597584","0.0-268.0","","","","","","","","",""
"","null","html-keyboard-response","269","600587","0.0-269.0","<span style=""color:Black; font-size:50px;"">Agent A","null","","","","","","",""
"","null","video-keyboard-response","270","603654","0.0-270.0","","null","","Agent A","veridical","/Users/kirstenziman/Desktop/Desktop/DIDEC_entire_corpus/analysis_3/STIM_SET_1/0_713786.bmppp68_L1V1_freeview_veridical.mp4","","",""
"","null","html-keyboard-response","271","606655","0.0-271.0","<span style=""color:Black; font-size:50px;"">Agent B","null","","","","","","",""
"","null","video-keyboard-response","272","609720","0.0-272.0","","null","","Agent B","scrambled","/Users/kirstenziman/Desktop/Desktop/DIDEC_entire_corpus/analysis_3/STIM_SET_1/0_713786.bmppp68_L1V1_freeview_scrambled.mp4","","",""
"","","call-function","273","609721","0.0-273.0","","","","","","","","",""
"","3721.8000000044703","survey-likert","274","613443","0.0-274.0","","","","","","","{""judgement"":0}","[0]","0"
"","2703.60000000149","survey-likert","275","616148","0.0-275.0","","","","","","","{""confidence"":2}","[0]",""
"","","call-function","276","616149","0.0-276.0","","","","","","","","",""
"","null","html-keyboard-response","277","619151","0.0-277.0","<span style=""color:Black; font-size:50px;"">Agent A","null","","","","","","",""
"","null","video-keyboard-response","278","622242","0.0-278.0","","null","","Agent A","scrambled","/Users/kirstenziman/Desktop/Desktop/DIDEC_entire_corpus/analysis_3/STIM_SET_1/0_497974.bmppp98_L1V1_freeview_scrambled.mp4","","",""
"","null","html-keyboard-response","279","625246","0.0-279.0","<span style=""color:Black; font-size:50px;"">Agent B","null","","","","","","",""
"","null","video-keyboard-response","280","628325","0.0-280.0","","null","","Agent B","veridical","/Users/kirstenziman/Desktop/Desktop/DIDEC_entire_corpus/analysis_3/STIM_SET_1/0_497974.bmppp98_L1V1_freeview_veridical.mp4","","",""
"","","call-function","281","628326","0.0-281.0","","","","","","","","",""
"","3172.2000000029802","survey-likert","282","631500","0.0-282.0","","","","","","","{""judgement"":1}","[0]","1"
"","1608.6000000014901","survey-likert","283","633109","0.0-283.0","","","","","","","{""confidence"":1}","[0]",""
"","","call-function","284","633110","0.0-284.0","","","","","","","","",""
"","null","html-keyboard-response","285","636113","0.0-285.0","<span style=""color:Black; font-size:50px;"">Agent A","null","","","","","","",""
"","null","video-keyboard-response","286","639190","0.0-286.0","","null","","Agent A","veridical","/Users/kirstenziman/Desktop/Desktop/DIDEC_entire_corpus/analysis_3/STIM_SET_1/0_1592233.bmppp58_L1V1_freeview_veridical.mp4","","",""
"","null","html-keyboard-response","287","642191","0.0-287.0","<span style=""color:Black; font-size:50px;"">Agent B","null","","","","","","",""
"","null","video-keyboard-response","288","645264","0.0-288.0","","null","","Agent B","scrambled","/Users/kirstenziman/Desktop/Desktop/DIDEC_entire_corpus/analysis_3/STIM_SET_1/0_1592233.bmppp58_L1V1_freeview_scrambled.mp4","","",""
"","","call-function","289","645265","0.0-289.0","","","","","","","","",""
"","6313","survey-likert","290","651578","0.0-290.0","","","","","","","{""judgement"":1}","[0]","0"
"","3941.89999999851","survey-likert","291","655521","0.0-291.0","","","","","","","{""confidence"":3}","[0]",""
"","","call-function","292","655522","0.0-292.0","","","","","","","","",""
"","null","html-keyboard-response","293","658526","0.0-293.0","<span style=""color:Black; font-size:50px;"">Agent A","null","","","","","","",""
"","null","video-keyboard-response","294","661574","0.0-294.0","","null","","Agent A","scrambled","/Users/kirstenziman/Desktop/Desktop/DIDEC_entire_corpus/analysis_3/STIM_SET_1/0_1592079.bmppp71_L1V1_freeview_scrambled.mp4","","",""
"","null","html-keyboard-response","295","664577","0.0-295.0","<span style=""color:Black; font-size:50px;"">Agent B","null","","","","","","",""
"","null","video-keyboard-response","296","667641","0.0-296.0","","null","","Agent B","veridical","/Users/kirstenziman/Desktop/Desktop/DIDEC_entire_corpus/analysis_3/STIM_SET_1/0_1592079.bmppp71_L1V1_freeview_veridical.mp4","","",""
"","","call-function","297","667642","0.0-297.0","","","","","","","","",""
"","3773.3000000044703","survey-likert","298","671417","0.0-298.0","","","","","","","{""judgement"":1}","[0]","1"
"","2973.6999999955297","survey-likert","299","674392","0.0-299.0","","","","","","","{""confidence"":0}","[0]",""
"","","call-function","300","674393","0.0-300.0","","","","","","","","",""
"","null","html-keyboard-response","301","677398","0.0-301.0","<span style=""color:Black; font-size:50px;"">Agent A","null","","","","","","",""
"","null","video-keyboard-response","302","680480","0.0-302.0","","null","","Agent A","scrambled","/Users/kirstenziman/Desktop/Desktop/DIDEC_entire_corpus/analysis_3/STIM_SET_1/0_1159440.bmppp98_L1V1_freeview_scrambled.mp4","","",""
"","null","html-keyboard-response","303","683484","0.0-303.0","<span style=""color:Black; font-size:50px;"">Agent B","null","","","","","","",""
"","null","video-keyboard-response","304","686563","0.0-304.0","","null","","Agent B","veridical","/Users/kirstenziman/Desktop/Desktop/DIDEC_entire_corpus/analysis_3/STIM_SET_1/0_1159440.bmppp98_L1V1_freeview_veridical.mp4","","",""
"","","call-function","305","686564","0.0-305.0","","","","","","","","",""
"","2855","survey-likert","306","689421","0.0-306.0","","","","","","","{""judgement"":0}","[0]","1"
"","3093","survey-likert","307","692515","0.0-307.0","","","","","","","{""confidence"":2}","[0]",""
"","","call-function","308","692516","0.0-308.0","","","","","","","","",""
"","null","html-keyboard-response","309","695521","0.0-309.0","<span style=""color:Black; font-size:50px;"">Agent A","null","","","","","","",""
"","null","video-keyboard-response","310","698580","0.0-310.0","","null","","Agent A","scrambled","/Users/kirstenziman/Desktop/Desktop/DIDEC_entire_corpus/analysis_3/STIM_SET_1/0_713788.bmppp81_L1V1_freeview_scrambled.mp4","","",""
"","null","html-keyboard-response","311","701581","0.0-311.0","<span style=""color:Black; font-size:50px;"">Agent B","null","","","","","","",""
"","null","video-keyboard-response","312","704629","0.0-312.0","","null","","Agent B","veridical","/Users/kirstenziman/Desktop/Desktop/DIDEC_entire_corpus/analysis_3/STIM_SET_1/0_713788.bmppp81_L1V1_freeview_veridical.mp4","","",""
"","","call-function","313","704630","0.0-313.0","","","","","","","","",""
"","3672.60000000149","survey-likert","314","708303","0.0-314.0","","","","","","","{""judgement"":0}","[0]","1"
"","1499.8000000044703","survey-likert","315","709805","0.0-315.0","","","","","","","{""confidence"":3}","[0]",""
"","","call-function","316","709805","0.0-316.0","","","","","","","","",""
"","null","html-keyboard-response","317","712808","0.0-317.0","<span style=""color:Black; font-size:50px;"">Agent A","null","","","","","","",""
"","null","video-keyboard-response","318","715875","0.0-318.0","","null","","Agent A","veridical","/Users/kirstenziman/Desktop/Desktop/DIDEC_entire_corpus/analysis_3/STIM_SET_1/0_713174.bmppp154_L1V1_freeview_veridical.mp4","","",""
"","null","html-keyboard-response","319","718879","0.0-319.0","<span style=""color:Black; font-size:50px;"">Agent B","null","","","","","","",""
"","null","video-keyboard-response","320","721958","0.0-320.0","","null","","Agent B","scrambled","/Users/kirstenziman/Desktop/Desktop/DIDEC_entire_corpus/analysis_3/STIM_SET_1/0_713174.bmppp154_L1V1_freeview_scrambled.mp4","","",""
"","","call-function","321","721959","0.0-321.0","","","","","","","","",""
"","5937.10000000149","survey-likert","322","727897","0.0-322.0","","","","","","","{""judgement"":1}","[0]","0"
"","1936.7999999970198","survey-likert","323","729836","0.0-323.0","","","","","","","{""confidence"":0}","[0]",""
"","","call-function","324","729836","0.0-324.0","","","","","","","","",""
"","null","html-keyboard-response","325","732841","0.0-325.0","<span style=""color:Black; font-size:50px;"">Agent A","null","","","","","","",""
"","null","video-keyboard-response","326","735906","0.0-326.0","","null","","Agent A","veridical","/Users/kirstenziman/Desktop/Desktop/DIDEC_entire_corpus/analysis_3/STIM_SET_1/0_1593056.bmppp51_L1V1_freeview_veridical.mp4","","",""
"","null","html-keyboard-response","327","738907","0.0-327.0","<span style=""color:Black; font-size:50px;"">Agent B","null","","","","","","",""
"","null","video-keyboard-response","328","741991","0.0-328.0","","null","","Agent B","scrambled","/Users/kirstenziman/Desktop/Desktop/DIDEC_entire_corpus/analysis_3/STIM_SET_1/0_1593056.bmppp51_L1V1_freeview_scrambled.mp4","","",""
"","","call-function","329","741991","0.0-329.0","","","","","","","","",""
"","4852.5","survey-likert","330","746845","0.0-330.0","","","","","","","{""judgement"":0}","[0]","0"
"","2058.39999999851","survey-likert","331","748905","0.0-331.0","","","","","","","{""confidence"":3}","[0]",""
"[{""page_index"":0,""viewing_time"":1038.6000000014901},{""page_index"":1,""viewing_time"":144.39999999850988},{""page_index"":2,""viewing_time"":121.89999999850988}]","1305","instructions","332","750211","0.0-332.0","","","","","","","","",""
"[{""page_index"":0,""viewing_time"":134.60000000149012},{""page_index"":1,""viewing_time"":429.70000000298023},{""page_index"":2,""viewing_time"":378.09999999403954}]","942.5","instructions","333","751154","0.0-333.0","","","","","","","","",""
"","","call-function","334","751154","0.0-334.0","","","","","","","","",""
"","null","html-keyboard-response","335","754156","0.0-335.0","<span style=""color:Black; font-size:50px;"">Agent A","null","","","","","","",""
"","null","video-keyboard-response","336","757221","0.0-336.0","","null","","Agent A","scrambled","/Users/kirstenziman/Desktop/Desktop/DIDEC_entire_corpus/analysis_3/STIM_SET_1/0_498339.bmppp63_L1V1_freeview_scrambled.mp4","","",""
"","null","html-keyboard-response","337","760223","0.0-337.0","<span style=""color:Black; font-size:50px;"">Agent B","null","","","","","","",""
"","null","video-keyboard-response","338","763290","0.0-338.0","","null","","Agent B","veridical","/Users/kirstenziman/Desktop/Desktop/DIDEC_entire_corpus/analysis_3/STIM_SET_1/0_498339.bmppp63_L1V1_freeview_veridical.mp4","","",""
"","","call-function","339","763290","0.0-339.0","","","","","","","","",""
"","6734.10000000149","survey-likert","340","770025","0.0-340.0","","","","","","","{""judgement"":1}","[0]","1"
"","2475.7999999970198","survey-likert","341","772502","0.0-341.0","","","","","","","{""confidence"":0}","[0]",""
"","","call-function","342","772502","0.0-342.0","","","","","","","","",""
"","null","html-keyboard-response","343","775506","0.0-343.0","<span style=""color:Black; font-size:50px;"">Agent A","null","","","","","","",""
"","null","video-keyboard-response","344","778579","0.0-344.0","","null","","Agent A","scrambled","/Users/kirstenziman/Desktop/Desktop/DIDEC_entire_corpus/analysis_3/STIM_SET_1/0_713765.bmppp93_L1V1_freeview_scrambled.mp4","","",""
"","null","html-keyboard-response","345","781585","0.0-345.0","<span style=""color:Black; font-size:50px;"">Agent B","null","","","","","","",""
"","null","video-keyboard-response","346","784657","0.0-346.0","","null","","Agent B","veridical","/Users/kirstenziman/Desktop/Desktop/DIDEC_entire_corpus/analysis_3/STIM_SET_1/0_713765.bmppp93_L1V1_freeview_veridical.mp4","","",""
"","","call-function","347","784658","0.0-347.0","","","","","","","","",""
"","2614.6999999955297","survey-likert","348","787274","0.0-348.0","","","","","","","{""judgement"":0}","[0]","1"
"","1538.0999999940395","survey-likert","349","788814","0.0-349.0","","","","","","","{""confidence"":2}","[0]",""
"","","call-function","350","788815","0.0-350.0","","","","","","","","",""
"","null","html-keyboard-response","351","791819","0.0-351.0","<span style=""color:Black; font-size:50px;"">Agent A","null","","","","","","",""
"","null","video-keyboard-response","352","794882","0.0-352.0","","null","","Agent A","veridical","/Users/kirstenziman/Desktop/Desktop/DIDEC_entire_corpus/analysis_3/STIM_SET_1/0_498258.bmppp76_L1V1_freeview_veridical.mp4","","",""
"","null","html-keyboard-response","353","797884","0.0-353.0","<span style=""color:Black; font-size:50px;"">Agent B","null","","","","","","",""
"","null","video-keyboard-response","354","800948","0.0-354.0","","null","","Agent B","scrambled","/Users/kirstenziman/Desktop/Desktop/DIDEC_entire_corpus/analysis_3/STIM_SET_1/0_498258.bmppp76_L1V1_freeview_scrambled.mp4","","",""
"","","call-function","355","800949","0.0-355.0","","","","","","","","",""
"","5857.20000000298","survey-likert","356","806808","0.0-356.0","","","","","","","{""judgement"":0}","[0]","0"
"","1476.9000000059605","survey-likert","357","808286","0.0-357.0","","","","","","","{""confidence"":2}","[0]",""
"","","call-function","358","808287","0.0-358.0","","","","","","","","",""
"","null","html-keyboard-response","359","811291","0.0-359.0","<span style=""color:Black; font-size:50px;"">Agent A","null","","","","","","",""
"","null","video-keyboard-response","360","814372","0.0-360.0","","null","","Agent A","scrambled","/Users/kirstenziman/Desktop/Desktop/DIDEC_entire_corpus/analysis_3/STIM_SET_1/0_713633.bmppp57_L1V1_freeview_scrambled.mp4","","",""
"","null","html-keyboard-response","361","817378","0.0-361.0","<span style=""color:Black; font-size:50px;"">Agent B","null","","","","","","",""
"","null","video-keyboard-response","362","820464","0.0-362.0","","null","","Agent B","veridical","/Users/kirstenziman/Desktop/Desktop/DIDEC_entire_corpus/analysis_3/STIM_SET_1/0_713633.bmppp57_L1V1_freeview_veridical.mp4","","",""
"","","call-function","363","820464","0.0-363.0","","","","","","","","",""
"","2477.8000000044703","survey-likert","364","822943","0.0-364.0","","","","","","","{""judgement"":1}","[0]","1"
"","3077.4000000059605","survey-likert","365","826022","0.0-365.0","","","","","","","{""confidence"":2}","[0]",""
"","","call-function","366","826023","0.0-366.0","","","","","","","","",""
"","null","html-keyboard-response","367","829028","0.0-367.0","<span style=""color:Black; font-size:50px;"">Agent A","null","","","","","","",""
"","null","video-keyboard-response","368","832104","0.0-368.0","","null","","Agent A","veridical","/Users/kirstenziman/Desktop/Desktop/DIDEC_entire_corpus/analysis_3/STIM_SET_1/0_107930.bmppp51_L1V1_freeview_veridical.mp4","","",""
"","null","html-keyboard-response","369","835106","0.0-369.0","<span style=""color:Black; font-size:50px;"">Agent B","null","","","","","","",""
"","null","video-keyboard-response","370","838188","0.0-370.0","","null","","Agent B","scrambled","/Users/kirstenziman/Desktop/Desktop/DIDEC_entire_corpus/analysis_3/STIM_SET_1/0_107930.bmppp51_L1V1_freeview_scrambled.mp4","","",""
"","","call-function","371","838189","0.0-371.0","","","","","","","","",""
"","4008.2000000029802","survey-likert","372","842198","0.0-372.0","","","","","","","{""judgement"":1}","[0]","0"
"","1775.2999999970198","survey-likert","373","843975","0.0-373.0","","","","","","","{""confidence"":2}","[0]",""
"","","call-function","374","843975","0.0-374.0","","","","","","","","",""
"","null","html-keyboard-response","375","846977","0.0-375.0","<span style=""color:Black; font-size:50px;"">Agent A","null","","","","","","",""
"","null","video-keyboard-response","376","850060","0.0-376.0","","null","","Agent A","scrambled","/Users/kirstenziman/Desktop/Desktop/DIDEC_entire_corpus/analysis_3/STIM_SET_1/0_1160062.bmppp71_L1V1_freeview_scrambled.mp4","","",""
"","null","html-keyboard-response","377","853063","0.0-377.0","<span style=""color:Black; font-size:50px;"">Agent B","null","","","","","","",""
"","null","video-keyboard-response","378","856144","0.0-378.0","","null","","Agent B","veridical","/Users/kirstenziman/Desktop/Desktop/DIDEC_entire_corpus/analysis_3/STIM_SET_1/0_1160062.bmppp71_L1V1_freeview_veridical.mp4","","",""
"","","call-function","379","856146","0.0-379.0","","","","","","","","",""
"","2462.4000000059605","survey-likert","380","858610","0.0-380.0","","","","","","","{""judgement"":1}","[0]","1"
"","2705.10000000149","survey-likert","381","861317","0.0-381.0","","","","","","","{""confidence"":2}","[0]",""
"","","call-function","382","861318","0.0-382.0","","","","","","","","",""
"","null","html-keyboard-response","383","864322","0.0-383.0","<span style=""color:Black; font-size:50px;"">Agent A","null","","","","","","",""
"","null","video-keyboard-response","384","867468","0.0-384.0","","null","","Agent A","veridical","/Users/kirstenziman/Desktop/Desktop/DIDEC_entire_corpus/analysis_3/STIM_SET_1/0_1159486.bmppp98_L1V1_freeview_veridical.mp4","","",""
"","null","html-keyboard-response","385","870470","0.0-385.0","<span style=""color:Black; font-size:50px;"">Agent B","null","","","","","","",""
"","null","video-keyboard-response","386","873551","0.0-386.0","","null","","Agent B","scrambled","/Users/kirstenziman/Desktop/Desktop/DIDEC_entire_corpus/analysis_3/STIM_SET_1/0_1159486.bmppp98_L1V1_freeview_scrambled.mp4","","",""
"","","call-function","387","873551","0.0-387.0","","","","","","","","",""
"","4544","survey-likert","388","878096","0.0-388.0","","","","","","","{""judgement"":1}","[0]","0"
"","1494.7000000029802","survey-likert","389","879592","0.0-389.0","","","","","","","{""confidence"":1}","[0]",""
"","","call-function","390","879592","0.0-390.0","","","","","","","","",""
"","null","html-keyboard-response","391","882596","0.0-391.0","<span style=""color:Black; font-size:50px;"">Agent A","null","","","","","","",""
"","null","video-keyboard-response","392","885680","0.0-392.0","","null","","Agent A","veridical","/Users/kirstenziman/Desktop/Desktop/DIDEC_entire_corpus/analysis_3/STIM_SET_1/0_1159463.bmppp63_L1V1_freeview_veridical.mp4","","",""
"","null","html-keyboard-response","393","888685","0.0-393.0","<span style=""color:Black; font-size:50px;"">Agent B","null","","","","","","",""
"","null","video-keyboard-response","394","891777","0.0-394.0","","null","","Agent B","scrambled","/Users/kirstenziman/Desktop/Desktop/DIDEC_entire_corpus/analysis_3/STIM_SET_1/0_1159463.bmppp63_L1V1_freeview_scrambled.mp4","","",""
"","","call-function","395","891778","0.0-395.0","","","","","","","","",""
"","4199.79999999702","survey-likert","396","895979","0.0-396.0","","","","","","","{""judgement"":1}","[0]","0"
"","2115.0999999940395","survey-likert","397","898096","0.0-397.0","","","","","","","{""confidence"":2}","[0]",""
"","","call-function","398","898097","0.0-398.0","","","","","","","","",""
"","null","html-keyboard-response","399","901102","0.0-399.0","<span style=""color:Black; font-size:50px;"">Agent A","null","","","","","","",""
"","null","video-keyboard-response","400","904188","0.0-400.0","","null","","Agent A","veridical","/Users/kirstenziman/Desktop/Desktop/DIDEC_entire_corpus/analysis_3/STIM_SET_1/0_1592133.bmppp63_L1V1_freeview_veridical.mp4","","",""
"","null","html-keyboard-response","401","907191","0.0-401.0","<span style=""color:Black; font-size:50px;"">Agent B","null","","","","","","",""
"","null","video-keyboard-response","402","910269","0.0-402.0","","null","","Agent B","scrambled","/Users/kirstenziman/Desktop/Desktop/DIDEC_entire_corpus/analysis_3/STIM_SET_1/0_1592133.bmppp63_L1V1_freeview_scrambled.mp4","","",""
"","","call-function","403","910270","0.0-403.0","","","","","","","","",""
"","3054.39999999851","survey-likert","404","913325","0.0-404.0","","","","","","","{""judgement"":1}","[0]","0"
"","2940","survey-likert","405","916266","0.0-405.0","","","","","","","{""confidence"":1}","[0]",""
"","","call-function","406","916266","0.0-406.0","","","","","","","","",""
"","null","html-keyboard-response","407","919271","0.0-407.0","<span style=""color:Black; font-size:50px;"">Agent A","null","","","","","","",""
"","null","video-keyboard-response","408","922344","0.0-408.0","","null","","Agent A","scrambled","/Users/kirstenziman/Desktop/Desktop/DIDEC_entire_corpus/analysis_3/STIM_SET_1/0_1591909.bmppp89_L1V1_freeview_scrambled.mp4","","",""
"","null","html-keyboard-response","409","925349","0.0-409.0","<span style=""color:Black; font-size:50px;"">Agent B","null","","","","","","",""
"","null","video-keyboard-response","410","928426","0.0-410.0","","null","","Agent B","veridical","/Users/kirstenziman/Desktop/Desktop/DIDEC_entire_corpus/analysis_3/STIM_SET_1/0_1591909.bmppp89_L1V1_freeview_veridical.mp4","","",""
"","","call-function","411","928427","0.0-411.0","","","","","","","","",""
"","1817.7999999970198","survey-likert","412","930246","0.0-412.0","","","","","","","{""judgement"":1}","[0]","1"
"","1185.2000000029802","survey-likert","413","931432","0.0-413.0","","","","","","","{""confidence"":2}","[0]",""
"[{""page_index"":0,""viewing_time"":1199},{""page_index"":1,""viewing_time"":480.1000000014901},{""page_index"":2,""viewing_time"":458.59999999403954}]","2137.89999999851","instructions","414","933570","0.0-414.0","","","","","","","","",""
"[{""page_index"":0,""viewing_time"":493.6000000014901},{""page_index"":1,""viewing_time"":662.5},{""page_index"":2,""viewing_time"":6529.20000000298}]","7685.5","instructions","415","941256","0.0-415.0","","","","","","","","",""
"","","call-function","416","941256","0.0-416.0","","","","","","","","",""
"","null","html-keyboard-response","417","944262","0.0-417.0","<span style=""color:Black; font-size:50px;"">Agent A","null","","","","","","",""
"","null","video-keyboard-response","418","947348","0.0-418.0","","null","","Agent A","veridical","/Users/kirstenziman/Desktop/Desktop/DIDEC_entire_corpus/analysis_3/STIM_SET_1/0_497950.bmppp51_L1V1_freeview_veridical.mp4","","",""
"","null","html-keyboard-response","419","950351","0.0-419.0","<span style=""color:Black; font-size:50px;"">Agent B","null","","","","","","",""
"","null","video-keyboard-response","420","953498","0.0-420.0","","null","","Agent B","scrambled","/Users/kirstenziman/Desktop/Desktop/DIDEC_entire_corpus/analysis_3/STIM_SET_1/0_497950.bmppp51_L1V1_freeview_scrambled.mp4","","",""
"","","call-function","421","953498","0.0-421.0","","","","","","","","",""
"","2137.89999999851","survey-likert","422","955636","0.0-422.0","","","","","","","{""judgement"":0}","[0]","0"
"","1433.6000000014901","survey-likert","423","957072","0.0-423.0","","","","","","","{""confidence"":3}","[0]",""
"","","call-function","424","957073","0.0-424.0","","","","","","","","",""
"","null","html-keyboard-response","425","960075","0.0-425.0","<span style=""color:Black; font-size:50px;"">Agent A","null","","","","","","",""
"","null","video-keyboard-response","426","963174","0.0-426.0","","null","","Agent A","veridical","/Users/kirstenziman/Desktop/Desktop/DIDEC_entire_corpus/analysis_3/STIM_SET_1/0_285851.bmppp64_L1V1_freeview_veridical.mp4","","",""
"","null","html-keyboard-response","427","966176","0.0-427.0","<span style=""color:Black; font-size:50px;"">Agent B","null","","","","","","",""
"","null","video-keyboard-response","428","969256","0.0-428.0","","null","","Agent B","scrambled","/Users/kirstenziman/Desktop/Desktop/DIDEC_entire_corpus/analysis_3/STIM_SET_1/0_285851.bmppp64_L1V1_freeview_scrambled.mp4","","",""
"","","call-function","429","969258","0.0-429.0","","","","","","","","",""
"","5651.29999999702","survey-likert","430","974910","0.0-430.0","","","","","","","{""judgement"":0}","[0]","0"
"","1713.6999999955297","survey-likert","431","976624","0.0-431.0","","","","","","","{""confidence"":1}","[0]",""
"","","call-function","432","976625","0.0-432.0","","","","","","","","",""
"","null","html-keyboard-response","433","979631","0.0-433.0","<span style=""color:Black; font-size:50px;"">Agent A","null","","","","","","",""
"","null","video-keyboard-response","434","982704","0.0-434.0","","null","","Agent A","scrambled","/Users/kirstenziman/Desktop/Desktop/DIDEC_entire_corpus/analysis_3/STIM_SET_1/0_1592857.bmppp64_L1V1_freeview_scrambled.mp4","","",""
"","null","html-keyboard-response","435","985705","0.0-435.0","<span style=""color:Black; font-size:50px;"">Agent B","null","","","","","","",""
"","null","video-keyboard-response","436","988823","0.0-436.0","","null","","Agent B","veridical","/Users/kirstenziman/Desktop/Desktop/DIDEC_entire_corpus/analysis_3/STIM_SET_1/0_1592857.bmppp64_L1V1_freeview_veridical.mp4","","",""
"","","call-function","437","988824","0.0-437.0","","","","","","","","",""
"","6802.10000000149","survey-likert","438","995627","0.0-438.0","","","","","","","{""judgement"":1}","[0]","1"
"","4660.5","survey-likert","439","1000289","0.0-439.0","","","","","","","{""confidence"":0}","[0]",""
"","","call-function","440","1000290","0.0-440.0","","","","","","","","",""
"","null","html-keyboard-response","441","1003292","0.0-441.0","<span style=""color:Black; font-size:50px;"">Agent A","null","","","","","","",""
"","null","video-keyboard-response","442","1006375","0.0-442.0","","null","","Agent A","scrambled","/Users/kirstenziman/Desktop/Desktop/DIDEC_entire_corpus/analysis_3/STIM_SET_1/0_1159425.bmppp58_L1V1_freeview_scrambled.mp4","","",""
"","null","html-keyboard-response","443","1009377","0.0-443.0","<span style=""color:Black; font-size:50px;"">Agent B","null","","","","","","",""
"","null","video-keyboard-response","444","1012457","0.0-444.0","","null","","Agent B","veridical","/Users/kirstenziman/Desktop/Desktop/DIDEC_entire_corpus/analysis_3/STIM_SET_1/0_1159425.bmppp58_L1V1_freeview_veridical.mp4","","",""
"","","call-function","445","1012458","0.0-445.0","","","","","","","","",""
"","2093.2000000029802","survey-likert","446","1014552","0.0-446.0","","","","","","","{""judgement"":1}","[0]","1"
"","1258.3999999985099","survey-likert","447","1015812","0.0-447.0","","","","","","","{""confidence"":2}","[0]",""
"","","call-function","448","1015813","0.0-448.0","","","","","","","","",""
"","null","html-keyboard-response","449","1018814","0.0-449.0","<span style=""color:Black; font-size:50px;"">Agent A","null","","","","","","",""
"","null","video-keyboard-response","450","1021877","0.0-450.0","","null","","Agent A","scrambled","/Users/kirstenziman/Desktop/Desktop/DIDEC_entire_corpus/analysis_3/STIM_SET_1/0_1159508.bmppp154_L1V1_freeview_scrambled.mp4","","",""
"","null","html-keyboard-response","451","1024881","0.0-451.0","<span style=""color:Black; font-size:50px;"">Agent B","null","","","","","","",""
"","null","video-keyboard-response","452","1027942","0.0-452.0","","null","","Agent B","veridical","/Users/kirstenziman/Desktop/Desktop/DIDEC_entire_corpus/analysis_3/STIM_SET_1/0_1159508.bmppp154_L1V1_freeview_veridical.mp4","","",""
"","","call-function","453","1027943","0.0-453.0","","","","","","","","",""
"","2213.89999999851","survey-likert","454","1030158","0.0-454.0","","","","","","","{""judgement"":1}","[0]","1"
"","4190.9000000059605","survey-likert","455","1034351","0.0-455.0","","","","","","","{""confidence"":2}","[0]",""
"","","call-function","456","1034352","0.0-456.0","","","","","","","","",""
"","null","html-keyboard-response","457","1037356","0.0-457.0","<span style=""color:Black; font-size:50px;"">Agent A","null","","","","","","",""
"","null","video-keyboard-response","458","1040429","0.0-458.0","","null","","Agent A","veridical","/Users/kirstenziman/Desktop/Desktop/DIDEC_entire_corpus/analysis_3/STIM_SET_1/0_1592530.bmppp89_L1V1_freeview_veridical.mp4","","",""
"","null","html-keyboard-response","459","1043433","0.0-459.0","<span style=""color:Black; font-size:50px;"">Agent B","null","","","","","","",""
"","null","video-keyboard-response","460","1046496","0.0-460.0","","null","","Agent B","scrambled","/Users/kirstenziman/Desktop/Desktop/DIDEC_entire_corpus/analysis_3/STIM_SET_1/0_1592530.bmppp89_L1V1_freeview_scrambled.mp4","","",""
"","","call-function","461","1046497","0.0-461.0","","","","","","","","",""
"","3444.39999999851","survey-likert","462","1049942","0.0-462.0","","","","","","","{""judgement"":0}","[0]","0"
"","2608.6999999955297","survey-likert","463","1052552","0.0-463.0","","","","","","","{""confidence"":2}","[0]",""
"","","call-function","464","1052552","0.0-464.0","","","","","","","","",""
"","null","html-keyboard-response","465","1055554","0.0-465.0","<span style=""color:Black; font-size:50px;"">Agent A","null","","","","","","",""
"","null","video-keyboard-response","466","1058619","0.0-466.0","","null","","Agent A","scrambled","/Users/kirstenziman/Desktop/Desktop/DIDEC_entire_corpus/analysis_3/STIM_SET_1/0_713769.bmppp58_L1V1_freeview_scrambled.mp4","","",""
"","null","html-keyboard-response","467","1061620","0.0-467.0","<span style=""color:Black; font-size:50px;"">Agent B","null","","","","","","",""
"","null","video-keyboard-response","468","1064718","0.0-468.0","","null","","Agent B","veridical","/Users/kirstenziman/Desktop/Desktop/DIDEC_entire_corpus/analysis_3/STIM_SET_1/0_713769.bmppp58_L1V1_freeview_veridical.mp4","","",""
"","","call-function","469","1064719","0.0-469.0","","","","","","","","",""
"","4893.39999999851","survey-likert","470","1069613","0.0-470.0","","","","","","","{""judgement"":0}","[0]","1"
"","6528.9000000059605","survey-likert","471","1076143","0.0-471.0","","","","","","","{""confidence"":2}","[0]",""
"","","call-function","472","1076144","0.0-472.0","","","","","","","","",""
"","null","html-keyboard-response","473","1079145","0.0-473.0","<span style=""color:Black; font-size:50px;"">Agent A","null","","","","","","",""
"","null","video-keyboard-response","474","1082311","0.0-474.0","","null","","Agent A","veridical","/Users/kirstenziman/Desktop/Desktop/DIDEC_entire_corpus/analysis_3/STIM_SET_1/0_1593041.bmppp89_L1V1_freeview_veridical.mp4","","",""
"","null","html-keyboard-response","475","1085315","0.0-475.0","<span style=""color:Black; font-size:50px;"">Agent B","null","","","","","","",""
"","null","video-keyboard-response","476","1088374","0.0-476.0","","null","","Agent B","scrambled","/Users/kirstenziman/Desktop/Desktop/DIDEC_entire_corpus/analysis_3/STIM_SET_1/0_1593041.bmppp89_L1V1_freeview_scrambled.mp4","","",""
"","","call-function","477","1088375","0.0-477.0","","","","","","","","",""
"","9752.5","survey-likert","478","1098128","0.0-478.0","","","","","","","{""judgement"":0}","[0]","0"
"","2470.5","survey-likert","479","1100600","0.0-479.0","","","","","","","{""confidence"":0}","[0]",""
"","","call-function","480","1100601","0.0-480.0","","","","","","","","",""
"","null","html-keyboard-response","481","1103607","0.0-481.0","<span style=""color:Black; font-size:50px;"">Agent A","null","","","","","","",""
"","null","video-keyboard-response","482","1106679","0.0-482.0","","null","","Agent A","scrambled","/Users/kirstenziman/Desktop/Desktop/DIDEC_entire_corpus/analysis_3/STIM_SET_1/0_498326.bmppp63_L1V1_freeview_scrambled.mp4","","",""
"","null","html-keyboard-response","483","1109680","0.0-483.0","<span style=""color:Black; font-size:50px;"">Agent B","null","","","","","","",""
"","null","video-keyboard-response","484","1112760","0.0-484.0","","null","","Agent B","veridical","/Users/kirstenziman/Desktop/Desktop/DIDEC_entire_corpus/analysis_3/STIM_SET_1/0_498326.bmppp63_L1V1_freeview_veridical.mp4","","",""
"","","call-function","485","1112762","0.0-485.0","","","","","","","","",""
"","3870.7999999970198","survey-likert","486","1116633","0.0-486.0","","","","","","","{""judgement"":1}","[0]","1"
"","4569.5","survey-likert","487","1121204","0.0-487.0","","","","","","","{""confidence"":2}","[0]",""
"","","call-function","488","1121205","0.0-488.0","","","","","","","","",""
"","null","html-keyboard-response","489","1124209","0.0-489.0","<span style=""color:Black; font-size:50px;"">Agent A","null","","","","","","",""
"","null","video-keyboard-response","490","1127288","0.0-490.0","","null","","Agent A","scrambled","/Users/kirstenziman/Desktop/Desktop/DIDEC_entire_corpus/analysis_3/STIM_SET_1/0_713888.bmppp68_L1V1_freeview_scrambled.mp4","","",""
"","null","html-keyboard-response","491","1130292","0.0-491.0","<span style=""color:Black; font-size:50px;"">Agent B","null","","","","","","",""
"","null","video-keyboard-response","492","1133387","0.0-492.0","","null","","Agent B","veridical","/Users/kirstenziman/Desktop/Desktop/DIDEC_entire_corpus/analysis_3/STIM_SET_1/0_713888.bmppp68_L1V1_freeview_veridical.mp4","","",""
"","","call-function","493","1133388","0.0-493.0","","","","","","","","",""
"","5052.79999999702","survey-likert","494","1138443","0.0-494.0","","","","","","","{""judgement"":1}","[0]","1"
"","2339.10000000149","survey-likert","495","1140783","0.0-495.0","","","","","","","{""confidence"":1}","[0]",""
"[{""page_index"":0,""viewing_time"":1572.7999999970198},{""page_index"":1,""viewing_time"":710.8999999985099},{""page_index"":2,""viewing_time"":696.9000000059605}]","2981","instructions","496","1143765","0.0-496.0","","","","","","","","",""
"[{""page_index"":0,""viewing_time"":531.5},{""page_index"":1,""viewing_time"":775.8000000044703},{""page_index"":2,""viewing_time"":523.3999999985099}]","1830.9000000059605","instructions","497","1145597","0.0-497.0","","","","","","","","",""
"","","call-function","498","1145597","0.0-498.0","","","","","","","","",""
"","null","html-keyboard-response","499","1148601","0.0-499.0","<span style=""color:Black; font-size:50px;"">Agent A","null","","","","","","",""
"","null","video-keyboard-response","500","1151659","0.0-500.0","","null","","Agent A","scrambled","/Users/kirstenziman/Desktop/Desktop/DIDEC_entire_corpus/analysis_3/STIM_SET_1/0_498280.bmppp81_L1V1_freeview_scrambled.mp4","","",""
"","null","html-keyboard-response","501","1154661","0.0-501.0","<span style=""color:Black; font-size:50px;"">Agent B","null","","","","","","",""
"","null","video-keyboard-response","502","1157726","0.0-502.0","","null","","Agent B","veridical","/Users/kirstenziman/Desktop/Desktop/DIDEC_entire_corpus/analysis_3/STIM_SET_1/0_498280.bmppp81_L1V1_freeview_veridical.mp4","","",""
"","","call-function","503","1157726","0.0-503.0","","","","","","","","",""
"","2464.0999999940395","survey-likert","504","1160191","0.0-504.0","","","","","","","{""judgement"":1}","[0]","1"
"","4258","survey-likert","505","1164450","0.0-505.0","","","","","","","{""confidence"":3}","[0]",""
"","","call-function","506","1164451","0.0-506.0","","","","","","","","",""
"","null","html-keyboard-response","507","1167455","0.0-507.0","<span style=""color:Black; font-size:50px;"">Agent A","null","","","","","","",""
"","null","video-keyboard-response","508","1170532","0.0-508.0","","null","","Agent A","veridical","/Users/kirstenziman/Desktop/Desktop/DIDEC_entire_corpus/analysis_3/STIM_SET_1/0_713371.bmppp93_L1V1_freeview_veridical.mp4","","",""
"","null","html-keyboard-response","509","1173536","0.0-509.0","<span style=""color:Black; font-size:50px;"">Agent B","null","","","","","","",""
"","null","video-keyboard-response","510","1176615","0.0-510.0","","null","","Agent B","scrambled","/Users/kirstenziman/Desktop/Desktop/DIDEC_entire_corpus/analysis_3/STIM_SET_1/0_713371.bmppp93_L1V1_freeview_scrambled.mp4","","",""
"","","call-function","511","1176615","0.0-511.0","","","","","","","","",""
"","1974.6000000014901","survey-likert","512","1178590","0.0-512.0","","","","","","","{""judgement"":0}","[0]","0"
"","12432.39999999851","survey-likert","513","1191024","0.0-513.0","","","","","","","{""confidence"":0}","[0]",""
"","","call-function","514","1191025","0.0-514.0","","","","","","","","",""
"","null","html-keyboard-response","515","1194030","0.0-515.0","<span style=""color:Black; font-size:50px;"">Agent A","null","","","","","","",""
"","null","video-keyboard-response","516","1197111","0.0-516.0","","null","","Agent A","veridical","/Users/kirstenziman/Desktop/Desktop/DIDEC_entire_corpus/analysis_3/STIM_SET_1/0_1159365.bmppp58_L1V1_freeview_veridical.mp4","","",""
"","null","html-keyboard-response","517","1200114","0.0-517.0","<span style=""color:Black; font-size:50px;"">Agent B","null","","","","","","",""
"","null","video-keyboard-response","518","1203194","0.0-518.0","","null","","Agent B","scrambled","/Users/kirstenziman/Desktop/Desktop/DIDEC_entire_corpus/analysis_3/STIM_SET_1/0_1159365.bmppp58_L1V1_freeview_scrambled.mp4","","",""
"","","call-function","519","1203195","0.0-519.0","","","","","","","","",""
"","3003.2999999970198","survey-likert","520","1206199","0.0-520.0","","","","","","","{""judgement"":1}","[0]","0"
"","2784.60000000149","survey-likert","521","1208985","0.0-521.0","","","","","","","{""confidence"":2}","[0]",""
"","","call-function","522","1208986","0.0-522.0","","","","","","","","",""
"","null","html-keyboard-response","523","1211991","0.0-523.0","<span style=""color:Black; font-size:50px;"">Agent A","null","","","","","","",""
"","null","video-keyboard-response","524","1215056","0.0-524.0","","null","","Agent A","scrambled","/Users/kirstenziman/Desktop/Desktop/DIDEC_entire_corpus/analysis_3/STIM_SET_1/0_285932.bmppp151_L1V1_freeview_scrambled.mp4","","",""
"","null","html-keyboard-response","525","1218063","0.0-525.0","<span style=""color:Black; font-size:50px;"">Agent B","null","","","","","","",""
"","null","video-keyboard-response","526","1221139","0.0-526.0","","null","","Agent B","veridical","/Users/kirstenziman/Desktop/Desktop/DIDEC_entire_corpus/analysis_3/STIM_SET_1/0_285932.bmppp151_L1V1_freeview_veridical.mp4","","",""
"","","call-function","527","1221139","0.0-527.0","","","","","","","","",""
"","3125.1999999955297","survey-likert","528","1224265","0.0-528.0","","","","","","","{""judgement"":1}","[0]","1"
"","3731.5","survey-likert","529","1227998","0.0-529.0","","","","","","","{""confidence"":3}","[0]",""
"","","call-function","530","1227999","0.0-530.0","","","","","","","","",""
"","null","html-keyboard-response","531","1231002","0.0-531.0","<span style=""color:Black; font-size:50px;"">Agent A","null","","","","","","",""
"","null","video-keyboard-response","532","1234082","0.0-532.0","","null","","Agent A","scrambled","/Users/kirstenziman/Desktop/Desktop/DIDEC_entire_corpus/analysis_3/STIM_SET_1/0_285933.bmppp52_L1V1_freeview_scrambled.mp4","","",""
"","null","html-keyboard-response","533","1237085","0.0-533.0","<span style=""color:Black; font-size:50px;"">Agent B","null","","","","","","",""
"","null","video-keyboard-response","534","1240165","0.0-534.0","","null","","Agent B","veridical","/Users/kirstenziman/Desktop/Desktop/DIDEC_entire_corpus/analysis_3/STIM_SET_1/0_285933.bmppp52_L1V1_freeview_veridical.mp4","","",""
"","","call-function","535","1240165","0.0-535.0","","","","","","","","",""
"","2070.2000000029802","survey-likert","536","1242236","0.0-536.0","","","","","","","{""judgement"":1}","[0]","1"
"","2219.0999999940395","survey-likert","537","1244457","0.0-537.0","","","","","","","{""confidence"":2}","[0]",""
"","","call-function","538","1244457","0.0-538.0","","","","","","","","",""
"","null","html-keyboard-response","539","1247460","0.0-539.0","<span style=""color:Black; font-size:50px;"">Agent A","null","","","","","","",""
"","null","video-keyboard-response","540","1250531","0.0-540.0","","null","","Agent A","scrambled","/Users/kirstenziman/Desktop/Desktop/DIDEC_entire_corpus/analysis_3/STIM_SET_1/0_1159318.bmppp98_L1V1_freeview_scrambled.mp4","","",""
"","null","html-keyboard-response","541","1253536","0.0-541.0","<span style=""color:Black; font-size:50px;"">Agent B","null","","","","","","",""
"","null","video-keyboard-response","542","1256607","0.0-542.0","","null","","Agent B","veridical","/Users/kirstenziman/Desktop/Desktop/DIDEC_entire_corpus/analysis_3/STIM_SET_1/0_1159318.bmppp98_L1V1_freeview_veridical.mp4","","",""
"","","call-function","543","1256608","0.0-543.0","","","","","","","","",""
"","8103.30000000447","survey-likert","544","1264713","0.0-544.0","","","","","","","{""judgement"":1}","[0]","1"
"","2163.7999999970198","survey-likert","545","1266879","0.0-545.0","","","","","","","{""confidence"":3}","[0]",""
"","","call-function","546","1266880","0.0-546.0","","","","","","","","",""
"","null","html-keyboard-response","547","1269883","0.0-547.0","<span style=""color:Black; font-size:50px;"">Agent A","null","","","","","","",""
"","null","video-keyboard-response","548","1272980","0.0-548.0","","null","","Agent A","veridical","/Users/kirstenziman/Desktop/Desktop/DIDEC_entire_corpus/analysis_3/STIM_SET_1/0_285807.bmppp51_L1V1_freeview_veridical.mp4","","",""
"","null","html-keyboard-response","549","1275984","0.0-549.0","<span style=""color:Black; font-size:50px;"">Agent B","null","","","","","","",""
"","null","video-keyboard-response","550","1279074","0.0-550.0","","null","","Agent B","scrambled","/Users/kirstenziman/Desktop/Desktop/DIDEC_entire_corpus/analysis_3/STIM_SET_1/0_285807.bmppp51_L1V1_freeview_scrambled.mp4","","",""
"","","call-function","551","1279075","0.0-551.0","","","","","","","","",""
"","2200.6999999955297","survey-likert","552","1281278","0.0-552.0","","","","","","","{""judgement"":1}","[0]","0"
"","1546.6999999955297","survey-likert","553","1282826","0.0-553.0","","","","","","","{""confidence"":3}","[0]",""
"","","call-function","554","1282826","0.0-554.0","","","","","","","","",""
"","null","html-keyboard-response","555","1285829","0.0-555.0","<span style=""color:Black; font-size:50px;"">Agent A","null","","","","","","",""
"","null","video-keyboard-response","556","1288908","0.0-556.0","","null","","Agent A","scrambled","/Users/kirstenziman/Desktop/Desktop/DIDEC_entire_corpus/analysis_3/STIM_SET_1/0_713228.bmppp51_L1V1_freeview_scrambled.mp4","","",""
"","null","html-keyboard-response","557","1291913","0.0-557.0","<span style=""color:Black; font-size:50px;"">Agent B","null","","","","","","",""
"","null","video-keyboard-response","558","1294993","0.0-558.0","","null","","Agent B","veridical","/Users/kirstenziman/Desktop/Desktop/DIDEC_entire_corpus/analysis_3/STIM_SET_1/0_713228.bmppp51_L1V1_freeview_veridical.mp4","","",""
"","","call-function","559","1294994","0.0-559.0","","","","","","","","",""
"","4232.39999999851","survey-likert","560","1299227","0.0-560.0","","","","","","","{""judgement"":0}","[0]","1"
"","2834.7999999970198","survey-likert","561","1302064","0.0-561.0","","","","","","","{""confidence"":3}","[0]",""
"","","call-function","562","1302065","0.0-562.0","","","","","","","","",""
"","null","html-keyboard-response","563","1305069","0.0-563.0","<span style=""color:Black; font-size:50px;"">Agent A","null","","","","","","",""
"","null","video-keyboard-response","564","1308246","0.0-564.0","","null","","Agent A","veridical","/Users/kirstenziman/Desktop/Desktop/DIDEC_entire_corpus/analysis_3/STIM_SET_1/0_150273.bmppp57_L1V1_freeview_veridical.mp4","","",""
"","null","html-keyboard-response","565","1311249","0.0-565.0","<span style=""color:Black; font-size:50px;"">Agent B","null","","","","","","",""
"","null","video-keyboard-response","566","1314326","0.0-566.0","","null","","Agent B","scrambled","/Users/kirstenziman/Desktop/Desktop/DIDEC_entire_corpus/analysis_3/STIM_SET_1/0_150273.bmppp57_L1V1_freeview_scrambled.mp4","","",""
"","","call-function","567","1314327","0.0-567.0","","","","","","","","",""
"","3119.2999999970198","survey-likert","568","1317446","0.0-568.0","","","","","","","{""judgement"":0}","[0]","0"
"","1479.7000000029802","survey-likert","569","1318927","0.0-569.0","","","","","","","{""confidence"":2}","[0]",""
"","","call-function","570","1318928","0.0-570.0","","","","","","","","",""
"","null","html-keyboard-response","571","1321930","0.0-571.0","<span style=""color:Black; font-size:50px;"">Agent A","null","","","","","","",""
"","null","video-keyboard-response","572","1325001","0.0-572.0","","null","","Agent A","veridical","/Users/kirstenziman/Desktop/Desktop/DIDEC_entire_corpus/analysis_3/STIM_SET_1/0_1592025.bmppp57_L1V1_freeview_veridical.mp4","","",""
"","null","html-keyboard-response","573","1328004","0.0-573.0","<span style=""color:Black; font-size:50px;"">Agent B","null","","","","","","",""
"","null","video-keyboard-response","574","1331059","0.0-574.0","","null","","Agent B","scrambled","/Users/kirstenziman/Desktop/Desktop/DIDEC_entire_corpus/analysis_3/STIM_SET_1/0_1592025.bmppp57_L1V1_freeview_scrambled.mp4","","",""
"","","call-function","575","1331059","0.0-575.0","","","","","","","","",""
"","2702.4000000059605","survey-likert","576","1333763","0.0-576.0","","","","","","","{""judgement"":0}","[0]","0"
"","1654.8000000044703","survey-likert","577","1335419","0.0-577.0","","","","","","","{""confidence"":3}","[0]",""
"[{""page_index"":0,""viewing_time"":1725.1999999955297}]","1725.3999999985099","instructions","578","1337146","0.0-578.0","","","","","","","","",""
"","42713.40000000596","survey-text","579","1379875","0.0-579.0","","","","","","","{""Q0"":""Great experience! Quite concise and manageable to follow. I enjoyed the variety of images. ""}","",""
"","91779.29999999702","survey-text","580","1471655","0.0-580.0","","","","","","","{""Q0"":""I found it quite easy to track the eye movement for each Actor independently. For strategies, I just looked at each image as they appeared instead of immediately following the moving interest point, and saw if those two points coincided.""}","",""
"","25321.70000000298","survey-text","581","1496978","0.0-581.0","","","","","","","{""Q0"":""Sometimes, it was difficult to recall the exact path pattern of Actor A when paying attention to Actor B. ""}","",""
"[{""page_index"":0,""viewing_time"":1034.3000000044703}]","1034.6000000014901","instructions","582","1498013","0.0-582.0","","","","","","","","",""
