"rt","responses","question_order","trial_type","trial_index","time_elapsed","internal_node_id","ID","view_history","stimulus","key_press","value","agent","condition","image","correct_answer"
"10274.025000000001","{""Experimenter"":[""Confirmed subject's identity (ID card)"",""Confirmed normal or corrected-to-normal vision"",""Obtained consent (signature and date)"",""Checked the test room lighting"",""Checked computer screen lighting"",""Checked distance from screen to chin rest (50cm)"",""Cleaned and adjusted chin rest"",""Counterbalanced the order of the tasks"",""Opened the experiment in Firefox"",""Made the experiment full screen"",""Encouraged subject to silence phone, put away distractors, etc.""]}","[0]","survey-multi-select","0","10282","0.0-0.0","0dd6057w","","","","","","","",""
"34176.795","","","instructions","1","44460","0.0-1.0","0dd6057w","[{""page_index"":0,""viewing_time"":34176.615000000005}]","","","","","","",""
"9415.75","","","instructions","2","53877","0.0-2.0","0dd6057w","[{""page_index"":0,""viewing_time"":1935.5550000000003},{""page_index"":1,""viewing_time"":4637.959999999999},{""page_index"":2,""viewing_time"":2842.105000000003}]","","","","","","",""
"1543.4550000000017","","","instructions","3","55421","0.0-3.0","0dd6057w","[{""page_index"":0,""viewing_time"":1543.3350000000064}]","","","","","","",""
"null","","","video-keyboard-response","4","58493","0.0-4.0","0dd6057w","","","null","","","","",""
"17950.274999999994","","","instructions","5","76444","0.0-5.0","0dd6057w","[{""page_index"":0,""viewing_time"":9540.160000000003},{""page_index"":1,""viewing_time"":1079.929999999993},{""page_index"":2,""viewing_time"":558.4349999999977},{""page_index"":3,""viewing_time"":3226.5800000000017},{""page_index"":4,""viewing_time"":3545.0350000000035}]","","","","","","",""
"3502.3650000000052","","","instructions","6","79947","0.0-6.0","0dd6057w","[{""page_index"":0,""viewing_time"":3502.2350000000006}]","","","","","","",""
"","","","call-function","7","79948","0.0-7.0","0dd6057w","","","","","","","",""
"null","","","html-keyboard-response","8","81453","0.0-8.0","0dd6057w","","<span style=""color:Black; font-size:50px;"">Agent A","null","","","","",""
"null","","","video-keyboard-response","9","84532","0.0-9.0","0dd6057w","","","null","","Agent A","veridical","STIM_SET_1/498155.bmp_pp61_L2_V1.0_veridical_freeview_isoFalse.mp4",""
"null","","","html-keyboard-response","10","86035","0.0-10.0","0dd6057w","","<span style=""color:Black; font-size:50px;"">Agent B","null","","","","",""
"null","","","video-keyboard-response","11","89116","0.0-11.0","0dd6057w","","","null","","Agent B","scrambled","STIM_SET_1/498155.bmp_pp61_L2_V1.0_scrambled_freeview_isoFalse.mp4",""
"","","","call-function","12","89117","0.0-12.0","0dd6057w","","","","","","","",""
"2545.5250000000087","{""judgement"":0}","[0]","survey-likert","13","91664","0.0-13.0","0dd6057w","","","","","","","","0"
"1866.2599999999948","{""confidence"":2}","[0]","survey-likert","14","93531","0.0-14.0","0dd6057w","","","","","","","",""
"","","","call-function","15","93532","0.0-15.0","0dd6057w","","","","","","","",""
"null","","","html-keyboard-response","16","95035","0.0-16.0","0dd6057w","","<span style=""color:Black; font-size:50px;"">Agent A","null","","","","",""
"null","","","video-keyboard-response","17","98108","0.0-17.0","0dd6057w","","","null","","Agent A","veridical","STIM_SET_1/1592581.bmp_pp100_L3_V1.0_veridical_freeview_isoFalse.mp4",""
"null","","","html-keyboard-response","18","99610","0.0-18.0","0dd6057w","","<span style=""color:Black; font-size:50px;"">Agent B","null","","","","",""
"null","","","video-keyboard-response","19","102691","0.0-19.0","0dd6057w","","","null","","Agent B","scrambled","STIM_SET_1/1592581.bmp_pp100_L3_V1.0_scrambled_freeview_isoFalse.mp4",""
"","","","call-function","20","102691","0.0-20.0","0dd6057w","","","","","","","",""
"2119.5050000000047","{""judgement"":1}","[0]","survey-likert","21","104813","0.0-21.0","0dd6057w","","","","","","","","0"
"1420.8800000000047","{""confidence"":2}","[0]","survey-likert","22","106235","0.0-22.0","0dd6057w","","","","","","","",""
"","","","call-function","23","106235","0.0-23.0","0dd6057w","","","","","","","",""
"null","","","html-keyboard-response","24","107740","0.0-24.0","0dd6057w","","<span style=""color:Black; font-size:50px;"">Agent A","null","","","","",""
"null","","","video-keyboard-response","25","110851","0.0-25.0","0dd6057w","","","null","","Agent A","scrambled","STIM_SET_1/1159572.bmp_pp71_L1_V1.0_scrambled_freeview_isoFalse.mp4",""
"null","","","html-keyboard-response","26","112354","0.0-26.0","0dd6057w","","<span style=""color:Black; font-size:50px;"">Agent B","null","","","","",""
"null","","","video-keyboard-response","27","115464","0.0-27.0","0dd6057w","","","null","","Agent B","veridical","STIM_SET_1/1159572.bmp_pp71_L1_V1.0_veridical_freeview_isoFalse.mp4",""
"","","","call-function","28","115465","0.0-28.0","0dd6057w","","","","","","","",""
"2385.2050000000017","{""judgement"":0}","[0]","survey-likert","29","117851","0.0-29.0","0dd6057w","","","","","","","","1"
"3239.6399999999994","{""confidence"":1}","[0]","survey-likert","30","121092","0.0-30.0","0dd6057w","","","","","","","",""
"","","","call-function","31","121092","0.0-31.0","0dd6057w","","","","","","","",""
"null","","","html-keyboard-response","32","122596","0.0-32.0","0dd6057w","","<span style=""color:Black; font-size:50px;"">Agent A","null","","","","",""
"null","","","video-keyboard-response","33","125664","0.0-33.0","0dd6057w","","","null","","Agent A","scrambled","STIM_SET_1/285994.bmp_pp92_L3_V1.0_scrambled_freeview_isoFalse.mp4",""
"null","","","html-keyboard-response","34","127165","0.0-34.0","0dd6057w","","<span style=""color:Black; font-size:50px;"">Agent B","null","","","","",""
"null","","","video-keyboard-response","35","130275","0.0-35.0","0dd6057w","","","null","","Agent B","veridical","STIM_SET_1/285994.bmp_pp92_L3_V1.0_veridical_freeview_isoFalse.mp4",""
"","","","call-function","36","130275","0.0-36.0","0dd6057w","","","","","","","",""
"1582.2099999999919","{""judgement"":1}","[0]","survey-likert","37","131859","0.0-37.0","0dd6057w","","","","","","","","1"
"1262.679999999993","{""confidence"":2}","[0]","survey-likert","38","133123","0.0-38.0","0dd6057w","","","","","","","",""
"","","","call-function","39","133123","0.0-39.0","0dd6057w","","","","","","","",""
"null","","","html-keyboard-response","40","134629","0.0-40.0","0dd6057w","","<span style=""color:Black; font-size:50px;"">Agent A","null","","","","",""
"null","","","video-keyboard-response","41","137757","0.0-41.0","0dd6057w","","","null","","Agent A","veridical","STIM_SET_1/1591961.bmp_pp67_L2_V1.0_veridical_freeview_isoFalse.mp4",""
"null","","","html-keyboard-response","42","139262","0.0-42.0","0dd6057w","","<span style=""color:Black; font-size:50px;"">Agent B","null","","","","",""
"null","","","video-keyboard-response","43","142352","0.0-43.0","0dd6057w","","","null","","Agent B","scrambled","STIM_SET_1/1591961.bmp_pp67_L2_V1.0_scrambled_freeview_isoFalse.mp4",""
"","","","call-function","44","142352","0.0-44.0","0dd6057w","","","","","","","",""
"4088.429999999993","{""judgement"":0}","[0]","survey-likert","45","146442","0.0-45.0","0dd6057w","","","","","","","","0"
"1138.6600000000035","{""confidence"":1}","[0]","survey-likert","46","147582","0.0-46.0","0dd6057w","","","","","","","",""
"","","","call-function","47","147583","0.0-47.0","0dd6057w","","","","","","","",""
"null","","","html-keyboard-response","48","149084","0.0-48.0","0dd6057w","","<span style=""color:Black; font-size:50px;"">Agent A","null","","","","",""
"null","","","video-keyboard-response","49","152156","0.0-49.0","0dd6057w","","","null","","Agent A","veridical","STIM_SET_1/713681.bmp_pp86_L2_V1.0_veridical_freeview_isoFalse.mp4",""
"null","","","html-keyboard-response","50","153662","0.0-50.0","0dd6057w","","<span style=""color:Black; font-size:50px;"">Agent B","null","","","","",""
"null","","","video-keyboard-response","51","156733","0.0-51.0","0dd6057w","","","null","","Agent B","scrambled","STIM_SET_1/713681.bmp_pp86_L2_V1.0_scrambled_freeview_isoFalse.mp4",""
"","","","call-function","52","156734","0.0-52.0","0dd6057w","","","","","","","",""
"1699.3699999999953","{""judgement"":0}","[0]","survey-likert","53","158434","0.0-53.0","0dd6057w","","","","","","","","0"
"1584.1650000000081","{""confidence"":1}","[0]","survey-likert","54","160019","0.0-54.0","0dd6057w","","","","","","","",""
"","","","call-function","55","160020","0.0-55.0","0dd6057w","","","","","","","",""
"null","","","html-keyboard-response","56","161520","0.0-56.0","0dd6057w","","<span style=""color:Black; font-size:50px;"">Agent A","null","","","","",""
"null","","","video-keyboard-response","57","164585","0.0-57.0","0dd6057w","","","null","","Agent A","veridical","STIM_SET_1/713779.bmp_pp152_L2_V1.0_veridical_freeview_isoFalse.mp4",""
"null","","","html-keyboard-response","58","166086","0.0-58.0","0dd6057w","","<span style=""color:Black; font-size:50px;"">Agent B","null","","","","",""
"null","","","video-keyboard-response","59","169176","0.0-59.0","0dd6057w","","","null","","Agent B","scrambled","STIM_SET_1/713779.bmp_pp152_L2_V1.0_scrambled_freeview_isoFalse.mp4",""
"","","","call-function","60","169177","0.0-60.0","0dd6057w","","","","","","","",""
"3087.945000000007","{""judgement"":1}","[0]","survey-likert","61","172266","0.0-61.0","0dd6057w","","","","","","","","0"
"1830.1349999999802","{""confidence"":2}","[0]","survey-likert","62","174097","0.0-62.0","0dd6057w","","","","","","","",""
"","","","call-function","63","174097","0.0-63.0","0dd6057w","","","","","","","",""
"null","","","html-keyboard-response","64","175599","0.0-64.0","0dd6057w","","<span style=""color:Black; font-size:50px;"">Agent A","null","","","","",""
"null","","","video-keyboard-response","65","178715","0.0-65.0","0dd6057w","","","null","","Agent A","veridical","STIM_SET_1/498253.bmp_pp67_L2_V1.0_veridical_freeview_isoFalse.mp4",""
"null","","","html-keyboard-response","66","180217","0.0-66.0","0dd6057w","","<span style=""color:Black; font-size:50px;"">Agent B","null","","","","",""
"null","","","video-keyboard-response","67","183336","0.0-67.0","0dd6057w","","","null","","Agent B","scrambled","STIM_SET_1/498253.bmp_pp67_L2_V1.0_scrambled_freeview_isoFalse.mp4",""
"","","","call-function","68","183336","0.0-68.0","0dd6057w","","","","","","","",""
"2271.665000000008","{""judgement"":0}","[0]","survey-likert","69","185609","0.0-69.0","0dd6057w","","","","","","","","0"
"3718.390000000014","{""confidence"":1}","[0]","survey-likert","70","189328","0.0-70.0","0dd6057w","","","","","","","",""
"","","","call-function","71","189329","0.0-71.0","0dd6057w","","","","","","","",""
"null","","","html-keyboard-response","72","190831","0.0-72.0","0dd6057w","","<span style=""color:Black; font-size:50px;"">Agent A","null","","","","",""
"null","","","video-keyboard-response","73","193942","0.0-73.0","0dd6057w","","","null","","Agent A","scrambled","STIM_SET_1/713796.bmp_pp84_L3_V1.0_scrambled_freeview_isoFalse.mp4",""
"null","","","html-keyboard-response","74","195444","0.0-74.0","0dd6057w","","<span style=""color:Black; font-size:50px;"">Agent B","null","","","","",""
"null","","","video-keyboard-response","75","198550","0.0-75.0","0dd6057w","","","null","","Agent B","veridical","STIM_SET_1/713796.bmp_pp84_L3_V1.0_veridical_freeview_isoFalse.mp4",""
"","","","call-function","76","198551","0.0-76.0","0dd6057w","","","","","","","",""
"4765.514999999985","{""judgement"":1}","[0]","survey-likert","77","203317","0.0-77.0","0dd6057w","","","","","","","","1"
"1021.0350000000035","{""confidence"":2}","[0]","survey-likert","78","204340","0.0-78.0","0dd6057w","","","","","","","",""
"","","","call-function","79","204341","0.0-79.0","0dd6057w","","","","","","","",""
"null","","","html-keyboard-response","80","205841","0.0-80.0","0dd6057w","","<span style=""color:Black; font-size:50px;"">Agent A","null","","","","",""
"null","","","video-keyboard-response","81","208912","0.0-81.0","0dd6057w","","","null","","Agent A","veridical","STIM_SET_1/1592817.bmp_pp55_L3_V1.0_veridical_freeview_isoFalse.mp4",""
"null","","","html-keyboard-response","82","210417","0.0-82.0","0dd6057w","","<span style=""color:Black; font-size:50px;"">Agent B","null","","","","",""
"null","","","video-keyboard-response","83","213484","0.0-83.0","0dd6057w","","","null","","Agent B","scrambled","STIM_SET_1/1592817.bmp_pp55_L3_V1.0_scrambled_freeview_isoFalse.mp4",""
"","","","call-function","84","213485","0.0-84.0","0dd6057w","","","","","","","",""
"1726.3999999999942","{""judgement"":0}","[0]","survey-likert","85","215213","0.0-85.0","0dd6057w","","","","","","","","0"
"1816.7699999999895","{""confidence"":1}","[0]","survey-likert","86","217031","0.0-86.0","0dd6057w","","","","","","","",""
"335981.33499999996","","","instructions","87","553014","0.0-87.0","0dd6057w","[{""page_index"":0,""viewing_time"":1115.2399999999907},{""page_index"":1,""viewing_time"":334407.98},{""page_index"":2,""viewing_time"":457.8950000000186}]","","","","","","",""
"724.0799999999581","","","instructions","88","553739","0.0-88.0","0dd6057w","[{""page_index"":0,""viewing_time"":336.6800000000512},{""page_index"":1,""viewing_time"":164.35499999998137},{""page_index"":2,""viewing_time"":222.92499999993015}]","","","","","","",""
"","","","call-function","89","553740","0.0-89.0","0dd6057w","","","","","","","",""
"null","","","html-keyboard-response","90","555244","0.0-90.0","0dd6057w","","<span style=""color:Black; font-size:50px;"">Agent A","null","","","","",""
"null","","","video-keyboard-response","91","558326","0.0-91.0","0dd6057w","","","null","","Agent A","scrambled","STIM_SET_1/713749.bmp_pp88_L2_V1.0_scrambled_freeview_isoFalse.mp4",""
"null","","","html-keyboard-response","92","559831","0.0-92.0","0dd6057w","","<span style=""color:Black; font-size:50px;"">Agent B","null","","","","",""
"null","","","video-keyboard-response","93","562912","0.0-93.0","0dd6057w","","","null","","Agent B","veridical","STIM_SET_1/713749.bmp_pp88_L2_V1.0_veridical_freeview_isoFalse.mp4",""
"","","","call-function","94","562912","0.0-94.0","0dd6057w","","","","","","","",""
"4003.9150000000373","{""judgement"":0}","[0]","survey-likert","95","566917","0.0-95.0","0dd6057w","","","","","","","","1"
"1256.7149999999674","{""confidence"":2}","[0]","survey-likert","96","568175","0.0-96.0","0dd6057w","","","","","","","",""
"","","","call-function","97","568176","0.0-97.0","0dd6057w","","","","","","","",""
"null","","","html-keyboard-response","98","569681","0.0-98.0","0dd6057w","","<span style=""color:Black; font-size:50px;"">Agent A","null","","","","",""
"null","","","video-keyboard-response","99","572751","0.0-99.0","0dd6057w","","","null","","Agent A","veridical","STIM_SET_1/1593035.bmp_pp94_L2_V1.0_veridical_freeview_isoFalse.mp4",""
"null","","","html-keyboard-response","100","574253","0.0-100.0","0dd6057w","","<span style=""color:Black; font-size:50px;"">Agent B","null","","","","",""
"null","","","video-keyboard-response","101","577322","0.0-101.0","0dd6057w","","","null","","Agent B","scrambled","STIM_SET_1/1593035.bmp_pp94_L2_V1.0_scrambled_freeview_isoFalse.mp4",""
"","","","call-function","102","577322","0.0-102.0","0dd6057w","","","","","","","",""
"3090.609999999986","{""judgement"":0}","[0]","survey-likert","103","580414","0.0-103.0","0dd6057w","","","","","","","","0"
"1215.109999999986","{""confidence"":0}","[0]","survey-likert","104","581630","0.0-104.0","0dd6057w","","","","","","","",""
"","","","call-function","105","581630","0.0-105.0","0dd6057w","","","","","","","",""
"null","","","html-keyboard-response","106","583133","0.0-106.0","0dd6057w","","<span style=""color:Black; font-size:50px;"">Agent A","null","","","","",""
"null","","","video-keyboard-response","107","586249","0.0-107.0","0dd6057w","","","null","","Agent A","veridical","STIM_SET_1/1592934.bmp_pp63_L1_V1.0_veridical_freeview_isoFalse.mp4",""
"null","","","html-keyboard-response","108","587753","0.0-108.0","0dd6057w","","<span style=""color:Black; font-size:50px;"">Agent B","null","","","","",""
"null","","","video-keyboard-response","109","590867","0.0-109.0","0dd6057w","","","null","","Agent B","scrambled","STIM_SET_1/1592934.bmp_pp63_L1_V1.0_scrambled_freeview_isoFalse.mp4",""
"","","","call-function","110","590867","0.0-110.0","0dd6057w","","","","","","","",""
"1868.4400000000605","{""judgement"":0}","[0]","survey-likert","111","592737","0.0-111.0","0dd6057w","","","","","","","","0"
"1211.9499999999534","{""confidence"":1}","[0]","survey-likert","112","593950","0.0-112.0","0dd6057w","","","","","","","",""
"","","","call-function","113","593950","0.0-113.0","0dd6057w","","","","","","","",""
"null","","","html-keyboard-response","114","595453","0.0-114.0","0dd6057w","","<span style=""color:Black; font-size:50px;"">Agent A","null","","","","",""
"null","","","video-keyboard-response","115","598535","0.0-115.0","0dd6057w","","","null","","Agent A","scrambled","STIM_SET_1/713371.bmp_pp68_L1_V1.0_scrambled_freeview_isoFalse.mp4",""
"null","","","html-keyboard-response","116","600036","0.0-116.0","0dd6057w","","<span style=""color:Black; font-size:50px;"">Agent B","null","","","","",""
"null","","","video-keyboard-response","117","603119","0.0-117.0","0dd6057w","","","null","","Agent B","veridical","STIM_SET_1/713371.bmp_pp68_L1_V1.0_veridical_freeview_isoFalse.mp4",""
"","","","call-function","118","603119","0.0-118.0","0dd6057w","","","","","","","",""
"2083.4749999999767","{""judgement"":0}","[0]","survey-likert","119","605204","0.0-119.0","0dd6057w","","","","","","","","1"
"1801.5549999999348","{""confidence"":2}","[0]","survey-likert","120","607006","0.0-120.0","0dd6057w","","","","","","","",""
"","","","call-function","121","607007","0.0-121.0","0dd6057w","","","","","","","",""
"null","","","html-keyboard-response","122","608509","0.0-122.0","0dd6057w","","<span style=""color:Black; font-size:50px;"">Agent A","null","","","","",""
"null","","","video-keyboard-response","123","611619","0.0-123.0","0dd6057w","","","null","","Agent A","scrambled","STIM_SET_1/1159515.bmp_pp84_L3_V1.0_scrambled_freeview_isoFalse.mp4",""
"null","","","html-keyboard-response","124","613124","0.0-124.0","0dd6057w","","<span style=""color:Black; font-size:50px;"">Agent B","null","","","","",""
"null","","","video-keyboard-response","125","616236","0.0-125.0","0dd6057w","","","null","","Agent B","veridical","STIM_SET_1/1159515.bmp_pp84_L3_V1.0_veridical_freeview_isoFalse.mp4",""
"","","","call-function","126","616237","0.0-126.0","0dd6057w","","","","","","","",""
"1770.2150000000838","{""judgement"":0}","[0]","survey-likert","127","618008","0.0-127.0","0dd6057w","","","","","","","","1"
"1751.8950000000186","{""confidence"":1}","[0]","survey-likert","128","619761","0.0-128.0","0dd6057w","","","","","","","",""
"","","","call-function","129","619762","0.0-129.0","0dd6057w","","","","","","","",""
"null","","","html-keyboard-response","130","621263","0.0-130.0","0dd6057w","","<span style=""color:Black; font-size:50px;"">Agent A","null","","","","",""
"null","","","video-keyboard-response","131","624337","0.0-131.0","0dd6057w","","","null","","Agent A","veridical","STIM_SET_1/713135.bmp_pp54_L2_V1.0_veridical_freeview_isoFalse.mp4",""
"null","","","html-keyboard-response","132","625838","0.0-132.0","0dd6057w","","<span style=""color:Black; font-size:50px;"">Agent B","null","","","","",""
"null","","","video-keyboard-response","133","628908","0.0-133.0","0dd6057w","","","null","","Agent B","scrambled","STIM_SET_1/713135.bmp_pp54_L2_V1.0_scrambled_freeview_isoFalse.mp4",""
"","","","call-function","134","628908","0.0-134.0","0dd6057w","","","","","","","",""
"4016.5100000000093","{""judgement"":1}","[0]","survey-likert","135","632926","0.0-135.0","0dd6057w","","","","","","","","0"
"1234.5350000000326","{""confidence"":2}","[0]","survey-likert","136","634161","0.0-136.0","0dd6057w","","","","","","","",""
"","","","call-function","137","634162","0.0-137.0","0dd6057w","","","","","","","",""
"null","","","html-keyboard-response","138","635666","0.0-138.0","0dd6057w","","<span style=""color:Black; font-size:50px;"">Agent A","null","","","","",""
"null","","","video-keyboard-response","139","638734","0.0-139.0","0dd6057w","","","null","","Agent A","veridical","STIM_SET_1/498149.bmp_pp99_L2_V1.0_veridical_freeview_isoFalse.mp4",""
"null","","","html-keyboard-response","140","640240","0.0-140.0","0dd6057w","","<span style=""color:Black; font-size:50px;"">Agent B","null","","","","",""
"null","","","video-keyboard-response","141","643306","0.0-141.0","0dd6057w","","","null","","Agent B","scrambled","STIM_SET_1/498149.bmp_pp99_L2_V1.0_scrambled_freeview_isoFalse.mp4",""
"","","","call-function","142","643307","0.0-142.0","0dd6057w","","","","","","","",""
"2109.9649999999674","{""judgement"":0}","[0]","survey-likert","143","645419","0.0-143.0","0dd6057w","","","","","","","","0"
"1125.8150000000605","{""confidence"":0}","[0]","survey-likert","144","646546","0.0-144.0","0dd6057w","","","","","","","",""
"","","","call-function","145","646547","0.0-145.0","0dd6057w","","","","","","","",""
"null","","","html-keyboard-response","146","648048","0.0-146.0","0dd6057w","","<span style=""color:Black; font-size:50px;"">Agent A","null","","","","",""
"null","","","video-keyboard-response","147","651128","0.0-147.0","0dd6057w","","","null","","Agent A","veridical","STIM_SET_1/1159675.bmp_pp77_L3_V1.0_veridical_freeview_isoFalse.mp4",""
"null","","","html-keyboard-response","148","652632","0.0-148.0","0dd6057w","","<span style=""color:Black; font-size:50px;"">Agent B","null","","","","",""
"null","","","video-keyboard-response","149","655711","0.0-149.0","0dd6057w","","","null","","Agent B","scrambled","STIM_SET_1/1159675.bmp_pp77_L3_V1.0_scrambled_freeview_isoFalse.mp4",""
"","","","call-function","150","655711","0.0-150.0","0dd6057w","","","","","","","",""
"2027.079999999958","{""judgement"":1}","[0]","survey-likert","151","657739","0.0-151.0","0dd6057w","","","","","","","","0"
"2105.9250000000466","{""confidence"":2}","[0]","survey-likert","152","659847","0.0-152.0","0dd6057w","","","","","","","",""
"","","","call-function","153","659848","0.0-153.0","0dd6057w","","","","","","","",""
"null","","","html-keyboard-response","154","661351","0.0-154.0","0dd6057w","","<span style=""color:Black; font-size:50px;"">Agent A","null","","","","",""
"null","","","video-keyboard-response","155","664432","0.0-155.0","0dd6057w","","","null","","Agent A","veridical","STIM_SET_1/498175.bmp_pp154_L1_V1.0_veridical_freeview_isoFalse.mp4",""
"null","","","html-keyboard-response","156","665935","0.0-156.0","0dd6057w","","<span style=""color:Black; font-size:50px;"">Agent B","null","","","","",""
"null","","","video-keyboard-response","157","669016","0.0-157.0","0dd6057w","","","null","","Agent B","scrambled","STIM_SET_1/498175.bmp_pp154_L1_V1.0_scrambled_freeview_isoFalse.mp4",""
"","","","call-function","158","669017","0.0-158.0","0dd6057w","","","","","","","",""
"2710.070000000065","{""judgement"":0}","[0]","survey-likert","159","671728","0.0-159.0","0dd6057w","","","","","","","","0"
"1175.3349999999627","{""confidence"":1}","[0]","survey-likert","160","672904","0.0-160.0","0dd6057w","","","","","","","",""
"","","","call-function","161","672905","0.0-161.0","0dd6057w","","","","","","","",""
"null","","","html-keyboard-response","162","674407","0.0-162.0","0dd6057w","","<span style=""color:Black; font-size:50px;"">Agent A","null","","","","",""
"null","","","video-keyboard-response","163","677506","0.0-163.0","0dd6057w","","","null","","Agent A","scrambled","STIM_SET_1/286001.bmp_pp54_L2_V1.0_scrambled_freeview_isoFalse.mp4",""
"null","","","html-keyboard-response","164","679010","0.0-164.0","0dd6057w","","<span style=""color:Black; font-size:50px;"">Agent B","null","","","","",""
"null","","","video-keyboard-response","165","682108","0.0-165.0","0dd6057w","","","null","","Agent B","veridical","STIM_SET_1/286001.bmp_pp54_L2_V1.0_veridical_freeview_isoFalse.mp4",""
"","","","call-function","166","682108","0.0-166.0","0dd6057w","","","","","","","",""
"2822.0749999999534","{""judgement"":0}","[0]","survey-likert","167","684932","0.0-167.0","0dd6057w","","","","","","","","1"
"1496.2200000000885","{""confidence"":1}","[0]","survey-likert","168","686429","0.0-168.0","0dd6057w","","","","","","","",""
"2082.659999999916","","","instructions","169","688512","0.0-169.0","0dd6057w","[{""page_index"":0,""viewing_time"":1215.3949999999022},{""page_index"":1,""viewing_time"":479},{""page_index"":2,""viewing_time"":387.9550000000745}]","","","","","","",""
"1221.3499999999767","","","instructions","170","689734","0.0-170.0","0dd6057w","[{""page_index"":0,""viewing_time"":383.54999999993015},{""page_index"":1,""viewing_time"":417.7299999999814},{""page_index"":2,""viewing_time"":419.9650000000838}]","","","","","","",""
"","","","call-function","171","689734","0.0-171.0","0dd6057w","","","","","","","",""
"null","","","html-keyboard-response","172","691238","0.0-172.0","0dd6057w","","<span style=""color:Black; font-size:50px;"">Agent A","null","","","","",""
"null","","","video-keyboard-response","173","694325","0.0-173.0","0dd6057w","","","null","","Agent A","scrambled","STIM_SET_1/1591994.bmp_pp69_L3_V1.0_scrambled_freeview_isoFalse.mp4",""
"null","","","html-keyboard-response","174","695830","0.0-174.0","0dd6057w","","<span style=""color:Black; font-size:50px;"">Agent B","null","","","","",""
"null","","","video-keyboard-response","175","698914","0.0-175.0","0dd6057w","","","null","","Agent B","veridical","STIM_SET_1/1591994.bmp_pp69_L3_V1.0_veridical_freeview_isoFalse.mp4",""
"","","","call-function","176","698914","0.0-176.0","0dd6057w","","","","","","","",""
"2911.32500000007","{""judgement"":1}","[0]","survey-likert","177","701827","0.0-177.0","0dd6057w","","","","","","","","1"
"2663.5200000000186","{""confidence"":0}","[0]","survey-likert","178","704491","0.0-178.0","0dd6057w","","","","","","","",""
"","","","call-function","179","704492","0.0-179.0","0dd6057w","","","","","","","",""
"null","","","html-keyboard-response","180","705993","0.0-180.0","0dd6057w","","<span style=""color:Black; font-size:50px;"">Agent A","null","","","","",""
"null","","","video-keyboard-response","181","709102","0.0-181.0","0dd6057w","","","null","","Agent A","veridical","STIM_SET_1/1592133.bmp_pp75_L1_V1.0_veridical_freeview_isoFalse.mp4",""
"null","","","html-keyboard-response","182","710604","0.0-182.0","0dd6057w","","<span style=""color:Black; font-size:50px;"">Agent B","null","","","","",""
"null","","","video-keyboard-response","183","713709","0.0-183.0","0dd6057w","","","null","","Agent B","scrambled","STIM_SET_1/1592133.bmp_pp75_L1_V1.0_scrambled_freeview_isoFalse.mp4",""
"","","","call-function","184","713710","0.0-184.0","0dd6057w","","","","","","","",""
"2334.2750000000233","{""judgement"":0}","[0]","survey-likert","185","716045","0.0-185.0","0dd6057w","","","","","","","","0"
"2236.4400000000605","{""confidence"":1}","[0]","survey-likert","186","718284","0.0-186.0","0dd6057w","","","","","","","",""
"","","","call-function","187","718284","0.0-187.0","0dd6057w","","","","","","","",""
"null","","","html-keyboard-response","188","719787","0.0-188.0","0dd6057w","","<span style=""color:Black; font-size:50px;"">Agent A","null","","","","",""
"null","","","video-keyboard-response","189","722869","0.0-189.0","0dd6057w","","","null","","Agent A","scrambled","STIM_SET_1/1159855.bmp_pp99_L2_V1.0_scrambled_freeview_isoFalse.mp4",""
"null","","","html-keyboard-response","190","724375","0.0-190.0","0dd6057w","","<span style=""color:Black; font-size:50px;"">Agent B","null","","","","",""
"null","","","video-keyboard-response","191","727463","0.0-191.0","0dd6057w","","","null","","Agent B","veridical","STIM_SET_1/1159855.bmp_pp99_L2_V1.0_veridical_freeview_isoFalse.mp4",""
"","","","call-function","192","727463","0.0-192.0","0dd6057w","","","","","","","",""
"1527.5200000000186","{""judgement"":0}","[0]","survey-likert","193","728992","0.0-193.0","0dd6057w","","","","","","","","1"
"1864.920000000042","{""confidence"":1}","[0]","survey-likert","194","730858","0.0-194.0","0dd6057w","","","","","","","",""
"","","","call-function","195","730858","0.0-195.0","0dd6057w","","","","","","","",""
"null","","","html-keyboard-response","196","732363","0.0-196.0","0dd6057w","","<span style=""color:Black; font-size:50px;"">Agent A","null","","","","",""
"null","","","video-keyboard-response","197","735436","0.0-197.0","0dd6057w","","","null","","Agent A","veridical","STIM_SET_1/1159829.bmp_pp91_L3_V1.0_veridical_freeview_isoFalse.mp4",""
"null","","","html-keyboard-response","198","736939","0.0-198.0","0dd6057w","","<span style=""color:Black; font-size:50px;"">Agent B","null","","","","",""
"null","","","video-keyboard-response","199","740013","0.0-199.0","0dd6057w","","","null","","Agent B","scrambled","STIM_SET_1/1159829.bmp_pp91_L3_V1.0_scrambled_freeview_isoFalse.mp4",""
"","","","call-function","200","740013","0.0-200.0","0dd6057w","","","","","","","",""
"2077.9150000000373","{""judgement"":1}","[0]","survey-likert","201","742092","0.0-201.0","0dd6057w","","","","","","","","0"
"2029.7249999999767","{""confidence"":2}","[0]","survey-likert","202","744123","0.0-202.0","0dd6057w","","","","","","","",""
"","","","call-function","203","744123","0.0-203.0","0dd6057w","","","","","","","",""
"null","","","html-keyboard-response","204","745630","0.0-204.0","0dd6057w","","<span style=""color:Black; font-size:50px;"">Agent A","null","","","","",""
"null","","","video-keyboard-response","205","748746","0.0-205.0","0dd6057w","","","null","","Agent A","veridical","STIM_SET_1/712977.bmp_pp51_L1_V1.0_veridical_freeview_isoFalse.mp4",""
"null","","","html-keyboard-response","206","750247","0.0-206.0","0dd6057w","","<span style=""color:Black; font-size:50px;"">Agent B","null","","","","",""
"null","","","video-keyboard-response","207","753326","0.0-207.0","0dd6057w","","","null","","Agent B","scrambled","STIM_SET_1/712977.bmp_pp51_L1_V1.0_scrambled_freeview_isoFalse.mp4",""
"","","","call-function","208","753326","0.0-208.0","0dd6057w","","","","","","","",""
"2086.189999999944","{""judgement"":0}","[0]","survey-likert","209","755414","0.0-209.0","0dd6057w","","","","","","","","0"
"1132.9550000000745","{""confidence"":1}","[0]","survey-likert","210","756549","0.0-210.0","0dd6057w","","","","","","","",""
"","","","call-function","211","756550","0.0-211.0","0dd6057w","","","","","","","",""
"null","","","html-keyboard-response","212","758054","0.0-212.0","0dd6057w","","<span style=""color:Black; font-size:50px;"">Agent A","null","","","","",""
"null","","","video-keyboard-response","213","761131","0.0-213.0","0dd6057w","","","null","","Agent A","veridical","STIM_SET_1/61537.bmp_pp73_L3_V1.0_veridical_freeview_isoFalse.mp4",""
"null","","","html-keyboard-response","214","762633","0.0-214.0","0dd6057w","","<span style=""color:Black; font-size:50px;"">Agent B","null","","","","",""
"null","","","video-keyboard-response","215","765715","0.0-215.0","0dd6057w","","","null","","Agent B","scrambled","STIM_SET_1/61537.bmp_pp73_L3_V1.0_scrambled_freeview_isoFalse.mp4",""
"","","","call-function","216","765716","0.0-216.0","0dd6057w","","","","","","","",""
"2156.9150000000373","{""judgement"":0}","[0]","survey-likert","217","767874","0.0-217.0","0dd6057w","","","","","","","","0"
"1497.875","{""confidence"":1}","[0]","survey-likert","218","769373","0.0-218.0","0dd6057w","","","","","","","",""
"","","","call-function","219","769373","0.0-219.0","0dd6057w","","","","","","","",""
"null","","","html-keyboard-response","220","770875","0.0-220.0","0dd6057w","","<span style=""color:Black; font-size:50px;"">Agent A","null","","","","",""
"null","","","video-keyboard-response","221","773950","0.0-221.0","0dd6057w","","","null","","Agent A","veridical","STIM_SET_1/1592397.bmp_pp85_L3_V1.0_veridical_freeview_isoFalse.mp4",""
"null","","","html-keyboard-response","222","775455","0.0-222.0","0dd6057w","","<span style=""color:Black; font-size:50px;"">Agent B","null","","","","",""
"null","","","video-keyboard-response","223","778531","0.0-223.0","0dd6057w","","","null","","Agent B","scrambled","STIM_SET_1/1592397.bmp_pp85_L3_V1.0_scrambled_freeview_isoFalse.mp4",""
"","","","call-function","224","778531","0.0-224.0","0dd6057w","","","","","","","",""
"2772.5849999999627","{""judgement"":0}","[0]","survey-likert","225","781305","0.0-225.0","0dd6057w","","","","","","","","0"
"1347.4249999999302","{""confidence"":1}","[0]","survey-likert","226","782653","0.0-226.0","0dd6057w","","","","","","","",""
"","","","call-function","227","782654","0.0-227.0","0dd6057w","","","","","","","",""
"null","","","html-keyboard-response","228","784159","0.0-228.0","0dd6057w","","<span style=""color:Black; font-size:50px;"">Agent A","null","","","","",""
"null","","","video-keyboard-response","229","787283","0.0-229.0","0dd6057w","","","null","","Agent A","veridical","STIM_SET_1/713620.bmp_pp65_L3_V1.0_veridical_freeview_isoFalse.mp4",""
"null","","","html-keyboard-response","230","788786","0.0-230.0","0dd6057w","","<span style=""color:Black; font-size:50px;"">Agent B","null","","","","",""
"null","","","video-keyboard-response","231","791904","0.0-231.0","0dd6057w","","","null","","Agent B","scrambled","STIM_SET_1/713620.bmp_pp65_L3_V1.0_scrambled_freeview_isoFalse.mp4",""
"","","","call-function","232","791905","0.0-232.0","0dd6057w","","","","","","","",""
"1694.2449999999953","{""judgement"":0}","[0]","survey-likert","233","793600","0.0-233.0","0dd6057w","","","","","","","","0"
"1500.9599999999627","{""confidence"":1}","[0]","survey-likert","234","795102","0.0-234.0","0dd6057w","","","","","","","",""
"","","","call-function","235","795103","0.0-235.0","0dd6057w","","","","","","","",""
"null","","","html-keyboard-response","236","796606","0.0-236.0","0dd6057w","","<span style=""color:Black; font-size:50px;"">Agent A","null","","","","",""
"null","","","video-keyboard-response","237","799719","0.0-237.0","0dd6057w","","","null","","Agent A","scrambled","STIM_SET_1/1159768.bmp_pp89_L1_V1.0_scrambled_freeview_isoFalse.mp4",""
"null","","","html-keyboard-response","238","801224","0.0-238.0","0dd6057w","","<span style=""color:Black; font-size:50px;"">Agent B","null","","","","",""
"null","","","video-keyboard-response","239","804337","0.0-239.0","0dd6057w","","","null","","Agent B","veridical","STIM_SET_1/1159768.bmp_pp89_L1_V1.0_veridical_freeview_isoFalse.mp4",""
"","","","call-function","240","804337","0.0-240.0","0dd6057w","","","","","","","",""
"2310.8300000000745","{""judgement"":1}","[0]","survey-likert","241","806649","0.0-241.0","0dd6057w","","","","","","","","1"
"1641.5550000000512","{""confidence"":1}","[0]","survey-likert","242","808292","0.0-242.0","0dd6057w","","","","","","","",""
"","","","call-function","243","808293","0.0-243.0","0dd6057w","","","","","","","",""
"null","","","html-keyboard-response","244","809797","0.0-244.0","0dd6057w","","<span style=""color:Black; font-size:50px;"">Agent A","null","","","","",""
"null","","","video-keyboard-response","245","812913","0.0-245.0","0dd6057w","","","null","","Agent A","veridical","STIM_SET_1/1592499.bmp_pp96_L2_V1.0_veridical_freeview_isoFalse.mp4",""
"null","","","html-keyboard-response","246","814416","0.0-246.0","0dd6057w","","<span style=""color:Black; font-size:50px;"">Agent B","null","","","","",""
"null","","","video-keyboard-response","247","817535","0.0-247.0","0dd6057w","","","null","","Agent B","scrambled","STIM_SET_1/1592499.bmp_pp96_L2_V1.0_scrambled_freeview_isoFalse.mp4",""
"","","","call-function","248","817535","0.0-248.0","0dd6057w","","","","","","","",""
"1778.7149999999674","{""judgement"":0}","[0]","survey-likert","249","819315","0.0-249.0","0dd6057w","","","","","","","","0"
"1217.8049999999348","{""confidence"":1}","[0]","survey-likert","250","820534","0.0-250.0","0dd6057w","","","","","","","",""
"3037.92499999993","","","instructions","251","823573","0.0-251.0","0dd6057w","[{""page_index"":0,""viewing_time"":1415.6450000000186},{""page_index"":1,""viewing_time"":681.9099999999162},{""page_index"":2,""viewing_time"":940.0750000000698}]","","","","","","",""
"712.4749999999767","","","instructions","252","824286","0.0-252.0","0dd6057w","[{""page_index"":0,""viewing_time"":262.1449999999022},{""page_index"":1,""viewing_time"":230.2850000000326},{""page_index"":2,""viewing_time"":219.93500000005588}]","","","","","","",""
"","","","call-function","253","824286","0.0-253.0","0dd6057w","","","","","","","",""
"null","","","html-keyboard-response","254","825788","0.0-254.0","0dd6057w","","<span style=""color:Black; font-size:50px;"">Agent A","null","","","","",""
"null","","","video-keyboard-response","255","828859","0.0-255.0","0dd6057w","","","null","","Agent A","scrambled","STIM_SET_1/498170.bmp_pp153_L3_V1.0_scrambled_freeview_isoFalse.mp4",""
"null","","","html-keyboard-response","256","830362","0.0-256.0","0dd6057w","","<span style=""color:Black; font-size:50px;"">Agent B","null","","","","",""
"null","","","video-keyboard-response","257","833431","0.0-257.0","0dd6057w","","","null","","Agent B","veridical","STIM_SET_1/498170.bmp_pp153_L3_V1.0_veridical_freeview_isoFalse.mp4",""
"","","","call-function","258","833431","0.0-258.0","0dd6057w","","","","","","","",""
"2501.3549999999814","{""judgement"":1}","[0]","survey-likert","259","835934","0.0-259.0","0dd6057w","","","","","","","","1"
"2337.590000000084","{""confidence"":3}","[0]","survey-likert","260","838272","0.0-260.0","0dd6057w","","","","","","","",""
"","","","call-function","261","838273","0.0-261.0","0dd6057w","","","","","","","",""
"null","","","html-keyboard-response","262","839778","0.0-262.0","0dd6057w","","<span style=""color:Black; font-size:50px;"">Agent A","null","","","","",""
"null","","","video-keyboard-response","263","842855","0.0-263.0","0dd6057w","","","null","","Agent A","veridical","STIM_SET_1/1591954.bmp_pp62_L2_V1.0_veridical_freeview_isoFalse.mp4",""
"null","","","html-keyboard-response","264","844357","0.0-264.0","0dd6057w","","<span style=""color:Black; font-size:50px;"">Agent B","null","","","","",""
"null","","","video-keyboard-response","265","847436","0.0-265.0","0dd6057w","","","null","","Agent B","scrambled","STIM_SET_1/1591954.bmp_pp62_L2_V1.0_scrambled_freeview_isoFalse.mp4",""
"","","","call-function","266","847438","0.0-266.0","0dd6057w","","","","","","","",""
"1661.9449999999488","{""judgement"":0}","[0]","survey-likert","267","849102","0.0-267.0","0dd6057w","","","","","","","","0"
"1384.5649999999441","{""confidence"":1}","[0]","survey-likert","268","850488","0.0-268.0","0dd6057w","","","","","","","",""
"","","","call-function","269","850489","0.0-269.0","0dd6057w","","","","","","","",""
"null","","","html-keyboard-response","270","851992","0.0-270.0","0dd6057w","","<span style=""color:Black; font-size:50px;"">Agent A","null","","","","",""
"null","","","video-keyboard-response","271","855071","0.0-271.0","0dd6057w","","","null","","Agent A","veridical","STIM_SET_1/1592372.bmp_pp76_L1_V1.0_veridical_freeview_isoFalse.mp4",""
"null","","","html-keyboard-response","272","856576","0.0-272.0","0dd6057w","","<span style=""color:Black; font-size:50px;"">Agent B","null","","","","",""
"null","","","video-keyboard-response","273","859654","0.0-273.0","0dd6057w","","","null","","Agent B","scrambled","STIM_SET_1/1592372.bmp_pp76_L1_V1.0_scrambled_freeview_isoFalse.mp4",""
"","","","call-function","274","859655","0.0-274.0","0dd6057w","","","","","","","",""
"1568","{""judgement"":0}","[0]","survey-likert","275","861224","0.0-275.0","0dd6057w","","","","","","","","0"
"2077.039999999921","{""confidence"":3}","[0]","survey-likert","276","863303","0.0-276.0","0dd6057w","","","","","","","",""
"","","","call-function","277","863303","0.0-277.0","0dd6057w","","","","","","","",""
"null","","","html-keyboard-response","278","864806","0.0-278.0","0dd6057w","","<span style=""color:Black; font-size:50px;"">Agent A","null","","","","",""
"null","","","video-keyboard-response","279","867876","0.0-279.0","0dd6057w","","","null","","Agent A","scrambled","STIM_SET_1/1159813.bmp_pp79_L2_V1.0_scrambled_freeview_isoFalse.mp4",""
"null","","","html-keyboard-response","280","869377","0.0-280.0","0dd6057w","","<span style=""color:Black; font-size:50px;"">Agent B","null","","","","",""
"null","","","video-keyboard-response","281","872449","0.0-281.0","0dd6057w","","","null","","Agent B","veridical","STIM_SET_1/1159813.bmp_pp79_L2_V1.0_veridical_freeview_isoFalse.mp4",""
"","","","call-function","282","872449","0.0-282.0","0dd6057w","","","","","","","",""
"2434.75","{""judgement"":1}","[0]","survey-likert","283","874885","0.0-283.0","0dd6057w","","","","","","","","1"
"1775.8499999999767","{""confidence"":2}","[0]","survey-likert","284","876662","0.0-284.0","0dd6057w","","","","","","","",""
"","","","call-function","285","876663","0.0-285.0","0dd6057w","","","","","","","",""
"null","","","html-keyboard-response","286","878164","0.0-286.0","0dd6057w","","<span style=""color:Black; font-size:50px;"">Agent A","null","","","","",""
"null","","","video-keyboard-response","287","881278","0.0-287.0","0dd6057w","","","null","","Agent A","veridical","STIM_SET_1/1592362.bmp_pp95_L2_V1.0_veridical_freeview_isoFalse.mp4",""
"null","","","html-keyboard-response","288","882785","0.0-288.0","0dd6057w","","<span style=""color:Black; font-size:50px;"">Agent B","null","","","","",""
"null","","","video-keyboard-response","289","885896","0.0-289.0","0dd6057w","","","null","","Agent B","scrambled","STIM_SET_1/1592362.bmp_pp95_L2_V1.0_scrambled_freeview_isoFalse.mp4",""
"","","","call-function","290","885896","0.0-290.0","0dd6057w","","","","","","","",""
"2672.8349999999627","{""judgement"":0}","[0]","survey-likert","291","888570","0.0-291.0","0dd6057w","","","","","","","","0"
"2124.1450000000186","{""confidence"":1}","[0]","survey-likert","292","890695","0.0-292.0","0dd6057w","","","","","","","",""
"","","","call-function","293","890696","0.0-293.0","0dd6057w","","","","","","","",""
"null","","","html-keyboard-response","294","892198","0.0-294.0","0dd6057w","","<span style=""color:Black; font-size:50px;"">Agent A","null","","","","",""
"null","","","video-keyboard-response","295","895312","0.0-295.0","0dd6057w","","","null","","Agent A","veridical","STIM_SET_1/713513.bmp_pp62_L2_V1.0_veridical_freeview_isoFalse.mp4",""
"null","","","html-keyboard-response","296","896814","0.0-296.0","0dd6057w","","<span style=""color:Black; font-size:50px;"">Agent B","null","","","","",""
"null","","","video-keyboard-response","297","899922","0.0-297.0","0dd6057w","","","null","","Agent B","scrambled","STIM_SET_1/713513.bmp_pp62_L2_V1.0_scrambled_freeview_isoFalse.mp4",""
"","","","call-function","298","899922","0.0-298.0","0dd6057w","","","","","","","",""
"3196.9749999999767","{""judgement"":1}","[0]","survey-likert","299","903120","0.0-299.0","0dd6057w","","","","","","","","0"
"1527.8349999999627","{""confidence"":2}","[0]","survey-likert","300","904649","0.0-300.0","0dd6057w","","","","","","","",""
"","","","call-function","301","904650","0.0-301.0","0dd6057w","","","","","","","",""
"null","","","html-keyboard-response","302","906152","0.0-302.0","0dd6057w","","<span style=""color:Black; font-size:50px;"">Agent A","null","","","","",""
"null","","","video-keyboard-response","303","909269","0.0-303.0","0dd6057w","","","null","","Agent A","veridical","STIM_SET_1/713211.bmp_pp100_L3_V1.0_veridical_freeview_isoFalse.mp4",""
"null","","","html-keyboard-response","304","910775","0.0-304.0","0dd6057w","","<span style=""color:Black; font-size:50px;"">Agent B","null","","","","",""
"null","","","video-keyboard-response","305","913892","0.0-305.0","0dd6057w","","","null","","Agent B","scrambled","STIM_SET_1/713211.bmp_pp100_L3_V1.0_scrambled_freeview_isoFalse.mp4",""
"","","","call-function","306","913892","0.0-306.0","0dd6057w","","","","","","","",""
"3352.8349999999627","{""judgement"":0}","[0]","survey-likert","307","917246","0.0-307.0","0dd6057w","","","","","","","","0"
"1270.4599999999627","{""confidence"":2}","[0]","survey-likert","308","918518","0.0-308.0","0dd6057w","","","","","","","",""
"","","","call-function","309","918519","0.0-309.0","0dd6057w","","","","","","","",""
"null","","","html-keyboard-response","310","920022","0.0-310.0","0dd6057w","","<span style=""color:Black; font-size:50px;"">Agent A","null","","","","",""
"null","","","video-keyboard-response","311","923102","0.0-311.0","0dd6057w","","","null","","Agent A","scrambled","STIM_SET_1/498111.bmp_pp88_L2_V1.0_scrambled_freeview_isoFalse.mp4",""
"null","","","html-keyboard-response","312","924609","0.0-312.0","0dd6057w","","<span style=""color:Black; font-size:50px;"">Agent B","null","","","","",""
"null","","","video-keyboard-response","313","927689","0.0-313.0","0dd6057w","","","null","","Agent B","veridical","STIM_SET_1/498111.bmp_pp88_L2_V1.0_veridical_freeview_isoFalse.mp4",""
"","","","call-function","314","927691","0.0-314.0","0dd6057w","","","","","","","",""
"3718.3399999999674","{""judgement"":1}","[0]","survey-likert","315","931411","0.0-315.0","0dd6057w","","","","","","","","1"
"1815.7099999999627","{""confidence"":2}","[0]","survey-likert","316","933228","0.0-316.0","0dd6057w","","","","","","","",""
"","","","call-function","317","933229","0.0-317.0","0dd6057w","","","","","","","",""
"null","","","html-keyboard-response","318","934731","0.0-318.0","0dd6057w","","<span style=""color:Black; font-size:50px;"">Agent A","null","","","","",""
"null","","","video-keyboard-response","319","937807","0.0-319.0","0dd6057w","","","null","","Agent A","veridical","STIM_SET_1/1159777.bmp_pp77_L3_V1.0_veridical_freeview_isoFalse.mp4",""
"null","","","html-keyboard-response","320","939311","0.0-320.0","0dd6057w","","<span style=""color:Black; font-size:50px;"">Agent B","null","","","","",""
"null","","","video-keyboard-response","321","942391","0.0-321.0","0dd6057w","","","null","","Agent B","scrambled","STIM_SET_1/1159777.bmp_pp77_L3_V1.0_scrambled_freeview_isoFalse.mp4",""
"","","","call-function","322","942392","0.0-322.0","0dd6057w","","","","","","","",""
"1760.4649999999674","{""judgement"":0}","[0]","survey-likert","323","944153","0.0-323.0","0dd6057w","","","","","","","","0"
"1728.5700000000652","{""confidence"":1}","[0]","survey-likert","324","945883","0.0-324.0","0dd6057w","","","","","","","",""
"","","","call-function","325","945884","0.0-325.0","0dd6057w","","","","","","","",""
"null","","","html-keyboard-response","326","947388","0.0-326.0","0dd6057w","","<span style=""color:Black; font-size:50px;"">Agent A","null","","","","",""
"null","","","video-keyboard-response","327","950459","0.0-327.0","0dd6057w","","","null","","Agent A","veridical","STIM_SET_1/1159621.bmp_pp92_L3_V1.0_veridical_freeview_isoFalse.mp4",""
"null","","","html-keyboard-response","328","951962","0.0-328.0","0dd6057w","","<span style=""color:Black; font-size:50px;"">Agent B","null","","","","",""
"null","","","video-keyboard-response","329","955081","0.0-329.0","0dd6057w","","","null","","Agent B","scrambled","STIM_SET_1/1159621.bmp_pp92_L3_V1.0_scrambled_freeview_isoFalse.mp4",""
"","","","call-function","330","955082","0.0-330.0","0dd6057w","","","","","","","",""
"3403.6049999999814","{""judgement"":0}","[0]","survey-likert","331","958486","0.0-331.0","0dd6057w","","","","","","","","0"
"1584.9400000000605","{""confidence"":2}","[0]","survey-likert","332","960072","0.0-332.0","0dd6057w","","","","","","","",""
"2441.6900000000605","","","instructions","333","962515","0.0-333.0","0dd6057w","[{""page_index"":0,""viewing_time"":814.6350000000093},{""page_index"":1,""viewing_time"":912.8449999999721},{""page_index"":2,""viewing_time"":714.0550000000512}]","","","","","","",""
"2645.5800000000745","","","instructions","334","965161","0.0-334.0","0dd6057w","[{""page_index"":0,""viewing_time"":1343.6600000000326},{""page_index"":1,""viewing_time"":643.1149999999907},{""page_index"":2,""viewing_time"":658.5849999999627}]","","","","","","",""
"","","","call-function","335","965161","0.0-335.0","0dd6057w","","","","","","","",""
"null","","","html-keyboard-response","336","966663","0.0-336.0","0dd6057w","","<span style=""color:Black; font-size:50px;"">Agent A","null","","","","",""
"null","","","video-keyboard-response","337","969772","0.0-337.0","0dd6057w","","","null","","Agent A","scrambled","STIM_SET_1/1160127.bmp_pp90_L2_V1.0_scrambled_freeview_isoFalse.mp4",""
"null","","","html-keyboard-response","338","971274","0.0-338.0","0dd6057w","","<span style=""color:Black; font-size:50px;"">Agent B","null","","","","",""
"null","","","video-keyboard-response","339","974378","0.0-339.0","0dd6057w","","","null","","Agent B","veridical","STIM_SET_1/1160127.bmp_pp90_L2_V1.0_veridical_freeview_isoFalse.mp4",""
"","","","call-function","340","974378","0.0-340.0","0dd6057w","","","","","","","",""
"6908.744999999995","{""judgement"":0}","[0]","survey-likert","341","981288","0.0-341.0","0dd6057w","","","","","","","","1"
"8126.2949999999255","{""confidence"":1}","[0]","survey-likert","342","989416","0.0-342.0","0dd6057w","","","","","","","",""
"","","","call-function","343","989418","0.0-343.0","0dd6057w","","","","","","","",""
"null","","","html-keyboard-response","344","990925","0.0-344.0","0dd6057w","","<span style=""color:Black; font-size:50px;"">Agent A","null","","","","",""
"null","","","video-keyboard-response","345","993999","0.0-345.0","0dd6057w","","","null","","Agent A","scrambled","STIM_SET_1/1159440.bmp_pp98_L1_V1.0_scrambled_freeview_isoFalse.mp4",""
"null","","","html-keyboard-response","346","995502","0.0-346.0","0dd6057w","","<span style=""color:Black; font-size:50px;"">Agent B","null","","","","",""
"null","","","video-keyboard-response","347","998575","0.0-347.0","0dd6057w","","","null","","Agent B","veridical","STIM_SET_1/1159440.bmp_pp98_L1_V1.0_veridical_freeview_isoFalse.mp4",""
"","","","call-function","348","998576","0.0-348.0","0dd6057w","","","","","","","",""
"2877.439999999944","{""judgement"":1}","[0]","survey-likert","349","1001454","0.0-349.0","0dd6057w","","","","","","","","1"
"5780.550000000047","{""confidence"":1}","[0]","survey-likert","350","1007236","0.0-350.0","0dd6057w","","","","","","","",""
"","","","call-function","351","1007237","0.0-351.0","0dd6057w","","","","","","","",""
"null","","","html-keyboard-response","352","1008741","0.0-352.0","0dd6057w","","<span style=""color:Black; font-size:50px;"">Agent A","null","","","","",""
"null","","","video-keyboard-response","353","1011808","0.0-353.0","0dd6057w","","","null","","Agent A","scrambled","STIM_SET_1/713403.bmp_pp80_L3_V1.0_scrambled_freeview_isoFalse.mp4",""
"null","","","html-keyboard-response","354","1013312","0.0-354.0","0dd6057w","","<span style=""color:Black; font-size:50px;"">Agent B","null","","","","",""
"null","","","video-keyboard-response","355","1016380","0.0-355.0","0dd6057w","","","null","","Agent B","veridical","STIM_SET_1/713403.bmp_pp80_L3_V1.0_veridical_freeview_isoFalse.mp4",""
"","","","call-function","356","1016381","0.0-356.0","0dd6057w","","","","","","","",""
"3221.6300000000047","{""judgement"":1}","[0]","survey-likert","357","1019603","0.0-357.0","0dd6057w","","","","","","","","1"
"1985.2299999999814","{""confidence"":2}","[0]","survey-likert","358","1021590","0.0-358.0","0dd6057w","","","","","","","",""
"","","","call-function","359","1021590","0.0-359.0","0dd6057w","","","","","","","",""
"null","","","html-keyboard-response","360","1023097","0.0-360.0","0dd6057w","","<span style=""color:Black; font-size:50px;"">Agent A","null","","","","",""
"null","","","video-keyboard-response","361","1026202","0.0-361.0","0dd6057w","","","null","","Agent A","veridical","STIM_SET_1/1592351.bmp_pp51_L1_V1.0_veridical_freeview_isoFalse.mp4",""
"null","","","html-keyboard-response","362","1027704","0.0-362.0","0dd6057w","","<span style=""color:Black; font-size:50px;"">Agent B","null","","","","",""
"null","","","video-keyboard-response","363","1030812","0.0-363.0","0dd6057w","","","null","","Agent B","scrambled","STIM_SET_1/1592351.bmp_pp51_L1_V1.0_scrambled_freeview_isoFalse.mp4",""
"","","","call-function","364","1030813","0.0-364.0","0dd6057w","","","","","","","",""
"4628.840000000084","{""judgement"":0}","[0]","survey-likert","365","1035442","0.0-365.0","0dd6057w","","","","","","","","0"
"1470.4899999999907","{""confidence"":1}","[0]","survey-likert","366","1036914","0.0-366.0","0dd6057w","","","","","","","",""
"","","","call-function","367","1036915","0.0-367.0","0dd6057w","","","","","","","",""
"null","","","html-keyboard-response","368","1038416","0.0-368.0","0dd6057w","","<span style=""color:Black; font-size:50px;"">Agent A","null","","","","",""
"null","","","video-keyboard-response","369","1041501","0.0-369.0","0dd6057w","","","null","","Agent A","veridical","STIM_SET_1/1593041.bmp_pp58_L1_V1.0_veridical_freeview_isoFalse.mp4",""
"null","","","html-keyboard-response","370","1043005","0.0-370.0","0dd6057w","","<span style=""color:Black; font-size:50px;"">Agent B","null","","","","",""
"null","","","video-keyboard-response","371","1046091","0.0-371.0","0dd6057w","","","null","","Agent B","scrambled","STIM_SET_1/1593041.bmp_pp58_L1_V1.0_scrambled_freeview_isoFalse.mp4",""
"","","","call-function","372","1046091","0.0-372.0","0dd6057w","","","","","","","",""
"3119.210000000079","{""judgement"":1}","[0]","survey-likert","373","1049211","0.0-373.0","0dd6057w","","","","","","","","0"
"1677.9149999998044","{""confidence"":2}","[0]","survey-likert","374","1050891","0.0-374.0","0dd6057w","","","","","","","",""
"","","","call-function","375","1050891","0.0-375.0","0dd6057w","","","","","","","",""
"null","","","html-keyboard-response","376","1052395","0.0-376.0","0dd6057w","","<span style=""color:Black; font-size:50px;"">Agent A","null","","","","",""
"null","","","video-keyboard-response","377","1055512","0.0-377.0","0dd6057w","","","null","","Agent A","veridical","STIM_SET_1/1592657.bmp_pp98_L1_V1.0_veridical_freeview_isoFalse.mp4",""
"null","","","html-keyboard-response","378","1057014","0.0-378.0","0dd6057w","","<span style=""color:Black; font-size:50px;"">Agent B","null","","","","",""
"null","","","video-keyboard-response","379","1060094","0.0-379.0","0dd6057w","","","null","","Agent B","scrambled","STIM_SET_1/1592657.bmp_pp98_L1_V1.0_scrambled_freeview_isoFalse.mp4",""
"","","","call-function","380","1060095","0.0-380.0","0dd6057w","","","","","","","",""
"2925.9500000001863","{""judgement"":0}","[0]","survey-likert","381","1063022","0.0-381.0","0dd6057w","","","","","","","","0"
"1093.089999999851","{""confidence"":1}","[0]","survey-likert","382","1064117","0.0-382.0","0dd6057w","","","","","","","",""
"","","","call-function","383","1064117","0.0-383.0","0dd6057w","","","","","","","",""
"null","","","html-keyboard-response","384","1065620","0.0-384.0","0dd6057w","","<span style=""color:Black; font-size:50px;"">Agent A","null","","","","",""
"null","","","video-keyboard-response","385","1068700","0.0-385.0","0dd6057w","","","null","","Agent A","veridical","STIM_SET_1/1159784.bmp_pp73_L3_V1.0_veridical_freeview_isoFalse.mp4",""
"null","","","html-keyboard-response","386","1070207","0.0-386.0","0dd6057w","","<span style=""color:Black; font-size:50px;"">Agent B","null","","","","",""
"null","","","video-keyboard-response","387","1073287","0.0-387.0","0dd6057w","","","null","","Agent B","scrambled","STIM_SET_1/1159784.bmp_pp73_L3_V1.0_scrambled_freeview_isoFalse.mp4",""
"","","","call-function","388","1073288","0.0-388.0","0dd6057w","","","","","","","",""
"1779.4899999999907","{""judgement"":0}","[0]","survey-likert","389","1075069","0.0-389.0","0dd6057w","","","","","","","","0"
"1207.0249999999069","{""confidence"":1}","[0]","survey-likert","390","1076277","0.0-390.0","0dd6057w","","","","","","","",""
"","","","call-function","391","1076278","0.0-391.0","0dd6057w","","","","","","","",""
"null","","","html-keyboard-response","392","1077782","0.0-392.0","0dd6057w","","<span style=""color:Black; font-size:50px;"">Agent A","null","","","","",""
"null","","","video-keyboard-response","393","1080852","0.0-393.0","0dd6057w","","","null","","Agent A","scrambled","STIM_SET_1/1592619.bmp_pp56_L3_V1.0_scrambled_freeview_isoFalse.mp4",""
"null","","","html-keyboard-response","394","1082359","0.0-394.0","0dd6057w","","<span style=""color:Black; font-size:50px;"">Agent B","null","","","","",""
"null","","","video-keyboard-response","395","1085467","0.0-395.0","0dd6057w","","","null","","Agent B","veridical","STIM_SET_1/1592619.bmp_pp56_L3_V1.0_veridical_freeview_isoFalse.mp4",""
"","","","call-function","396","1085468","0.0-396.0","0dd6057w","","","","","","","",""
"6107.810000000056","{""judgement"":0}","[0]","survey-likert","397","1091576","0.0-397.0","0dd6057w","","","","","","","","1"
"1245.2000000001863","{""confidence"":1}","[0]","survey-likert","398","1092823","0.0-398.0","0dd6057w","","","","","","","",""
"","","","call-function","399","1092823","0.0-399.0","0dd6057w","","","","","","","",""
"null","","","html-keyboard-response","400","1094326","0.0-400.0","0dd6057w","","<span style=""color:Black; font-size:50px;"">Agent A","null","","","","",""
"null","","","video-keyboard-response","401","1097441","0.0-401.0","0dd6057w","","","null","","Agent A","veridical","STIM_SET_1/1593146.bmp_pp93_L1_V1.0_veridical_freeview_isoFalse.mp4",""
"null","","","html-keyboard-response","402","1098946","0.0-402.0","0dd6057w","","<span style=""color:Black; font-size:50px;"">Agent B","null","","","","",""
"null","","","video-keyboard-response","403","1102059","0.0-403.0","0dd6057w","","","null","","Agent B","scrambled","STIM_SET_1/1593146.bmp_pp93_L1_V1.0_scrambled_freeview_isoFalse.mp4",""
"","","","call-function","404","1102059","0.0-404.0","0dd6057w","","","","","","","",""
"1695.3700000001118","{""judgement"":1}","[0]","survey-likert","405","1103756","0.0-405.0","0dd6057w","","","","","","","","0"
"1295.0699999998324","{""confidence"":1}","[0]","survey-likert","406","1105052","0.0-406.0","0dd6057w","","","","","","","",""
"","","","call-function","407","1105053","0.0-407.0","0dd6057w","","","","","","","",""
"null","","","html-keyboard-response","408","1106556","0.0-408.0","0dd6057w","","<span style=""color:Black; font-size:50px;"">Agent A","null","","","","",""
"null","","","video-keyboard-response","409","1109665","0.0-409.0","0dd6057w","","","null","","Agent A","veridical","STIM_SET_1/713760.bmp_pp81_L1_V1.0_veridical_freeview_isoFalse.mp4",""
"null","","","html-keyboard-response","410","1111169","0.0-410.0","0dd6057w","","<span style=""color:Black; font-size:50px;"">Agent B","null","","","","",""
"null","","","video-keyboard-response","411","1114277","0.0-411.0","0dd6057w","","","null","","Agent B","scrambled","STIM_SET_1/713760.bmp_pp81_L1_V1.0_scrambled_freeview_isoFalse.mp4",""
"","","","call-function","412","1114277","0.0-412.0","0dd6057w","","","","","","","",""
"1368.2549999998882","{""judgement"":0}","[0]","survey-likert","413","1115647","0.0-413.0","0dd6057w","","","","","","","","0"
"1294.3250000001863","{""confidence"":1}","[0]","survey-likert","414","1116942","0.0-414.0","0dd6057w","","","","","","","",""
"2259.905000000028","","","instructions","415","1119203","0.0-415.0","0dd6057w","[{""page_index"":0,""viewing_time"":1093},{""page_index"":1,""viewing_time"":718.7250000000931},{""page_index"":2,""viewing_time"":448.02499999990687}]","","","","","","",""
"1581.5100000000093","","","instructions","416","1120785","0.0-416.0","0dd6057w","[{""page_index"":0,""viewing_time"":633.3800000001211},{""page_index"":1,""viewing_time"":461.9949999998789},{""page_index"":2,""viewing_time"":485.9299999999348}]","","","","","","",""
"","","","call-function","417","1120785","0.0-417.0","0dd6057w","","","","","","","",""
"null","","","html-keyboard-response","418","1122287","0.0-418.0","0dd6057w","","<span style=""color:Black; font-size:50px;"">Agent A","null","","","","",""
"null","","","video-keyboard-response","419","1125364","0.0-419.0","0dd6057w","","","null","","Agent A","scrambled","STIM_SET_1/713666.bmp_pp97_L3_V1.0_scrambled_freeview_isoFalse.mp4",""
"null","","","html-keyboard-response","420","1126867","0.0-420.0","0dd6057w","","<span style=""color:Black; font-size:50px;"">Agent B","null","","","","",""
"null","","","video-keyboard-response","421","1129994","0.0-421.0","0dd6057w","","","null","","Agent B","veridical","STIM_SET_1/713666.bmp_pp97_L3_V1.0_veridical_freeview_isoFalse.mp4",""
"","","","call-function","422","1129995","0.0-422.0","0dd6057w","","","","","","","",""
"3775.590000000084","{""judgement"":0}","[0]","survey-likert","423","1133772","0.0-423.0","0dd6057w","","","","","","","","1"
"1759.1799999999348","{""confidence"":2}","[0]","survey-likert","424","1135533","0.0-424.0","0dd6057w","","","","","","","",""
"","","","call-function","425","1135534","0.0-425.0","0dd6057w","","","","","","","",""
"null","","","html-keyboard-response","426","1137037","0.0-426.0","0dd6057w","","<span style=""color:Black; font-size:50px;"">Agent A","null","","","","",""
"null","","","video-keyboard-response","427","1140106","0.0-427.0","0dd6057w","","","null","","Agent A","veridical","STIM_SET_1/1159447.bmp_pp70_L2_V1.0_veridical_freeview_isoFalse.mp4",""
"null","","","html-keyboard-response","428","1141613","0.0-428.0","0dd6057w","","<span style=""color:Black; font-size:50px;"">Agent B","null","","","","",""
"null","","","video-keyboard-response","429","1144685","0.0-429.0","0dd6057w","","","null","","Agent B","scrambled","STIM_SET_1/1159447.bmp_pp70_L2_V1.0_scrambled_freeview_isoFalse.mp4",""
"","","","call-function","430","1144686","0.0-430.0","0dd6057w","","","","","","","",""
"2233.655000000028","{""judgement"":1}","[0]","survey-likert","431","1146921","0.0-431.0","0dd6057w","","","","","","","","0"
"1558.5","{""confidence"":2}","[0]","survey-likert","432","1148482","0.0-432.0","0dd6057w","","","","","","","",""
"","","","call-function","433","1148483","0.0-433.0","0dd6057w","","","","","","","",""
"null","","","html-keyboard-response","434","1149985","0.0-434.0","0dd6057w","","<span style=""color:Black; font-size:50px;"">Agent A","null","","","","",""
"null","","","video-keyboard-response","435","1153050","0.0-435.0","0dd6057w","","","null","","Agent A","scrambled","STIM_SET_1/1592890.bmp_pp82_L2_V1.0_scrambled_freeview_isoFalse.mp4",""
"null","","","html-keyboard-response","436","1154553","0.0-436.0","0dd6057w","","<span style=""color:Black; font-size:50px;"">Agent B","null","","","","",""
"null","","","video-keyboard-response","437","1157624","0.0-437.0","0dd6057w","","","null","","Agent B","veridical","STIM_SET_1/1592890.bmp_pp82_L2_V1.0_veridical_freeview_isoFalse.mp4",""
"","","","call-function","438","1157625","0.0-438.0","0dd6057w","","","","","","","",""
"1958.3200000000652","{""judgement"":0}","[0]","survey-likert","439","1159584","0.0-439.0","0dd6057w","","","","","","","","1"
"1363.4800000002142","{""confidence"":1}","[0]","survey-likert","440","1160949","0.0-440.0","0dd6057w","","","","","","","",""
"","","","call-function","441","1160950","0.0-441.0","0dd6057w","","","","","","","",""
"null","","","html-keyboard-response","442","1162452","0.0-442.0","0dd6057w","","<span style=""color:Black; font-size:50px;"">Agent A","null","","","","",""
"null","","","video-keyboard-response","443","1165524","0.0-443.0","0dd6057w","","","null","","Agent A","scrambled","STIM_SET_1/1592727.bmp_pp59_L3_V1.0_scrambled_freeview_isoFalse.mp4",""
"null","","","html-keyboard-response","444","1167026","0.0-444.0","0dd6057w","","<span style=""color:Black; font-size:50px;"">Agent B","null","","","","",""
"null","","","video-keyboard-response","445","1170124","0.0-445.0","0dd6057w","","","null","","Agent B","veridical","STIM_SET_1/1592727.bmp_pp59_L3_V1.0_veridical_freeview_isoFalse.mp4",""
"","","","call-function","446","1170124","0.0-446.0","0dd6057w","","","","","","","",""
"2000.8299999998417","{""judgement"":1}","[0]","survey-likert","447","1172126","0.0-447.0","0dd6057w","","","","","","","","1"
"2709.625","{""confidence"":2}","[0]","survey-likert","448","1174837","0.0-448.0","0dd6057w","","","","","","","",""
"","","","call-function","449","1174837","0.0-449.0","0dd6057w","","","","","","","",""
"null","","","html-keyboard-response","450","1176344","0.0-450.0","0dd6057w","","<span style=""color:Black; font-size:50px;"">Agent A","null","","","","",""
"null","","","video-keyboard-response","451","1179458","0.0-451.0","0dd6057w","","","null","","Agent A","scrambled","STIM_SET_1/713593.bmp_pp64_L1_V1.0_scrambled_freeview_isoFalse.mp4",""
"null","","","html-keyboard-response","452","1180964","0.0-452.0","0dd6057w","","<span style=""color:Black; font-size:50px;"">Agent B","null","","","","",""
"null","","","video-keyboard-response","453","1184080","0.0-453.0","0dd6057w","","","null","","Agent B","veridical","STIM_SET_1/713593.bmp_pp64_L1_V1.0_veridical_freeview_isoFalse.mp4",""
"","","","call-function","454","1184081","0.0-454.0","0dd6057w","","","","","","","",""
"1635.1050000002142","{""judgement"":1}","[0]","survey-likert","455","1185717","0.0-455.0","0dd6057w","","","","","","","","1"
"1480.7649999998976","{""confidence"":3}","[0]","survey-likert","456","1187199","0.0-456.0","0dd6057w","","","","","","","",""
"","","","call-function","457","1187199","0.0-457.0","0dd6057w","","","","","","","",""
"null","","","html-keyboard-response","458","1188705","0.0-458.0","0dd6057w","","<span style=""color:Black; font-size:50px;"">Agent A","null","","","","",""
"null","","","video-keyboard-response","459","1191832","0.0-459.0","0dd6057w","","","null","","Agent A","veridical","STIM_SET_1/713707.bmp_pp154_L1_V1.0_veridical_freeview_isoFalse.mp4",""
"null","","","html-keyboard-response","460","1193337","0.0-460.0","0dd6057w","","<span style=""color:Black; font-size:50px;"">Agent B","null","","","","",""
"null","","","video-keyboard-response","461","1196422","0.0-461.0","0dd6057w","","","null","","Agent B","scrambled","STIM_SET_1/713707.bmp_pp154_L1_V1.0_scrambled_freeview_isoFalse.mp4",""
"","","","call-function","462","1196424","0.0-462.0","0dd6057w","","","","","","","",""
"1639.8249999999534","{""judgement"":0}","[0]","survey-likert","463","1198064","0.0-463.0","0dd6057w","","","","","","","","0"
"1521.9299999999348","{""confidence"":2}","[0]","survey-likert","464","1199587","0.0-464.0","0dd6057w","","","","","","","",""
"","","","call-function","465","1199588","0.0-465.0","0dd6057w","","","","","","","",""
"null","","","html-keyboard-response","466","1201094","0.0-466.0","0dd6057w","","<span style=""color:Black; font-size:50px;"">Agent A","null","","","","",""
"null","","","video-keyboard-response","467","1204171","0.0-467.0","0dd6057w","","","null","","Agent A","veridical","STIM_SET_1/1160168.bmp_pp53_L2_V1.0_veridical_freeview_isoFalse.mp4",""
"null","","","html-keyboard-response","468","1205675","0.0-468.0","0dd6057w","","<span style=""color:Black; font-size:50px;"">Agent B","null","","","","",""
"null","","","video-keyboard-response","469","1208762","0.0-469.0","0dd6057w","","","null","","Agent B","scrambled","STIM_SET_1/1160168.bmp_pp53_L2_V1.0_scrambled_freeview_isoFalse.mp4",""
"","","","call-function","470","1208763","0.0-470.0","0dd6057w","","","","","","","",""
"1695.9799999999814","{""judgement"":0}","[0]","survey-likert","471","1210461","0.0-471.0","0dd6057w","","","","","","","","0"
"1330.8500000000931","{""confidence"":1}","[0]","survey-likert","472","1211794","0.0-472.0","0dd6057w","","","","","","","",""
"","","","call-function","473","1211795","0.0-473.0","0dd6057w","","","","","","","",""
"null","","","html-keyboard-response","474","1213296","0.0-474.0","0dd6057w","","<span style=""color:Black; font-size:50px;"">Agent A","null","","","","",""
"null","","","video-keyboard-response","475","1216370","0.0-475.0","0dd6057w","","","null","","Agent A","veridical","STIM_SET_1/285905.bmp_pp57_L1_V1.0_veridical_freeview_isoFalse.mp4",""
"null","","","html-keyboard-response","476","1217873","0.0-476.0","0dd6057w","","<span style=""color:Black; font-size:50px;"">Agent B","null","","","","",""
"null","","","video-keyboard-response","477","1220946","0.0-477.0","0dd6057w","","","null","","Agent B","scrambled","STIM_SET_1/285905.bmp_pp57_L1_V1.0_scrambled_freeview_isoFalse.mp4",""
"","","","call-function","478","1220947","0.0-478.0","0dd6057w","","","","","","","",""
"2064.6500000001397","{""judgement"":0}","[0]","survey-likert","479","1223013","0.0-479.0","0dd6057w","","","","","","","","0"
"1491.1500000001397","{""confidence"":1}","[0]","survey-likert","480","1224505","0.0-480.0","0dd6057w","","","","","","","",""
"","","","call-function","481","1224506","0.0-481.0","0dd6057w","","","","","","","",""
"null","","","html-keyboard-response","482","1226011","0.0-482.0","0dd6057w","","<span style=""color:Black; font-size:50px;"">Agent A","null","","","","",""
"null","","","video-keyboard-response","483","1229094","0.0-483.0","0dd6057w","","","null","","Agent A","veridical","STIM_SET_1/1592804.bmp_pp91_L3_V1.0_veridical_freeview_isoFalse.mp4",""
"null","","","html-keyboard-response","484","1230598","0.0-484.0","0dd6057w","","<span style=""color:Black; font-size:50px;"">Agent B","null","","","","",""
"null","","","video-keyboard-response","485","1233677","0.0-485.0","0dd6057w","","","null","","Agent B","scrambled","STIM_SET_1/1592804.bmp_pp91_L3_V1.0_scrambled_freeview_isoFalse.mp4",""
"","","","call-function","486","1233678","0.0-486.0","0dd6057w","","","","","","","",""
"3347.2950000001583","{""judgement"":1}","[0]","survey-likert","487","1237026","0.0-487.0","0dd6057w","","","","","","","","0"
"1451.0499999998137","{""confidence"":2}","[0]","survey-likert","488","1238478","0.0-488.0","0dd6057w","","","","","","","",""
"","","","call-function","489","1238479","0.0-489.0","0dd6057w","","","","","","","",""
"null","","","html-keyboard-response","490","1239983","0.0-490.0","0dd6057w","","<span style=""color:Black; font-size:50px;"">Agent A","null","","","","",""
"null","","","video-keyboard-response","491","1243084","0.0-491.0","0dd6057w","","","null","","Agent A","scrambled","STIM_SET_1/713684.bmp_pp85_L3_V1.0_scrambled_freeview_isoFalse.mp4",""
"null","","","html-keyboard-response","492","1244587","0.0-492.0","0dd6057w","","<span style=""color:Black; font-size:50px;"">Agent B","null","","","","",""
"null","","","video-keyboard-response","493","1247682","0.0-493.0","0dd6057w","","","null","","Agent B","veridical","STIM_SET_1/713684.bmp_pp85_L3_V1.0_veridical_freeview_isoFalse.mp4",""
"","","","call-function","494","1247683","0.0-494.0","0dd6057w","","","","","","","",""
"2379.064999999944","{""judgement"":0}","[0]","survey-likert","495","1250063","0.0-495.0","0dd6057w","","","","","","","","1"
"1566.6049999999814","{""confidence"":1}","[0]","survey-likert","496","1251631","0.0-496.0","0dd6057w","","","","","","","",""
"283103.845","","","instructions","497","1534736","0.0-497.0","0dd6057w","[{""page_index"":0,""viewing_time"":1398.8499999998603},{""page_index"":1,""viewing_time"":281287.27},{""page_index"":2,""viewing_time"":417.5700000000652}]","","","","","","",""
"1012.4050000000279","","","instructions","498","1535749","0.0-498.0","0dd6057w","[{""page_index"":0,""viewing_time"":359.3599999998696},{""page_index"":1,""viewing_time"":333.53000000002794},{""page_index"":2,""viewing_time"":319.410000000149}]","","","","","","",""
"","","","call-function","499","1535749","0.0-499.0","0dd6057w","","","","","","","",""
"null","","","html-keyboard-response","500","1537254","0.0-500.0","0dd6057w","","<span style=""color:Black; font-size:50px;"">Agent A","null","","","","",""
"null","","","video-keyboard-response","501","1540320","0.0-501.0","0dd6057w","","","null","","Agent A","scrambled","STIM_SET_1/1159446.bmp_pp60_L3_V1.0_scrambled_freeview_isoFalse.mp4",""
"null","","","html-keyboard-response","502","1541823","0.0-502.0","0dd6057w","","<span style=""color:Black; font-size:50px;"">Agent B","null","","","","",""
"null","","","video-keyboard-response","503","1544890","0.0-503.0","0dd6057w","","","null","","Agent B","veridical","STIM_SET_1/1159446.bmp_pp60_L3_V1.0_veridical_freeview_isoFalse.mp4",""
"","","","call-function","504","1544891","0.0-504.0","0dd6057w","","","","","","","",""
"3474.744999999879","{""judgement"":1}","[0]","survey-likert","505","1548367","0.0-505.0","0dd6057w","","","","","","","","1"
"1710.655000000028","{""confidence"":2}","[0]","survey-likert","506","1550078","0.0-506.0","0dd6057w","","","","","","","",""
"","","","call-function","507","1550079","0.0-507.0","0dd6057w","","","","","","","",""
"null","","","html-keyboard-response","508","1551585","0.0-508.0","0dd6057w","","<span style=""color:Black; font-size:50px;"">Agent A","null","","","","",""
"null","","","video-keyboard-response","509","1554654","0.0-509.0","0dd6057w","","","null","","Agent A","veridical","STIM_SET_1/1159882.bmp_pp61_L2_V1.0_veridical_freeview_isoFalse.mp4",""
"null","","","html-keyboard-response","510","1556158","0.0-510.0","0dd6057w","","<span style=""color:Black; font-size:50px;"">Agent B","null","","","","",""
"null","","","video-keyboard-response","511","1559225","0.0-511.0","0dd6057w","","","null","","Agent B","scrambled","STIM_SET_1/1159882.bmp_pp61_L2_V1.0_scrambled_freeview_isoFalse.mp4",""
"","","","call-function","512","1559225","0.0-512.0","0dd6057w","","","","","","","",""
"1726.875","{""judgement"":1}","[0]","survey-likert","513","1560953","0.0-513.0","0dd6057w","","","","","","","","0"
"1895.9450000000652","{""confidence"":1}","[0]","survey-likert","514","1562850","0.0-514.0","0dd6057w","","","","","","","",""
"","","","call-function","515","1562851","0.0-515.0","0dd6057w","","","","","","","",""
"null","","","html-keyboard-response","516","1564353","0.0-516.0","0dd6057w","","<span style=""color:Black; font-size:50px;"">Agent A","null","","","","",""
"null","","","video-keyboard-response","517","1567472","0.0-517.0","0dd6057w","","","null","","Agent A","veridical","STIM_SET_1/285751.bmp_pp55_L3_V1.0_veridical_freeview_isoFalse.mp4",""
"null","","","html-keyboard-response","518","1568974","0.0-518.0","0dd6057w","","<span style=""color:Black; font-size:50px;"">Agent B","null","","","","",""
"null","","","video-keyboard-response","519","1572094","0.0-519.0","0dd6057w","","","null","","Agent B","scrambled","STIM_SET_1/285751.bmp_pp55_L3_V1.0_scrambled_freeview_isoFalse.mp4",""
"","","","call-function","520","1572094","0.0-520.0","0dd6057w","","","","","","","",""
"1671.155000000028","{""judgement"":0}","[0]","survey-likert","521","1573767","0.0-521.0","0dd6057w","","","","","","","","0"
"1210.5749999999534","{""confidence"":1}","[0]","survey-likert","522","1574979","0.0-522.0","0dd6057w","","","","","","","",""
"","","","call-function","523","1574981","0.0-523.0","0dd6057w","","","","","","","",""
"null","","","html-keyboard-response","524","1576482","0.0-524.0","0dd6057w","","<span style=""color:Black; font-size:50px;"">Agent A","null","","","","",""
"null","","","video-keyboard-response","525","1579562","0.0-525.0","0dd6057w","","","null","","Agent A","scrambled","STIM_SET_1/1592807.bmp_pp68_L1_V1.0_scrambled_freeview_isoFalse.mp4",""
"null","","","html-keyboard-response","526","1581064","0.0-526.0","0dd6057w","","<span style=""color:Black; font-size:50px;"">Agent B","null","","","","",""
"null","","","video-keyboard-response","527","1584144","0.0-527.0","0dd6057w","","","null","","Agent B","veridical","STIM_SET_1/1592807.bmp_pp68_L1_V1.0_veridical_freeview_isoFalse.mp4",""
"","","","call-function","528","1584144","0.0-528.0","0dd6057w","","","","","","","",""
"2047.3149999999441","{""judgement"":1}","[0]","survey-likert","529","1586193","0.0-529.0","0dd6057w","","","","","","","","1"
"1031.880000000121","{""confidence"":2}","[0]","survey-likert","530","1587226","0.0-530.0","0dd6057w","","","","","","","",""
"","","","call-function","531","1587227","0.0-531.0","0dd6057w","","","","","","","",""
"null","","","html-keyboard-response","532","1588730","0.0-532.0","0dd6057w","","<span style=""color:Black; font-size:50px;"">Agent A","null","","","","",""
"null","","","video-keyboard-response","533","1591803","0.0-533.0","0dd6057w","","","null","","Agent A","scrambled","STIM_SET_1/285933.bmp_pp81_L1_V1.0_scrambled_freeview_isoFalse.mp4",""
"null","","","html-keyboard-response","534","1593305","0.0-534.0","0dd6057w","","<span style=""color:Black; font-size:50px;"">Agent B","null","","","","",""
"null","","","video-keyboard-response","535","1596378","0.0-535.0","0dd6057w","","","null","","Agent B","veridical","STIM_SET_1/285933.bmp_pp81_L1_V1.0_veridical_freeview_isoFalse.mp4",""
"","","","call-function","536","1596378","0.0-536.0","0dd6057w","","","","","","","",""
"1620.8499999998603","{""judgement"":1}","[0]","survey-likert","537","1598000","0.0-537.0","0dd6057w","","","","","","","","1"
"1496.1499999999069","{""confidence"":2}","[0]","survey-likert","538","1599498","0.0-538.0","0dd6057w","","","","","","","",""
"","","","call-function","539","1599498","0.0-539.0","0dd6057w","","","","","","","",""
"null","","","html-keyboard-response","540","1601004","0.0-540.0","0dd6057w","","<span style=""color:Black; font-size:50px;"">Agent A","null","","","","",""
"null","","","video-keyboard-response","541","1604123","0.0-541.0","0dd6057w","","","null","","Agent A","veridical","STIM_SET_1/713017.bmp_pp152_L2_V1.0_veridical_freeview_isoFalse.mp4",""
"null","","","html-keyboard-response","542","1605628","0.0-542.0","0dd6057w","","<span style=""color:Black; font-size:50px;"">Agent B","null","","","","",""
"null","","","video-keyboard-response","543","1608743","0.0-543.0","0dd6057w","","","null","","Agent B","scrambled","STIM_SET_1/713017.bmp_pp152_L2_V1.0_scrambled_freeview_isoFalse.mp4",""
"","","","call-function","544","1608744","0.0-544.0","0dd6057w","","","","","","","",""
"1944.7250000000931","{""judgement"":0}","[0]","survey-likert","545","1610690","0.0-545.0","0dd6057w","","","","","","","","0"
"1124.4150000000373","{""confidence"":1}","[0]","survey-likert","546","1611816","0.0-546.0","0dd6057w","","","","","","","",""
"","","","call-function","547","1611817","0.0-547.0","0dd6057w","","","","","","","",""
"null","","","html-keyboard-response","548","1613324","0.0-548.0","0dd6057w","","<span style=""color:Black; font-size:50px;"">Agent A","null","","","","",""
"null","","","video-keyboard-response","549","1616439","0.0-549.0","0dd6057w","","","null","","Agent A","veridical","STIM_SET_1/1592286.bmp_pp52_L1_V1.0_veridical_freeview_isoFalse.mp4",""
"null","","","html-keyboard-response","550","1617942","0.0-550.0","0dd6057w","","<span style=""color:Black; font-size:50px;"">Agent B","null","","","","",""
"null","","","video-keyboard-response","551","1621018","0.0-551.0","0dd6057w","","","null","","Agent B","scrambled","STIM_SET_1/1592286.bmp_pp52_L1_V1.0_scrambled_freeview_isoFalse.mp4",""
"","","","call-function","552","1621019","0.0-552.0","0dd6057w","","","","","","","",""
"2368.9499999999534","{""judgement"":1}","[0]","survey-likert","553","1623389","0.0-553.0","0dd6057w","","","","","","","","0"
"1407.4500000001863","{""confidence"":2}","[0]","survey-likert","554","1624797","0.0-554.0","0dd6057w","","","","","","","",""
"","","","call-function","555","1624798","0.0-555.0","0dd6057w","","","","","","","",""
"null","","","html-keyboard-response","556","1626299","0.0-556.0","0dd6057w","","<span style=""color:Black; font-size:50px;"">Agent A","null","","","","",""
"null","","","video-keyboard-response","557","1629414","0.0-557.0","0dd6057w","","","null","","Agent A","veridical","STIM_SET_1/1591876.bmp_pp63_L1_V1.0_veridical_freeview_isoFalse.mp4",""
"null","","","html-keyboard-response","558","1630917","0.0-558.0","0dd6057w","","<span style=""color:Black; font-size:50px;"">Agent B","null","","","","",""
"null","","","video-keyboard-response","559","1634033","0.0-559.0","0dd6057w","","","null","","Agent B","scrambled","STIM_SET_1/1591876.bmp_pp63_L1_V1.0_scrambled_freeview_isoFalse.mp4",""
"","","","call-function","560","1634034","0.0-560.0","0dd6057w","","","","","","","",""
"2260.9599999999627","{""judgement"":0}","[0]","survey-likert","561","1636296","0.0-561.0","0dd6057w","","","","","","","","0"
"1122.6500000001397","{""confidence"":1}","[0]","survey-likert","562","1637420","0.0-562.0","0dd6057w","","","","","","","",""
"","","","call-function","563","1637420","0.0-563.0","0dd6057w","","","","","","","",""
"null","","","html-keyboard-response","564","1638923","0.0-564.0","0dd6057w","","<span style=""color:Black; font-size:50px;"">Agent A","null","","","","",""
"null","","","video-keyboard-response","565","1642032","0.0-565.0","0dd6057w","","","null","","Agent A","veridical","STIM_SET_1/713089.bmp_pp60_L3_V1.0_veridical_freeview_isoFalse.mp4",""
"null","","","html-keyboard-response","566","1643535","0.0-566.0","0dd6057w","","<span style=""color:Black; font-size:50px;"">Agent B","null","","","","",""
"null","","","video-keyboard-response","567","1646604","0.0-567.0","0dd6057w","","","null","","Agent B","scrambled","STIM_SET_1/713089.bmp_pp60_L3_V1.0_scrambled_freeview_isoFalse.mp4",""
"","","","call-function","568","1646605","0.0-568.0","0dd6057w","","","","","","","",""
"1446.344999999972","{""judgement"":1}","[0]","survey-likert","569","1648052","0.0-569.0","0dd6057w","","","","","","","","0"
"1500.2250000000931","{""confidence"":2}","[0]","survey-likert","570","1649553","0.0-570.0","0dd6057w","","","","","","","",""
"","","","call-function","571","1649554","0.0-571.0","0dd6057w","","","","","","","",""
"null","","","html-keyboard-response","572","1651056","0.0-572.0","0dd6057w","","<span style=""color:Black; font-size:50px;"">Agent A","null","","","","",""
"null","","","video-keyboard-response","573","1654128","0.0-573.0","0dd6057w","","","null","","Agent A","veridical","STIM_SET_1/497950.bmp_pp151_L1_V1.0_veridical_freeview_isoFalse.mp4",""
"null","","","html-keyboard-response","574","1655629","0.0-574.0","0dd6057w","","<span style=""color:Black; font-size:50px;"">Agent B","null","","","","",""
"null","","","video-keyboard-response","575","1658699","0.0-575.0","0dd6057w","","","null","","Agent B","scrambled","STIM_SET_1/497950.bmp_pp151_L1_V1.0_scrambled_freeview_isoFalse.mp4",""
"","","","call-function","576","1658699","0.0-576.0","0dd6057w","","","","","","","",""
"1685.4199999999255","{""judgement"":0}","[0]","survey-likert","577","1660386","0.0-577.0","0dd6057w","","","","","","","","0"
"1406.0200000000186","{""confidence"":3}","[0]","survey-likert","578","1661794","0.0-578.0","0dd6057w","","","","","","","",""
"1203.1000000000931","","","instructions","579","1662998","0.0-579.0","0dd6057w","[{""page_index"":0,""viewing_time"":1202.9650000000838}]","","","","","","",""
"1251.6350000000093","","","instructions","580","1664250","0.0-580.0","0dd6057w","[{""page_index"":0,""viewing_time"":1251.5249999999069}]","","","","","","",""
"6693.155000000028","{""post-1"":2}","[0]","survey-likert","581","1670945","0.0-581.0","0dd6057w","","","","","","","",""
"4270.654999999795","{""post-1"":2}","[0]","survey-likert","582","1675218","0.0-582.0","0dd6057w","","","","","","","",""
"7097.715000000084","{""post-2"":2}","[0]","survey-likert","583","1682318","0.0-583.0","0dd6057w","","","","","","","",""
"2969.3950000000186","{""post-2"":2}","[0]","survey-likert","584","1685289","0.0-584.0","0dd6057w","","","","","","","",""
"4732.625","{""post-3"":2}","[0]","survey-likert","585","1690023","0.0-585.0","0dd6057w","","","","","","","",""
"6629.9550000000745","{""post-3"":0}","[0]","survey-likert","586","1696654","0.0-586.0","0dd6057w","","","","","","","",""
"4944.539999999804","{""post-4"":0}","[0]","survey-likert","587","1701600","0.0-587.0","0dd6057w","","","","","","","",""
"1971.535000000149","{""post-4"":0}","[0]","survey-likert","588","1703573","0.0-588.0","0dd6057w","","","","","","","",""
"5395.935000000056","{""post-5"":1}","[0]","survey-likert","589","1708970","0.0-589.0","0dd6057w","","","","","","","",""
"2343.5449999999255","{""post-5"":2}","[0]","survey-likert","590","1711315","0.0-590.0","0dd6057w","","","","","","","",""
"25955.07999999984","{""Q0"":""i had a hard time concentrating, especially after the first experiment""}","","survey-text","591","1737276","0.0-591.0","0dd6057w","","","","","","","",""
"22180.675000000047","{""Q0"":""keeping track of the hotspots was easy. i did not use any particular strategies\n""}","","survey-text","592","1759460","0.0-592.0","0dd6057w","","","","","","","",""
"32308.01000000001","{""Q0"":""Having to do the same task twice over an extended amount of time was difficult. I felt disengaged at some points\n""}","","survey-text","593","1791771","0.0-593.0","0dd6057w","","","","","","","",""
"828.0200000000186","","","instructions","594","1792600","0.0-594.0","0dd6057w","[{""page_index"":0,""viewing_time"":827.8500000000931}]","","","","","","",""
"113079.04500000016","{""Experimenter_end"":[""Printed ID# 0dd6057w on consent form"",""Given subject SONA credit or payment"",""Given the subject debrief form""]}","[0]","survey-multi-select","595","1905681","0.0-595.0","0dd6057w","","","","","","","",""
