"rt","responses","question_order","trial_type","trial_index","time_elapsed","internal_node_id","ID","view_history","stimulus","key_press","value","agent","condition","image","correct_answer"
"5570.254999999999","{""Experimenter"":[""Confirmed subject's identity"",""Confirmed normal or corrected-to-normal vision"",""Obtained consent (signature and date)"",""Checked the test room lighting"",""Checked computer screen lighting"",""Checked distance from screen to chin rest (50cm)"",""Cleaned and adjusted chin rest"",""Counterbalanced the order of the tasks"",""Opened the experiment in Firefox"",""Made the experiment full screen"",""Encouraged subject to silence phone, put away distractors, etc.""]}","[0]","survey-multi-select","0","5583","0.0-0.0","0nfu026v","","","","","","","",""
"14221.899999999998","","","instructions","1","19807","0.0-1.0","0nfu026v","[{""page_index"":0,""viewing_time"":14221.34}]","","","","","","",""
"8118.435000000001","","","instructions","2","27927","0.0-2.0","0nfu026v","[{""page_index"":0,""viewing_time"":4779.560000000001},{""page_index"":1,""viewing_time"":819.7649999999994},{""page_index"":2,""viewing_time"":2518.9900000000016}]","","","","","","",""
"2187.665000000001","","","instructions","3","30116","0.0-3.0","0nfu026v","[{""page_index"":0,""viewing_time"":2187.5600000000013}]","","","","","","",""
"null","","","video-keyboard-response","4","33192","0.0-4.0","0nfu026v","","","null","","","","",""
"6727.3499999999985","","","instructions","5","39920","0.0-5.0","0nfu026v","[{""page_index"":0,""viewing_time"":3487.260000000002},{""page_index"":1,""viewing_time"":1920.989999999998},{""page_index"":2,""viewing_time"":1318.9850000000006}]","","","","","","",""
"1311.5199999999968","","","instructions","6","41232","0.0-6.0","0nfu026v","[{""page_index"":0,""viewing_time"":1311.4150000000009}]","","","","","","",""
"767.9249999999956","","","instructions","7","42001","0.0-7.0","0nfu026v","[{""page_index"":0,""viewing_time"":767.7149999999965}]","","","","","","",""
"null","","","video-keyboard-response","8","45075","0.0-8.0","0nfu026v","","","null","","","","",""
"3724.230000000003","","","instructions","9","48800","0.0-9.0","0nfu026v","[{""page_index"":0,""viewing_time"":733.6050000000032},{""page_index"":1,""viewing_time"":1080.5449999999983},{""page_index"":2,""viewing_time"":1909.9449999999997}]","","","","","","",""
"1684.1200000000026","","","instructions","10","50485","0.0-10.0","0nfu026v","[{""page_index"":0,""viewing_time"":1684}]","","","","","","",""
"","","","call-function","11","50486","0.0-11.0","0nfu026v","","","","","","","",""
"null","","","html-keyboard-response","12","51988","0.0-12.0","0nfu026v","","<span style=""color:Black; font-size:50px;"">Agent A","null","","","","",""
"null","","","video-keyboard-response","13","55059","0.0-13.0","0nfu026v","","","null","","Agent A","scrambled","STIM_SET_5/1160204.bmp_pp54_L2_V1.0_veridical_freeview_isoTrue_Hflip_fps144.mp4",""
"null","","","html-keyboard-response","14","56566","0.0-14.0","0nfu026v","","<span style=""color:Black; font-size:50px;"">Agent B","null","","","","",""
"null","","","video-keyboard-response","15","59636","0.0-15.0","0nfu026v","","","null","","Agent B","veridical","STIM_SET_2_144/1160204.bmp_pp54_L2_V1.0_veridical_freeview_isoTrue_fps144.mp4",""
"","","","call-function","16","59636","0.0-16.0","0nfu026v","","","","","","","",""
"3447.875","{""judgement"":1}","[0]","survey-likert","17","63085","0.0-17.0","0nfu026v","","","","","","","","1"
"1561.5049999999974","{""confidence"":1}","[0]","survey-likert","18","64648","0.0-18.0","0nfu026v","","","","","","","",""
"","","","call-function","19","64649","0.0-19.0","0nfu026v","","","","","","","",""
"null","","","html-keyboard-response","20","66152","0.0-20.0","0nfu026v","","<span style=""color:Black; font-size:50px;"">Agent A","null","","","","",""
"null","","","video-keyboard-response","21","69238","0.0-21.0","0nfu026v","","","null","","Agent A","scrambled","STIM_SET_5/713689.bmp_pp153_L3_V1.0_veridical_freeview_isoTrue_Hflip_fps144.mp4",""
"null","","","html-keyboard-response","22","70741","0.0-22.0","0nfu026v","","<span style=""color:Black; font-size:50px;"">Agent B","null","","","","",""
"null","","","video-keyboard-response","23","73822","0.0-23.0","0nfu026v","","","null","","Agent B","veridical","STIM_SET_2_144/713689.bmp_pp153_L3_V1.0_veridical_freeview_isoTrue_fps144.mp4",""
"","","","call-function","24","73823","0.0-24.0","0nfu026v","","","","","","","",""
"2172.3600000000006","{""judgement"":0}","[0]","survey-likert","25","75996","0.0-25.0","0nfu026v","","","","","","","","1"
"2209.7100000000064","{""confidence"":0}","[0]","survey-likert","26","78208","0.0-26.0","0nfu026v","","","","","","","",""
"","","","call-function","27","78208","0.0-27.0","0nfu026v","","","","","","","",""
"null","","","html-keyboard-response","28","79710","0.0-28.0","0nfu026v","","<span style=""color:Black; font-size:50px;"">Agent A","null","","","","",""
"null","","","video-keyboard-response","29","82787","0.0-29.0","0nfu026v","","","null","","Agent A","veridical","STIM_SET_2_144/1592150.bmp_pp77_L3_V1.0_veridical_freeview_isoTrue_fps144.mp4",""
"null","","","html-keyboard-response","30","84292","0.0-30.0","0nfu026v","","<span style=""color:Black; font-size:50px;"">Agent B","null","","","","",""
"null","","","video-keyboard-response","31","87365","0.0-31.0","0nfu026v","","","null","","Agent B","scrambled","STIM_SET_5/1592150.bmp_pp77_L3_V1.0_veridical_freeview_isoTrue_Hflip_fps144.mp4",""
"","","","call-function","32","87366","0.0-32.0","0nfu026v","","","","","","","",""
"3435.125","{""judgement"":1}","[0]","survey-likert","33","90802","0.0-33.0","0nfu026v","","","","","","","","0"
"2261.0399999999936","{""confidence"":0}","[0]","survey-likert","34","93065","0.0-34.0","0nfu026v","","","","","","","",""
"","","","call-function","35","93066","0.0-35.0","0nfu026v","","","","","","","",""
"null","","","html-keyboard-response","36","94568","0.0-36.0","0nfu026v","","<span style=""color:Black; font-size:50px;"">Agent A","null","","","","",""
"null","","","video-keyboard-response","37","97636","0.0-37.0","0nfu026v","","","null","","Agent A","veridical","STIM_SET_2_144/1592305.bmp_pp65_L3_V1.0_veridical_freeview_isoTrue_fps144.mp4",""
"null","","","html-keyboard-response","38","99141","0.0-38.0","0nfu026v","","<span style=""color:Black; font-size:50px;"">Agent B","null","","","","",""
"null","","","video-keyboard-response","39","102225","0.0-39.0","0nfu026v","","","null","","Agent B","scrambled","STIM_SET_5/1592305.bmp_pp65_L3_V1.0_veridical_freeview_isoTrue_Hflip_fps144.mp4",""
"","","","call-function","40","102226","0.0-40.0","0nfu026v","","","","","","","",""
"2947.6399999999994","{""judgement"":0}","[0]","survey-likert","41","105175","0.0-41.0","0nfu026v","","","","","","","","0"
"1639.2050000000017","{""confidence"":0}","[0]","survey-likert","42","106816","0.0-42.0","0nfu026v","","","","","","","",""
"","","","call-function","43","106817","0.0-43.0","0nfu026v","","","","","","","",""
"null","","","html-keyboard-response","44","108321","0.0-44.0","0nfu026v","","<span style=""color:Black; font-size:50px;"">Agent A","null","","","","",""
"null","","","video-keyboard-response","45","111389","0.0-45.0","0nfu026v","","","null","","Agent A","scrambled","STIM_SET_5/1592921.bmp_pp69_L3_V1.0_veridical_freeview_isoTrue_Hflip_fps144.mp4",""
"null","","","html-keyboard-response","46","112891","0.0-46.0","0nfu026v","","<span style=""color:Black; font-size:50px;"">Agent B","null","","","","",""
"null","","","video-keyboard-response","47","115959","0.0-47.0","0nfu026v","","","null","","Agent B","veridical","STIM_SET_2_144/1592921.bmp_pp69_L3_V1.0_veridical_freeview_isoTrue_fps144.mp4",""
"","","","call-function","48","115960","0.0-48.0","0nfu026v","","","","","","","",""
"1820.6600000000035","{""judgement"":0}","[0]","survey-likert","49","117782","0.0-49.0","0nfu026v","","","","","","","","1"
"924.0699999999924","{""confidence"":1}","[0]","survey-likert","50","118708","0.0-50.0","0nfu026v","","","","","","","",""
"","","","call-function","51","118709","0.0-51.0","0nfu026v","","","","","","","",""
"null","","","html-keyboard-response","52","120210","0.0-52.0","0nfu026v","","<span style=""color:Black; font-size:50px;"">Agent A","null","","","","",""
"null","","","video-keyboard-response","53","123279","0.0-53.0","0nfu026v","","","null","","Agent A","scrambled","STIM_SET_5/1592025.bmp_pp68_L1_V1.0_veridical_freeview_isoTrue_Hflip_fps144.mp4",""
"null","","","html-keyboard-response","54","124784","0.0-54.0","0nfu026v","","<span style=""color:Black; font-size:50px;"">Agent B","null","","","","",""
"null","","","video-keyboard-response","55","127871","0.0-55.0","0nfu026v","","","null","","Agent B","veridical","STIM_SET_2_144/1592025.bmp_pp68_L1_V1.0_veridical_freeview_isoTrue_fps144.mp4",""
"","","","call-function","56","127872","0.0-56.0","0nfu026v","","","","","","","",""
"3738.5949999999866","{""judgement"":1}","[0]","survey-likert","57","131611","0.0-57.0","0nfu026v","","","","","","","","1"
"1586.8699999999953","{""confidence"":1}","[0]","survey-likert","58","133200","0.0-58.0","0nfu026v","","","","","","","",""
"","","","call-function","59","133200","0.0-59.0","0nfu026v","","","","","","","",""
"null","","","html-keyboard-response","60","134703","0.0-60.0","0nfu026v","","<span style=""color:Black; font-size:50px;"">Agent A","null","","","","",""
"null","","","video-keyboard-response","61","137788","0.0-61.0","0nfu026v","","","null","","Agent A","scrambled","STIM_SET_5/713274.bmp_pp73_L3_V1.0_veridical_freeview_isoTrue_Hflip_fps144.mp4",""
"null","","","html-keyboard-response","62","139292","0.0-62.0","0nfu026v","","<span style=""color:Black; font-size:50px;"">Agent B","null","","","","",""
"null","","","video-keyboard-response","63","142376","0.0-63.0","0nfu026v","","","null","","Agent B","veridical","STIM_SET_2_144/713274.bmp_pp73_L3_V1.0_veridical_freeview_isoTrue_fps144.mp4",""
"","","","call-function","64","142377","0.0-64.0","0nfu026v","","","","","","","",""
"3483.235000000015","{""judgement"":0}","[0]","survey-likert","65","145861","0.0-65.0","0nfu026v","","","","","","","","1"
"922.9049999999988","{""confidence"":0}","[0]","survey-likert","66","146785","0.0-66.0","0nfu026v","","","","","","","",""
"","","","call-function","67","146786","0.0-67.0","0nfu026v","","","","","","","",""
"null","","","html-keyboard-response","68","148291","0.0-68.0","0nfu026v","","<span style=""color:Black; font-size:50px;"">Agent A","null","","","","",""
"null","","","video-keyboard-response","69","151374","0.0-69.0","0nfu026v","","","null","","Agent A","veridical","STIM_SET_2_144/498258.bmp_pp51_L1_V1.0_veridical_freeview_isoTrue_fps144.mp4",""
"null","","","html-keyboard-response","70","152879","0.0-70.0","0nfu026v","","<span style=""color:Black; font-size:50px;"">Agent B","null","","","","",""
"null","","","video-keyboard-response","71","155963","0.0-71.0","0nfu026v","","","null","","Agent B","scrambled","STIM_SET_5/498258.bmp_pp51_L1_V1.0_veridical_freeview_isoTrue_Hflip_fps144.mp4",""
"","","","call-function","72","155963","0.0-72.0","0nfu026v","","","","","","","",""
"1585.0249999999942","{""judgement"":1}","[0]","survey-likert","73","157549","0.0-73.0","0nfu026v","","","","","","","","0"
"1886.7300000000105","{""confidence"":1}","[0]","survey-likert","74","159437","0.0-74.0","0nfu026v","","","","","","","",""
"","","","call-function","75","159439","0.0-75.0","0nfu026v","","","","","","","",""
"null","","","html-keyboard-response","76","160944","0.0-76.0","0nfu026v","","<span style=""color:Black; font-size:50px;"">Agent A","null","","","","",""
"null","","","video-keyboard-response","77","164012","0.0-77.0","0nfu026v","","","null","","Agent A","veridical","STIM_SET_2_144/1159508.bmp_pp151_L1_V1.0_veridical_freeview_isoTrue_fps144.mp4",""
"null","","","html-keyboard-response","78","165520","0.0-78.0","0nfu026v","","<span style=""color:Black; font-size:50px;"">Agent B","null","","","","",""
"null","","","video-keyboard-response","79","168605","0.0-79.0","0nfu026v","","","null","","Agent B","scrambled","STIM_SET_5/1159508.bmp_pp151_L1_V1.0_veridical_freeview_isoTrue_Hflip_fps144.mp4",""
"","","","call-function","80","168606","0.0-80.0","0nfu026v","","","","","","","",""
"6719.234999999986","{""judgement"":0}","[0]","survey-likert","81","175326","0.0-81.0","0nfu026v","","","","","","","","0"
"2113.179999999993","{""confidence"":0}","[0]","survey-likert","82","177441","0.0-82.0","0nfu026v","","","","","","","",""
"","","","call-function","83","177443","0.0-83.0","0nfu026v","","","","","","","",""
"null","","","html-keyboard-response","84","178949","0.0-84.0","0nfu026v","","<span style=""color:Black; font-size:50px;"">Agent A","null","","","","",""
"null","","","video-keyboard-response","85","182012","0.0-85.0","0nfu026v","","","null","","Agent A","veridical","STIM_SET_2_144/107955.bmp_pp90_L2_V1.0_veridical_freeview_isoTrue_fps144.mp4",""
"null","","","html-keyboard-response","86","183518","0.0-86.0","0nfu026v","","<span style=""color:Black; font-size:50px;"">Agent B","null","","","","",""
"null","","","video-keyboard-response","87","186583","0.0-87.0","0nfu026v","","","null","","Agent B","scrambled","STIM_SET_5/107955.bmp_pp90_L2_V1.0_veridical_freeview_isoTrue_Hflip_fps144.mp4",""
"","","","call-function","88","186584","0.0-88.0","0nfu026v","","","","","","","",""
"2949.8099999999977","{""judgement"":1}","[0]","survey-likert","89","189534","0.0-89.0","0nfu026v","","","","","","","","0"
"1302.7599999999802","{""confidence"":0}","[0]","survey-likert","90","190838","0.0-90.0","0nfu026v","","","","","","","",""
"18915.079999999987","","","instructions","91","209754","0.0-91.0","0nfu026v","[{""page_index"":0,""viewing_time"":1530.1299999999756},{""page_index"":1,""viewing_time"":1039.015000000014},{""page_index"":2,""viewing_time"":16345.734999999986}]","","","","","","",""
"1881.070000000007","","","instructions","92","211636","0.0-92.0","0nfu026v","[{""page_index"":0,""viewing_time"":732.0599999999977},{""page_index"":1,""viewing_time"":650.429999999993},{""page_index"":2,""viewing_time"":498.4800000000105}]","","","","","","",""
"","","","call-function","93","211637","0.0-93.0","0nfu026v","","","","","","","",""
"null","","","html-keyboard-response","94","213139","0.0-94.0","0nfu026v","","<span style=""color:Black; font-size:50px;"">Agent A","null","","","","",""
"null","","","video-keyboard-response","95","216215","0.0-95.0","0nfu026v","","","null","","Agent A","veridical","STIM_SET_2_144/713790.bmp_pp100_L3_V1_veridical_freeview_isoTrue_fps144.mp4",""
"null","","","html-keyboard-response","96","217717","0.0-96.0","0nfu026v","","<span style=""color:Black; font-size:50px;"">Agent B","null","","","","",""
"null","","","video-keyboard-response","97","220813","0.0-97.0","0nfu026v","","","null","","Agent B","scrambled","STIM_SET_5/713790.bmp_pp100_L3_V1_veridical_freeview_isoTrue_Hflip_fps144.mp4",""
"","","","call-function","98","220814","0.0-98.0","0nfu026v","","","","","","","",""
"5188.994999999995","{""judgement"":0}","[0]","survey-likert","99","226004","0.0-99.0","0nfu026v","","","","","","","","0"
"979.359999999986","{""confidence"":0}","[0]","survey-likert","100","226984","0.0-100.0","0nfu026v","","","","","","","",""
"","","","call-function","101","226985","0.0-101.0","0nfu026v","","","","","","","",""
"null","","","html-keyboard-response","102","228489","0.0-102.0","0nfu026v","","<span style=""color:Black; font-size:50px;"">Agent A","null","","","","",""
"null","","","video-keyboard-response","103","231551","0.0-103.0","0nfu026v","","","null","","Agent A","scrambled","STIM_SET_5/285932.bmp_pp64_L1_V1.0_veridical_freeview_isoTrue_Hflip_fps144.mp4",""
"null","","","html-keyboard-response","104","233059","0.0-104.0","0nfu026v","","<span style=""color:Black; font-size:50px;"">Agent B","null","","","","",""
"null","","","video-keyboard-response","105","236135","0.0-105.0","0nfu026v","","","null","","Agent B","veridical","STIM_SET_2_144/285932.bmp_pp64_L1_V1.0_veridical_freeview_isoTrue_fps144.mp4",""
"","","","call-function","106","236136","0.0-106.0","0nfu026v","","","","","","","",""
"4182.195000000007","{""judgement"":0}","[0]","survey-likert","107","240320","0.0-107.0","0nfu026v","","","","","","","","1"
"1333.625","{""confidence"":0}","[0]","survey-likert","108","241656","0.0-108.0","0nfu026v","","","","","","","",""
"","","","call-function","109","241658","0.0-109.0","0nfu026v","","","","","","","",""
"null","","","html-keyboard-response","110","243162","0.0-110.0","0nfu026v","","<span style=""color:Black; font-size:50px;"">Agent A","null","","","","",""
"null","","","video-keyboard-response","111","246222","0.0-111.0","0nfu026v","","","null","","Agent A","scrambled","STIM_SET_5/713652.bmp_pp89_L1_V1_veridical_freeview_isoTrue_Hflip_fps144.mp4",""
"null","","","html-keyboard-response","112","247728","0.0-112.0","0nfu026v","","<span style=""color:Black; font-size:50px;"">Agent B","null","","","","",""
"null","","","video-keyboard-response","113","250800","0.0-113.0","0nfu026v","","","null","","Agent B","veridical","STIM_SET_2_144/713652.bmp_pp89_L1_V1_veridical_freeview_isoTrue_fps144.mp4",""
"","","","call-function","114","250801","0.0-114.0","0nfu026v","","","","","","","",""
"2324.665000000008","{""judgement"":0}","[0]","survey-likert","115","253127","0.0-115.0","0nfu026v","","","","","","","","1"
"1292.1149999999907","{""confidence"":1}","[0]","survey-likert","116","254421","0.0-116.0","0nfu026v","","","","","","","",""
"","","","call-function","117","254422","0.0-117.0","0nfu026v","","","","","","","",""
"null","","","html-keyboard-response","118","255925","0.0-118.0","0nfu026v","","<span style=""color:Black; font-size:50px;"">Agent A","null","","","","",""
"null","","","video-keyboard-response","119","258994","0.0-119.0","0nfu026v","","","null","","Agent A","veridical","STIM_SET_2_144/713920.bmp_pp76_L1_V1.0_veridical_freeview_isoTrue_fps144.mp4",""
"null","","","html-keyboard-response","120","260501","0.0-120.0","0nfu026v","","<span style=""color:Black; font-size:50px;"">Agent B","null","","","","",""
"null","","","video-keyboard-response","121","263570","0.0-121.0","0nfu026v","","","null","","Agent B","scrambled","STIM_SET_5/713920.bmp_pp76_L1_V1.0_veridical_freeview_isoTrue_Hflip_fps144.mp4",""
"","","","call-function","122","263571","0.0-122.0","0nfu026v","","","","","","","",""
"1515.3250000000116","{""judgement"":0}","[0]","survey-likert","123","265087","0.0-123.0","0nfu026v","","","","","","","","0"
"2389.8649999999907","{""confidence"":1}","[0]","survey-likert","124","267479","0.0-124.0","0nfu026v","","","","","","","",""
"","","","call-function","125","267480","0.0-125.0","0nfu026v","","","","","","","",""
"null","","","html-keyboard-response","126","268982","0.0-126.0","0nfu026v","","<span style=""color:Black; font-size:50px;"">Agent A","null","","","","",""
"null","","","video-keyboard-response","127","272070","0.0-127.0","0nfu026v","","","null","","Agent A","veridical","STIM_SET_2_144/1592038.bmp_pp79_L2_V1.0_veridical_freeview_isoTrue_fps144.mp4",""
"null","","","html-keyboard-response","128","273575","0.0-128.0","0nfu026v","","<span style=""color:Black; font-size:50px;"">Agent B","null","","","","",""
"null","","","video-keyboard-response","129","276666","0.0-129.0","0nfu026v","","","null","","Agent B","scrambled","STIM_SET_5/1592038.bmp_pp79_L2_V1.0_veridical_freeview_isoTrue_Hflip_fps144.mp4",""
"","","","call-function","130","276667","0.0-130.0","0nfu026v","","","","","","","",""
"3829.640000000014","{""judgement"":1}","[0]","survey-likert","131","280497","0.0-131.0","0nfu026v","","","","","","","","0"
"1042.7949999999837","{""confidence"":0}","[0]","survey-likert","132","281542","0.0-132.0","0nfu026v","","","","","","","",""
"","","","call-function","133","281543","0.0-133.0","0nfu026v","","","","","","","",""
"null","","","html-keyboard-response","134","283044","0.0-134.0","0nfu026v","","<span style=""color:Black; font-size:50px;"">Agent A","null","","","","",""
"null","","","video-keyboard-response","135","286121","0.0-135.0","0nfu026v","","","null","","Agent A","scrambled","STIM_SET_5/1160049.bmp_pp53_L2_V1.0_veridical_freeview_isoTrue_Hflip_fps144.mp4",""
"null","","","html-keyboard-response","136","287622","0.0-136.0","0nfu026v","","<span style=""color:Black; font-size:50px;"">Agent B","null","","","","",""
"null","","","video-keyboard-response","137","290699","0.0-137.0","0nfu026v","","","null","","Agent B","veridical","STIM_SET_2_144/1160049.bmp_pp53_L2_V1.0_veridical_freeview_isoTrue_fps144.mp4",""
"","","","call-function","138","290700","0.0-138.0","0nfu026v","","","","","","","",""
"2554.8300000000163","{""judgement"":1}","[0]","survey-likert","139","293255","0.0-139.0","0nfu026v","","","","","","","","1"
"1918.984999999986","{""confidence"":0}","[0]","survey-likert","140","295176","0.0-140.0","0nfu026v","","","","","","","",""
"","","","call-function","141","295177","0.0-141.0","0nfu026v","","","","","","","",""
"null","","","html-keyboard-response","142","296680","0.0-142.0","0nfu026v","","<span style=""color:Black; font-size:50px;"">Agent A","null","","","","",""
"null","","","video-keyboard-response","143","299754","0.0-143.0","0nfu026v","","","null","","Agent A","veridical","STIM_SET_2_144/285715.bmp_pp67_L2_V1.0_veridical_freeview_isoTrue_fps144.mp4",""
"null","","","html-keyboard-response","144","301257","0.0-144.0","0nfu026v","","<span style=""color:Black; font-size:50px;"">Agent B","null","","","","",""
"null","","","video-keyboard-response","145","304336","0.0-145.0","0nfu026v","","","null","","Agent B","scrambled","STIM_SET_5/285715.bmp_pp67_L2_V1.0_veridical_freeview_isoTrue_Hflip_fps144.mp4",""
"","","","call-function","146","304337","0.0-146.0","0nfu026v","","","","","","","",""
"2613.8400000000256","{""judgement"":0}","[0]","survey-likert","147","306952","0.0-147.0","0nfu026v","","","","","","","","0"
"5475.630000000005","{""confidence"":0}","[0]","survey-likert","148","312430","0.0-148.0","0nfu026v","","","","","","","",""
"","","","call-function","149","312431","0.0-149.0","0nfu026v","","","","","","","",""
"null","","","html-keyboard-response","150","313934","0.0-150.0","0nfu026v","","<span style=""color:Black; font-size:50px;"">Agent A","null","","","","",""
"null","","","video-keyboard-response","151","316998","0.0-151.0","0nfu026v","","","null","","Agent A","veridical","STIM_SET_2_144/1159860.bmp_pp152_L2_V1.0_veridical_freeview_isoTrue_fps144.mp4",""
"null","","","html-keyboard-response","152","318503","0.0-152.0","0nfu026v","","<span style=""color:Black; font-size:50px;"">Agent B","null","","","","",""
"null","","","video-keyboard-response","153","321566","0.0-153.0","0nfu026v","","","null","","Agent B","scrambled","STIM_SET_5/1159860.bmp_pp152_L2_V1.0_veridical_freeview_isoTrue_Hflip_fps144.mp4",""
"","","","call-function","154","321567","0.0-154.0","0nfu026v","","","","","","","",""
"1274.094999999972","{""judgement"":1}","[0]","survey-likert","155","322842","0.0-155.0","0nfu026v","","","","","","","","0"
"2439.3699999999953","{""confidence"":0}","[0]","survey-likert","156","325283","0.0-156.0","0nfu026v","","","","","","","",""
"","","","call-function","157","325284","0.0-157.0","0nfu026v","","","","","","","",""
"null","","","html-keyboard-response","158","326790","0.0-158.0","0nfu026v","","<span style=""color:Black; font-size:50px;"">Agent A","null","","","","",""
"null","","","video-keyboard-response","159","329866","0.0-159.0","0nfu026v","","","null","","Agent A","veridical","STIM_SET_2_144/713742.bmp_pp91_L3_V1.0_veridical_freeview_isoTrue_fps144.mp4",""
"null","","","html-keyboard-response","160","331371","0.0-160.0","0nfu026v","","<span style=""color:Black; font-size:50px;"">Agent B","null","","","","",""
"null","","","video-keyboard-response","161","334449","0.0-161.0","0nfu026v","","","null","","Agent B","scrambled","STIM_SET_5/713742.bmp_pp91_L3_V1.0_veridical_freeview_isoTrue_Hflip_fps144.mp4",""
"","","","call-function","162","334450","0.0-162.0","0nfu026v","","","","","","","",""
"1303.8499999999767","{""judgement"":1}","[0]","survey-likert","163","335755","0.0-163.0","0nfu026v","","","","","","","","0"
"1204.7000000000116","{""confidence"":0}","[0]","survey-likert","164","336961","0.0-164.0","0nfu026v","","","","","","","",""
"","","","call-function","165","336962","0.0-165.0","0nfu026v","","","","","","","",""
"null","","","html-keyboard-response","166","338463","0.0-166.0","0nfu026v","","<span style=""color:Black; font-size:50px;"">Agent A","null","","","","",""
"null","","","video-keyboard-response","167","341554","0.0-167.0","0nfu026v","","","null","","Agent A","veridical","STIM_SET_2_144/713633.bmp_pp58_L1_V1.0_veridical_freeview_isoTrue_fps144.mp4",""
"null","","","html-keyboard-response","168","343060","0.0-168.0","0nfu026v","","<span style=""color:Black; font-size:50px;"">Agent B","null","","","","",""
"null","","","video-keyboard-response","169","346155","0.0-169.0","0nfu026v","","","null","","Agent B","scrambled","STIM_SET_5/713633.bmp_pp58_L1_V1.0_veridical_freeview_isoTrue_Hflip_fps144.mp4",""
"","","","call-function","170","346156","0.0-170.0","0nfu026v","","","","","","","",""
"1998.8850000000093","{""judgement"":0}","[0]","survey-likert","171","348156","0.0-171.0","0nfu026v","","","","","","","","0"
"1063.4349999999977","{""confidence"":0}","[0]","survey-likert","172","349222","0.0-172.0","0nfu026v","","","","","","","",""
"4795.160000000033","","","instructions","173","354018","0.0-173.0","0nfu026v","[{""page_index"":0,""viewing_time"":865.8500000000349},{""page_index"":1,""viewing_time"":525.1049999999814},{""page_index"":2,""viewing_time"":3403.8950000000186}]","","","","","","",""
"1648.9899999999907","","","instructions","174","355668","0.0-174.0","0nfu026v","[{""page_index"":0,""viewing_time"":429.8649999999907},{""page_index"":1,""viewing_time"":592.9200000000419},{""page_index"":2,""viewing_time"":626.0949999999721}]","","","","","","",""
"","","","call-function","175","355668","0.0-175.0","0nfu026v","","","","","","","",""
"null","","","html-keyboard-response","176","357171","0.0-176.0","0nfu026v","","<span style=""color:Black; font-size:50px;"">Agent A","null","","","","",""
"null","","","video-keyboard-response","177","360261","0.0-177.0","0nfu026v","","","null","","Agent A","scrambled","STIM_SET_5/713381.bmp_pp82_L2_V1.0_veridical_freeview_isoTrue_Hflip_fps144.mp4",""
"null","","","html-keyboard-response","178","361767","0.0-178.0","0nfu026v","","<span style=""color:Black; font-size:50px;"">Agent B","null","","","","",""
"null","","","video-keyboard-response","179","364860","0.0-179.0","0nfu026v","","","null","","Agent B","veridical","STIM_SET_2_144/713381.bmp_pp82_L2_V1.0_veridical_freeview_isoTrue_fps144.mp4",""
"","","","call-function","180","364861","0.0-180.0","0nfu026v","","","","","","","",""
"2815.5349999999744","{""judgement"":1}","[0]","survey-likert","181","367677","0.0-181.0","0nfu026v","","","","","","","","1"
"1128.1699999999837","{""confidence"":1}","[0]","survey-likert","182","368807","0.0-182.0","0nfu026v","","","","","","","",""
"","","","call-function","183","368808","0.0-183.0","0nfu026v","","","","","","","",""
"null","","","html-keyboard-response","184","370310","0.0-184.0","0nfu026v","","<span style=""color:Black; font-size:50px;"">Agent A","null","","","","",""
"null","","","video-keyboard-response","185","373391","0.0-185.0","0nfu026v","","","null","","Agent A","scrambled","STIM_SET_5/498398.bmp_pp81_L1_V1.0_veridical_freeview_isoTrue_Hflip_fps144.mp4",""
"null","","","html-keyboard-response","186","374893","0.0-186.0","0nfu026v","","<span style=""color:Black; font-size:50px;"">Agent B","null","","","","",""
"null","","","video-keyboard-response","187","377974","0.0-187.0","0nfu026v","","","null","","Agent B","veridical","STIM_SET_2_144/498398.bmp_pp81_L1_V1.0_veridical_freeview_isoTrue_fps144.mp4",""
"","","","call-function","188","377975","0.0-188.0","0nfu026v","","","","","","","",""
"2066.1549999999697","{""judgement"":1}","[0]","survey-likert","189","380042","0.0-189.0","0nfu026v","","","","","","","","1"
"1254.1149999999907","{""confidence"":0}","[0]","survey-likert","190","381298","0.0-190.0","0nfu026v","","","","","","","",""
"","","","call-function","191","381299","0.0-191.0","0nfu026v","","","","","","","",""
"null","","","html-keyboard-response","192","382801","0.0-192.0","0nfu026v","","<span style=""color:Black; font-size:50px;"">Agent A","null","","","","",""
"null","","","video-keyboard-response","193","385864","0.0-193.0","0nfu026v","","","null","","Agent A","scrambled","STIM_SET_5/1592857.bmp_pp52_L1_V1_veridical_freeview_isoTrue_Hflip_fps144.mp4",""
"null","","","html-keyboard-response","194","387366","0.0-194.0","0nfu026v","","<span style=""color:Black; font-size:50px;"">Agent B","null","","","","",""
"null","","","video-keyboard-response","195","390430","0.0-195.0","0nfu026v","","","null","","Agent B","veridical","STIM_SET_2_144/1592857.bmp_pp52_L1_V1_veridical_freeview_isoTrue_fps144.mp4",""
"","","","call-function","196","390431","0.0-196.0","0nfu026v","","","","","","","",""
"1324.4749999999767","{""judgement"":1}","[0]","survey-likert","197","391757","0.0-197.0","0nfu026v","","","","","","","","1"
"997.8250000000116","{""confidence"":1}","[0]","survey-likert","198","392756","0.0-198.0","0nfu026v","","","","","","","",""
"","","","call-function","199","392757","0.0-199.0","0nfu026v","","","","","","","",""
"null","","","html-keyboard-response","200","394258","0.0-200.0","0nfu026v","","<span style=""color:Black; font-size:50px;"">Agent A","null","","","","",""
"null","","","video-keyboard-response","201","397319","0.0-201.0","0nfu026v","","","null","","Agent A","scrambled","STIM_SET_5/285684.bmp_pp80_L3_V1.0_veridical_freeview_isoTrue_Hflip_fps144.mp4",""
"null","","","html-keyboard-response","202","398821","0.0-202.0","0nfu026v","","<span style=""color:Black; font-size:50px;"">Agent B","null","","","","",""
"null","","","video-keyboard-response","203","401885","0.0-203.0","0nfu026v","","","null","","Agent B","veridical","STIM_SET_2_144/285684.bmp_pp80_L3_V1.0_veridical_freeview_isoTrue_fps144.mp4",""
"","","","call-function","204","401886","0.0-204.0","0nfu026v","","","","","","","",""
"1410.5750000000116","{""judgement"":0}","[0]","survey-likert","205","403298","0.0-205.0","0nfu026v","","","","","","","","1"
"843.2600000000093","{""confidence"":1}","[0]","survey-likert","206","404144","0.0-206.0","0nfu026v","","","","","","","",""
"","","","call-function","207","404145","0.0-207.0","0nfu026v","","","","","","","",""
"null","","","html-keyboard-response","208","405647","0.0-208.0","0nfu026v","","<span style=""color:Black; font-size:50px;"">Agent A","null","","","","",""
"null","","","video-keyboard-response","209","408719","0.0-209.0","0nfu026v","","","null","","Agent A","scrambled","STIM_SET_5/1592017.bmp_pp154_L1_V1.0_veridical_freeview_isoTrue_Hflip_fps144.mp4",""
"null","","","html-keyboard-response","210","410222","0.0-210.0","0nfu026v","","<span style=""color:Black; font-size:50px;"">Agent B","null","","","","",""
"null","","","video-keyboard-response","211","413289","0.0-211.0","0nfu026v","","","null","","Agent B","veridical","STIM_SET_2_144/1592017.bmp_pp154_L1_V1.0_veridical_freeview_isoTrue_fps144.mp4",""
"","","","call-function","212","413290","0.0-212.0","0nfu026v","","","","","","","",""
"2170.7050000000163","{""judgement"":1}","[0]","survey-likert","213","415462","0.0-213.0","0nfu026v","","","","","","","","1"
"2911.3549999999814","{""confidence"":0}","[0]","survey-likert","214","418375","0.0-214.0","0nfu026v","","","","","","","",""
"","","","call-function","215","418376","0.0-215.0","0nfu026v","","","","","","","",""
"null","","","html-keyboard-response","216","419881","0.0-216.0","0nfu026v","","<span style=""color:Black; font-size:50px;"">Agent A","null","","","","",""
"null","","","video-keyboard-response","217","422950","0.0-217.0","0nfu026v","","","null","","Agent A","veridical","STIM_SET_2_144/1592350.bmp_pp55_L3_V1.0_veridical_freeview_isoTrue_fps144.mp4",""
"null","","","html-keyboard-response","218","424454","0.0-218.0","0nfu026v","","<span style=""color:Black; font-size:50px;"">Agent B","null","","","","",""
"null","","","video-keyboard-response","219","427522","0.0-219.0","0nfu026v","","","null","","Agent B","scrambled","STIM_SET_5/1592350.bmp_pp55_L3_V1.0_veridical_freeview_isoTrue_Hflip_fps144.mp4",""
"","","","call-function","220","427523","0.0-220.0","0nfu026v","","","","","","","",""
"6253.909999999974","{""judgement"":1}","[0]","survey-likert","221","433778","0.0-221.0","0nfu026v","","","","","","","","0"
"2819.795000000042","{""confidence"":0}","[0]","survey-likert","222","436599","0.0-222.0","0nfu026v","","","","","","","",""
"","","","call-function","223","436600","0.0-223.0","0nfu026v","","","","","","","",""
"null","","","html-keyboard-response","224","438103","0.0-224.0","0nfu026v","","<span style=""color:Black; font-size:50px;"">Agent A","null","","","","",""
"null","","","video-keyboard-response","225","441186","0.0-225.0","0nfu026v","","","null","","Agent A","scrambled","STIM_SET_5/1592289.bmp_pp92_L3_V1.0_veridical_freeview_isoTrue_Hflip_fps144.mp4",""
"null","","","html-keyboard-response","226","442687","0.0-226.0","0nfu026v","","<span style=""color:Black; font-size:50px;"">Agent B","null","","","","",""
"null","","","video-keyboard-response","227","445771","0.0-227.0","0nfu026v","","","null","","Agent B","veridical","STIM_SET_2_144/1592289.bmp_pp92_L3_V1.0_veridical_freeview_isoTrue_fps144.mp4",""
"","","","call-function","228","445771","0.0-228.0","0nfu026v","","","","","","","",""
"6258.865000000049","{""judgement"":0}","[0]","survey-likert","229","452031","0.0-229.0","0nfu026v","","","","","","","","1"
"1320.414999999979","{""confidence"":0}","[0]","survey-likert","230","453354","0.0-230.0","0nfu026v","","","","","","","",""
"","","","call-function","231","453355","0.0-231.0","0nfu026v","","","","","","","",""
"null","","","html-keyboard-response","232","454856","0.0-232.0","0nfu026v","","<span style=""color:Black; font-size:50px;"">Agent A","null","","","","",""
"null","","","video-keyboard-response","233","457935","0.0-233.0","0nfu026v","","","null","","Agent A","scrambled","STIM_SET_5/1592314.bmp_pp100_L3_V1.0_veridical_freeview_isoTrue_Hflip_fps144.mp4",""
"null","","","html-keyboard-response","234","459441","0.0-234.0","0nfu026v","","<span style=""color:Black; font-size:50px;"">Agent B","null","","","","",""
"null","","","video-keyboard-response","235","462516","0.0-235.0","0nfu026v","","","null","","Agent B","veridical","STIM_SET_2_144/1592314.bmp_pp100_L3_V1.0_veridical_freeview_isoTrue_fps144.mp4",""
"","","","call-function","236","462517","0.0-236.0","0nfu026v","","","","","","","",""
"1513.600000000035","{""judgement"":0}","[0]","survey-likert","237","464031","0.0-237.0","0nfu026v","","","","","","","","1"
"914.4400000000023","{""confidence"":2}","[0]","survey-likert","238","464947","0.0-238.0","0nfu026v","","","","","","","",""
"","","","call-function","239","464948","0.0-239.0","0nfu026v","","","","","","","",""
"null","","","html-keyboard-response","240","466449","0.0-240.0","0nfu026v","","<span style=""color:Black; font-size:50px;"">Agent A","null","","","","",""
"null","","","video-keyboard-response","241","469535","0.0-241.0","0nfu026v","","","null","","Agent A","veridical","STIM_SET_2_144/1159819.bmp_pp151_L1_V1.0_veridical_freeview_isoTrue_fps144.mp4",""
"null","","","html-keyboard-response","242","471039","0.0-242.0","0nfu026v","","<span style=""color:Black; font-size:50px;"">Agent B","null","","","","",""
"null","","","video-keyboard-response","243","474107","0.0-243.0","0nfu026v","","","null","","Agent B","scrambled","STIM_SET_5/1159819.bmp_pp151_L1_V1.0_veridical_freeview_isoTrue_Hflip_fps144.mp4",""
"","","","call-function","244","474108","0.0-244.0","0nfu026v","","","","","","","",""
"2051.8549999999814","{""judgement"":1}","[0]","survey-likert","245","476161","0.0-245.0","0nfu026v","","","","","","","","0"
"3515.6050000000396","{""confidence"":1}","[0]","survey-likert","246","479679","0.0-246.0","0nfu026v","","","","","","","",""
"","","","call-function","247","479680","0.0-247.0","0nfu026v","","","","","","","",""
"null","","","html-keyboard-response","248","481185","0.0-248.0","0nfu026v","","<span style=""color:Black; font-size:50px;"">Agent A","null","","","","",""
"null","","","video-keyboard-response","249","484246","0.0-249.0","0nfu026v","","","null","","Agent A","scrambled","STIM_SET_5/1592951.bmp_pp80_L3_V1.0_veridical_freeview_isoTrue_Hflip_fps144.mp4",""
"null","","","html-keyboard-response","250","485749","0.0-250.0","0nfu026v","","<span style=""color:Black; font-size:50px;"">Agent B","null","","","","",""
"null","","","video-keyboard-response","251","488811","0.0-251.0","0nfu026v","","","null","","Agent B","veridical","STIM_SET_2_144/1592951.bmp_pp80_L3_V1.0_veridical_freeview_isoTrue_fps144.mp4",""
"","","","call-function","252","488812","0.0-252.0","0nfu026v","","","","","","","",""
"1353.5250000000233","{""judgement"":1}","[0]","survey-likert","253","490166","0.0-253.0","0nfu026v","","","","","","","","1"
"2625.7550000000047","{""confidence"":2}","[0]","survey-likert","254","492794","0.0-254.0","0nfu026v","","","","","","","",""
"20026.650000000023","","","instructions","255","512821","0.0-255.0","0nfu026v","[{""page_index"":0,""viewing_time"":3711.7999999999884},{""page_index"":1,""viewing_time"":15835.97000000003},{""page_index"":2,""viewing_time"":478.6350000000093}]","","","","","","",""
"2125.6300000000047","","","instructions","256","514948","0.0-256.0","0nfu026v","[{""page_index"":0,""viewing_time"":1028.204999999958},{""page_index"":1,""viewing_time"":663.710000000021},{""page_index"":2,""viewing_time"":433.57500000001164}]","","","","","","",""
"","","","call-function","257","514948","0.0-257.0","0nfu026v","","","","","","","",""
"null","","","html-keyboard-response","258","516450","0.0-258.0","0nfu026v","","<span style=""color:Black; font-size:50px;"">Agent A","null","","","","",""
"null","","","video-keyboard-response","259","519522","0.0-259.0","0nfu026v","","","null","","Agent A","scrambled","STIM_SET_5/1592201.bmp_pp97_L3_V1.0_veridical_freeview_isoTrue_Hflip_fps144.mp4",""
"null","","","html-keyboard-response","260","521026","0.0-260.0","0nfu026v","","<span style=""color:Black; font-size:50px;"">Agent B","null","","","","",""
"null","","","video-keyboard-response","261","524113","0.0-261.0","0nfu026v","","","null","","Agent B","veridical","STIM_SET_2_144/1592201.bmp_pp97_L3_V1.0_veridical_freeview_isoTrue_fps144.mp4",""
"","","","call-function","262","524114","0.0-262.0","0nfu026v","","","","","","","",""
"1525.7600000000093","{""judgement"":1}","[0]","survey-likert","263","525640","0.0-263.0","0nfu026v","","","","","","","","1"
"1905.579999999958","{""confidence"":0}","[0]","survey-likert","264","527547","0.0-264.0","0nfu026v","","","","","","","",""
"","","","call-function","265","527548","0.0-265.0","0nfu026v","","","","","","","",""
"null","","","html-keyboard-response","266","529050","0.0-266.0","0nfu026v","","<span style=""color:Black; font-size:50px;"">Agent A","null","","","","",""
"null","","","video-keyboard-response","267","532125","0.0-267.0","0nfu026v","","","null","","Agent A","veridical","STIM_SET_2_144/1159325.bmp_pp67_L2_V1.0_veridical_freeview_isoTrue_fps144.mp4",""
"null","","","html-keyboard-response","268","533631","0.0-268.0","0nfu026v","","<span style=""color:Black; font-size:50px;"">Agent B","null","","","","",""
"null","","","video-keyboard-response","269","536709","0.0-269.0","0nfu026v","","","null","","Agent B","scrambled","STIM_SET_5/1159325.bmp_pp67_L2_V1.0_veridical_freeview_isoTrue_Hflip_fps144.mp4",""
"","","","call-function","270","536710","0.0-270.0","0nfu026v","","","","","","","",""
"1503.1899999999441","{""judgement"":0}","[0]","survey-likert","271","538214","0.0-271.0","0nfu026v","","","","","","","","0"
"2197.5899999999674","{""confidence"":0}","[0]","survey-likert","272","540414","0.0-272.0","0nfu026v","","","","","","","",""
"","","","call-function","273","540414","0.0-273.0","0nfu026v","","","","","","","",""
"null","","","html-keyboard-response","274","541916","0.0-274.0","0nfu026v","","<span style=""color:Black; font-size:50px;"">Agent A","null","","","","",""
"null","","","video-keyboard-response","275","544977","0.0-275.0","0nfu026v","","","null","","Agent A","scrambled","STIM_SET_5/713328.bmp_pp86_L2_V1.0_veridical_freeview_isoTrue_Hflip_fps144.mp4",""
"null","","","html-keyboard-response","276","546479","0.0-276.0","0nfu026v","","<span style=""color:Black; font-size:50px;"">Agent B","null","","","","",""
"null","","","video-keyboard-response","277","549542","0.0-277.0","0nfu026v","","","null","","Agent B","veridical","STIM_SET_2_144/713328.bmp_pp86_L2_V1.0_veridical_freeview_isoTrue_fps144.mp4",""
"","","","call-function","278","549543","0.0-278.0","0nfu026v","","","","","","","",""
"1980.859999999986","{""judgement"":0}","[0]","survey-likert","279","551525","0.0-279.0","0nfu026v","","","","","","","","1"
"1133.859999999986","{""confidence"":0}","[0]","survey-likert","280","552660","0.0-280.0","0nfu026v","","","","","","","",""
"","","","call-function","281","552661","0.0-281.0","0nfu026v","","","","","","","",""
"null","","","html-keyboard-response","282","554166","0.0-282.0","0nfu026v","","<span style=""color:Black; font-size:50px;"">Agent A","null","","","","",""
"null","","","video-keyboard-response","283","557235","0.0-283.0","0nfu026v","","","null","","Agent A","veridical","STIM_SET_2_144/150463.bmp_pp55_L3_V1.0_veridical_freeview_isoTrue_fps144.mp4",""
"null","","","html-keyboard-response","284","558740","0.0-284.0","0nfu026v","","<span style=""color:Black; font-size:50px;"">Agent B","null","","","","",""
"null","","","video-keyboard-response","285","561824","0.0-285.0","0nfu026v","","","null","","Agent B","scrambled","STIM_SET_5/150463.bmp_pp55_L3_V1.0_veridical_freeview_isoTrue_Hflip_fps144.mp4",""
"","","","call-function","286","561825","0.0-286.0","0nfu026v","","","","","","","",""
"6114.064999999944","{""judgement"":0}","[0]","survey-likert","287","567940","0.0-287.0","0nfu026v","","","","","","","","0"
"1211.8850000000093","{""confidence"":0}","[0]","survey-likert","288","569154","0.0-288.0","0nfu026v","","","","","","","",""
"","","","call-function","289","569156","0.0-289.0","0nfu026v","","","","","","","",""
"null","","","html-keyboard-response","290","570659","0.0-290.0","0nfu026v","","<span style=""color:Black; font-size:50px;"">Agent A","null","","","","",""
"null","","","video-keyboard-response","291","573756","0.0-291.0","0nfu026v","","","null","","Agent A","veridical","STIM_SET_2_144/498025.bmp_pp81_L1_V1.0_veridical_freeview_isoTrue_fps144.mp4",""
"null","","","html-keyboard-response","292","575264","0.0-292.0","0nfu026v","","<span style=""color:Black; font-size:50px;"">Agent B","null","","","","",""
"null","","","video-keyboard-response","293","578348","0.0-293.0","0nfu026v","","","null","","Agent B","scrambled","STIM_SET_5/498025.bmp_pp81_L1_V1.0_veridical_freeview_isoTrue_Hflip_fps144.mp4",""
"","","","call-function","294","578350","0.0-294.0","0nfu026v","","","","","","","",""
"3542.344999999972","{""judgement"":1}","[0]","survey-likert","295","581894","0.0-295.0","0nfu026v","","","","","","","","0"
"945.4650000000838","{""confidence"":1}","[0]","survey-likert","296","582841","0.0-296.0","0nfu026v","","","","","","","",""
"","","","call-function","297","582842","0.0-297.0","0nfu026v","","","","","","","",""
"null","","","html-keyboard-response","298","584344","0.0-298.0","0nfu026v","","<span style=""color:Black; font-size:50px;"">Agent A","null","","","","",""
"null","","","video-keyboard-response","299","587408","0.0-299.0","0nfu026v","","","null","","Agent A","scrambled","STIM_SET_5/1592129.bmp_pp153_L3_V1.0_veridical_freeview_isoTrue_Hflip_fps144.mp4",""
"null","","","html-keyboard-response","300","588911","0.0-300.0","0nfu026v","","<span style=""color:Black; font-size:50px;"">Agent B","null","","","","",""
"null","","","video-keyboard-response","301","591975","0.0-301.0","0nfu026v","","","null","","Agent B","veridical","STIM_SET_2_144/1592129.bmp_pp153_L3_V1.0_veridical_freeview_isoTrue_fps144.mp4",""
"","","","call-function","302","591976","0.0-302.0","0nfu026v","","","","","","","",""
"1199.5999999999767","{""judgement"":0}","[0]","survey-likert","303","593177","0.0-303.0","0nfu026v","","","","","","","","1"
"1008.5800000000745","{""confidence"":0}","[0]","survey-likert","304","594187","0.0-304.0","0nfu026v","","","","","","","",""
"","","","call-function","305","594188","0.0-305.0","0nfu026v","","","","","","","",""
"null","","","html-keyboard-response","306","595693","0.0-306.0","0nfu026v","","<span style=""color:Black; font-size:50px;"">Agent A","null","","","","",""
"null","","","video-keyboard-response","307","598764","0.0-307.0","0nfu026v","","","null","","Agent A","veridical","STIM_SET_2_144/61513.bmp_pp75_L1_V1.0_veridical_freeview_isoTrue_fps144.mp4",""
"null","","","html-keyboard-response","308","600269","0.0-308.0","0nfu026v","","<span style=""color:Black; font-size:50px;"">Agent B","null","","","","",""
"null","","","video-keyboard-response","309","603352","0.0-309.0","0nfu026v","","","null","","Agent B","scrambled","STIM_SET_5/61513.bmp_pp75_L1_V1.0_veridical_freeview_isoTrue_Hflip_fps144.mp4",""
"","","","call-function","310","603353","0.0-310.0","0nfu026v","","","","","","","",""
"5134.219999999972","{""judgement"":0}","[0]","survey-likert","311","608488","0.0-311.0","0nfu026v","","","","","","","","0"
"2101.0299999999115","{""confidence"":0}","[0]","survey-likert","312","610590","0.0-312.0","0nfu026v","","","","","","","",""
"","","","call-function","313","610591","0.0-313.0","0nfu026v","","","","","","","",""
"null","","","html-keyboard-response","314","612093","0.0-314.0","0nfu026v","","<span style=""color:Black; font-size:50px;"">Agent A","null","","","","",""
"null","","","video-keyboard-response","315","615184","0.0-315.0","0nfu026v","","","null","","Agent A","veridical","STIM_SET_2_144/1159874.bmp_pp96_L2_V1.0_veridical_freeview_isoTrue_fps144.mp4",""
"null","","","html-keyboard-response","316","616688","0.0-316.0","0nfu026v","","<span style=""color:Black; font-size:50px;"">Agent B","null","","","","",""
"null","","","video-keyboard-response","317","619779","0.0-317.0","0nfu026v","","","null","","Agent B","scrambled","STIM_SET_5/1159874.bmp_pp96_L2_V1.0_veridical_freeview_isoTrue_Hflip_fps144.mp4",""
"","","","call-function","318","619780","0.0-318.0","0nfu026v","","","","","","","",""
"1651.375","{""judgement"":1}","[0]","survey-likert","319","621432","0.0-319.0","0nfu026v","","","","","","","","0"
"3772.045000000042","{""confidence"":0}","[0]","survey-likert","320","625206","0.0-320.0","0nfu026v","","","","","","","",""
"","","","call-function","321","625207","0.0-321.0","0nfu026v","","","","","","","",""
"null","","","html-keyboard-response","322","626712","0.0-322.0","0nfu026v","","<span style=""color:Black; font-size:50px;"">Agent A","null","","","","",""
"null","","","video-keyboard-response","323","629791","0.0-323.0","0nfu026v","","","null","","Agent A","scrambled","STIM_SET_5/1592047.bmp_pp51_L1_V1.0_veridical_freeview_isoTrue_Hflip_fps144.mp4",""
"null","","","html-keyboard-response","324","631293","0.0-324.0","0nfu026v","","<span style=""color:Black; font-size:50px;"">Agent B","null","","","","",""
"null","","","video-keyboard-response","325","634366","0.0-325.0","0nfu026v","","","null","","Agent B","veridical","STIM_SET_2_144/1592047.bmp_pp51_L1_V1.0_veridical_freeview_isoTrue_fps144.mp4",""
"","","","call-function","326","634367","0.0-326.0","0nfu026v","","","","","","","",""
"1650.4449999999488","{""judgement"":0}","[0]","survey-likert","327","636019","0.0-327.0","0nfu026v","","","","","","","","1"
"1854.4449999999488","{""confidence"":0}","[0]","survey-likert","328","637874","0.0-328.0","0nfu026v","","","","","","","",""
"","","","call-function","329","637875","0.0-329.0","0nfu026v","","","","","","","",""
"null","","","html-keyboard-response","330","639376","0.0-330.0","0nfu026v","","<span style=""color:Black; font-size:50px;"">Agent A","null","","","","",""
"null","","","video-keyboard-response","331","642447","0.0-331.0","0nfu026v","","","null","","Agent A","veridical","STIM_SET_2_144/1159956.bmp_pp59_L3_V1.0_veridical_freeview_isoTrue_fps144.mp4",""
"null","","","html-keyboard-response","332","643950","0.0-332.0","0nfu026v","","<span style=""color:Black; font-size:50px;"">Agent B","null","","","","",""
"null","","","video-keyboard-response","333","647036","0.0-333.0","0nfu026v","","","null","","Agent B","scrambled","STIM_SET_5/1159956.bmp_pp59_L3_V1.0_veridical_freeview_isoTrue_Hflip_fps144.mp4",""
"","","","call-function","334","647037","0.0-334.0","0nfu026v","","","","","","","",""
"2104.79999999993","{""judgement"":0}","[0]","survey-likert","335","649143","0.0-335.0","0nfu026v","","","","","","","","0"
"1072.2899999999208","{""confidence"":1}","[0]","survey-likert","336","650217","0.0-336.0","0nfu026v","","","","","","","",""
"3116.234999999986","","","instructions","337","653334","0.0-337.0","0nfu026v","[{""page_index"":0,""viewing_time"":2318.7449999999953},{""page_index"":1,""viewing_time"":404.9749999999767},{""page_index"":2,""viewing_time"":392.22500000009313}]","","","","","","",""
"1566.6100000001024","","","instructions","338","654901","0.0-338.0","0nfu026v","[{""page_index"":0,""viewing_time"":363.38000000000466},{""page_index"":1,""viewing_time"":780.3150000000605},{""page_index"":2,""viewing_time"":422.80999999993946}]","","","","","","",""
"","","","call-function","339","654902","0.0-339.0","0nfu026v","","","","","","","",""
"null","","","html-keyboard-response","340","656405","0.0-340.0","0nfu026v","","<span style=""color:Black; font-size:50px;"">Agent A","null","","","","",""
"null","","","video-keyboard-response","341","659480","0.0-341.0","0nfu026v","","","null","","Agent A","veridical","STIM_SET_2_144/1591781.bmp_pp63_L1_V1.0_veridical_freeview_isoTrue_fps144.mp4",""
"null","","","html-keyboard-response","342","660983","0.0-342.0","0nfu026v","","<span style=""color:Black; font-size:50px;"">Agent B","null","","","","",""
"null","","","video-keyboard-response","343","664059","0.0-343.0","0nfu026v","","","null","","Agent B","scrambled","STIM_SET_5/1591781.bmp_pp63_L1_V1.0_veridical_freeview_isoTrue_Hflip_fps144.mp4",""
"","","","call-function","344","664060","0.0-344.0","0nfu026v","","","","","","","",""
"5149.770000000019","{""judgement"":0}","[0]","survey-likert","345","669210","0.0-345.0","0nfu026v","","","","","","","","0"
"1659.344999999972","{""confidence"":0}","[0]","survey-likert","346","670871","0.0-346.0","0nfu026v","","","","","","","",""
"","","","call-function","347","670873","0.0-347.0","0nfu026v","","","","","","","",""
"null","","","html-keyboard-response","348","672377","0.0-348.0","0nfu026v","","<span style=""color:Black; font-size:50px;"">Agent A","null","","","","",""
"null","","","video-keyboard-response","349","675443","0.0-349.0","0nfu026v","","","null","","Agent A","veridical","STIM_SET_2_144/1159427.bmp_pp98_L1_V1.0_veridical_freeview_isoTrue_fps144.mp4",""
"null","","","html-keyboard-response","350","676949","0.0-350.0","0nfu026v","","<span style=""color:Black; font-size:50px;"">Agent B","null","","","","",""
"null","","","video-keyboard-response","351","680015","0.0-351.0","0nfu026v","","","null","","Agent B","scrambled","STIM_SET_5/1159427.bmp_pp98_L1_V1.0_veridical_freeview_isoTrue_Hflip_fps144.mp4",""
"","","","call-function","352","680016","0.0-352.0","0nfu026v","","","","","","","",""
"4688.685000000056","{""judgement"":0}","[0]","survey-likert","353","684707","0.0-353.0","0nfu026v","","","","","","","","0"
"1546.875","{""confidence"":0}","[0]","survey-likert","354","686255","0.0-354.0","0nfu026v","","","","","","","",""
"","","","call-function","355","686256","0.0-355.0","0nfu026v","","","","","","","",""
"null","","","html-keyboard-response","356","687758","0.0-356.0","0nfu026v","","<span style=""color:Black; font-size:50px;"">Agent A","null","","","","",""
"null","","","video-keyboard-response","357","690823","0.0-357.0","0nfu026v","","","null","","Agent A","veridical","STIM_SET_2_144/1591975.bmp_pp88_L2_V1.0_veridical_freeview_isoTrue_fps144.mp4",""
"null","","","html-keyboard-response","358","692327","0.0-358.0","0nfu026v","","<span style=""color:Black; font-size:50px;"">Agent B","null","","","","",""
"null","","","video-keyboard-response","359","695390","0.0-359.0","0nfu026v","","","null","","Agent B","scrambled","STIM_SET_5/1591975.bmp_pp88_L2_V1.0_veridical_freeview_isoTrue_Hflip_fps144.mp4",""
"","","","call-function","360","695391","0.0-360.0","0nfu026v","","","","","","","",""
"3087.710000000079","{""judgement"":1}","[0]","survey-likert","361","698479","0.0-361.0","0nfu026v","","","","","","","","0"
"1351.5399999999208","{""confidence"":0}","[0]","survey-likert","362","699833","0.0-362.0","0nfu026v","","","","","","","",""
"","","","call-function","363","699834","0.0-363.0","0nfu026v","","","","","","","",""
"null","","","html-keyboard-response","364","701336","0.0-364.0","0nfu026v","","<span style=""color:Black; font-size:50px;"">Agent A","null","","","","",""
"null","","","video-keyboard-response","365","704402","0.0-365.0","0nfu026v","","","null","","Agent A","veridical","STIM_SET_2_144/1592044.bmp_pp94_L2_V1.0_veridical_freeview_isoTrue_fps144.mp4",""
"null","","","html-keyboard-response","366","705908","0.0-366.0","0nfu026v","","<span style=""color:Black; font-size:50px;"">Agent B","null","","","","",""
"null","","","video-keyboard-response","367","708986","0.0-367.0","0nfu026v","","","null","","Agent B","scrambled","STIM_SET_5/1592044.bmp_pp94_L2_V1.0_veridical_freeview_isoTrue_Hflip_fps144.mp4",""
"","","","call-function","368","708987","0.0-368.0","0nfu026v","","","","","","","",""
"2725.460000000079","{""judgement"":1}","[0]","survey-likert","369","711714","0.0-369.0","0nfu026v","","","","","","","","0"
"3186.7600000000093","{""confidence"":0}","[0]","survey-likert","370","714902","0.0-370.0","0nfu026v","","","","","","","",""
"","","","call-function","371","714903","0.0-371.0","0nfu026v","","","","","","","",""
"null","","","html-keyboard-response","372","716403","0.0-372.0","0nfu026v","","<span style=""color:Black; font-size:50px;"">Agent A","null","","","","",""
"null","","","video-keyboard-response","373","719489","0.0-373.0","0nfu026v","","","null","","Agent A","scrambled","STIM_SET_5/1592530.bmp_pp75_L1_V1.0_veridical_freeview_isoTrue_Hflip_fps144.mp4",""
"null","","","html-keyboard-response","374","720992","0.0-374.0","0nfu026v","","<span style=""color:Black; font-size:50px;"">Agent B","null","","","","",""
"null","","","video-keyboard-response","375","724081","0.0-375.0","0nfu026v","","","null","","Agent B","veridical","STIM_SET_2_144/1592530.bmp_pp75_L1_V1.0_veridical_freeview_isoTrue_fps144.mp4",""
"","","","call-function","376","724082","0.0-376.0","0nfu026v","","","","","","","",""
"3906.9599999999627","{""judgement"":0}","[0]","survey-likert","377","727989","0.0-377.0","0nfu026v","","","","","","","","1"
"2686.789999999921","{""confidence"":0}","[0]","survey-likert","378","730678","0.0-378.0","0nfu026v","","","","","","","",""
"","","","call-function","379","730679","0.0-379.0","0nfu026v","","","","","","","",""
"null","","","html-keyboard-response","380","732182","0.0-380.0","0nfu026v","","<span style=""color:Black; font-size:50px;"">Agent A","null","","","","",""
"null","","","video-keyboard-response","381","735258","0.0-381.0","0nfu026v","","","null","","Agent A","veridical","STIM_SET_2_144/1592567.bmp_pp70_L2_V1.0_veridical_freeview_isoTrue_fps144.mp4",""
"null","","","html-keyboard-response","382","736762","0.0-382.0","0nfu026v","","<span style=""color:Black; font-size:50px;"">Agent B","null","","","","",""
"null","","","video-keyboard-response","383","739838","0.0-383.0","0nfu026v","","","null","","Agent B","scrambled","STIM_SET_5/1592567.bmp_pp70_L2_V1.0_veridical_freeview_isoTrue_Hflip_fps144.mp4",""
"","","","call-function","384","739838","0.0-384.0","0nfu026v","","","","","","","",""
"41222.95000000007","{""judgement"":1}","[0]","survey-likert","385","781062","0.0-385.0","0nfu026v","","","","","","","","0"
"1336.2150000000838","{""confidence"":0}","[0]","survey-likert","386","782400","0.0-386.0","0nfu026v","","","","","","","",""
"","","","call-function","387","782401","0.0-387.0","0nfu026v","","","","","","","",""
"null","","","html-keyboard-response","388","783902","0.0-388.0","0nfu026v","","<span style=""color:Black; font-size:50px;"">Agent A","null","","","","",""
"null","","","video-keyboard-response","389","786970","0.0-389.0","0nfu026v","","","null","","Agent A","veridical","STIM_SET_2_144/713788.bmp_pp52_L1_V1.0_veridical_freeview_isoTrue_fps144.mp4",""
"null","","","html-keyboard-response","390","788473","0.0-390.0","0nfu026v","","<span style=""color:Black; font-size:50px;"">Agent B","null","","","","",""
"null","","","video-keyboard-response","391","791542","0.0-391.0","0nfu026v","","","null","","Agent B","scrambled","STIM_SET_5/713788.bmp_pp52_L1_V1.0_veridical_freeview_isoTrue_Hflip_fps144.mp4",""
"","","","call-function","392","791544","0.0-392.0","0nfu026v","","","","","","","",""
"44640.814999999944","{""judgement"":1}","[0]","survey-likert","393","836186","0.0-393.0","0nfu026v","","","","","","","","0"
"1342","{""confidence"":0}","[0]","survey-likert","394","837530","0.0-394.0","0nfu026v","","","","","","","",""
"","","","call-function","395","837531","0.0-395.0","0nfu026v","","","","","","","",""
"null","","","html-keyboard-response","396","839033","0.0-396.0","0nfu026v","","<span style=""color:Black; font-size:50px;"">Agent A","null","","","","",""
"null","","","video-keyboard-response","397","842114","0.0-397.0","0nfu026v","","","null","","Agent A","veridical","STIM_SET_2_144/1160247.bmp_pp54_L2_V1.0_veridical_freeview_isoTrue_fps144.mp4",""
"null","","","html-keyboard-response","398","843618","0.0-398.0","0nfu026v","","<span style=""color:Black; font-size:50px;"">Agent B","null","","","","",""
"null","","","video-keyboard-response","399","846693","0.0-399.0","0nfu026v","","","null","","Agent B","scrambled","STIM_SET_5/1160247.bmp_pp54_L2_V1.0_veridical_freeview_isoTrue_Hflip_fps144.mp4",""
"","","","call-function","400","846694","0.0-400.0","0nfu026v","","","","","","","",""
"2001.6399999998976","{""judgement"":1}","[0]","survey-likert","401","848697","0.0-401.0","0nfu026v","","","","","","","","0"
"1556.3249999999534","{""confidence"":1}","[0]","survey-likert","402","850255","0.0-402.0","0nfu026v","","","","","","","",""
"","","","call-function","403","850256","0.0-403.0","0nfu026v","","","","","","","",""
"null","","","html-keyboard-response","404","851758","0.0-404.0","0nfu026v","","<span style=""color:Black; font-size:50px;"">Agent A","null","","","","",""
"null","","","video-keyboard-response","405","854836","0.0-405.0","0nfu026v","","","null","","Agent A","veridical","STIM_SET_2_144/1159592.bmp_pp91_L3_V1.0_veridical_freeview_isoTrue_fps144.mp4",""
"null","","","html-keyboard-response","406","856339","0.0-406.0","0nfu026v","","<span style=""color:Black; font-size:50px;"">Agent B","null","","","","",""
"null","","","video-keyboard-response","407","859416","0.0-407.0","0nfu026v","","","null","","Agent B","scrambled","STIM_SET_5/1159592.bmp_pp91_L3_V1.0_veridical_freeview_isoTrue_Hflip_fps144.mp4",""
"","","","call-function","408","859417","0.0-408.0","0nfu026v","","","","","","","",""
"2265.820000000065","{""judgement"":1}","[0]","survey-likert","409","861683","0.0-409.0","0nfu026v","","","","","","","","0"
"963.5","{""confidence"":0}","[0]","survey-likert","410","862648","0.0-410.0","0nfu026v","","","","","","","",""
"","","","call-function","411","862650","0.0-411.0","0nfu026v","","","","","","","",""
"null","","","html-keyboard-response","412","864151","0.0-412.0","0nfu026v","","<span style=""color:Black; font-size:50px;"">Agent A","null","","","","",""
"null","","","video-keyboard-response","413","867232","0.0-413.0","0nfu026v","","","null","","Agent A","veridical","STIM_SET_2_144/1591920.bmp_pp97_L3_V1_veridical_freeview_isoTrue_fps144.mp4",""
"null","","","html-keyboard-response","414","868734","0.0-414.0","0nfu026v","","<span style=""color:Black; font-size:50px;"">Agent B","null","","","","",""
"null","","","video-keyboard-response","415","871810","0.0-415.0","0nfu026v","","","null","","Agent B","scrambled","STIM_SET_5/1591920.bmp_pp97_L3_V1_veridical_freeview_isoTrue_Hflip_fps144.mp4",""
"","","","call-function","416","871811","0.0-416.0","0nfu026v","","","","","","","",""
"4081.75","{""judgement"":0}","[0]","survey-likert","417","875894","0.0-417.0","0nfu026v","","","","","","","","0"
"1552.545000000042","{""confidence"":1}","[0]","survey-likert","418","877448","0.0-418.0","0nfu026v","","","","","","","",""
"20684.984999999986","","","instructions","419","898134","0.0-419.0","0nfu026v","[{""page_index"":0,""viewing_time"":19367.875},{""page_index"":1,""viewing_time"":780.3100000000559},{""page_index"":2,""viewing_time"":536.5949999999721}]","","","","","","",""
"1538.0900000000838","","","instructions","420","899673","0.0-420.0","0nfu026v","[{""page_index"":0,""viewing_time"":496.01500000001397},{""page_index"":1,""viewing_time"":568.9150000000373},{""page_index"":2,""viewing_time"":473.04999999993015}]","","","","","","",""
"","","","call-function","421","899674","0.0-421.0","0nfu026v","","","","","","","",""
"null","","","html-keyboard-response","422","901178","0.0-422.0","0nfu026v","","<span style=""color:Black; font-size:50px;"">Agent A","null","","","","",""
"null","","","video-keyboard-response","423","904272","0.0-423.0","0nfu026v","","","null","","Agent A","scrambled","STIM_SET_5/713770.bmp_pp89_L1_V1.0_veridical_freeview_isoTrue_Hflip_fps144.mp4",""
"null","","","html-keyboard-response","424","905775","0.0-424.0","0nfu026v","","<span style=""color:Black; font-size:50px;"">Agent B","null","","","","",""
"null","","","video-keyboard-response","425","908850","0.0-425.0","0nfu026v","","","null","","Agent B","veridical","STIM_SET_2_144/713770.bmp_pp89_L1_V1.0_veridical_freeview_isoTrue_fps144.mp4",""
"","","","call-function","426","908851","0.0-426.0","0nfu026v","","","","","","","",""
"1572.6300000000047","{""judgement"":1}","[0]","survey-likert","427","910424","0.0-427.0","0nfu026v","","","","","","","","1"
"1123.4749999999767","{""confidence"":1}","[0]","survey-likert","428","911549","0.0-428.0","0nfu026v","","","","","","","",""
"","","","call-function","429","911550","0.0-429.0","0nfu026v","","","","","","","",""
"null","","","html-keyboard-response","430","913055","0.0-430.0","0nfu026v","","<span style=""color:Black; font-size:50px;"">Agent A","null","","","","",""
"null","","","video-keyboard-response","431","916124","0.0-431.0","0nfu026v","","","null","","Agent A","veridical","STIM_SET_2_144/1159973.bmp_pp98_L1_V1.0_veridical_freeview_isoTrue_fps144.mp4",""
"null","","","html-keyboard-response","432","917627","0.0-432.0","0nfu026v","","<span style=""color:Black; font-size:50px;"">Agent B","null","","","","",""
"null","","","video-keyboard-response","433","920700","0.0-433.0","0nfu026v","","","null","","Agent B","scrambled","STIM_SET_5/1159973.bmp_pp98_L1_V1.0_veridical_freeview_isoTrue_Hflip_fps144.mp4",""
"","","","call-function","434","920702","0.0-434.0","0nfu026v","","","","","","","",""
"3492.2200000000885","{""judgement"":0}","[0]","survey-likert","435","924195","0.0-435.0","0nfu026v","","","","","","","","0"
"810.1850000000559","{""confidence"":1}","[0]","survey-likert","436","925008","0.0-436.0","0nfu026v","","","","","","","",""
"","","","call-function","437","925009","0.0-437.0","0nfu026v","","","","","","","",""
"null","","","html-keyboard-response","438","926512","0.0-438.0","0nfu026v","","<span style=""color:Black; font-size:50px;"">Agent A","null","","","","",""
"null","","","video-keyboard-response","439","929588","0.0-439.0","0nfu026v","","","null","","Agent A","scrambled","STIM_SET_5/498372.bmp_pp95_L2_V1_veridical_freeview_isoTrue_Hflip_fps144.mp4",""
"null","","","html-keyboard-response","440","931092","0.0-440.0","0nfu026v","","<span style=""color:Black; font-size:50px;"">Agent B","null","","","","",""
"null","","","video-keyboard-response","441","934168","0.0-441.0","0nfu026v","","","null","","Agent B","veridical","STIM_SET_2_144/498372.bmp_pp95_L2_V1_veridical_freeview_isoTrue_fps144.mp4",""
"","","","call-function","442","934169","0.0-442.0","0nfu026v","","","","","","","",""
"1333.6600000000326","{""judgement"":0}","[0]","survey-likert","443","935503","0.0-443.0","0nfu026v","","","","","","","","1"
"1818.1600000000326","{""confidence"":0}","[0]","survey-likert","444","937323","0.0-444.0","0nfu026v","","","","","","","",""
"","","","call-function","445","937324","0.0-445.0","0nfu026v","","","","","","","",""
"null","","","html-keyboard-response","446","938830","0.0-446.0","0nfu026v","","<span style=""color:Black; font-size:50px;"">Agent A","null","","","","",""
"null","","","video-keyboard-response","447","941908","0.0-447.0","0nfu026v","","","null","","Agent A","veridical","STIM_SET_2_144/713858.bmp_pp57_L1_V1.0_veridical_freeview_isoTrue_fps144.mp4",""
"null","","","html-keyboard-response","448","943411","0.0-448.0","0nfu026v","","<span style=""color:Black; font-size:50px;"">Agent B","null","","","","",""
"null","","","video-keyboard-response","449","946487","0.0-449.0","0nfu026v","","","null","","Agent B","scrambled","STIM_SET_5/713858.bmp_pp57_L1_V1.0_veridical_freeview_isoTrue_Hflip_fps144.mp4",""
"","","","call-function","450","946488","0.0-450.0","0nfu026v","","","","","","","",""
"1131.1350000000093","{""judgement"":0}","[0]","survey-likert","451","947620","0.0-451.0","0nfu026v","","","","","","","","0"
"2023.5200000000186","{""confidence"":1}","[0]","survey-likert","452","949645","0.0-452.0","0nfu026v","","","","","","","",""
"","","","call-function","453","949646","0.0-453.0","0nfu026v","","","","","","","",""
"null","","","html-keyboard-response","454","951151","0.0-454.0","0nfu026v","","<span style=""color:Black; font-size:50px;"">Agent A","null","","","","",""
"null","","","video-keyboard-response","455","954243","0.0-455.0","0nfu026v","","","null","","Agent A","scrambled","STIM_SET_5/285959.bmp_pp93_L1_V1.0_veridical_freeview_isoTrue_Hflip_fps144.mp4",""
"null","","","html-keyboard-response","456","955746","0.0-456.0","0nfu026v","","<span style=""color:Black; font-size:50px;"">Agent B","null","","","","",""
"null","","","video-keyboard-response","457","958840","0.0-457.0","0nfu026v","","","null","","Agent B","veridical","STIM_SET_2_144/285959.bmp_pp93_L1_V1.0_veridical_freeview_isoTrue_fps144.mp4",""
"","","","call-function","458","958840","0.0-458.0","0nfu026v","","","","","","","",""
"2665.2600000000093","{""judgement"":0}","[0]","survey-likert","459","961507","0.0-459.0","0nfu026v","","","","","","","","1"
"1422.6699999999255","{""confidence"":0}","[0]","survey-likert","460","962931","0.0-460.0","0nfu026v","","","","","","","",""
"","","","call-function","461","962932","0.0-461.0","0nfu026v","","","","","","","",""
"null","","","html-keyboard-response","462","964435","0.0-462.0","0nfu026v","","<span style=""color:Black; font-size:50px;"">Agent A","null","","","","",""
"null","","","video-keyboard-response","463","967520","0.0-463.0","0nfu026v","","","null","","Agent A","veridical","STIM_SET_2_144/498261.bmp_pp84_L3_V1.0_veridical_freeview_isoTrue_fps144.mp4",""
"null","","","html-keyboard-response","464","969026","0.0-464.0","0nfu026v","","<span style=""color:Black; font-size:50px;"">Agent B","null","","","","",""
"null","","","video-keyboard-response","465","972107","0.0-465.0","0nfu026v","","","null","","Agent B","scrambled","STIM_SET_5/498261.bmp_pp84_L3_V1.0_veridical_freeview_isoTrue_Hflip_fps144.mp4",""
"","","","call-function","466","972108","0.0-466.0","0nfu026v","","","","","","","",""
"1700.905000000028","{""judgement"":1}","[0]","survey-likert","467","973809","0.0-467.0","0nfu026v","","","","","","","","0"
"1247.2000000000698","{""confidence"":0}","[0]","survey-likert","468","975058","0.0-468.0","0nfu026v","","","","","","","",""
"","","","call-function","469","975059","0.0-469.0","0nfu026v","","","","","","","",""
"null","","","html-keyboard-response","470","976561","0.0-470.0","0nfu026v","","<span style=""color:Black; font-size:50px;"">Agent A","null","","","","",""
"null","","","video-keyboard-response","471","979645","0.0-471.0","0nfu026v","","","null","","Agent A","scrambled","STIM_SET_5/1592747.bmp_pp53_L2_V1.0_veridical_freeview_isoTrue_Hflip_fps144.mp4",""
"null","","","html-keyboard-response","472","981151","0.0-472.0","0nfu026v","","<span style=""color:Black; font-size:50px;"">Agent B","null","","","","",""
"null","","","video-keyboard-response","473","984235","0.0-473.0","0nfu026v","","","null","","Agent B","veridical","STIM_SET_2_144/1592747.bmp_pp53_L2_V1.0_veridical_freeview_isoTrue_fps144.mp4",""
"","","","call-function","474","984236","0.0-474.0","0nfu026v","","","","","","","",""
"5946.775000000023","{""judgement"":0}","[0]","survey-likert","475","990183","0.0-475.0","0nfu026v","","","","","","","","1"
"918.1900000000605","{""confidence"":0}","[0]","survey-likert","476","991103","0.0-476.0","0nfu026v","","","","","","","",""
"","","","call-function","477","991104","0.0-477.0","0nfu026v","","","","","","","",""
"null","","","html-keyboard-response","478","992610","0.0-478.0","0nfu026v","","<span style=""color:Black; font-size:50px;"">Agent A","null","","","","",""
"null","","","video-keyboard-response","479","995685","0.0-479.0","0nfu026v","","","null","","Agent A","scrambled","STIM_SET_5/1592168.bmp_pp71_L1_V1.0_veridical_freeview_isoTrue_Hflip_fps144.mp4",""
"null","","","html-keyboard-response","480","997189","0.0-480.0","0nfu026v","","<span style=""color:Black; font-size:50px;"">Agent B","null","","","","",""
"null","","","video-keyboard-response","481","1000265","0.0-481.0","0nfu026v","","","null","","Agent B","veridical","STIM_SET_2_144/1592168.bmp_pp71_L1_V1.0_veridical_freeview_isoTrue_fps144.mp4",""
"","","","call-function","482","1000266","0.0-482.0","0nfu026v","","","","","","","",""
"2100.164999999921","{""judgement"":0}","[0]","survey-likert","483","1002367","0.0-483.0","0nfu026v","","","","","","","","1"
"1071.2550000000047","{""confidence"":0}","[0]","survey-likert","484","1003439","0.0-484.0","0nfu026v","","","","","","","",""
"","","","call-function","485","1003440","0.0-485.0","0nfu026v","","","","","","","",""
"null","","","html-keyboard-response","486","1004942","0.0-486.0","0nfu026v","","<span style=""color:Black; font-size:50px;"">Agent A","null","","","","",""
"null","","","video-keyboard-response","487","1008015","0.0-487.0","0nfu026v","","","null","","Agent A","scrambled","STIM_SET_5/1159329.bmp_pp61_L2_V1.0_veridical_freeview_isoTrue_Hflip_fps144.mp4",""
"null","","","html-keyboard-response","488","1009518","0.0-488.0","0nfu026v","","<span style=""color:Black; font-size:50px;"">Agent B","null","","","","",""
"null","","","video-keyboard-response","489","1012587","0.0-489.0","0nfu026v","","","null","","Agent B","veridical","STIM_SET_2_144/1159329.bmp_pp61_L2_V1.0_veridical_freeview_isoTrue_fps144.mp4",""
"","","","call-function","490","1012588","0.0-490.0","0nfu026v","","","","","","","",""
"2983.6450000000186","{""judgement"":0}","[0]","survey-likert","491","1015573","0.0-491.0","0nfu026v","","","","","","","","1"
"785.234999999986","{""confidence"":0}","[0]","survey-likert","492","1016359","0.0-492.0","0nfu026v","","","","","","","",""
"","","","call-function","493","1016360","0.0-493.0","0nfu026v","","","","","","","",""
"null","","","html-keyboard-response","494","1017865","0.0-494.0","0nfu026v","","<span style=""color:Black; font-size:50px;"">Agent A","null","","","","",""
"null","","","video-keyboard-response","495","1020943","0.0-495.0","0nfu026v","","","null","","Agent A","veridical","STIM_SET_2_144/498326.bmp_pp57_L1_V1.0_veridical_freeview_isoTrue_fps144.mp4",""
"null","","","html-keyboard-response","496","1022445","0.0-496.0","0nfu026v","","<span style=""color:Black; font-size:50px;"">Agent B","null","","","","",""
"null","","","video-keyboard-response","497","1025524","0.0-497.0","0nfu026v","","","null","","Agent B","scrambled","STIM_SET_5/498326.bmp_pp57_L1_V1.0_veridical_freeview_isoTrue_Hflip_fps144.mp4",""
"","","","call-function","498","1025525","0.0-498.0","0nfu026v","","","","","","","",""
"2428.954999999958","{""judgement"":0}","[0]","survey-likert","499","1027955","0.0-499.0","0nfu026v","","","","","","","","0"
"2678.7399999999907","{""confidence"":0}","[0]","survey-likert","500","1030636","0.0-500.0","0nfu026v","","","","","","","",""
"2039.1450000000186","","","instructions","501","1032676","0.0-501.0","0nfu026v","[{""page_index"":0,""viewing_time"":1563.5500000000466},{""page_index"":1,""viewing_time"":333.07499999995343},{""page_index"":2,""viewing_time"":142.30000000004657}]","","","","","","",""
"1147.719999999972","","","instructions","502","1033824","0.0-502.0","0nfu026v","[{""page_index"":0,""viewing_time"":369.54000000003725},{""page_index"":1,""viewing_time"":399.9399999999441},{""page_index"":2,""viewing_time"":378.125}]","","","","","","",""
"","","","call-function","503","1033825","0.0-503.0","0nfu026v","","","","","","","",""
"null","","","html-keyboard-response","504","1035330","0.0-504.0","0nfu026v","","<span style=""color:Black; font-size:50px;"">Agent A","null","","","","",""
"null","","","video-keyboard-response","505","1038412","0.0-505.0","0nfu026v","","","null","","Agent A","veridical","STIM_SET_2_144/286034.bmp_pp69_L3_V1.0_veridical_freeview_isoTrue_fps144.mp4",""
"null","","","html-keyboard-response","506","1039916","0.0-506.0","0nfu026v","","<span style=""color:Black; font-size:50px;"">Agent B","null","","","","",""
"null","","","video-keyboard-response","507","1042999","0.0-507.0","0nfu026v","","","null","","Agent B","scrambled","STIM_SET_5/286034.bmp_pp69_L3_V1.0_veridical_freeview_isoTrue_Hflip_fps144.mp4",""
"","","","call-function","508","1043001","0.0-508.0","0nfu026v","","","","","","","",""
"2055.7299999999814","{""judgement"":0}","[0]","survey-likert","509","1045059","0.0-509.0","0nfu026v","","","","","","","","0"
"1382.2399999999907","{""confidence"":0}","[0]","survey-likert","510","1046443","0.0-510.0","0nfu026v","","","","","","","",""
"","","","call-function","511","1046445","0.0-511.0","0nfu026v","","","","","","","",""
"null","","","html-keyboard-response","512","1047948","0.0-512.0","0nfu026v","","<span style=""color:Black; font-size:50px;"">Agent A","null","","","","",""
"null","","","video-keyboard-response","513","1051030","0.0-513.0","0nfu026v","","","null","","Agent A","scrambled","STIM_SET_5/1592568.bmp_pp71_L1_V1.0_veridical_freeview_isoTrue_Hflip_fps144.mp4",""
"null","","","html-keyboard-response","514","1052532","0.0-514.0","0nfu026v","","<span style=""color:Black; font-size:50px;"">Agent B","null","","","","",""
"null","","","video-keyboard-response","515","1055611","0.0-515.0","0nfu026v","","","null","","Agent B","veridical","STIM_SET_2_144/1592568.bmp_pp71_L1_V1.0_veridical_freeview_isoTrue_fps144.mp4",""
"","","","call-function","516","1055612","0.0-516.0","0nfu026v","","","","","","","",""
"2321.6749999998137","{""judgement"":1}","[0]","survey-likert","517","1057935","0.0-517.0","0nfu026v","","","","","","","","1"
"1694.9350000000559","{""confidence"":0}","[0]","survey-likert","518","1059632","0.0-518.0","0nfu026v","","","","","","","",""
"","","","call-function","519","1059633","0.0-519.0","0nfu026v","","","","","","","",""
"null","","","html-keyboard-response","520","1061134","0.0-520.0","0nfu026v","","<span style=""color:Black; font-size:50px;"">Agent A","null","","","","",""
"null","","","video-keyboard-response","521","1064203","0.0-521.0","0nfu026v","","","null","","Agent A","veridical","STIM_SET_2_144/498396.bmp_pp99_L2_V1.0_veridical_freeview_isoTrue_fps144.mp4",""
"null","","","html-keyboard-response","522","1065705","0.0-522.0","0nfu026v","","<span style=""color:Black; font-size:50px;"">Agent B","null","","","","",""
"null","","","video-keyboard-response","523","1068772","0.0-523.0","0nfu026v","","","null","","Agent B","scrambled","STIM_SET_5/498396.bmp_pp99_L2_V1.0_veridical_freeview_isoTrue_Hflip_fps144.mp4",""
"","","","call-function","524","1068773","0.0-524.0","0nfu026v","","","","","","","",""
"1921.6299999998882","{""judgement"":1}","[0]","survey-likert","525","1070696","0.0-525.0","0nfu026v","","","","","","","","0"
"1637.1799999999348","{""confidence"":0}","[0]","survey-likert","526","1072334","0.0-526.0","0nfu026v","","","","","","","",""
"","","","call-function","527","1072335","0.0-527.0","0nfu026v","","","","","","","",""
"null","","","html-keyboard-response","528","1073837","0.0-528.0","0nfu026v","","<span style=""color:Black; font-size:50px;"">Agent A","null","","","","",""
"null","","","video-keyboard-response","529","1076919","0.0-529.0","0nfu026v","","","null","","Agent A","scrambled","STIM_SET_5/150277.bmp_pp65_L3_V1.0_veridical_freeview_isoTrue_Hflip_fps144.mp4",""
"null","","","html-keyboard-response","530","1078424","0.0-530.0","0nfu026v","","<span style=""color:Black; font-size:50px;"">Agent B","null","","","","",""
"null","","","video-keyboard-response","531","1081506","0.0-531.0","0nfu026v","","","null","","Agent B","veridical","STIM_SET_2_144/150277.bmp_pp65_L3_V1.0_veridical_freeview_isoTrue_fps144.mp4",""
"","","","call-function","532","1081507","0.0-532.0","0nfu026v","","","","","","","",""
"1474.625","{""judgement"":1}","[0]","survey-likert","533","1082983","0.0-533.0","0nfu026v","","","","","","","","1"
"1303.594999999972","{""confidence"":0}","[0]","survey-likert","534","1084288","0.0-534.0","0nfu026v","","","","","","","",""
"","","","call-function","535","1084289","0.0-535.0","0nfu026v","","","","","","","",""
"null","","","html-keyboard-response","536","1085792","0.0-536.0","0nfu026v","","<span style=""color:Black; font-size:50px;"">Agent A","null","","","","",""
"null","","","video-keyboard-response","537","1088882","0.0-537.0","0nfu026v","","","null","","Agent A","veridical","STIM_SET_2_144/107909.bmp_pp95_L2_V1.0_veridical_freeview_isoTrue_fps144.mp4",""
"null","","","html-keyboard-response","538","1090389","0.0-538.0","0nfu026v","","<span style=""color:Black; font-size:50px;"">Agent B","null","","","","",""
"null","","","video-keyboard-response","539","1093478","0.0-539.0","0nfu026v","","","null","","Agent B","scrambled","STIM_SET_5/107909.bmp_pp95_L2_V1.0_veridical_freeview_isoTrue_Hflip_fps144.mp4",""
"","","","call-function","540","1093479","0.0-540.0","0nfu026v","","","","","","","",""
"1596.0649999999441","{""judgement"":1}","[0]","survey-likert","541","1095076","0.0-541.0","0nfu026v","","","","","","","","0"
"1435.9150000000373","{""confidence"":0}","[0]","survey-likert","542","1096513","0.0-542.0","0nfu026v","","","","","","","",""
"","","","call-function","543","1096514","0.0-543.0","0nfu026v","","","","","","","",""
"null","","","html-keyboard-response","544","1098021","0.0-544.0","0nfu026v","","<span style=""color:Black; font-size:50px;"">Agent A","null","","","","",""
"null","","","video-keyboard-response","545","1101097","0.0-545.0","0nfu026v","","","null","","Agent A","veridical","STIM_SET_2_144/713829.bmp_pp60_L3_V1.0_veridical_freeview_isoTrue_fps144.mp4",""
"null","","","html-keyboard-response","546","1102598","0.0-546.0","0nfu026v","","<span style=""color:Black; font-size:50px;"">Agent B","null","","","","",""
"null","","","video-keyboard-response","547","1105673","0.0-547.0","0nfu026v","","","null","","Agent B","scrambled","STIM_SET_5/713829.bmp_pp60_L3_V1.0_veridical_freeview_isoTrue_Hflip_fps144.mp4",""
"","","","call-function","548","1105674","0.0-548.0","0nfu026v","","","","","","","",""
"1734.0100000000093","{""judgement"":0}","[0]","survey-likert","549","1107409","0.0-549.0","0nfu026v","","","","","","","","0"
"1244.6650000000373","{""confidence"":0}","[0]","survey-likert","550","1108655","0.0-550.0","0nfu026v","","","","","","","",""
"","","","call-function","551","1108656","0.0-551.0","0nfu026v","","","","","","","",""
"null","","","html-keyboard-response","552","1110159","0.0-552.0","0nfu026v","","<span style=""color:Black; font-size:50px;"">Agent A","null","","","","",""
"null","","","video-keyboard-response","553","1113259","0.0-553.0","0nfu026v","","","null","","Agent A","scrambled","STIM_SET_5/285946.bmp_pp79_L2_V1.0_veridical_freeview_isoTrue_Hflip_fps144.mp4",""
"null","","","html-keyboard-response","554","1114763","0.0-554.0","0nfu026v","","<span style=""color:Black; font-size:50px;"">Agent B","null","","","","",""
"null","","","video-keyboard-response","555","1117846","0.0-555.0","0nfu026v","","","null","","Agent B","veridical","STIM_SET_2_144/285946.bmp_pp79_L2_V1.0_veridical_freeview_isoTrue_fps144.mp4",""
"","","","call-function","556","1117847","0.0-556.0","0nfu026v","","","","","","","",""
"2355.314999999944","{""judgement"":1}","[0]","survey-likert","557","1120203","0.0-557.0","0nfu026v","","","","","","","","1"
"1602.0100000000093","{""confidence"":0}","[0]","survey-likert","558","1121807","0.0-558.0","0nfu026v","","","","","","","",""
"","","","call-function","559","1121808","0.0-559.0","0nfu026v","","","","","","","",""
"null","","","html-keyboard-response","560","1123311","0.0-560.0","0nfu026v","","<span style=""color:Black; font-size:50px;"">Agent A","null","","","","",""
"null","","","video-keyboard-response","561","1126378","0.0-561.0","0nfu026v","","","null","","Agent A","scrambled","STIM_SET_5/1159392.bmp_pp96_L2_V1.0_veridical_freeview_isoTrue_Hflip_fps144.mp4",""
"null","","","html-keyboard-response","562","1127880","0.0-562.0","0nfu026v","","<span style=""color:Black; font-size:50px;"">Agent B","null","","","","",""
"null","","","video-keyboard-response","563","1130946","0.0-563.0","0nfu026v","","","null","","Agent B","veridical","STIM_SET_2_144/1159392.bmp_pp96_L2_V1.0_veridical_freeview_isoTrue_fps144.mp4",""
"","","","call-function","564","1130948","0.0-564.0","0nfu026v","","","","","","","",""
"6839.704999999842","{""judgement"":1}","[0]","survey-likert","565","1137789","0.0-565.0","0nfu026v","","","","","","","","1"
"1396.4200000001583","{""confidence"":0}","[0]","survey-likert","566","1139187","0.0-566.0","0nfu026v","","","","","","","",""
"","","","call-function","567","1139187","0.0-567.0","0nfu026v","","","","","","","",""
"null","","","html-keyboard-response","568","1140689","0.0-568.0","0nfu026v","","<span style=""color:Black; font-size:50px;"">Agent A","null","","","","",""
"null","","","video-keyboard-response","569","1143757","0.0-569.0","0nfu026v","","","null","","Agent A","veridical","STIM_SET_2_144/1160189.bmp_pp64_L1_V1.0_veridical_freeview_isoTrue_fps144.mp4",""
"null","","","html-keyboard-response","570","1145262","0.0-570.0","0nfu026v","","<span style=""color:Black; font-size:50px;"">Agent B","null","","","","",""
"null","","","video-keyboard-response","571","1148348","0.0-571.0","0nfu026v","","","null","","Agent B","scrambled","STIM_SET_5/1160189.bmp_pp64_L1_V1.0_veridical_freeview_isoTrue_Hflip_fps144.mp4",""
"","","","call-function","572","1148349","0.0-572.0","0nfu026v","","","","","","","",""
"1621.0749999999534","{""judgement"":1}","[0]","survey-likert","573","1149971","0.0-573.0","0nfu026v","","","","","","","","0"
"1093.9250000000466","{""confidence"":0}","[0]","survey-likert","574","1151066","0.0-574.0","0nfu026v","","","","","","","",""
"","","","call-function","575","1151067","0.0-575.0","0nfu026v","","","","","","","",""
"null","","","html-keyboard-response","576","1152568","0.0-576.0","0nfu026v","","<span style=""color:Black; font-size:50px;"">Agent A","null","","","","",""
"null","","","video-keyboard-response","577","1155651","0.0-577.0","0nfu026v","","","null","","Agent A","scrambled","STIM_SET_5/1592298.bmp_pp56_L3_V1.0_veridical_freeview_isoTrue_Hflip_fps144.mp4",""
"null","","","html-keyboard-response","578","1157155","0.0-578.0","0nfu026v","","<span style=""color:Black; font-size:50px;"">Agent B","null","","","","",""
"null","","","video-keyboard-response","579","1160240","0.0-579.0","0nfu026v","","","null","","Agent B","veridical","STIM_SET_2_144/1592298.bmp_pp56_L3_V1.0_veridical_freeview_isoTrue_fps144.mp4",""
"","","","call-function","580","1160240","0.0-580.0","0nfu026v","","","","","","","",""
"2185.214999999851","{""judgement"":0}","[0]","survey-likert","581","1162427","0.0-581.0","0nfu026v","","","","","","","","1"
"1092.3799999998882","{""confidence"":0}","[0]","survey-likert","582","1163520","0.0-582.0","0nfu026v","","","","","","","",""
"60463.544999999925","","","instructions","583","1223986","0.0-583.0","0nfu026v","[{""page_index"":0,""viewing_time"":60463.38500000001}]","","","","","","",""
"3943.6450000000186","","","instructions","584","1227931","0.0-584.0","0nfu026v","[{""page_index"":0,""viewing_time"":3943.5400000000373}]","","","","","","",""
"3213.3950000000186","{""post-1"":3}","[0]","survey-likert","585","1231147","0.0-585.0","0nfu026v","","","","","","","",""
"2661.1700000001583","{""post-1"":1}","[0]","survey-likert","586","1233810","0.0-586.0","0nfu026v","","","","","","","",""
"3029.1350000000093","{""post-2"":3}","[0]","survey-likert","587","1236841","0.0-587.0","0nfu026v","","","","","","","",""
"1359.5999999998603","{""post-2"":2}","[0]","survey-likert","588","1238202","0.0-588.0","0nfu026v","","","","","","","",""
"3862.030000000028","{""post-3"":3}","[0]","survey-likert","589","1242066","0.0-589.0","0nfu026v","","","","","","","",""
"1181.6400000001304","{""post-3"":2}","[0]","survey-likert","590","1243249","0.0-590.0","0nfu026v","","","","","","","",""
"2917.0750000001863","{""post-4"":2}","[0]","survey-likert","591","1246168","0.0-591.0","0nfu026v","","","","","","","",""
"808.6200000001118","{""post-4"":2}","[0]","survey-likert","592","1246978","0.0-592.0","0nfu026v","","","","","","","",""
"3590.215000000084","{""post-5"":0}","[0]","survey-likert","593","1250570","0.0-593.0","0nfu026v","","","","","","","",""
"1375.0100000000093","{""post-5"":1}","[0]","survey-likert","594","1251947","0.0-594.0","0nfu026v","","","","","","","",""
"1530.505000000121","{""Q0"":""""}","","survey-text","595","1253484","0.0-595.0","0nfu026v","","","","","","","",""
"15950.860000000102","{""Q0"":""I chose whichever one made my eyes most comfortable to follow""}","","survey-text","596","1269438","0.0-596.0","0nfu026v","","","","","","","",""
"11537.784999999916","{""Q0"":""They were often very similar or both very human""}","","survey-text","597","1280979","0.0-597.0","0nfu026v","","","","","","","",""
"921.8850000000093","","","instructions","598","1281903","0.0-598.0","0nfu026v","[{""page_index"":0,""viewing_time"":921.7550000001211}]","","","","","","",""
"76282.6499999999","{""Experimenter_end"":[""Printed ID# 0nfu026v on consent form"",""Given subject SONA credit or payment"",""Given the subject debrief form""]}","[0]","survey-multi-select","599","1358188","0.0-599.0","0nfu026v","","","","","","","",""
