"rt","responses","question_order","trial_type","trial_index","time_elapsed","internal_node_id","ID","view_history","stimulus","key_press","value","agent","condition","image","correct_answer"
"26919.670000000002","{""Experimenter"":[""Confirmed subject's identity"",""Confirmed normal or corrected-to-normal vision"",""Obtained consent (signature and date)"",""Checked the test room lighting"",""Checked computer screen lighting"",""Checked distance from screen to chin rest (50cm)"",""Cleaned and adjusted chin rest"",""Counterbalanced the order of the tasks"",""Opened the experiment in Firefox"",""Made the experiment full screen"",""Encouraged subject to silence phone, put away distractors, etc.""]}","[0]","survey-multi-select","0","26928","0.0-0.0","0zutxzx2","","","","","","","",""
"16714.195","","","instructions","1","43644","0.0-1.0","0zutxzx2","[{""page_index"":0,""viewing_time"":16714.04}]","","","","","","",""
"7442.9000000000015","","","instructions","2","51088","0.0-2.0","0zutxzx2","[{""page_index"":0,""viewing_time"":5340.1500000000015},{""page_index"":1,""viewing_time"":67.98500000000058},{""page_index"":2,""viewing_time"":2034.635000000002}]","","","","","","",""
"1055.5950000000012","","","instructions","3","52144","0.0-3.0","0zutxzx2","[{""page_index"":0,""viewing_time"":1055.4850000000006}]","","","","","","",""
"null","","","video-keyboard-response","4","55221","0.0-4.0","0zutxzx2","","","null","","","","",""
"4631.220000000001","","","instructions","5","59853","0.0-5.0","0zutxzx2","[{""page_index"":0,""viewing_time"":1176.4449999999997},{""page_index"":1,""viewing_time"":801.9099999999962},{""page_index"":2,""viewing_time"":2652.7550000000047}]","","","","","","",""
"2995.769999999997","","","instructions","6","62849","0.0-6.0","0zutxzx2","[{""page_index"":0,""viewing_time"":2995.665000000001}]","","","","","","",""
"1167.3899999999994","","","instructions","7","64017","0.0-7.0","0zutxzx2","[{""page_index"":0,""viewing_time"":1167.1749999999956}]","","","","","","",""
"null","","","video-keyboard-response","8","67094","0.0-8.0","0zutxzx2","","","null","","","","",""
"4620.62999999999","","","instructions","9","71715","0.0-9.0","0zutxzx2","[{""page_index"":0,""viewing_time"":1099.2649999999994},{""page_index"":1,""viewing_time"":1450.8999999999942},{""page_index"":2,""viewing_time"":2070.3099999999977}]","","","","","","",""
"1605.0699999999924","","","instructions","10","73321","0.0-10.0","0zutxzx2","[{""page_index"":0,""viewing_time"":1604.949999999997}]","","","","","","",""
"","","","call-function","11","73322","0.0-11.0","0zutxzx2","","","","","","","",""
"null","","","html-keyboard-response","12","74827","0.0-12.0","0zutxzx2","","<span style=""color:Black; font-size:50px;"">Agent A","null","","","","",""
"null","","","video-keyboard-response","13","77670","0.0-13.0","0zutxzx2","","","null","","Agent A","scrambled","FOR_REV_MAP_BLOBBY_STIM/498396.bmp_pp99_L2_V1.0_veridical_freeview_isoTrue_fps144_reversed_REAL.mp4",""
"null","","","html-keyboard-response","14","79176","0.0-14.0","0zutxzx2","","<span style=""color:Black; font-size:50px;"">Agent B","null","","","","",""
"null","","","video-keyboard-response","15","82017","0.0-15.0","0zutxzx2","","","null","","Agent B","veridical","FOR_REV_MAP_BLOBBY_STIM/498396.bmp_pp99_L2_V1.0_veridical_freeview_isoTrue_fps144.mp4",""
"","","","call-function","16","82017","0.0-16.0","0zutxzx2","","","","","","","",""
"1775.9800000000105","{""judgement"":0}","[0]","survey-likert","17","83794","0.0-17.0","0zutxzx2","","","","","","","","1"
"1199.75499999999","{""confidence"":2}","[0]","survey-likert","18","84996","0.0-18.0","0zutxzx2","","","","","","","",""
"","","","call-function","19","84996","0.0-19.0","0zutxzx2","","","","","","","",""
"null","","","html-keyboard-response","20","86498","0.0-20.0","0zutxzx2","","<span style=""color:Black; font-size:50px;"">Agent A","null","","","","",""
"null","","","video-keyboard-response","21","89336","0.0-21.0","0zutxzx2","","","null","","Agent A","veridical","FOR_REV_MAP_BLOBBY_STIM/107955.bmp_pp90_L2_V1.0_veridical_freeview_isoTrue_fps144.mp4",""
"null","","","html-keyboard-response","22","90839","0.0-22.0","0zutxzx2","","<span style=""color:Black; font-size:50px;"">Agent B","null","","","","",""
"null","","","video-keyboard-response","23","93675","0.0-23.0","0zutxzx2","","","null","","Agent B","scrambled","FOR_REV_MAP_BLOBBY_STIM/107955.bmp_pp90_L2_V1.0_veridical_freeview_isoTrue_fps144_reversed_REAL.mp4",""
"","","","call-function","24","93675","0.0-24.0","0zutxzx2","","","","","","","",""
"1730.7149999999965","{""judgement"":0}","[0]","survey-likert","25","95407","0.0-25.0","0zutxzx2","","","","","","","","0"
"1089.1199999999953","{""confidence"":1}","[0]","survey-likert","26","96498","0.0-26.0","0zutxzx2","","","","","","","",""
"","","","call-function","27","96498","0.0-27.0","0zutxzx2","","","","","","","",""
"null","","","html-keyboard-response","28","98000","0.0-28.0","0zutxzx2","","<span style=""color:Black; font-size:50px;"">Agent A","null","","","","",""
"null","","","video-keyboard-response","29","100856","0.0-29.0","0zutxzx2","","","null","","Agent A","scrambled","FOR_REV_MAP_BLOBBY_STIM/498326.bmp_pp57_L1_V1.0_veridical_freeview_isoTrue_fps144_reversed_REAL.mp4",""
"null","","","html-keyboard-response","30","102358","0.0-30.0","0zutxzx2","","<span style=""color:Black; font-size:50px;"">Agent B","null","","","","",""
"null","","","video-keyboard-response","31","105211","0.0-31.0","0zutxzx2","","","null","","Agent B","veridical","FOR_REV_MAP_BLOBBY_STIM/498326.bmp_pp57_L1_V1.0_veridical_freeview_isoTrue_fps144.mp4",""
"","","","call-function","32","105211","0.0-32.0","0zutxzx2","","","","","","","",""
"1219.4100000000035","{""judgement"":0}","[0]","survey-likert","33","106432","0.0-33.0","0zutxzx2","","","","","","","","1"
"1280.4700000000012","{""confidence"":2}","[0]","survey-likert","34","107713","0.0-34.0","0zutxzx2","","","","","","","",""
"","","","call-function","35","107714","0.0-35.0","0zutxzx2","","","","","","","",""
"null","","","html-keyboard-response","36","109216","0.0-36.0","0zutxzx2","","<span style=""color:Black; font-size:50px;"">Agent A","null","","","","",""
"null","","","video-keyboard-response","37","111654","0.0-37.0","0zutxzx2","","","null","","Agent A","scrambled","FOR_REV_MAP_BLOBBY_STIM/1592951.bmp_pp80_L3_V1.0_veridical_freeview_isoTrue_fps144_reversed_REAL.mp4",""
"null","","","html-keyboard-response","38","113159","0.0-38.0","0zutxzx2","","<span style=""color:Black; font-size:50px;"">Agent B","null","","","","",""
"null","","","video-keyboard-response","39","115590","0.0-39.0","0zutxzx2","","","null","","Agent B","veridical","FOR_REV_MAP_BLOBBY_STIM/1592951.bmp_pp80_L3_V1.0_veridical_freeview_isoTrue_fps144.mp4",""
"","","","call-function","40","115591","0.0-40.0","0zutxzx2","","","","","","","",""
"1297.9800000000105","{""judgement"":1}","[0]","survey-likert","41","116889","0.0-41.0","0zutxzx2","","","","","","","","1"
"1443.5299999999988","{""confidence"":2}","[0]","survey-likert","42","118334","0.0-42.0","0zutxzx2","","","","","","","",""
"","","","call-function","43","118335","0.0-43.0","0zutxzx2","","","","","","","",""
"null","","","html-keyboard-response","44","119836","0.0-44.0","0zutxzx2","","<span style=""color:Black; font-size:50px;"">Agent A","null","","","","",""
"null","","","video-keyboard-response","45","122614","0.0-45.0","0zutxzx2","","","null","","Agent A","veridical","FOR_REV_MAP_BLOBBY_STIM/1592567.bmp_pp70_L2_V1.0_veridical_freeview_isoTrue_fps144.mp4",""
"null","","","html-keyboard-response","46","124118","0.0-46.0","0zutxzx2","","<span style=""color:Black; font-size:50px;"">Agent B","null","","","","",""
"null","","","video-keyboard-response","47","127015","0.0-47.0","0zutxzx2","","","null","","Agent B","scrambled","FOR_REV_MAP_BLOBBY_STIM/1592567.bmp_pp70_L2_V1.0_veridical_freeview_isoTrue_fps144_reversed_REAL.mp4",""
"","","","call-function","48","127016","0.0-48.0","0zutxzx2","","","","","","","",""
"1316.375","{""judgement"":0}","[0]","survey-likert","49","128334","0.0-49.0","0zutxzx2","","","","","","","","0"
"934.9799999999959","{""confidence"":2}","[0]","survey-likert","50","129270","0.0-50.0","0zutxzx2","","","","","","","",""
"","","","call-function","51","129271","0.0-51.0","0zutxzx2","","","","","","","",""
"null","","","html-keyboard-response","52","130775","0.0-52.0","0zutxzx2","","<span style=""color:Black; font-size:50px;"">Agent A","null","","","","",""
"null","","","video-keyboard-response","53","133695","0.0-53.0","0zutxzx2","","","null","","Agent A","scrambled","FOR_REV_MAP_BLOBBY_STIM/498025.bmp_pp81_L1_V1.0_veridical_freeview_isoTrue_fps144_reversed_REAL.mp4",""
"null","","","html-keyboard-response","54","135201","0.0-54.0","0zutxzx2","","<span style=""color:Black; font-size:50px;"">Agent B","null","","","","",""
"null","","","video-keyboard-response","55","138120","0.0-55.0","0zutxzx2","","","null","","Agent B","veridical","FOR_REV_MAP_BLOBBY_STIM/498025.bmp_pp81_L1_V1.0_veridical_freeview_isoTrue_fps144.mp4",""
"","","","call-function","56","138120","0.0-56.0","0zutxzx2","","","","","","","",""
"2853.225000000006","{""judgement"":0}","[0]","survey-likert","57","140975","0.0-57.0","0zutxzx2","","","","","","","","1"
"1359.6449999999895","{""confidence"":2}","[0]","survey-likert","58","142336","0.0-58.0","0zutxzx2","","","","","","","",""
"","","","call-function","59","142337","0.0-59.0","0zutxzx2","","","","","","","",""
"null","","","html-keyboard-response","60","143841","0.0-60.0","0zutxzx2","","<span style=""color:Black; font-size:50px;"">Agent A","null","","","","",""
"null","","","video-keyboard-response","61","146632","0.0-61.0","0zutxzx2","","","null","","Agent A","scrambled","FOR_REV_MAP_BLOBBY_STIM/1591781.bmp_pp63_L1_V1.0_veridical_freeview_isoTrue_fps144_reversed_REAL.mp4",""
"null","","","html-keyboard-response","62","148135","0.0-62.0","0zutxzx2","","<span style=""color:Black; font-size:50px;"">Agent B","null","","","","",""
"null","","","video-keyboard-response","63","150925","0.0-63.0","0zutxzx2","","","null","","Agent B","veridical","FOR_REV_MAP_BLOBBY_STIM/1591781.bmp_pp63_L1_V1.0_veridical_freeview_isoTrue_fps144.mp4",""
"","","","call-function","64","150925","0.0-64.0","0zutxzx2","","","","","","","",""
"1872.3500000000058","{""judgement"":0}","[0]","survey-likert","65","152799","0.0-65.0","0zutxzx2","","","","","","","","1"
"1022.140000000014","{""confidence"":3}","[0]","survey-likert","66","153822","0.0-66.0","0zutxzx2","","","","","","","",""
"","","","call-function","67","153823","0.0-67.0","0zutxzx2","","","","","","","",""
"null","","","html-keyboard-response","68","155328","0.0-68.0","0zutxzx2","","<span style=""color:Black; font-size:50px;"">Agent A","null","","","","",""
"null","","","video-keyboard-response","69","158182","0.0-69.0","0zutxzx2","","","null","","Agent A","scrambled","FOR_REV_MAP_BLOBBY_STIM/713920.bmp_pp76_L1_V1.0_veridical_freeview_isoTrue_fps144_reversed_REAL.mp4",""
"null","","","html-keyboard-response","70","159686","0.0-70.0","0zutxzx2","","<span style=""color:Black; font-size:50px;"">Agent B","null","","","","",""
"null","","","video-keyboard-response","71","162513","0.0-71.0","0zutxzx2","","","null","","Agent B","veridical","FOR_REV_MAP_BLOBBY_STIM/713920.bmp_pp76_L1_V1.0_veridical_freeview_isoTrue_fps144.mp4",""
"","","","call-function","72","162513","0.0-72.0","0zutxzx2","","","","","","","",""
"3547.470000000001","{""judgement"":0}","[0]","survey-likert","73","166062","0.0-73.0","0zutxzx2","","","","","","","","1"
"1602.1350000000093","{""confidence"":2}","[0]","survey-likert","74","167665","0.0-74.0","0zutxzx2","","","","","","","",""
"","","","call-function","75","167665","0.0-75.0","0zutxzx2","","","","","","","",""
"null","","","html-keyboard-response","76","169169","0.0-76.0","0zutxzx2","","<span style=""color:Black; font-size:50px;"">Agent A","null","","","","",""
"null","","","video-keyboard-response","77","171953","0.0-77.0","0zutxzx2","","","null","","Agent A","veridical","FOR_REV_MAP_BLOBBY_STIM/285932.bmp_pp64_L1_V1.0_veridical_freeview_isoTrue_fps144.mp4",""
"null","","","html-keyboard-response","78","173458","0.0-78.0","0zutxzx2","","<span style=""color:Black; font-size:50px;"">Agent B","null","","","","",""
"null","","","video-keyboard-response","79","176247","0.0-79.0","0zutxzx2","","","null","","Agent B","scrambled","FOR_REV_MAP_BLOBBY_STIM/285932.bmp_pp64_L1_V1.0_veridical_freeview_isoTrue_fps144_reversed_REAL.mp4",""
"","","","call-function","80","176247","0.0-80.0","0zutxzx2","","","","","","","",""
"3680.155000000028","{""judgement"":1}","[0]","survey-likert","81","179928","0.0-81.0","0zutxzx2","","","","","","","","0"
"2419.7050000000163","{""confidence"":1}","[0]","survey-likert","82","182349","0.0-82.0","0zutxzx2","","","","","","","",""
"","","","call-function","83","182350","0.0-83.0","0zutxzx2","","","","","","","",""
"null","","","html-keyboard-response","84","183852","0.0-84.0","0zutxzx2","","<span style=""color:Black; font-size:50px;"">Agent A","null","","","","",""
"null","","","video-keyboard-response","85","186621","0.0-85.0","0zutxzx2","","","null","","Agent A","scrambled","FOR_REV_MAP_BLOBBY_STIM/1592047.bmp_pp51_L1_V1.0_veridical_freeview_isoTrue_fps144_reversed_REAL.mp4",""
"null","","","html-keyboard-response","86","188128","0.0-86.0","0zutxzx2","","<span style=""color:Black; font-size:50px;"">Agent B","null","","","","",""
"null","","","video-keyboard-response","87","190897","0.0-87.0","0zutxzx2","","","null","","Agent B","veridical","FOR_REV_MAP_BLOBBY_STIM/1592047.bmp_pp51_L1_V1.0_veridical_freeview_isoTrue_fps144.mp4",""
"","","","call-function","88","190897","0.0-88.0","0zutxzx2","","","","","","","",""
"1320.4700000000012","{""judgement"":0}","[0]","survey-likert","89","192219","0.0-89.0","0zutxzx2","","","","","","","","1"
"937.5899999999965","{""confidence"":2}","[0]","survey-likert","90","193158","0.0-90.0","0zutxzx2","","","","","","","",""
"1456.1350000000093","","","instructions","91","194614","0.0-91.0","0zutxzx2","[{""page_index"":0,""viewing_time"":542.2949999999837},{""page_index"":1,""viewing_time"":550.5500000000175},{""page_index"":2,""viewing_time"":363.13000000000466}]","","","","","","",""
"919.2550000000047","","","instructions","92","195534","0.0-92.0","0zutxzx2","[{""page_index"":0,""viewing_time"":158.35000000000582},{""page_index"":1,""viewing_time"":406.7250000000058},{""page_index"":2,""viewing_time"":353.9750000000058}]","","","","","","",""
"","","","call-function","93","195534","0.0-93.0","0zutxzx2","","","","","","","",""
"null","","","html-keyboard-response","94","197040","0.0-94.0","0zutxzx2","","<span style=""color:Black; font-size:50px;"">Agent A","null","","","","",""
"null","","","video-keyboard-response","95","199889","0.0-95.0","0zutxzx2","","","null","","Agent A","scrambled","FOR_REV_MAP_BLOBBY_STIM/1592201.bmp_pp97_L3_V1.0_veridical_freeview_isoTrue_fps144_reversed_REAL.mp4",""
"null","","","html-keyboard-response","96","201393","0.0-96.0","0zutxzx2","","<span style=""color:Black; font-size:50px;"">Agent B","null","","","","",""
"null","","","video-keyboard-response","97","204241","0.0-97.0","0zutxzx2","","","null","","Agent B","veridical","FOR_REV_MAP_BLOBBY_STIM/1592201.bmp_pp97_L3_V1.0_veridical_freeview_isoTrue_fps144.mp4",""
"","","","call-function","98","204241","0.0-98.0","0zutxzx2","","","","","","","",""
"1607.5299999999988","{""judgement"":0}","[0]","survey-likert","99","205850","0.0-99.0","0zutxzx2","","","","","","","","1"
"1707.7750000000233","{""confidence"":3}","[0]","survey-likert","100","207559","0.0-100.0","0zutxzx2","","","","","","","",""
"","","","call-function","101","207559","0.0-101.0","0zutxzx2","","","","","","","",""
"null","","","html-keyboard-response","102","209063","0.0-102.0","0zutxzx2","","<span style=""color:Black; font-size:50px;"">Agent A","null","","","","",""
"null","","","video-keyboard-response","103","211797","0.0-103.0","0zutxzx2","","","null","","Agent A","veridical","FOR_REV_MAP_BLOBBY_STIM/1159819.bmp_pp151_L1_V1.0_veridical_freeview_isoTrue_fps144.mp4",""
"null","","","html-keyboard-response","104","213303","0.0-104.0","0zutxzx2","","<span style=""color:Black; font-size:50px;"">Agent B","null","","","","",""
"null","","","video-keyboard-response","105","216039","0.0-105.0","0zutxzx2","","","null","","Agent B","scrambled","FOR_REV_MAP_BLOBBY_STIM/1159819.bmp_pp151_L1_V1.0_veridical_freeview_isoTrue_fps144_reversed_REAL.mp4",""
"","","","call-function","106","216040","0.0-106.0","0zutxzx2","","","","","","","",""
"1534.7600000000093","{""judgement"":0}","[0]","survey-likert","107","217576","0.0-107.0","0zutxzx2","","","","","","","","0"
"1503.4949999999953","{""confidence"":1}","[0]","survey-likert","108","219081","0.0-108.0","0zutxzx2","","","","","","","",""
"","","","call-function","109","219082","0.0-109.0","0zutxzx2","","","","","","","",""
"null","","","html-keyboard-response","110","220585","0.0-110.0","0zutxzx2","","<span style=""color:Black; font-size:50px;"">Agent A","null","","","","",""
"null","","","video-keyboard-response","111","223317","0.0-111.0","0zutxzx2","","","null","","Agent A","scrambled","FOR_REV_MAP_BLOBBY_STIM/1591975.bmp_pp88_L2_V1.0_veridical_freeview_isoTrue_fps144_reversed_REAL.mp4",""
"null","","","html-keyboard-response","112","224820","0.0-112.0","0zutxzx2","","<span style=""color:Black; font-size:50px;"">Agent B","null","","","","",""
"null","","","video-keyboard-response","113","227553","0.0-113.0","0zutxzx2","","","null","","Agent B","veridical","FOR_REV_MAP_BLOBBY_STIM/1591975.bmp_pp88_L2_V1.0_veridical_freeview_isoTrue_fps144.mp4",""
"","","","call-function","114","227553","0.0-114.0","0zutxzx2","","","","","","","",""
"1465.5899999999965","{""judgement"":0}","[0]","survey-likert","115","229020","0.0-115.0","0zutxzx2","","","","","","","","1"
"1054.8150000000023","{""confidence"":1}","[0]","survey-likert","116","230076","0.0-116.0","0zutxzx2","","","","","","","",""
"","","","call-function","117","230077","0.0-117.0","0zutxzx2","","","","","","","",""
"null","","","html-keyboard-response","118","231580","0.0-118.0","0zutxzx2","","<span style=""color:Black; font-size:50px;"">Agent A","null","","","","",""
"null","","","video-keyboard-response","119","234380","0.0-119.0","0zutxzx2","","","null","","Agent A","scrambled","FOR_REV_MAP_BLOBBY_STIM/713689.bmp_pp153_L3_V1.0_veridical_freeview_isoTrue_fps144_reversed_REAL.mp4",""
"null","","","html-keyboard-response","120","235883","0.0-120.0","0zutxzx2","","<span style=""color:Black; font-size:50px;"">Agent B","null","","","","",""
"null","","","video-keyboard-response","121","238684","0.0-121.0","0zutxzx2","","","null","","Agent B","veridical","FOR_REV_MAP_BLOBBY_STIM/713689.bmp_pp153_L3_V1.0_veridical_freeview_isoTrue_fps144.mp4",""
"","","","call-function","122","238684","0.0-122.0","0zutxzx2","","","","","","","",""
"2380.209999999992","{""judgement"":1}","[0]","survey-likert","123","241065","0.0-123.0","0zutxzx2","","","","","","","","1"
"1160.3699999999953","{""confidence"":2}","[0]","survey-likert","124","242227","0.0-124.0","0zutxzx2","","","","","","","",""
"","","","call-function","125","242227","0.0-125.0","0zutxzx2","","","","","","","",""
"null","","","html-keyboard-response","126","243734","0.0-126.0","0zutxzx2","","<span style=""color:Black; font-size:50px;"">Agent A","null","","","","",""
"null","","","video-keyboard-response","127","246672","0.0-127.0","0zutxzx2","","","null","","Agent A","veridical","FOR_REV_MAP_BLOBBY_STIM/1592568.bmp_pp71_L1_V1.0_veridical_freeview_isoTrue_fps144.mp4",""
"null","","","html-keyboard-response","128","248177","0.0-128.0","0zutxzx2","","<span style=""color:Black; font-size:50px;"">Agent B","null","","","","",""
"null","","","video-keyboard-response","129","251116","0.0-129.0","0zutxzx2","","","null","","Agent B","scrambled","FOR_REV_MAP_BLOBBY_STIM/1592568.bmp_pp71_L1_V1.0_veridical_freeview_isoTrue_fps144_reversed_REAL.mp4",""
"","","","call-function","130","251116","0.0-130.0","0zutxzx2","","","","","","","",""
"1433.8500000000058","{""judgement"":1}","[0]","survey-likert","131","252551","0.0-131.0","0zutxzx2","","","","","","","","0"
"1079.8450000000012","{""confidence"":2}","[0]","survey-likert","132","253633","0.0-132.0","0zutxzx2","","","","","","","",""
"","","","call-function","133","253633","0.0-133.0","0zutxzx2","","","","","","","",""
"null","","","html-keyboard-response","134","255138","0.0-134.0","0zutxzx2","","<span style=""color:Black; font-size:50px;"">Agent A","null","","","","",""
"null","","","video-keyboard-response","135","257971","0.0-135.0","0zutxzx2","","","null","","Agent A","scrambled","FOR_REV_MAP_BLOBBY_STIM/1592857.bmp_pp52_L1_V1.0_veridical_freeview_isoTrue_fps144_reversed_REAL.mp4",""
"null","","","html-keyboard-response","136","259474","0.0-136.0","0zutxzx2","","<span style=""color:Black; font-size:50px;"">Agent B","null","","","","",""
"null","","","video-keyboard-response","137","262310","0.0-137.0","0zutxzx2","","","null","","Agent B","veridical","FOR_REV_MAP_BLOBBY_STIM/1592857.bmp_pp52_L1_V1.0_veridical_freeview_isoTrue_fps144.mp4",""
"","","","call-function","138","262311","0.0-138.0","0zutxzx2","","","","","","","",""
"2271.4500000000116","{""judgement"":1}","[0]","survey-likert","139","264583","0.0-139.0","0zutxzx2","","","","","","","","1"
"789.7700000000186","{""confidence"":2}","[0]","survey-likert","140","265374","0.0-140.0","0zutxzx2","","","","","","","",""
"","","","call-function","141","265374","0.0-141.0","0zutxzx2","","","","","","","",""
"null","","","html-keyboard-response","142","266880","0.0-142.0","0zutxzx2","","<span style=""color:Black; font-size:50px;"">Agent A","null","","","","",""
"null","","","video-keyboard-response","143","269658","0.0-143.0","0zutxzx2","","","null","","Agent A","veridical","FOR_REV_MAP_BLOBBY_STIM/713328.bmp_pp86_L2_V1.0_veridical_freeview_isoTrue_fps144.mp4",""
"null","","","html-keyboard-response","144","271162","0.0-144.0","0zutxzx2","","<span style=""color:Black; font-size:50px;"">Agent B","null","","","","",""
"null","","","video-keyboard-response","145","273931","0.0-145.0","0zutxzx2","","","null","","Agent B","scrambled","FOR_REV_MAP_BLOBBY_STIM/713328.bmp_pp86_L2_V1.0_veridical_freeview_isoTrue_fps144_reversed_REAL.mp4",""
"","","","call-function","146","273932","0.0-146.0","0zutxzx2","","","","","","","",""
"1639.445000000007","{""judgement"":0}","[0]","survey-likert","147","275572","0.0-147.0","0zutxzx2","","","","","","","","0"
"981.1949999999488","{""confidence"":1}","[0]","survey-likert","148","276555","0.0-148.0","0zutxzx2","","","","","","","",""
"","","","call-function","149","276555","0.0-149.0","0zutxzx2","","","","","","","",""
"null","","","html-keyboard-response","150","278060","0.0-150.0","0zutxzx2","","<span style=""color:Black; font-size:50px;"">Agent A","null","","","","",""
"null","","","video-keyboard-response","151","280901","0.0-151.0","0zutxzx2","","","null","","Agent A","veridical","FOR_REV_MAP_BLOBBY_STIM/713829.bmp_pp60_L3_V1.0_veridical_freeview_isoTrue_fps144.mp4",""
"null","","","html-keyboard-response","152","282407","0.0-152.0","0zutxzx2","","<span style=""color:Black; font-size:50px;"">Agent B","null","","","","",""
"null","","","video-keyboard-response","153","285253","0.0-153.0","0zutxzx2","","","null","","Agent B","scrambled","FOR_REV_MAP_BLOBBY_STIM/713829.bmp_pp60_L3_V1.0_veridical_freeview_isoTrue_fps144_reversed_REAL.mp4",""
"","","","call-function","154","285254","0.0-154.0","0zutxzx2","","","","","","","",""
"1626.5599999999977","{""judgement"":1}","[0]","survey-likert","155","286882","0.0-155.0","0zutxzx2","","","","","","","","0"
"990.039999999979","{""confidence"":2}","[0]","survey-likert","156","287873","0.0-156.0","0zutxzx2","","","","","","","",""
"","","","call-function","157","287873","0.0-157.0","0zutxzx2","","","","","","","",""
"null","","","html-keyboard-response","158","289378","0.0-158.0","0zutxzx2","","<span style=""color:Black; font-size:50px;"">Agent A","null","","","","",""
"null","","","video-keyboard-response","159","292156","0.0-159.0","0zutxzx2","","","null","","Agent A","scrambled","FOR_REV_MAP_BLOBBY_STIM/713790.bmp_pp100_L3_V1.0_veridical_freeview_isoTrue_fps144_reversed_REAL.mp4",""
"null","","","html-keyboard-response","160","293660","0.0-160.0","0zutxzx2","","<span style=""color:Black; font-size:50px;"">Agent B","null","","","","",""
"null","","","video-keyboard-response","161","296437","0.0-161.0","0zutxzx2","","","null","","Agent B","veridical","FOR_REV_MAP_BLOBBY_STIM/713790.bmp_pp100_L3_V1.0_veridical_freeview_isoTrue_fps144.mp4",""
"","","","call-function","162","296438","0.0-162.0","0zutxzx2","","","","","","","",""
"1563.884999999951","{""judgement"":0}","[0]","survey-likert","163","298003","0.0-163.0","0zutxzx2","","","","","","","","1"
"1505.609999999986","{""confidence"":2}","[0]","survey-likert","164","299510","0.0-164.0","0zutxzx2","","","","","","","",""
"","","","call-function","165","299511","0.0-165.0","0zutxzx2","","","","","","","",""
"null","","","html-keyboard-response","166","301015","0.0-166.0","0zutxzx2","","<span style=""color:Black; font-size:50px;"">Agent A","null","","","","",""
"null","","","video-keyboard-response","167","303793","0.0-167.0","0zutxzx2","","","null","","Agent A","veridical","FOR_REV_MAP_BLOBBY_STIM/1592289.bmp_pp92_L3_V1.0_veridical_freeview_isoTrue_fps144.mp4",""
"null","","","html-keyboard-response","168","305295","0.0-168.0","0zutxzx2","","<span style=""color:Black; font-size:50px;"">Agent B","null","","","","",""
"null","","","video-keyboard-response","169","308078","0.0-169.0","0zutxzx2","","","null","","Agent B","scrambled","FOR_REV_MAP_BLOBBY_STIM/1592289.bmp_pp92_L3_V1.0_veridical_freeview_isoTrue_fps144_reversed_REAL.mp4",""
"","","","call-function","170","308078","0.0-170.0","0zutxzx2","","","","","","","",""
"1231.6549999999697","{""judgement"":0}","[0]","survey-likert","171","309311","0.0-171.0","0zutxzx2","","","","","","","","0"
"1063.5100000000093","{""confidence"":2}","[0]","survey-likert","172","310376","0.0-172.0","0zutxzx2","","","","","","","",""
"1638.399999999965","","","instructions","173","312015","0.0-173.0","0zutxzx2","[{""page_index"":0,""viewing_time"":758.4949999999953},{""page_index"":1,""viewing_time"":461.63999999995576},{""page_index"":2,""viewing_time"":418.11000000004424}]","","","","","","",""
"1265.3649999999907","","","instructions","174","313281","0.0-174.0","0zutxzx2","[{""page_index"":0,""viewing_time"":453.1350000000093},{""page_index"":1,""viewing_time"":425.10999999998603},{""page_index"":2,""viewing_time"":387.01500000001397}]","","","","","","",""
"","","","call-function","175","313282","0.0-175.0","0zutxzx2","","","","","","","",""
"null","","","html-keyboard-response","176","314783","0.0-176.0","0zutxzx2","","<span style=""color:Black; font-size:50px;"">Agent A","null","","","","",""
"null","","","video-keyboard-response","177","317548","0.0-177.0","0zutxzx2","","","null","","Agent A","veridical","FOR_REV_MAP_BLOBBY_STIM/1592044.bmp_pp94_L2_V1.0_veridical_freeview_isoTrue_fps144.mp4",""
"null","","","html-keyboard-response","178","319052","0.0-178.0","0zutxzx2","","<span style=""color:Black; font-size:50px;"">Agent B","null","","","","",""
"null","","","video-keyboard-response","179","321819","0.0-179.0","0zutxzx2","","","null","","Agent B","scrambled","FOR_REV_MAP_BLOBBY_STIM/1592044.bmp_pp94_L2_V1.0_veridical_freeview_isoTrue_fps144_reversed_REAL.mp4",""
"","","","call-function","180","321819","0.0-180.0","0zutxzx2","","","","","","","",""
"2053.429999999993","{""judgement"":1}","[0]","survey-likert","181","323874","0.0-181.0","0zutxzx2","","","","","","","","0"
"1057.5449999999837","{""confidence"":2}","[0]","survey-likert","182","324933","0.0-182.0","0zutxzx2","","","","","","","",""
"","","","call-function","183","324934","0.0-183.0","0zutxzx2","","","","","","","",""
"null","","","html-keyboard-response","184","326438","0.0-184.0","0zutxzx2","","<span style=""color:Black; font-size:50px;"">Agent A","null","","","","",""
"null","","","video-keyboard-response","185","329185","0.0-185.0","0zutxzx2","","","null","","Agent A","veridical","FOR_REV_MAP_BLOBBY_STIM/1159956.bmp_pp59_L3_V1.0_veridical_freeview_isoTrue_fps144.mp4",""
"null","","","html-keyboard-response","186","330689","0.0-186.0","0zutxzx2","","<span style=""color:Black; font-size:50px;"">Agent B","null","","","","",""
"null","","","video-keyboard-response","187","333436","0.0-187.0","0zutxzx2","","","null","","Agent B","scrambled","FOR_REV_MAP_BLOBBY_STIM/1159956.bmp_pp59_L3_V1.0_veridical_freeview_isoTrue_fps144_reversed_REAL.mp4",""
"","","","call-function","188","333436","0.0-188.0","0zutxzx2","","","","","","","",""
"1542.969999999972","{""judgement"":0}","[0]","survey-likert","189","334980","0.0-189.0","0zutxzx2","","","","","","","","0"
"1239.3099999999977","{""confidence"":2}","[0]","survey-likert","190","336220","0.0-190.0","0zutxzx2","","","","","","","",""
"","","","call-function","191","336221","0.0-191.0","0zutxzx2","","","","","","","",""
"null","","","html-keyboard-response","192","337724","0.0-192.0","0zutxzx2","","<span style=""color:Black; font-size:50px;"">Agent A","null","","","","",""
"null","","","video-keyboard-response","193","340332","0.0-193.0","0zutxzx2","","","null","","Agent A","veridical","FOR_REV_MAP_BLOBBY_STIM/713633.bmp_pp58_L1_V1.0_veridical_freeview_isoTrue_fps144.mp4",""
"null","","","html-keyboard-response","194","341836","0.0-194.0","0zutxzx2","","<span style=""color:Black; font-size:50px;"">Agent B","null","","","","",""
"null","","","video-keyboard-response","195","344440","0.0-195.0","0zutxzx2","","","null","","Agent B","scrambled","FOR_REV_MAP_BLOBBY_STIM/713633.bmp_pp58_L1_V1.0_veridical_freeview_isoTrue_fps144_reversed_REAL.mp4",""
"","","","call-function","196","344440","0.0-196.0","0zutxzx2","","","","","","","",""
"2453.5149999999558","{""judgement"":0}","[0]","survey-likert","197","346894","0.0-197.0","0zutxzx2","","","","","","","","0"
"1231.2299999999814","{""confidence"":2}","[0]","survey-likert","198","348127","0.0-198.0","0zutxzx2","","","","","","","",""
"","","","call-function","199","348127","0.0-199.0","0zutxzx2","","","","","","","",""
"null","","","html-keyboard-response","200","349631","0.0-200.0","0zutxzx2","","<span style=""color:Black; font-size:50px;"">Agent A","null","","","","",""
"null","","","video-keyboard-response","201","352413","0.0-201.0","0zutxzx2","","","null","","Agent A","veridical","FOR_REV_MAP_BLOBBY_STIM/1159860.bmp_pp152_L2_V1.0_veridical_freeview_isoTrue_fps144.mp4",""
"null","","","html-keyboard-response","202","353914","0.0-202.0","0zutxzx2","","<span style=""color:Black; font-size:50px;"">Agent B","null","","","","",""
"null","","","video-keyboard-response","203","356700","0.0-203.0","0zutxzx2","","","null","","Agent B","scrambled","FOR_REV_MAP_BLOBBY_STIM/1159860.bmp_pp152_L2_V1.0_veridical_freeview_isoTrue_fps144_reversed_REAL.mp4",""
"","","","call-function","204","356700","0.0-204.0","0zutxzx2","","","","","","","",""
"1433.5650000000023","{""judgement"":0}","[0]","survey-likert","205","358135","0.0-205.0","0zutxzx2","","","","","","","","0"
"2128.2299999999814","{""confidence"":2}","[0]","survey-likert","206","360264","0.0-206.0","0zutxzx2","","","","","","","",""
"","","","call-function","207","360265","0.0-207.0","0zutxzx2","","","","","","","",""
"null","","","html-keyboard-response","208","361772","0.0-208.0","0zutxzx2","","<span style=""color:Black; font-size:50px;"">Agent A","null","","","","",""
"null","","","video-keyboard-response","209","364609","0.0-209.0","0zutxzx2","","","null","","Agent A","veridical","FOR_REV_MAP_BLOBBY_STIM/713381.bmp_pp82_L2_V1.0_veridical_freeview_isoTrue_fps144.mp4",""
"null","","","html-keyboard-response","210","366114","0.0-210.0","0zutxzx2","","<span style=""color:Black; font-size:50px;"">Agent B","null","","","","",""
"null","","","video-keyboard-response","211","368932","0.0-211.0","0zutxzx2","","","null","","Agent B","scrambled","FOR_REV_MAP_BLOBBY_STIM/713381.bmp_pp82_L2_V1.0_veridical_freeview_isoTrue_fps144_reversed_REAL.mp4",""
"","","","call-function","212","368932","0.0-212.0","0zutxzx2","","","","","","","",""
"2508.280000000028","{""judgement"":1}","[0]","survey-likert","213","371441","0.0-213.0","0zutxzx2","","","","","","","","0"
"810.5349999999744","{""confidence"":2}","[0]","survey-likert","214","372253","0.0-214.0","0zutxzx2","","","","","","","",""
"","","","call-function","215","372253","0.0-215.0","0zutxzx2","","","","","","","",""
"null","","","html-keyboard-response","216","373757","0.0-216.0","0zutxzx2","","<span style=""color:Black; font-size:50px;"">Agent A","null","","","","",""
"null","","","video-keyboard-response","217","376427","0.0-217.0","0zutxzx2","","","null","","Agent A","veridical","FOR_REV_MAP_BLOBBY_STIM/61513.bmp_pp75_L1_V1.0_veridical_freeview_isoTrue_fps144.mp4",""
"null","","","html-keyboard-response","218","377933","0.0-218.0","0zutxzx2","","<span style=""color:Black; font-size:50px;"">Agent B","null","","","","",""
"null","","","video-keyboard-response","219","380598","0.0-219.0","0zutxzx2","","","null","","Agent B","scrambled","FOR_REV_MAP_BLOBBY_STIM/61513.bmp_pp75_L1_V1.0_veridical_freeview_isoTrue_fps144_reversed_REAL.mp4",""
"","","","call-function","220","380598","0.0-220.0","0zutxzx2","","","","","","","",""
"1643.8499999999767","{""judgement"":1}","[0]","survey-likert","221","382243","0.0-221.0","0zutxzx2","","","","","","","","0"
"2413.804999999993","{""confidence"":3}","[0]","survey-likert","222","384658","0.0-222.0","0zutxzx2","","","","","","","",""
"","","","call-function","223","384659","0.0-223.0","0zutxzx2","","","","","","","",""
"null","","","html-keyboard-response","224","386161","0.0-224.0","0zutxzx2","","<span style=""color:Black; font-size:50px;"">Agent A","null","","","","",""
"null","","","video-keyboard-response","225","388986","0.0-225.0","0zutxzx2","","","null","","Agent A","scrambled","FOR_REV_MAP_BLOBBY_STIM/713742.bmp_pp91_L3_V1.0_veridical_freeview_isoTrue_fps144_reversed_REAL.mp4",""
"null","","","html-keyboard-response","226","390492","0.0-226.0","0zutxzx2","","<span style=""color:Black; font-size:50px;"">Agent B","null","","","","",""
"null","","","video-keyboard-response","227","393335","0.0-227.0","0zutxzx2","","","null","","Agent B","veridical","FOR_REV_MAP_BLOBBY_STIM/713742.bmp_pp91_L3_V1.0_veridical_freeview_isoTrue_fps144.mp4",""
"","","","call-function","228","393337","0.0-228.0","0zutxzx2","","","","","","","",""
"2254.0900000000256","{""judgement"":1}","[0]","survey-likert","229","395592","0.0-229.0","0zutxzx2","","","","","","","","1"
"1656.320000000007","{""confidence"":2}","[0]","survey-likert","230","397251","0.0-230.0","0zutxzx2","","","","","","","",""
"","","","call-function","231","397252","0.0-231.0","0zutxzx2","","","","","","","",""
"null","","","html-keyboard-response","232","398759","0.0-232.0","0zutxzx2","","<span style=""color:Black; font-size:50px;"">Agent A","null","","","","",""
"null","","","video-keyboard-response","233","401559","0.0-233.0","0zutxzx2","","","null","","Agent A","veridical","FOR_REV_MAP_BLOBBY_STIM/1592921.bmp_pp69_L3_V1.0_veridical_freeview_isoTrue_fps144.mp4",""
"null","","","html-keyboard-response","234","403063","0.0-234.0","0zutxzx2","","<span style=""color:Black; font-size:50px;"">Agent B","null","","","","",""
"null","","","video-keyboard-response","235","405863","0.0-235.0","0zutxzx2","","","null","","Agent B","scrambled","FOR_REV_MAP_BLOBBY_STIM/1592921.bmp_pp69_L3_V1.0_veridical_freeview_isoTrue_fps144_reversed_REAL.mp4",""
"","","","call-function","236","405864","0.0-236.0","0zutxzx2","","","","","","","",""
"2143.0800000000163","{""judgement"":1}","[0]","survey-likert","237","408008","0.0-237.0","0zutxzx2","","","","","","","","0"
"917.0299999999697","{""confidence"":1}","[0]","survey-likert","238","408926","0.0-238.0","0zutxzx2","","","","","","","",""
"","","","call-function","239","408927","0.0-239.0","0zutxzx2","","","","","","","",""
"null","","","html-keyboard-response","240","410428","0.0-240.0","0zutxzx2","","<span style=""color:Black; font-size:50px;"">Agent A","null","","","","",""
"null","","","video-keyboard-response","241","413239","0.0-241.0","0zutxzx2","","","null","","Agent A","scrambled","FOR_REV_MAP_BLOBBY_STIM/1591920.bmp_pp97_L3_V1.0_veridical_freeview_isoTrue_fps144_reversed_REAL.mp4",""
"null","","","html-keyboard-response","242","414743","0.0-242.0","0zutxzx2","","<span style=""color:Black; font-size:50px;"">Agent B","null","","","","",""
"null","","","video-keyboard-response","243","417547","0.0-243.0","0zutxzx2","","","null","","Agent B","veridical","FOR_REV_MAP_BLOBBY_STIM/1591920.bmp_pp97_L3_V1.0_veridical_freeview_isoTrue_fps144.mp4",""
"","","","call-function","244","417547","0.0-244.0","0zutxzx2","","","","","","","",""
"2051.2700000000186","{""judgement"":1}","[0]","survey-likert","245","419599","0.0-245.0","0zutxzx2","","","","","","","","1"
"759.679999999993","{""confidence"":2}","[0]","survey-likert","246","420360","0.0-246.0","0zutxzx2","","","","","","","",""
"","","","call-function","247","420361","0.0-247.0","0zutxzx2","","","","","","","",""
"null","","","html-keyboard-response","248","421862","0.0-248.0","0zutxzx2","","<span style=""color:Black; font-size:50px;"">Agent A","null","","","","",""
"null","","","video-keyboard-response","249","424609","0.0-249.0","0zutxzx2","","","null","","Agent A","veridical","FOR_REV_MAP_BLOBBY_STIM/285959.bmp_pp93_L1_V1.0_veridical_freeview_isoTrue_fps144.mp4",""
"null","","","html-keyboard-response","250","426114","0.0-250.0","0zutxzx2","","<span style=""color:Black; font-size:50px;"">Agent B","null","","","","",""
"null","","","video-keyboard-response","251","428857","0.0-251.0","0zutxzx2","","","null","","Agent B","scrambled","FOR_REV_MAP_BLOBBY_STIM/285959.bmp_pp93_L1_V1.0_veridical_freeview_isoTrue_fps144_reversed_REAL.mp4",""
"","","","call-function","252","428858","0.0-252.0","0zutxzx2","","","","","","","",""
"1484.1600000000326","{""judgement"":1}","[0]","survey-likert","253","430343","0.0-253.0","0zutxzx2","","","","","","","","0"
"4482.330000000016","{""confidence"":1}","[0]","survey-likert","254","434826","0.0-254.0","0zutxzx2","","","","","","","",""
"4171.955000000016","","","instructions","255","438999","0.0-255.0","0zutxzx2","[{""page_index"":0,""viewing_time"":3379.7900000000373},{""page_index"":1,""viewing_time"":426.1350000000093},{""page_index"":2,""viewing_time"":365.75}]","","","","","","",""
"1128.280000000028","","","instructions","256","440127","0.0-256.0","0zutxzx2","[{""page_index"":0,""viewing_time"":347.0599999999977},{""page_index"":1,""viewing_time"":377.3400000000256},{""page_index"":2,""viewing_time"":403.7749999999651}]","","","","","","",""
"","","","call-function","257","440128","0.0-257.0","0zutxzx2","","","","","","","",""
"null","","","html-keyboard-response","258","441634","0.0-258.0","0zutxzx2","","<span style=""color:Black; font-size:50px;"">Agent A","null","","","","",""
"null","","","video-keyboard-response","259","444253","0.0-259.0","0zutxzx2","","","null","","Agent A","scrambled","FOR_REV_MAP_BLOBBY_STIM/1159874.bmp_pp96_L2_V1.0_veridical_freeview_isoTrue_fps144_reversed_REAL.mp4",""
"null","","","html-keyboard-response","260","445757","0.0-260.0","0zutxzx2","","<span style=""color:Black; font-size:50px;"">Agent B","null","","","","",""
"null","","","video-keyboard-response","261","448380","0.0-261.0","0zutxzx2","","","null","","Agent B","veridical","FOR_REV_MAP_BLOBBY_STIM/1159874.bmp_pp96_L2_V1.0_veridical_freeview_isoTrue_fps144.mp4",""
"","","","call-function","262","448380","0.0-262.0","0zutxzx2","","","","","","","",""
"2044.0349999999744","{""judgement"":1}","[0]","survey-likert","263","450425","0.0-263.0","0zutxzx2","","","","","","","","1"
"1681.240000000049","{""confidence"":2}","[0]","survey-likert","264","452107","0.0-264.0","0zutxzx2","","","","","","","",""
"","","","call-function","265","452108","0.0-265.0","0zutxzx2","","","","","","","",""
"null","","","html-keyboard-response","266","453613","0.0-266.0","0zutxzx2","","<span style=""color:Black; font-size:50px;"">Agent A","null","","","","",""
"null","","","video-keyboard-response","267","456424","0.0-267.0","0zutxzx2","","","null","","Agent A","veridical","FOR_REV_MAP_BLOBBY_STIM/498258.bmp_pp51_L1_V1.0_veridical_freeview_isoTrue_fps144.mp4",""
"null","","","html-keyboard-response","268","457926","0.0-268.0","0zutxzx2","","<span style=""color:Black; font-size:50px;"">Agent B","null","","","","",""
"null","","","video-keyboard-response","269","460740","0.0-269.0","0zutxzx2","","","null","","Agent B","scrambled","FOR_REV_MAP_BLOBBY_STIM/498258.bmp_pp51_L1_V1.0_veridical_freeview_isoTrue_fps144_reversed_REAL.mp4",""
"","","","call-function","270","460741","0.0-270.0","0zutxzx2","","","","","","","",""
"1725.0800000000163","{""judgement"":0}","[0]","survey-likert","271","462467","0.0-271.0","0zutxzx2","","","","","","","","0"
"1199.1450000000186","{""confidence"":2}","[0]","survey-likert","272","463668","0.0-272.0","0zutxzx2","","","","","","","",""
"","","","call-function","273","463669","0.0-273.0","0zutxzx2","","","","","","","",""
"null","","","html-keyboard-response","274","465175","0.0-274.0","0zutxzx2","","<span style=""color:Black; font-size:50px;"">Agent A","null","","","","",""
"null","","","video-keyboard-response","275","467939","0.0-275.0","0zutxzx2","","","null","","Agent A","scrambled","FOR_REV_MAP_BLOBBY_STIM/150277.bmp_pp65_L3_V1.0_veridical_freeview_isoTrue_fps144_reversed_REAL.mp4",""
"null","","","html-keyboard-response","276","469446","0.0-276.0","0zutxzx2","","<span style=""color:Black; font-size:50px;"">Agent B","null","","","","",""
"null","","","video-keyboard-response","277","472215","0.0-277.0","0zutxzx2","","","null","","Agent B","veridical","FOR_REV_MAP_BLOBBY_STIM/150277.bmp_pp65_L3_V1.0_veridical_freeview_isoTrue_fps144.mp4",""
"","","","call-function","278","472215","0.0-278.0","0zutxzx2","","","","","","","",""
"1664","{""judgement"":1}","[0]","survey-likert","279","473880","0.0-279.0","0zutxzx2","","","","","","","","1"
"991.8499999999767","{""confidence"":2}","[0]","survey-likert","280","474873","0.0-280.0","0zutxzx2","","","","","","","",""
"","","","call-function","281","474874","0.0-281.0","0zutxzx2","","","","","","","",""
"null","","","html-keyboard-response","282","476374","0.0-282.0","0zutxzx2","","<span style=""color:Black; font-size:50px;"">Agent A","null","","","","",""
"null","","","video-keyboard-response","283","479146","0.0-283.0","0zutxzx2","","","null","","Agent A","scrambled","FOR_REV_MAP_BLOBBY_STIM/1160049.bmp_pp53_L2_V1.0_veridical_freeview_isoTrue_fps144_reversed_REAL.mp4",""
"null","","","html-keyboard-response","284","480653","0.0-284.0","0zutxzx2","","<span style=""color:Black; font-size:50px;"">Agent B","null","","","","",""
"null","","","video-keyboard-response","285","483423","0.0-285.0","0zutxzx2","","","null","","Agent B","veridical","FOR_REV_MAP_BLOBBY_STIM/1160049.bmp_pp53_L2_V1.0_veridical_freeview_isoTrue_fps144.mp4",""
"","","","call-function","286","483424","0.0-286.0","0zutxzx2","","","","","","","",""
"2986.5100000000093","{""judgement"":0}","[0]","survey-likert","287","486412","0.0-287.0","0zutxzx2","","","","","","","","1"
"2185.625","{""confidence"":1}","[0]","survey-likert","288","488600","0.0-288.0","0zutxzx2","","","","","","","",""
"","","","call-function","289","488601","0.0-289.0","0zutxzx2","","","","","","","",""
"null","","","html-keyboard-response","290","490102","0.0-290.0","0zutxzx2","","<span style=""color:Black; font-size:50px;"">Agent A","null","","","","",""
"null","","","video-keyboard-response","291","492865","0.0-291.0","0zutxzx2","","","null","","Agent A","scrambled","FOR_REV_MAP_BLOBBY_STIM/1159329.bmp_pp61_L2_V1.0_veridical_freeview_isoTrue_fps144_reversed_REAL.mp4",""
"null","","","html-keyboard-response","292","494370","0.0-292.0","0zutxzx2","","<span style=""color:Black; font-size:50px;"">Agent B","null","","","","",""
"null","","","video-keyboard-response","293","497135","0.0-293.0","0zutxzx2","","","null","","Agent B","veridical","FOR_REV_MAP_BLOBBY_STIM/1159329.bmp_pp61_L2_V1.0_veridical_freeview_isoTrue_fps144.mp4",""
"","","","call-function","294","497135","0.0-294.0","0zutxzx2","","","","","","","",""
"1375.9349999999977","{""judgement"":0}","[0]","survey-likert","295","498512","0.0-295.0","0zutxzx2","","","","","","","","1"
"1248.6849999999977","{""confidence"":2}","[0]","survey-likert","296","499763","0.0-296.0","0zutxzx2","","","","","","","",""
"","","","call-function","297","499763","0.0-297.0","0zutxzx2","","","","","","","",""
"null","","","html-keyboard-response","298","501265","0.0-298.0","0zutxzx2","","<span style=""color:Black; font-size:50px;"">Agent A","null","","","","",""
"null","","","video-keyboard-response","299","504016","0.0-299.0","0zutxzx2","","","null","","Agent A","veridical","FOR_REV_MAP_BLOBBY_STIM/1160247.bmp_pp54_L2_V1.0_veridical_freeview_isoTrue_fps144.mp4",""
"null","","","html-keyboard-response","300","505522","0.0-300.0","0zutxzx2","","<span style=""color:Black; font-size:50px;"">Agent B","null","","","","",""
"null","","","video-keyboard-response","301","508274","0.0-301.0","0zutxzx2","","","null","","Agent B","scrambled","FOR_REV_MAP_BLOBBY_STIM/1160247.bmp_pp54_L2_V1.0_veridical_freeview_isoTrue_fps144_reversed_REAL.mp4",""
"","","","call-function","302","508275","0.0-302.0","0zutxzx2","","","","","","","",""
"1747.7949999999837","{""judgement"":1}","[0]","survey-likert","303","510023","0.0-303.0","0zutxzx2","","","","","","","","0"
"1538.1149999999907","{""confidence"":2}","[0]","survey-likert","304","511563","0.0-304.0","0zutxzx2","","","","","","","",""
"","","","call-function","305","511563","0.0-305.0","0zutxzx2","","","","","","","",""
"null","","","html-keyboard-response","306","513069","0.0-306.0","0zutxzx2","","<span style=""color:Black; font-size:50px;"">Agent A","null","","","","",""
"null","","","video-keyboard-response","307","515883","0.0-307.0","0zutxzx2","","","null","","Agent A","scrambled","FOR_REV_MAP_BLOBBY_STIM/1592530.bmp_pp75_L1_V1.0_veridical_freeview_isoTrue_fps144_reversed_REAL.mp4",""
"null","","","html-keyboard-response","308","517389","0.0-308.0","0zutxzx2","","<span style=""color:Black; font-size:50px;"">Agent B","null","","","","",""
"null","","","video-keyboard-response","309","520200","0.0-309.0","0zutxzx2","","","null","","Agent B","veridical","FOR_REV_MAP_BLOBBY_STIM/1592530.bmp_pp75_L1_V1.0_veridical_freeview_isoTrue_fps144.mp4",""
"","","","call-function","310","520200","0.0-310.0","0zutxzx2","","","","","","","",""
"1763.4500000000116","{""judgement"":1}","[0]","survey-likert","311","521965","0.0-311.0","0zutxzx2","","","","","","","","1"
"855.460000000021","{""confidence"":2}","[0]","survey-likert","312","522822","0.0-312.0","0zutxzx2","","","","","","","",""
"","","","call-function","313","522822","0.0-313.0","0zutxzx2","","","","","","","",""
"null","","","html-keyboard-response","314","524326","0.0-314.0","0zutxzx2","","<span style=""color:Black; font-size:50px;"">Agent A","null","","","","",""
"null","","","video-keyboard-response","315","527095","0.0-315.0","0zutxzx2","","","null","","Agent A","veridical","FOR_REV_MAP_BLOBBY_STIM/1592298.bmp_pp56_L3_V1.0_veridical_freeview_isoTrue_fps144.mp4",""
"null","","","html-keyboard-response","316","528597","0.0-316.0","0zutxzx2","","<span style=""color:Black; font-size:50px;"">Agent B","null","","","","",""
"null","","","video-keyboard-response","317","531370","0.0-317.0","0zutxzx2","","","null","","Agent B","scrambled","FOR_REV_MAP_BLOBBY_STIM/1592298.bmp_pp56_L3_V1.0_veridical_freeview_isoTrue_fps144_reversed_REAL.mp4",""
"","","","call-function","318","531370","0.0-318.0","0zutxzx2","","","","","","","",""
"2389.1300000000047","{""judgement"":0}","[0]","survey-likert","319","533760","0.0-319.0","0zutxzx2","","","","","","","","0"
"1177.844999999972","{""confidence"":2}","[0]","survey-likert","320","534939","0.0-320.0","0zutxzx2","","","","","","","",""
"","","","call-function","321","534940","0.0-321.0","0zutxzx2","","","","","","","",""
"null","","","html-keyboard-response","322","536445","0.0-322.0","0zutxzx2","","<span style=""color:Black; font-size:50px;"">Agent A","null","","","","",""
"null","","","video-keyboard-response","323","539250","0.0-323.0","0zutxzx2","","","null","","Agent A","veridical","FOR_REV_MAP_BLOBBY_STIM/1592150.bmp_pp77_L3_V1.0_veridical_freeview_isoTrue_fps144.mp4",""
"null","","","html-keyboard-response","324","540754","0.0-324.0","0zutxzx2","","<span style=""color:Black; font-size:50px;"">Agent B","null","","","","",""
"null","","","video-keyboard-response","325","543545","0.0-325.0","0zutxzx2","","","null","","Agent B","scrambled","FOR_REV_MAP_BLOBBY_STIM/1592150.bmp_pp77_L3_V1.0_veridical_freeview_isoTrue_fps144_reversed_REAL.mp4",""
"","","","call-function","326","543546","0.0-326.0","0zutxzx2","","","","","","","",""
"1597.0750000000698","{""judgement"":0}","[0]","survey-likert","327","545145","0.0-327.0","0zutxzx2","","","","","","","","0"
"880.0349999999162","{""confidence"":2}","[0]","survey-likert","328","546027","0.0-328.0","0zutxzx2","","","","","","","",""
"","","","call-function","329","546028","0.0-329.0","0zutxzx2","","","","","","","",""
"null","","","html-keyboard-response","330","547533","0.0-330.0","0zutxzx2","","<span style=""color:Black; font-size:50px;"">Agent A","null","","","","",""
"null","","","video-keyboard-response","331","550325","0.0-331.0","0zutxzx2","","","null","","Agent A","veridical","FOR_REV_MAP_BLOBBY_STIM/107909.bmp_pp95_L2_V1.0_veridical_freeview_isoTrue_fps144.mp4",""
"null","","","html-keyboard-response","332","551828","0.0-332.0","0zutxzx2","","<span style=""color:Black; font-size:50px;"">Agent B","null","","","","",""
"null","","","video-keyboard-response","333","554622","0.0-333.0","0zutxzx2","","","null","","Agent B","scrambled","FOR_REV_MAP_BLOBBY_STIM/107909.bmp_pp95_L2_V1.0_veridical_freeview_isoTrue_fps144_reversed_REAL.mp4",""
"","","","call-function","334","554623","0.0-334.0","0zutxzx2","","","","","","","",""
"1697.579999999958","{""judgement"":0}","[0]","survey-likert","335","556322","0.0-335.0","0zutxzx2","","","","","","","","0"
"1950.265000000014","{""confidence"":2}","[0]","survey-likert","336","558273","0.0-336.0","0zutxzx2","","","","","","","",""
"11178.895000000019","","","instructions","337","569453","0.0-337.0","0zutxzx2","[{""page_index"":0,""viewing_time"":3805.8399999999674},{""page_index"":1,""viewing_time"":6996.089999999967},{""page_index"":2,""viewing_time"":376.8100000000559}]","","","","","","",""
"933.2199999999721","","","instructions","338","570387","0.0-338.0","0zutxzx2","[{""page_index"":0,""viewing_time"":206.14500000001863},{""page_index"":1,""viewing_time"":358.60999999998603},{""page_index"":2,""viewing_time"":368.3549999999814}]","","","","","","",""
"","","","call-function","339","570387","0.0-339.0","0zutxzx2","","","","","","","",""
"null","","","html-keyboard-response","340","571889","0.0-340.0","0zutxzx2","","<span style=""color:Black; font-size:50px;"">Agent A","null","","","","",""
"null","","","video-keyboard-response","341","573980","0.0-341.0","0zutxzx2","","","null","","Agent A","veridical","FOR_REV_MAP_BLOBBY_STIM/1159973.bmp_pp98_L1_V1.0_veridical_freeview_isoTrue_fps144.mp4",""
"null","","","html-keyboard-response","342","575485","0.0-342.0","0zutxzx2","","<span style=""color:Black; font-size:50px;"">Agent B","null","","","","",""
"null","","","video-keyboard-response","343","577597","0.0-343.0","0zutxzx2","","","null","","Agent B","scrambled","FOR_REV_MAP_BLOBBY_STIM/1159973.bmp_pp98_L1_V1.0_veridical_freeview_isoTrue_fps144_reversed_REAL.mp4",""
"","","","call-function","344","577597","0.0-344.0","0zutxzx2","","","","","","","",""
"1714.3800000000047","{""judgement"":1}","[0]","survey-likert","345","579312","0.0-345.0","0zutxzx2","","","","","","","","0"
"1537.1950000000652","{""confidence"":2}","[0]","survey-likert","346","580851","0.0-346.0","0zutxzx2","","","","","","","",""
"","","","call-function","347","580852","0.0-347.0","0zutxzx2","","","","","","","",""
"null","","","html-keyboard-response","348","582354","0.0-348.0","0zutxzx2","","<span style=""color:Black; font-size:50px;"">Agent A","null","","","","",""
"null","","","video-keyboard-response","349","584929","0.0-349.0","0zutxzx2","","","null","","Agent A","veridical","FOR_REV_MAP_BLOBBY_STIM/498398.bmp_pp81_L1_V1.0_veridical_freeview_isoTrue_fps144.mp4",""
"null","","","html-keyboard-response","350","586434","0.0-350.0","0zutxzx2","","<span style=""color:Black; font-size:50px;"">Agent B","null","","","","",""
"null","","","video-keyboard-response","351","589014","0.0-351.0","0zutxzx2","","","null","","Agent B","scrambled","FOR_REV_MAP_BLOBBY_STIM/498398.bmp_pp81_L1_V1.0_veridical_freeview_isoTrue_fps144_reversed_REAL.mp4",""
"","","","call-function","352","589015","0.0-352.0","0zutxzx2","","","","","","","",""
"1629.920000000042","{""judgement"":0}","[0]","survey-likert","353","590645","0.0-353.0","0zutxzx2","","","","","","","","0"
"1371.5499999999302","{""confidence"":1}","[0]","survey-likert","354","592018","0.0-354.0","0zutxzx2","","","","","","","",""
"","","","call-function","355","592019","0.0-355.0","0zutxzx2","","","","","","","",""
"null","","","html-keyboard-response","356","593522","0.0-356.0","0zutxzx2","","<span style=""color:Black; font-size:50px;"">Agent A","null","","","","",""
"null","","","video-keyboard-response","357","596343","0.0-357.0","0zutxzx2","","","null","","Agent A","scrambled","FOR_REV_MAP_BLOBBY_STIM/1592314.bmp_pp100_L3_V1.0_veridical_freeview_isoTrue_fps144_reversed_REAL.mp4",""
"null","","","html-keyboard-response","358","597848","0.0-358.0","0zutxzx2","","<span style=""color:Black; font-size:50px;"">Agent B","null","","","","",""
"null","","","video-keyboard-response","359","600669","0.0-359.0","0zutxzx2","","","null","","Agent B","veridical","FOR_REV_MAP_BLOBBY_STIM/1592314.bmp_pp100_L3_V1.0_veridical_freeview_isoTrue_fps144.mp4",""
"","","","call-function","360","600669","0.0-360.0","0zutxzx2","","","","","","","",""
"3134.7099999999627","{""judgement"":0}","[0]","survey-likert","361","603805","0.0-361.0","0zutxzx2","","","","","","","","1"
"1239.6500000000233","{""confidence"":1}","[0]","survey-likert","362","605046","0.0-362.0","0zutxzx2","","","","","","","",""
"","","","call-function","363","605046","0.0-363.0","0zutxzx2","","","","","","","",""
"null","","","html-keyboard-response","364","606552","0.0-364.0","0zutxzx2","","<span style=""color:Black; font-size:50px;"">Agent A","null","","","","",""
"null","","","video-keyboard-response","365","609310","0.0-365.0","0zutxzx2","","","null","","Agent A","veridical","FOR_REV_MAP_BLOBBY_STIM/1592747.bmp_pp53_L2_V1.0_veridical_freeview_isoTrue_fps144.mp4",""
"null","","","html-keyboard-response","366","610813","0.0-366.0","0zutxzx2","","<span style=""color:Black; font-size:50px;"">Agent B","null","","","","",""
"null","","","video-keyboard-response","367","613575","0.0-367.0","0zutxzx2","","","null","","Agent B","scrambled","FOR_REV_MAP_BLOBBY_STIM/1592747.bmp_pp53_L2_V1.0_veridical_freeview_isoTrue_fps144_reversed_REAL.mp4",""
"","","","call-function","368","613576","0.0-368.0","0zutxzx2","","","","","","","",""
"1955.8200000000652","{""judgement"":1}","[0]","survey-likert","369","615533","0.0-369.0","0zutxzx2","","","","","","","","0"
"1361.890000000014","{""confidence"":2}","[0]","survey-likert","370","616896","0.0-370.0","0zutxzx2","","","","","","","",""
"","","","call-function","371","616897","0.0-371.0","0zutxzx2","","","","","","","",""
"null","","","html-keyboard-response","372","618402","0.0-372.0","0zutxzx2","","<span style=""color:Black; font-size:50px;"">Agent A","null","","","","",""
"null","","","video-keyboard-response","373","621210","0.0-373.0","0zutxzx2","","","null","","Agent A","veridical","FOR_REV_MAP_BLOBBY_STIM/713770.bmp_pp89_L1_V1.0_veridical_freeview_isoTrue_fps144.mp4",""
"null","","","html-keyboard-response","374","622716","0.0-374.0","0zutxzx2","","<span style=""color:Black; font-size:50px;"">Agent B","null","","","","",""
"null","","","video-keyboard-response","375","625538","0.0-375.0","0zutxzx2","","","null","","Agent B","scrambled","FOR_REV_MAP_BLOBBY_STIM/713770.bmp_pp89_L1_V1.0_veridical_freeview_isoTrue_fps144_reversed_REAL.mp4",""
"","","","call-function","376","625540","0.0-376.0","0zutxzx2","","","","","","","",""
"1701.1050000000978","{""judgement"":0}","[0]","survey-likert","377","627242","0.0-377.0","0zutxzx2","","","","","","","","0"
"2372.579999999958","{""confidence"":1}","[0]","survey-likert","378","629616","0.0-378.0","0zutxzx2","","","","","","","",""
"","","","call-function","379","629617","0.0-379.0","0zutxzx2","","","","","","","",""
"null","","","html-keyboard-response","380","631123","0.0-380.0","0zutxzx2","","<span style=""color:Black; font-size:50px;"">Agent A","null","","","","",""
"null","","","video-keyboard-response","381","633794","0.0-381.0","0zutxzx2","","","null","","Agent A","scrambled","FOR_REV_MAP_BLOBBY_STIM/713788.bmp_pp52_L1_V1.0_veridical_freeview_isoTrue_fps144_reversed_REAL.mp4",""
"null","","","html-keyboard-response","382","635298","0.0-382.0","0zutxzx2","","<span style=""color:Black; font-size:50px;"">Agent B","null","","","","",""
"null","","","video-keyboard-response","383","637974","0.0-383.0","0zutxzx2","","","null","","Agent B","veridical","FOR_REV_MAP_BLOBBY_STIM/713788.bmp_pp52_L1_V1.0_veridical_freeview_isoTrue_fps144.mp4",""
"","","","call-function","384","637975","0.0-384.0","0zutxzx2","","","","","","","",""
"5729.829999999958","{""judgement"":0}","[0]","survey-likert","385","643706","0.0-385.0","0zutxzx2","","","","","","","","1"
"1179.8000000000466","{""confidence"":1}","[0]","survey-likert","386","644887","0.0-386.0","0zutxzx2","","","","","","","",""
"","","","call-function","387","644888","0.0-387.0","0zutxzx2","","","","","","","",""
"null","","","html-keyboard-response","388","646390","0.0-388.0","0zutxzx2","","<span style=""color:Black; font-size:50px;"">Agent A","null","","","","",""
"null","","","video-keyboard-response","389","649227","0.0-389.0","0zutxzx2","","","null","","Agent A","veridical","FOR_REV_MAP_BLOBBY_STIM/498261.bmp_pp84_L3_V1.0_veridical_freeview_isoTrue_fps144.mp4",""
"null","","","html-keyboard-response","390","650733","0.0-390.0","0zutxzx2","","<span style=""color:Black; font-size:50px;"">Agent B","null","","","","",""
"null","","","video-keyboard-response","391","653567","0.0-391.0","0zutxzx2","","","null","","Agent B","scrambled","FOR_REV_MAP_BLOBBY_STIM/498261.bmp_pp84_L3_V1.0_veridical_freeview_isoTrue_fps144_reversed_REAL.mp4",""
"","","","call-function","392","653567","0.0-392.0","0zutxzx2","","","","","","","",""
"2400.1450000000186","{""judgement"":1}","[0]","survey-likert","393","655968","0.0-393.0","0zutxzx2","","","","","","","","0"
"1361.015000000014","{""confidence"":2}","[0]","survey-likert","394","657331","0.0-394.0","0zutxzx2","","","","","","","",""
"","","","call-function","395","657331","0.0-395.0","0zutxzx2","","","","","","","",""
"null","","","html-keyboard-response","396","658835","0.0-396.0","0zutxzx2","","<span style=""color:Black; font-size:50px;"">Agent A","null","","","","",""
"null","","","video-keyboard-response","397","661533","0.0-397.0","0zutxzx2","","","null","","Agent A","scrambled","FOR_REV_MAP_BLOBBY_STIM/1592038.bmp_pp79_L2_V1.0_veridical_freeview_isoTrue_fps144_reversed_REAL.mp4",""
"null","","","html-keyboard-response","398","663034","0.0-398.0","0zutxzx2","","<span style=""color:Black; font-size:50px;"">Agent B","null","","","","",""
"null","","","video-keyboard-response","399","665730","0.0-399.0","0zutxzx2","","","null","","Agent B","veridical","FOR_REV_MAP_BLOBBY_STIM/1592038.bmp_pp79_L2_V1.0_veridical_freeview_isoTrue_fps144.mp4",""
"","","","call-function","400","665730","0.0-400.0","0zutxzx2","","","","","","","",""
"1894.625","{""judgement"":1}","[0]","survey-likert","401","667626","0.0-401.0","0zutxzx2","","","","","","","","1"
"2436.984999999986","{""confidence"":2}","[0]","survey-likert","402","670065","0.0-402.0","0zutxzx2","","","","","","","",""
"","","","call-function","403","670065","0.0-403.0","0zutxzx2","","","","","","","",""
"null","","","html-keyboard-response","404","671566","0.0-404.0","0zutxzx2","","<span style=""color:Black; font-size:50px;"">Agent A","null","","","","",""
"null","","","video-keyboard-response","405","674374","0.0-405.0","0zutxzx2","","","null","","Agent A","scrambled","FOR_REV_MAP_BLOBBY_STIM/713274.bmp_pp73_L3_V1.0_veridical_freeview_isoTrue_fps144_reversed_REAL.mp4",""
"null","","","html-keyboard-response","406","675875","0.0-406.0","0zutxzx2","","<span style=""color:Black; font-size:50px;"">Agent B","null","","","","",""
"null","","","video-keyboard-response","407","678684","0.0-407.0","0zutxzx2","","","null","","Agent B","veridical","FOR_REV_MAP_BLOBBY_STIM/713274.bmp_pp73_L3_V1.0_veridical_freeview_isoTrue_fps144.mp4",""
"","","","call-function","408","678684","0.0-408.0","0zutxzx2","","","","","","","",""
"3235.0899999999674","{""judgement"":1}","[0]","survey-likert","409","681920","0.0-409.0","0zutxzx2","","","","","","","","1"
"2430.3000000000466","{""confidence"":1}","[0]","survey-likert","410","684353","0.0-410.0","0zutxzx2","","","","","","","",""
"","","","call-function","411","684353","0.0-411.0","0zutxzx2","","","","","","","",""
"null","","","html-keyboard-response","412","685856","0.0-412.0","0zutxzx2","","<span style=""color:Black; font-size:50px;"">Agent A","null","","","","",""
"null","","","video-keyboard-response","413","688563","0.0-413.0","0zutxzx2","","","null","","Agent A","veridical","FOR_REV_MAP_BLOBBY_STIM/1592350.bmp_pp55_L3_V1.0_veridical_freeview_isoTrue_fps144.mp4",""
"null","","","html-keyboard-response","414","690066","0.0-414.0","0zutxzx2","","<span style=""color:Black; font-size:50px;"">Agent B","null","","","","",""
"null","","","video-keyboard-response","415","692773","0.0-415.0","0zutxzx2","","","null","","Agent B","scrambled","FOR_REV_MAP_BLOBBY_STIM/1592350.bmp_pp55_L3_V1.0_veridical_freeview_isoTrue_fps144_reversed_REAL.mp4",""
"","","","call-function","416","692774","0.0-416.0","0zutxzx2","","","","","","","",""
"3248.4000000000233","{""judgement"":1}","[0]","survey-likert","417","696023","0.0-417.0","0zutxzx2","","","","","","","","0"
"2292.1199999999953","{""confidence"":1}","[0]","survey-likert","418","698316","0.0-418.0","0zutxzx2","","","","","","","",""
"1758.545000000042","","","instructions","419","700076","0.0-419.0","0zutxzx2","[{""page_index"":0,""viewing_time"":884.5450000000419},{""page_index"":1,""viewing_time"":446.48499999998603},{""page_index"":2,""viewing_time"":427.3549999999814}]","","","","","","",""
"1162.6350000000093","","","instructions","420","701240","0.0-420.0","0zutxzx2","[{""page_index"":0,""viewing_time"":378.0649999999441},{""page_index"":1,""viewing_time"":395.13000000000466},{""page_index"":2,""viewing_time"":389.3299999999581}]","","","","","","",""
"","","","call-function","421","701241","0.0-421.0","0zutxzx2","","","","","","","",""
"null","","","html-keyboard-response","422","702743","0.0-422.0","0zutxzx2","","<span style=""color:Black; font-size:50px;"">Agent A","null","","","","",""
"null","","","video-keyboard-response","423","705558","0.0-423.0","0zutxzx2","","","null","","Agent A","scrambled","FOR_REV_MAP_BLOBBY_STIM/1159508.bmp_pp151_L1_V1.0_veridical_freeview_isoTrue_fps144_reversed_REAL.mp4",""
"null","","","html-keyboard-response","424","707063","0.0-424.0","0zutxzx2","","<span style=""color:Black; font-size:50px;"">Agent B","null","","","","",""
"null","","","video-keyboard-response","425","709875","0.0-425.0","0zutxzx2","","","null","","Agent B","veridical","FOR_REV_MAP_BLOBBY_STIM/1159508.bmp_pp151_L1_V1.0_veridical_freeview_isoTrue_fps144.mp4",""
"","","","call-function","426","709876","0.0-426.0","0zutxzx2","","","","","","","",""
"1435.3549999999814","{""judgement"":1}","[0]","survey-likert","427","711312","0.0-427.0","0zutxzx2","","","","","","","","1"
"835.4099999999162","{""confidence"":2}","[0]","survey-likert","428","712149","0.0-428.0","0zutxzx2","","","","","","","",""
"","","","call-function","429","712150","0.0-429.0","0zutxzx2","","","","","","","",""
"null","","","html-keyboard-response","430","713655","0.0-430.0","0zutxzx2","","<span style=""color:Black; font-size:50px;"">Agent A","null","","","","",""
"null","","","video-keyboard-response","431","716448","0.0-431.0","0zutxzx2","","","null","","Agent A","veridical","FOR_REV_MAP_BLOBBY_STIM/1592305.bmp_pp65_L3_V1.0_veridical_freeview_isoTrue_fps144.mp4",""
"null","","","html-keyboard-response","432","717950","0.0-432.0","0zutxzx2","","<span style=""color:Black; font-size:50px;"">Agent B","null","","","","",""
"null","","","video-keyboard-response","433","720742","0.0-433.0","0zutxzx2","","","null","","Agent B","scrambled","FOR_REV_MAP_BLOBBY_STIM/1592305.bmp_pp65_L3_V1.0_veridical_freeview_isoTrue_fps144_reversed_REAL.mp4",""
"","","","call-function","434","720743","0.0-434.0","0zutxzx2","","","","","","","",""
"3635.055000000051","{""judgement"":0}","[0]","survey-likert","435","724379","0.0-435.0","0zutxzx2","","","","","","","","0"
"860.9799999999814","{""confidence"":1}","[0]","survey-likert","436","725241","0.0-436.0","0zutxzx2","","","","","","","",""
"","","","call-function","437","725241","0.0-437.0","0zutxzx2","","","","","","","",""
"null","","","html-keyboard-response","438","726746","0.0-438.0","0zutxzx2","","<span style=""color:Black; font-size:50px;"">Agent A","null","","","","",""
"null","","","video-keyboard-response","439","729527","0.0-439.0","0zutxzx2","","","null","","Agent A","veridical","FOR_REV_MAP_BLOBBY_STIM/150463.bmp_pp55_L3_V1.0_veridical_freeview_isoTrue_fps144.mp4",""
"null","","","html-keyboard-response","440","731031","0.0-440.0","0zutxzx2","","<span style=""color:Black; font-size:50px;"">Agent B","null","","","","",""
"null","","","video-keyboard-response","441","733810","0.0-441.0","0zutxzx2","","","null","","Agent B","scrambled","FOR_REV_MAP_BLOBBY_STIM/150463.bmp_pp55_L3_V1.0_veridical_freeview_isoTrue_fps144_reversed_REAL.mp4",""
"","","","call-function","442","733811","0.0-442.0","0zutxzx2","","","","","","","",""
"2281.359999999986","{""judgement"":1}","[0]","survey-likert","443","736093","0.0-443.0","0zutxzx2","","","","","","","","0"
"1763.1750000000466","{""confidence"":2}","[0]","survey-likert","444","737857","0.0-444.0","0zutxzx2","","","","","","","",""
"","","","call-function","445","737858","0.0-445.0","0zutxzx2","","","","","","","",""
"null","","","html-keyboard-response","446","739358","0.0-446.0","0zutxzx2","","<span style=""color:Black; font-size:50px;"">Agent A","null","","","","",""
"null","","","video-keyboard-response","447","742130","0.0-447.0","0zutxzx2","","","null","","Agent A","scrambled","FOR_REV_MAP_BLOBBY_STIM/1592017.bmp_pp154_L1_V1.0_veridical_freeview_isoTrue_fps144_reversed_REAL.mp4",""
"null","","","html-keyboard-response","448","743634","0.0-448.0","0zutxzx2","","<span style=""color:Black; font-size:50px;"">Agent B","null","","","","",""
"null","","","video-keyboard-response","449","746408","0.0-449.0","0zutxzx2","","","null","","Agent B","veridical","FOR_REV_MAP_BLOBBY_STIM/1592017.bmp_pp154_L1_V1.0_veridical_freeview_isoTrue_fps144.mp4",""
"","","","call-function","450","746408","0.0-450.0","0zutxzx2","","","","","","","",""
"1241.9649999999674","{""judgement"":0}","[0]","survey-likert","451","747651","0.0-451.0","0zutxzx2","","","","","","","","1"
"1205.6899999999441","{""confidence"":2}","[0]","survey-likert","452","748858","0.0-452.0","0zutxzx2","","","","","","","",""
"","","","call-function","453","748858","0.0-453.0","0zutxzx2","","","","","","","",""
"null","","","html-keyboard-response","454","750361","0.0-454.0","0zutxzx2","","<span style=""color:Black; font-size:50px;"">Agent A","null","","","","",""
"null","","","video-keyboard-response","455","753146","0.0-455.0","0zutxzx2","","","null","","Agent A","veridical","FOR_REV_MAP_BLOBBY_STIM/498372.bmp_pp95_L2_V1.0_veridical_freeview_isoTrue_fps144.mp4",""
"null","","","html-keyboard-response","456","754652","0.0-456.0","0zutxzx2","","<span style=""color:Black; font-size:50px;"">Agent B","null","","","","",""
"null","","","video-keyboard-response","457","757437","0.0-457.0","0zutxzx2","","","null","","Agent B","scrambled","FOR_REV_MAP_BLOBBY_STIM/498372.bmp_pp95_L2_V1.0_veridical_freeview_isoTrue_fps144_reversed_REAL.mp4",""
"","","","call-function","458","757438","0.0-458.0","0zutxzx2","","","","","","","",""
"8594.155000000028","{""judgement"":0}","[0]","survey-likert","459","766033","0.0-459.0","0zutxzx2","","","","","","","","0"
"1090.9550000000745","{""confidence"":1}","[0]","survey-likert","460","767125","0.0-460.0","0zutxzx2","","","","","","","",""
"","","","call-function","461","767126","0.0-461.0","0zutxzx2","","","","","","","",""
"null","","","html-keyboard-response","462","768631","0.0-462.0","0zutxzx2","","<span style=""color:Black; font-size:50px;"">Agent A","null","","","","",""
"null","","","video-keyboard-response","463","771378","0.0-463.0","0zutxzx2","","","null","","Agent A","veridical","FOR_REV_MAP_BLOBBY_STIM/1159325.bmp_pp67_L2_V1.0_veridical_freeview_isoTrue_fps144.mp4",""
"null","","","html-keyboard-response","464","772883","0.0-464.0","0zutxzx2","","<span style=""color:Black; font-size:50px;"">Agent B","null","","","","",""
"null","","","video-keyboard-response","465","775633","0.0-465.0","0zutxzx2","","","null","","Agent B","scrambled","FOR_REV_MAP_BLOBBY_STIM/1159325.bmp_pp67_L2_V1.0_veridical_freeview_isoTrue_fps144_reversed_REAL.mp4",""
"","","","call-function","466","775634","0.0-466.0","0zutxzx2","","","","","","","",""
"2511.304999999935","{""judgement"":1}","[0]","survey-likert","467","778146","0.0-467.0","0zutxzx2","","","","","","","","0"
"1146.7099999999627","{""confidence"":2}","[0]","survey-likert","468","779294","0.0-468.0","0zutxzx2","","","","","","","",""
"","","","call-function","469","779294","0.0-469.0","0zutxzx2","","","","","","","",""
"null","","","html-keyboard-response","470","780796","0.0-470.0","0zutxzx2","","<span style=""color:Black; font-size:50px;"">Agent A","null","","","","",""
"null","","","video-keyboard-response","471","783518","0.0-471.0","0zutxzx2","","","null","","Agent A","veridical","FOR_REV_MAP_BLOBBY_STIM/1159592.bmp_pp91_L3_V1.0_veridical_freeview_isoTrue_fps144.mp4",""
"null","","","html-keyboard-response","472","785022","0.0-472.0","0zutxzx2","","<span style=""color:Black; font-size:50px;"">Agent B","null","","","","",""
"null","","","video-keyboard-response","473","787746","0.0-473.0","0zutxzx2","","","null","","Agent B","scrambled","FOR_REV_MAP_BLOBBY_STIM/1159592.bmp_pp91_L3_V1.0_veridical_freeview_isoTrue_fps144_reversed_REAL.mp4",""
"","","","call-function","474","787747","0.0-474.0","0zutxzx2","","","","","","","",""
"2435.015000000014","{""judgement"":1}","[0]","survey-likert","475","790184","0.0-475.0","0zutxzx2","","","","","","","","0"
"840.3099999999395","{""confidence"":2}","[0]","survey-likert","476","791027","0.0-476.0","0zutxzx2","","","","","","","",""
"","","","call-function","477","791028","0.0-477.0","0zutxzx2","","","","","","","",""
"null","","","html-keyboard-response","478","792531","0.0-478.0","0zutxzx2","","<span style=""color:Black; font-size:50px;"">Agent A","null","","","","",""
"null","","","video-keyboard-response","479","794413","0.0-479.0","0zutxzx2","","","null","","Agent A","veridical","FOR_REV_MAP_BLOBBY_STIM/285946.bmp_pp79_L2_V1.0_veridical_freeview_isoTrue_fps144.mp4",""
"null","","","html-keyboard-response","480","795917","0.0-480.0","0zutxzx2","","<span style=""color:Black; font-size:50px;"">Agent B","null","","","","",""
"null","","","video-keyboard-response","481","797798","0.0-481.0","0zutxzx2","","","null","","Agent B","scrambled","FOR_REV_MAP_BLOBBY_STIM/285946.bmp_pp79_L2_V1.0_veridical_freeview_isoTrue_fps144_reversed_REAL.mp4",""
"","","","call-function","482","797799","0.0-482.0","0zutxzx2","","","","","","","",""
"1552.969999999972","{""judgement"":1}","[0]","survey-likert","483","799353","0.0-483.0","0zutxzx2","","","","","","","","0"
"866.609999999986","{""confidence"":2}","[0]","survey-likert","484","800221","0.0-484.0","0zutxzx2","","","","","","","",""
"","","","call-function","485","800222","0.0-485.0","0zutxzx2","","","","","","","",""
"null","","","html-keyboard-response","486","801725","0.0-486.0","0zutxzx2","","<span style=""color:Black; font-size:50px;"">Agent A","null","","","","",""
"null","","","video-keyboard-response","487","804500","0.0-487.0","0zutxzx2","","","null","","Agent A","veridical","FOR_REV_MAP_BLOBBY_STIM/285684.bmp_pp80_L3_V1.0_veridical_freeview_isoTrue_fps144.mp4",""
"null","","","html-keyboard-response","488","806005","0.0-488.0","0zutxzx2","","<span style=""color:Black; font-size:50px;"">Agent B","null","","","","",""
"null","","","video-keyboard-response","489","808770","0.0-489.0","0zutxzx2","","","null","","Agent B","scrambled","FOR_REV_MAP_BLOBBY_STIM/285684.bmp_pp80_L3_V1.0_veridical_freeview_isoTrue_fps144_reversed_REAL.mp4",""
"","","","call-function","490","808770","0.0-490.0","0zutxzx2","","","","","","","",""
"1364.6699999999255","{""judgement"":0}","[0]","survey-likert","491","810136","0.0-491.0","0zutxzx2","","","","","","","","0"
"812.125","{""confidence"":3}","[0]","survey-likert","492","810949","0.0-492.0","0zutxzx2","","","","","","","",""
"","","","call-function","493","810950","0.0-493.0","0zutxzx2","","","","","","","",""
"null","","","html-keyboard-response","494","812454","0.0-494.0","0zutxzx2","","<span style=""color:Black; font-size:50px;"">Agent A","null","","","","",""
"null","","","video-keyboard-response","495","815229","0.0-495.0","0zutxzx2","","","null","","Agent A","veridical","FOR_REV_MAP_BLOBBY_STIM/1592129.bmp_pp153_L3_V1.0_veridical_freeview_isoTrue_fps144.mp4",""
"null","","","html-keyboard-response","496","816734","0.0-496.0","0zutxzx2","","<span style=""color:Black; font-size:50px;"">Agent B","null","","","","",""
"null","","","video-keyboard-response","497","819506","0.0-497.0","0zutxzx2","","","null","","Agent B","scrambled","FOR_REV_MAP_BLOBBY_STIM/1592129.bmp_pp153_L3_V1.0_veridical_freeview_isoTrue_fps144_reversed_REAL.mp4",""
"","","","call-function","498","819507","0.0-498.0","0zutxzx2","","","","","","","",""
"1528.4650000000838","{""judgement"":0}","[0]","survey-likert","499","821036","0.0-499.0","0zutxzx2","","","","","","","","0"
"2169.5350000000326","{""confidence"":1}","[0]","survey-likert","500","823207","0.0-500.0","0zutxzx2","","","","","","","",""
"2444.859999999986","","","instructions","501","825653","0.0-501.0","0zutxzx2","[{""page_index"":0,""viewing_time"":1279.7200000000885},{""page_index"":1,""viewing_time"":659.4949999999953},{""page_index"":2,""viewing_time"":505.4899999999907}]","","","","","","",""
"718.0300000000279","","","instructions","502","826371","0.0-502.0","0zutxzx2","[{""page_index"":0,""viewing_time"":218.4100000000326},{""page_index"":1,""viewing_time"":123.95000000006985},{""page_index"":2,""viewing_time"":375.5649999999441}]","","","","","","",""
"","","","call-function","503","826372","0.0-503.0","0zutxzx2","","","","","","","",""
"null","","","html-keyboard-response","504","827875","0.0-504.0","0zutxzx2","","<span style=""color:Black; font-size:50px;"">Agent A","null","","","","",""
"null","","","video-keyboard-response","505","830690","0.0-505.0","0zutxzx2","","","null","","Agent A","scrambled","FOR_REV_MAP_BLOBBY_STIM/713652.bmp_pp89_L1_V1.0_veridical_freeview_isoTrue_fps144_reversed_REAL.mp4",""
"null","","","html-keyboard-response","506","832195","0.0-506.0","0zutxzx2","","<span style=""color:Black; font-size:50px;"">Agent B","null","","","","",""
"null","","","video-keyboard-response","507","835005","0.0-507.0","0zutxzx2","","","null","","Agent B","veridical","FOR_REV_MAP_BLOBBY_STIM/713652.bmp_pp89_L1_V1.0_veridical_freeview_isoTrue_fps144.mp4",""
"","","","call-function","508","835005","0.0-508.0","0zutxzx2","","","","","","","",""
"1497.609999999986","{""judgement"":1}","[0]","survey-likert","509","836504","0.0-509.0","0zutxzx2","","","","","","","","1"
"1191.9899999999907","{""confidence"":2}","[0]","survey-likert","510","837697","0.0-510.0","0zutxzx2","","","","","","","",""
"","","","call-function","511","837698","0.0-511.0","0zutxzx2","","","","","","","",""
"null","","","html-keyboard-response","512","839203","0.0-512.0","0zutxzx2","","<span style=""color:Black; font-size:50px;"">Agent A","null","","","","",""
"null","","","video-keyboard-response","513","842040","0.0-513.0","0zutxzx2","","","null","","Agent A","veridical","FOR_REV_MAP_BLOBBY_STIM/1592025.bmp_pp68_L1_V1.0_veridical_freeview_isoTrue_fps144.mp4",""
"null","","","html-keyboard-response","514","843544","0.0-514.0","0zutxzx2","","<span style=""color:Black; font-size:50px;"">Agent B","null","","","","",""
"null","","","video-keyboard-response","515","846377","0.0-515.0","0zutxzx2","","","null","","Agent B","scrambled","FOR_REV_MAP_BLOBBY_STIM/1592025.bmp_pp68_L1_V1.0_veridical_freeview_isoTrue_fps144_reversed_REAL.mp4",""
"","","","call-function","516","846378","0.0-516.0","0zutxzx2","","","","","","","",""
"2074.1199999999953","{""judgement"":0}","[0]","survey-likert","517","848453","0.0-517.0","0zutxzx2","","","","","","","","0"
"1132.3350000000792","{""confidence"":2}","[0]","survey-likert","518","849586","0.0-518.0","0zutxzx2","","","","","","","",""
"","","","call-function","519","849587","0.0-519.0","0zutxzx2","","","","","","","",""
"null","","","html-keyboard-response","520","851091","0.0-520.0","0zutxzx2","","<span style=""color:Black; font-size:50px;"">Agent A","null","","","","",""
"null","","","video-keyboard-response","521","853830","0.0-521.0","0zutxzx2","","","null","","Agent A","veridical","FOR_REV_MAP_BLOBBY_STIM/285715.bmp_pp67_L2_V1.0_veridical_freeview_isoTrue_fps144.mp4",""
"null","","","html-keyboard-response","522","855336","0.0-522.0","0zutxzx2","","<span style=""color:Black; font-size:50px;"">Agent B","null","","","","",""
"null","","","video-keyboard-response","523","858060","0.0-523.0","0zutxzx2","","","null","","Agent B","scrambled","FOR_REV_MAP_BLOBBY_STIM/285715.bmp_pp67_L2_V1.0_veridical_freeview_isoTrue_fps144_reversed_REAL.mp4",""
"","","","call-function","524","858060","0.0-524.0","0zutxzx2","","","","","","","",""
"1200.4249999999302","{""judgement"":0}","[0]","survey-likert","525","859262","0.0-525.0","0zutxzx2","","","","","","","","0"
"2205.914999999921","{""confidence"":1}","[0]","survey-likert","526","861469","0.0-526.0","0zutxzx2","","","","","","","",""
"","","","call-function","527","861470","0.0-527.0","0zutxzx2","","","","","","","",""
"null","","","html-keyboard-response","528","862974","0.0-528.0","0zutxzx2","","<span style=""color:Black; font-size:50px;"">Agent A","null","","","","",""
"null","","","video-keyboard-response","529","865826","0.0-529.0","0zutxzx2","","","null","","Agent A","scrambled","FOR_REV_MAP_BLOBBY_STIM/1160189.bmp_pp64_L1_V1.0_veridical_freeview_isoTrue_fps144_reversed_REAL.mp4",""
"null","","","html-keyboard-response","530","867331","0.0-530.0","0zutxzx2","","<span style=""color:Black; font-size:50px;"">Agent B","null","","","","",""
"null","","","video-keyboard-response","531","870189","0.0-531.0","0zutxzx2","","","null","","Agent B","veridical","FOR_REV_MAP_BLOBBY_STIM/1160189.bmp_pp64_L1_V1.0_veridical_freeview_isoTrue_fps144.mp4",""
"","","","call-function","532","870190","0.0-532.0","0zutxzx2","","","","","","","",""
"6397.540000000037","{""judgement"":0}","[0]","survey-likert","533","876590","0.0-533.0","0zutxzx2","","","","","","","","1"
"1064.5599999999395","{""confidence"":0}","[0]","survey-likert","534","877657","0.0-534.0","0zutxzx2","","","","","","","",""
"","","","call-function","535","877658","0.0-535.0","0zutxzx2","","","","","","","",""
"null","","","html-keyboard-response","536","879164","0.0-536.0","0zutxzx2","","<span style=""color:Black; font-size:50px;"">Agent A","null","","","","",""
"null","","","video-keyboard-response","537","881949","0.0-537.0","0zutxzx2","","","null","","Agent A","scrambled","FOR_REV_MAP_BLOBBY_STIM/286034.bmp_pp69_L3_V1.0_veridical_freeview_isoTrue_fps144_reversed_REAL.mp4",""
"null","","","html-keyboard-response","538","883454","0.0-538.0","0zutxzx2","","<span style=""color:Black; font-size:50px;"">Agent B","null","","","","",""
"null","","","video-keyboard-response","539","886236","0.0-539.0","0zutxzx2","","","null","","Agent B","veridical","FOR_REV_MAP_BLOBBY_STIM/286034.bmp_pp69_L3_V1.0_veridical_freeview_isoTrue_fps144.mp4",""
"","","","call-function","540","886237","0.0-540.0","0zutxzx2","","","","","","","",""
"2089.6049999999814","{""judgement"":1}","[0]","survey-likert","541","888327","0.0-541.0","0zutxzx2","","","","","","","","1"
"1612.5249999999069","{""confidence"":2}","[0]","survey-likert","542","889941","0.0-542.0","0zutxzx2","","","","","","","",""
"","","","call-function","543","889942","0.0-543.0","0zutxzx2","","","","","","","",""
"null","","","html-keyboard-response","544","891445","0.0-544.0","0zutxzx2","","<span style=""color:Black; font-size:50px;"">Agent A","null","","","","",""
"null","","","video-keyboard-response","545","894273","0.0-545.0","0zutxzx2","","","null","","Agent A","veridical","FOR_REV_MAP_BLOBBY_STIM/1160204.bmp_pp54_L2_V1.0_veridical_freeview_isoTrue_fps144.mp4",""
"null","","","html-keyboard-response","546","895779","0.0-546.0","0zutxzx2","","<span style=""color:Black; font-size:50px;"">Agent B","null","","","","",""
"null","","","video-keyboard-response","547","898604","0.0-547.0","0zutxzx2","","","null","","Agent B","scrambled","FOR_REV_MAP_BLOBBY_STIM/1160204.bmp_pp54_L2_V1.0_veridical_freeview_isoTrue_fps144_reversed_REAL.mp4",""
"","","","call-function","548","898605","0.0-548.0","0zutxzx2","","","","","","","",""
"1746.0950000000885","{""judgement"":0}","[0]","survey-likert","549","900353","0.0-549.0","0zutxzx2","","","","","","","","0"
"1244.3300000000745","{""confidence"":2}","[0]","survey-likert","550","901598","0.0-550.0","0zutxzx2","","","","","","","",""
"","","","call-function","551","901599","0.0-551.0","0zutxzx2","","","","","","","",""
"null","","","html-keyboard-response","552","903101","0.0-552.0","0zutxzx2","","<span style=""color:Black; font-size:50px;"">Agent A","null","","","","",""
"null","","","video-keyboard-response","553","905909","0.0-553.0","0zutxzx2","","","null","","Agent A","veridical","FOR_REV_MAP_BLOBBY_STIM/1159392.bmp_pp96_L2_V1.0_veridical_freeview_isoTrue_fps144.mp4",""
"null","","","html-keyboard-response","554","907416","0.0-554.0","0zutxzx2","","<span style=""color:Black; font-size:50px;"">Agent B","null","","","","",""
"null","","","video-keyboard-response","555","910223","0.0-555.0","0zutxzx2","","","null","","Agent B","scrambled","FOR_REV_MAP_BLOBBY_STIM/1159392.bmp_pp96_L2_V1.0_veridical_freeview_isoTrue_fps144_reversed_REAL.mp4",""
"","","","call-function","556","910224","0.0-556.0","0zutxzx2","","","","","","","",""
"2653.5050000000047","{""judgement"":0}","[0]","survey-likert","557","912878","0.0-557.0","0zutxzx2","","","","","","","","0"
"958.8549999999814","{""confidence"":1}","[0]","survey-likert","558","913838","0.0-558.0","0zutxzx2","","","","","","","",""
"","","","call-function","559","913839","0.0-559.0","0zutxzx2","","","","","","","",""
"null","","","html-keyboard-response","560","915341","0.0-560.0","0zutxzx2","","<span style=""color:Black; font-size:50px;"">Agent A","null","","","","",""
"null","","","video-keyboard-response","561","918056","0.0-561.0","0zutxzx2","","","null","","Agent A","scrambled","FOR_REV_MAP_BLOBBY_STIM/1159427.bmp_pp98_L1_V1.0_veridical_freeview_isoTrue_fps144_reversed_REAL.mp4",""
"null","","","html-keyboard-response","562","919560","0.0-562.0","0zutxzx2","","<span style=""color:Black; font-size:50px;"">Agent B","null","","","","",""
"null","","","video-keyboard-response","563","922280","0.0-563.0","0zutxzx2","","","null","","Agent B","veridical","FOR_REV_MAP_BLOBBY_STIM/1159427.bmp_pp98_L1_V1.0_veridical_freeview_isoTrue_fps144.mp4",""
"","","","call-function","564","922280","0.0-564.0","0zutxzx2","","","","","","","",""
"3454.9150000000373","{""judgement"":1}","[0]","survey-likert","565","925736","0.0-565.0","0zutxzx2","","","","","","","","1"
"1260.7299999999814","{""confidence"":2}","[0]","survey-likert","566","926998","0.0-566.0","0zutxzx2","","","","","","","",""
"","","","call-function","567","926999","0.0-567.0","0zutxzx2","","","","","","","",""
"null","","","html-keyboard-response","568","928500","0.0-568.0","0zutxzx2","","<span style=""color:Black; font-size:50px;"">Agent A","null","","","","",""
"null","","","video-keyboard-response","569","931223","0.0-569.0","0zutxzx2","","","null","","Agent A","scrambled","FOR_REV_MAP_BLOBBY_STIM/713858.bmp_pp57_L1_V1.0_veridical_freeview_isoTrue_fps144_reversed_REAL.mp4",""
"null","","","html-keyboard-response","570","932728","0.0-570.0","0zutxzx2","","<span style=""color:Black; font-size:50px;"">Agent B","null","","","","",""
"null","","","video-keyboard-response","571","935431","0.0-571.0","0zutxzx2","","","null","","Agent B","veridical","FOR_REV_MAP_BLOBBY_STIM/713858.bmp_pp57_L1_V1.0_veridical_freeview_isoTrue_fps144.mp4",""
"","","","call-function","572","935432","0.0-572.0","0zutxzx2","","","","","","","",""
"1660.9499999999534","{""judgement"":1}","[0]","survey-likert","573","937094","0.0-573.0","0zutxzx2","","","","","","","","1"
"773.3699999999953","{""confidence"":1}","[0]","survey-likert","574","937869","0.0-574.0","0zutxzx2","","","","","","","",""
"","","","call-function","575","937870","0.0-575.0","0zutxzx2","","","","","","","",""
"null","","","html-keyboard-response","576","939374","0.0-576.0","0zutxzx2","","<span style=""color:Black; font-size:50px;"">Agent A","null","","","","",""
"null","","","video-keyboard-response","577","942141","0.0-577.0","0zutxzx2","","","null","","Agent A","veridical","FOR_REV_MAP_BLOBBY_STIM/1592168.bmp_pp71_L1_V1.0_veridical_freeview_isoTrue_fps144.mp4",""
"null","","","html-keyboard-response","578","943645","0.0-578.0","0zutxzx2","","<span style=""color:Black; font-size:50px;"">Agent B","null","","","","",""
"null","","","video-keyboard-response","579","946397","0.0-579.0","0zutxzx2","","","null","","Agent B","scrambled","FOR_REV_MAP_BLOBBY_STIM/1592168.bmp_pp71_L1_V1.0_veridical_freeview_isoTrue_fps144_reversed_REAL.mp4",""
"","","","call-function","580","946398","0.0-580.0","0zutxzx2","","","","","","","",""
"6369.645000000019","{""judgement"":0}","[0]","survey-likert","581","952768","0.0-581.0","0zutxzx2","","","","","","","","0"
"1461.719999999972","{""confidence"":0}","[0]","survey-likert","582","954231","0.0-582.0","0zutxzx2","","","","","","","",""
"1704.8050000000512","","","instructions","583","955937","0.0-583.0","0zutxzx2","[{""page_index"":0,""viewing_time"":1704.655000000028}]","","","","","","",""
"1028.1149999999907","","","instructions","584","956966","0.0-584.0","0zutxzx2","[{""page_index"":0,""viewing_time"":1028.0050000000047}]","","","","","","",""
"4772.665000000037","{""post-1"":2}","[0]","survey-likert","585","961740","0.0-585.0","0zutxzx2","","","","","","","",""
"989.2250000000931","{""post-1"":1}","[0]","survey-likert","586","962732","0.0-586.0","0zutxzx2","","","","","","","",""
"1558.6699999999255","{""post-2"":1}","[0]","survey-likert","587","964293","0.0-587.0","0zutxzx2","","","","","","","",""
"1831.3649999999907","{""post-2"":1}","[0]","survey-likert","588","966126","0.0-588.0","0zutxzx2","","","","","","","",""
"2163.8649999999907","{""post-3"":1}","[0]","survey-likert","589","968292","0.0-589.0","0zutxzx2","","","","","","","",""
"4976.82500000007","{""post-3"":0}","[0]","survey-likert","590","973271","0.0-590.0","0zutxzx2","","","","","","","",""
"2786.3499999999767","{""post-4"":1}","[0]","survey-likert","591","976059","0.0-591.0","0zutxzx2","","","","","","","",""
"6123.704999999958","{""post-4"":1}","[0]","survey-likert","592","982184","0.0-592.0","0zutxzx2","","","","","","","",""
"3368.7200000000885","{""post-5"":1}","[0]","survey-likert","593","985554","0.0-593.0","0zutxzx2","","","","","","","",""
"2535.625","{""post-5"":1}","[0]","survey-likert","594","988091","0.0-594.0","0zutxzx2","","","","","","","",""
"66748.81499999994","{""Q0"":""I think there are too many trials (I think five would be enough) because even by then the task becomes too repetitive and I feel like people may start to click random answers""}","","survey-text","595","1054846","0.0-595.0","0zutxzx2","","","","","","","",""
"46410.8600000001","{""Q0"":""If the hotspots moved in circles rather than jumped, I thought that was something a fake agent would do so I would choose the other agent as the real human.""}","","survey-text","596","1101261","0.0-596.0","0zutxzx2","","","","","","","",""
"15305.38500000001","{""Q0"":""Nothing was difficult.""}","","survey-text","597","1116570","0.0-597.0","0zutxzx2","","","","","","","",""
"753.2900000000373","","","instructions","598","1117324","0.0-598.0","0zutxzx2","[{""page_index"":0,""viewing_time"":753.0549999999348}]","","","","","","",""
"46145.20999999996","{""Experimenter_end"":[""Printed ID# 0zutxzx2 on consent form"",""Given subject SONA credit or payment"",""Given the subject debrief form""]}","[0]","survey-multi-select","599","1163472","0.0-599.0","0zutxzx2","","","","","","","",""
