"rt","responses","question_order","trial_type","trial_index","time_elapsed","internal_node_id","ID","view_history","stimulus","key_press","value","agent","condition","image","correct_answer"
"13256.470000000001","{""Experimenter"":[""Confirmed subject's identity"",""Confirmed normal or corrected-to-normal vision"",""Obtained consent (signature and date)"",""Checked the test room lighting"",""Checked computer screen lighting"",""Checked distance from screen to chin rest (50cm)"",""Cleaned and adjusted chin rest"",""Counterbalanced the order of the tasks"",""Opened the experiment in Firefox"",""Made the experiment full screen"",""Encouraged subject to silence phone, put away distractors, etc.""]}","[0]","survey-multi-select","0","13265","0.0-0.0","125dgcdr","","","","","","","",""
"11316.019999999999","","","instructions","1","24583","0.0-1.0","125dgcdr","[{""page_index"":0,""viewing_time"":11315.47}]","","","","","","",""
"10435.899999999998","","","instructions","2","35020","0.0-2.0","125dgcdr","[{""page_index"":0,""viewing_time"":4619.759999999998},{""page_index"":1,""viewing_time"":1399.9300000000003},{""page_index"":2,""viewing_time"":4416.080000000002}]","","","","","","",""
"1319.9599999999991","","","instructions","3","36341","0.0-3.0","125dgcdr","[{""page_index"":0,""viewing_time"":1319.854999999996}]","","","","","","",""
"null","","","video-keyboard-response","4","39417","0.0-4.0","125dgcdr","","","null","","","","",""
"12497.055","","","instructions","5","51915","0.0-5.0","125dgcdr","[{""page_index"":0,""viewing_time"":5513.875},{""page_index"":1,""viewing_time"":2045.1299999999974},{""page_index"":2,""viewing_time"":4937.945}]","","","","","","",""
"2755.510000000002","","","instructions","6","54671","0.0-6.0","125dgcdr","[{""page_index"":0,""viewing_time"":2755.404999999999}]","","","","","","",""
"1347.5650000000023","","","instructions","7","56019","0.0-7.0","125dgcdr","[{""page_index"":0,""viewing_time"":1347.3399999999965}]","","","","","","",""
"null","","","video-keyboard-response","8","59092","0.0-8.0","125dgcdr","","","null","","","","",""
"9174.399999999994","","","instructions","9","68267","0.0-9.0","125dgcdr","[{""page_index"":0,""viewing_time"":1591.449999999997},{""page_index"":1,""viewing_time"":2308.905000000006},{""page_index"":2,""viewing_time"":5273.909999999996}]","","","","","","",""
"3052.5050000000047","","","instructions","10","71320","0.0-10.0","125dgcdr","[{""page_index"":0,""viewing_time"":3052.3899999999994}]","","","","","","",""
"","","","call-function","11","71321","0.0-11.0","125dgcdr","","","","","","","",""
"null","","","html-keyboard-response","12","72826","0.0-12.0","125dgcdr","","<span style=""color:Black; font-size:50px;"">Agent A","null","","","","",""
"null","","","video-keyboard-response","13","75901","0.0-13.0","125dgcdr","","","null","","Agent A","scrambled","STIM_SET_2/713920.bmp_pp76_L1_V1.0_scrambled_freeview_isoTrue.mp4",""
"null","","","html-keyboard-response","14","77405","0.0-14.0","125dgcdr","","<span style=""color:Black; font-size:50px;"">Agent B","null","","","","",""
"null","","","video-keyboard-response","15","80480","0.0-15.0","125dgcdr","","","null","","Agent B","veridical","STIM_SET_2/713920.bmp_pp76_L1_V1.0_veridical_freeview_isoTrue.mp4",""
"","","","call-function","16","80481","0.0-16.0","125dgcdr","","","","","","","",""
"1338.8150000000023","{""judgement"":1}","[0]","survey-likert","17","81821","0.0-17.0","125dgcdr","","","","","","","","1"
"1428.4700000000012","{""confidence"":1}","[0]","survey-likert","18","83250","0.0-18.0","125dgcdr","","","","","","","",""
"","","","call-function","19","83251","0.0-19.0","125dgcdr","","","","","","","",""
"null","","","html-keyboard-response","20","84756","0.0-20.0","125dgcdr","","<span style=""color:Black; font-size:50px;"">Agent A","null","","","","",""
"null","","","video-keyboard-response","21","87845","0.0-21.0","125dgcdr","","","null","","Agent A","scrambled","STIM_SET_2/498025.bmp_pp81_L1_V1.0_scrambled_freeview_isoTrue.mp4",""
"null","","","html-keyboard-response","22","89349","0.0-22.0","125dgcdr","","<span style=""color:Black; font-size:50px;"">Agent B","null","","","","",""
"null","","","video-keyboard-response","23","92437","0.0-23.0","125dgcdr","","","null","","Agent B","veridical","STIM_SET_2/498025.bmp_pp81_L1_V1.0_veridical_freeview_isoTrue.mp4",""
"","","","call-function","24","92437","0.0-24.0","125dgcdr","","","","","","","",""
"1741.5950000000012","{""judgement"":1}","[0]","survey-likert","25","94179","0.0-25.0","125dgcdr","","","","","","","","1"
"1794.824999999997","{""confidence"":2}","[0]","survey-likert","26","95975","0.0-26.0","125dgcdr","","","","","","","",""
"","","","call-function","27","95976","0.0-27.0","125dgcdr","","","","","","","",""
"null","","","html-keyboard-response","28","97478","0.0-28.0","125dgcdr","","<span style=""color:Black; font-size:50px;"">Agent A","null","","","","",""
"null","","","video-keyboard-response","29","100581","0.0-29.0","125dgcdr","","","null","","Agent A","scrambled","STIM_SET_2/1592350.bmp_pp55_L3_V1.0_scrambled_freeview_isoTrue.mp4",""
"null","","","html-keyboard-response","30","102083","0.0-30.0","125dgcdr","","<span style=""color:Black; font-size:50px;"">Agent B","null","","","","",""
"null","","","video-keyboard-response","31","105156","0.0-31.0","125dgcdr","","","null","","Agent B","veridical","STIM_SET_2/1592350.bmp_pp55_L3_V1.0_veridical_freeview_isoTrue.mp4",""
"","","","call-function","32","105156","0.0-32.0","125dgcdr","","","","","","","",""
"1412.104999999996","{""judgement"":1}","[0]","survey-likert","33","106569","0.0-33.0","125dgcdr","","","","","","","","1"
"2106.1749999999884","{""confidence"":2}","[0]","survey-likert","34","108676","0.0-34.0","125dgcdr","","","","","","","",""
"","","","call-function","35","108677","0.0-35.0","125dgcdr","","","","","","","",""
"null","","","html-keyboard-response","36","110178","0.0-36.0","125dgcdr","","<span style=""color:Black; font-size:50px;"">Agent A","null","","","","",""
"null","","","video-keyboard-response","37","113265","0.0-37.0","125dgcdr","","","null","","Agent A","veridical","STIM_SET_2/1592951.bmp_pp80_L3_V1.0_veridical_freeview_isoTrue.mp4",""
"null","","","html-keyboard-response","38","114768","0.0-38.0","125dgcdr","","<span style=""color:Black; font-size:50px;"">Agent B","null","","","","",""
"null","","","video-keyboard-response","39","117833","0.0-39.0","125dgcdr","","","null","","Agent B","scrambled","STIM_SET_2/1592951.bmp_pp80_L3_V1.0_scrambled_freeview_isoTrue.mp4",""
"","","","call-function","40","117834","0.0-40.0","125dgcdr","","","","","","","",""
"1527.7750000000087","{""judgement"":1}","[0]","survey-likert","41","119362","0.0-41.0","125dgcdr","","","","","","","","0"
"1099.7649999999994","{""confidence"":1}","[0]","survey-likert","42","120463","0.0-42.0","125dgcdr","","","","","","","",""
"","","","call-function","43","120465","0.0-43.0","125dgcdr","","","","","","","",""
"null","","","html-keyboard-response","44","121969","0.0-44.0","125dgcdr","","<span style=""color:Black; font-size:50px;"">Agent A","null","","","","",""
"null","","","video-keyboard-response","45","125038","0.0-45.0","125dgcdr","","","null","","Agent A","veridical","STIM_SET_2/285684.bmp_pp80_L3_V1.0_veridical_freeview_isoTrue.mp4",""
"null","","","html-keyboard-response","46","126544","0.0-46.0","125dgcdr","","<span style=""color:Black; font-size:50px;"">Agent B","null","","","","",""
"null","","","video-keyboard-response","47","129612","0.0-47.0","125dgcdr","","","null","","Agent B","scrambled","STIM_SET_2/285684.bmp_pp80_L3_V1.0_scrambled_freeview_isoTrue.mp4",""
"","","","call-function","48","129613","0.0-48.0","125dgcdr","","","","","","","",""
"1552.3450000000012","{""judgement"":0}","[0]","survey-likert","49","131166","0.0-49.0","125dgcdr","","","","","","","","0"
"2376.220000000001","{""confidence"":0}","[0]","survey-likert","50","133544","0.0-50.0","125dgcdr","","","","","","","",""
"","","","call-function","51","133544","0.0-51.0","125dgcdr","","","","","","","",""
"null","","","html-keyboard-response","52","135047","0.0-52.0","125dgcdr","","<span style=""color:Black; font-size:50px;"">Agent A","null","","","","",""
"null","","","video-keyboard-response","53","138118","0.0-53.0","125dgcdr","","","null","","Agent A","scrambled","STIM_SET_2/1592129.bmp_pp153_L3_V1.0_scrambled_freeview_isoTrue.mp4",""
"null","","","html-keyboard-response","54","139620","0.0-54.0","125dgcdr","","<span style=""color:Black; font-size:50px;"">Agent B","null","","","","",""
"null","","","video-keyboard-response","55","142717","0.0-55.0","125dgcdr","","","null","","Agent B","veridical","STIM_SET_2/1592129.bmp_pp153_L3_V1.0_veridical_freeview_isoTrue.mp4",""
"","","","call-function","56","142718","0.0-56.0","125dgcdr","","","","","","","",""
"1943.1650000000081","{""judgement"":1}","[0]","survey-likert","57","144662","0.0-57.0","125dgcdr","","","","","","","","1"
"1363.289999999979","{""confidence"":1}","[0]","survey-likert","58","146026","0.0-58.0","125dgcdr","","","","","","","",""
"","","","call-function","59","146027","0.0-59.0","125dgcdr","","","","","","","",""
"null","","","html-keyboard-response","60","147530","0.0-60.0","125dgcdr","","<span style=""color:Black; font-size:50px;"">Agent A","null","","","","",""
"null","","","video-keyboard-response","61","150634","0.0-61.0","125dgcdr","","","null","","Agent A","scrambled","STIM_SET_2/713790.bmp_pp100_L3_V1_scrambled_freeview_isoTrue.mp4",""
"null","","","html-keyboard-response","62","152140","0.0-62.0","125dgcdr","","<span style=""color:Black; font-size:50px;"">Agent B","null","","","","",""
"null","","","video-keyboard-response","63","155248","0.0-63.0","125dgcdr","","","null","","Agent B","veridical","STIM_SET_2/713790.bmp_pp100_L3_V1_veridical_freeview_isoTrue.mp4",""
"","","","call-function","64","155248","0.0-64.0","125dgcdr","","","","","","","",""
"1230.2699999999895","{""judgement"":1}","[0]","survey-likert","65","156479","0.0-65.0","125dgcdr","","","","","","","","1"
"1076.6849999999977","{""confidence"":2}","[0]","survey-likert","66","157557","0.0-66.0","125dgcdr","","","","","","","",""
"","","","call-function","67","157558","0.0-67.0","125dgcdr","","","","","","","",""
"null","","","html-keyboard-response","68","159063","0.0-68.0","125dgcdr","","<span style=""color:Black; font-size:50px;"">Agent A","null","","","","",""
"null","","","video-keyboard-response","69","162168","0.0-69.0","125dgcdr","","","null","","Agent A","scrambled","STIM_SET_2/713633.bmp_pp58_L1_V1.0_scrambled_freeview_isoTrue.mp4",""
"null","","","html-keyboard-response","70","163672","0.0-70.0","125dgcdr","","<span style=""color:Black; font-size:50px;"">Agent B","null","","","","",""
"null","","","video-keyboard-response","71","166779","0.0-71.0","125dgcdr","","","null","","Agent B","veridical","STIM_SET_2/713633.bmp_pp58_L1_V1.0_veridical_freeview_isoTrue.mp4",""
"","","","call-function","72","166779","0.0-72.0","125dgcdr","","","","","","","",""
"3228.054999999993","{""judgement"":1}","[0]","survey-likert","73","170008","0.0-73.0","125dgcdr","","","","","","","","1"
"2455.6849999999977","{""confidence"":0}","[0]","survey-likert","74","172465","0.0-74.0","125dgcdr","","","","","","","",""
"","","","call-function","75","172466","0.0-75.0","125dgcdr","","","","","","","",""
"null","","","html-keyboard-response","76","173972","0.0-76.0","125dgcdr","","<span style=""color:Black; font-size:50px;"">Agent A","null","","","","",""
"null","","","video-keyboard-response","77","177072","0.0-77.0","125dgcdr","","","null","","Agent A","scrambled","STIM_SET_2/1592044.bmp_pp94_L2_V1.0_scrambled_freeview_isoTrue.mp4",""
"null","","","html-keyboard-response","78","178576","0.0-78.0","125dgcdr","","<span style=""color:Black; font-size:50px;"">Agent B","null","","","","",""
"null","","","video-keyboard-response","79","181645","0.0-79.0","125dgcdr","","","null","","Agent B","veridical","STIM_SET_2/1592044.bmp_pp94_L2_V1.0_veridical_freeview_isoTrue.mp4",""
"","","","call-function","80","181646","0.0-80.0","125dgcdr","","","","","","","",""
"1676.0350000000035","{""judgement"":1}","[0]","survey-likert","81","183323","0.0-81.0","125dgcdr","","","","","","","","1"
"1397.039999999979","{""confidence"":1}","[0]","survey-likert","82","184721","0.0-82.0","125dgcdr","","","","","","","",""
"","","","call-function","83","184722","0.0-83.0","125dgcdr","","","","","","","",""
"null","","","html-keyboard-response","84","186228","0.0-84.0","125dgcdr","","<span style=""color:Black; font-size:50px;"">Agent A","null","","","","",""
"null","","","video-keyboard-response","85","189301","0.0-85.0","125dgcdr","","","null","","Agent A","scrambled","STIM_SET_2/1592289.bmp_pp92_L3_V1.0_scrambled_freeview_isoTrue.mp4",""
"null","","","html-keyboard-response","86","190805","0.0-86.0","125dgcdr","","<span style=""color:Black; font-size:50px;"">Agent B","null","","","","",""
"null","","","video-keyboard-response","87","193878","0.0-87.0","125dgcdr","","","null","","Agent B","veridical","STIM_SET_2/1592289.bmp_pp92_L3_V1.0_veridical_freeview_isoTrue.mp4",""
"","","","call-function","88","193879","0.0-88.0","125dgcdr","","","","","","","",""
"1847.8649999999907","{""judgement"":1}","[0]","survey-likert","89","195727","0.0-89.0","125dgcdr","","","","","","","","1"
"1346.0299999999988","{""confidence"":3}","[0]","survey-likert","90","197074","0.0-90.0","125dgcdr","","","","","","","",""
"33352.244999999995","","","instructions","91","230427","0.0-91.0","125dgcdr","[{""page_index"":0,""viewing_time"":1290.0650000000023},{""page_index"":1,""viewing_time"":31312.23000000001},{""page_index"":2,""viewing_time"":749.7449999999953}]","","","","","","",""
"1520.5449999999837","","","instructions","92","231948","0.0-92.0","125dgcdr","[{""page_index"":0,""viewing_time"":554.3299999999872},{""page_index"":1,""viewing_time"":459.0100000000093},{""page_index"":2,""viewing_time"":507.09500000000116}]","","","","","","",""
"","","","call-function","93","231949","0.0-93.0","125dgcdr","","","","","","","",""
"null","","","html-keyboard-response","94","233454","0.0-94.0","125dgcdr","","<span style=""color:Black; font-size:50px;"">Agent A","null","","","","",""
"null","","","video-keyboard-response","95","236532","0.0-95.0","125dgcdr","","","null","","Agent A","scrambled","STIM_SET_2/61513.bmp_pp75_L1_V1.0_scrambled_freeview_isoTrue.mp4",""
"null","","","html-keyboard-response","96","238039","0.0-96.0","125dgcdr","","<span style=""color:Black; font-size:50px;"">Agent B","null","","","","",""
"null","","","video-keyboard-response","97","241103","0.0-97.0","125dgcdr","","","null","","Agent B","veridical","STIM_SET_2/61513.bmp_pp75_L1_V1.0_veridical_freeview_isoTrue.mp4",""
"","","","call-function","98","241104","0.0-98.0","125dgcdr","","","","","","","",""
"1475.679999999993","{""judgement"":1}","[0]","survey-likert","99","242581","0.0-99.0","125dgcdr","","","","","","","","1"
"1369.8850000000093","{""confidence"":2}","[0]","survey-likert","100","243952","0.0-100.0","125dgcdr","","","","","","","",""
"","","","call-function","101","243952","0.0-101.0","125dgcdr","","","","","","","",""
"null","","","html-keyboard-response","102","245454","0.0-102.0","125dgcdr","","<span style=""color:Black; font-size:50px;"">Agent A","null","","","","",""
"null","","","video-keyboard-response","103","248529","0.0-103.0","125dgcdr","","","null","","Agent A","scrambled","STIM_SET_2/1592025.bmp_pp68_L1_V1.0_scrambled_freeview_isoTrue.mp4",""
"null","","","html-keyboard-response","104","250031","0.0-104.0","125dgcdr","","<span style=""color:Black; font-size:50px;"">Agent B","null","","","","",""
"null","","","video-keyboard-response","105","253107","0.0-105.0","125dgcdr","","","null","","Agent B","veridical","STIM_SET_2/1592025.bmp_pp68_L1_V1.0_veridical_freeview_isoTrue.mp4",""
"","","","call-function","106","253108","0.0-106.0","125dgcdr","","","","","","","",""
"1804.7900000000081","{""judgement"":1}","[0]","survey-likert","107","254915","0.0-107.0","125dgcdr","","","","","","","","1"
"4013.720000000001","{""confidence"":0}","[0]","survey-likert","108","258930","0.0-108.0","125dgcdr","","","","","","","",""
"","","","call-function","109","258931","0.0-109.0","125dgcdr","","","","","","","",""
"null","","","html-keyboard-response","110","260438","0.0-110.0","125dgcdr","","<span style=""color:Black; font-size:50px;"">Agent A","null","","","","",""
"null","","","video-keyboard-response","111","263508","0.0-111.0","125dgcdr","","","null","","Agent A","scrambled","STIM_SET_2/498261.bmp_pp84_L3_V1.0_scrambled_freeview_isoTrue.mp4",""
"null","","","html-keyboard-response","112","265010","0.0-112.0","125dgcdr","","<span style=""color:Black; font-size:50px;"">Agent B","null","","","","",""
"null","","","video-keyboard-response","113","268085","0.0-113.0","125dgcdr","","","null","","Agent B","veridical","STIM_SET_2/498261.bmp_pp84_L3_V1.0_veridical_freeview_isoTrue.mp4",""
"","","","call-function","114","268085","0.0-114.0","125dgcdr","","","","","","","",""
"2775.4199999999837","{""judgement"":1}","[0]","survey-likert","115","270862","0.0-115.0","125dgcdr","","","","","","","","1"
"1634.914999999979","{""confidence"":2}","[0]","survey-likert","116","272498","0.0-116.0","125dgcdr","","","","","","","",""
"","","","call-function","117","272499","0.0-117.0","125dgcdr","","","","","","","",""
"null","","","html-keyboard-response","118","274002","0.0-118.0","125dgcdr","","<span style=""color:Black; font-size:50px;"">Agent A","null","","","","",""
"null","","","video-keyboard-response","119","277072","0.0-119.0","125dgcdr","","","null","","Agent A","scrambled","STIM_SET_2/1159427.bmp_pp98_L1_V1.0_scrambled_freeview_isoTrue.mp4",""
"null","","","html-keyboard-response","120","278574","0.0-120.0","125dgcdr","","<span style=""color:Black; font-size:50px;"">Agent B","null","","","","",""
"null","","","video-keyboard-response","121","281632","0.0-121.0","125dgcdr","","","null","","Agent B","veridical","STIM_SET_2/1159427.bmp_pp98_L1_V1.0_veridical_freeview_isoTrue.mp4",""
"","","","call-function","122","281633","0.0-122.0","125dgcdr","","","","","","","",""
"2326.7050000000163","{""judgement"":1}","[0]","survey-likert","123","283961","0.0-123.0","125dgcdr","","","","","","","","1"
"2629.1100000000442","{""confidence"":3}","[0]","survey-likert","124","286591","0.0-124.0","125dgcdr","","","","","","","",""
"","","","call-function","125","286591","0.0-125.0","125dgcdr","","","","","","","",""
"null","","","html-keyboard-response","126","288092","0.0-126.0","125dgcdr","","<span style=""color:Black; font-size:50px;"">Agent A","null","","","","",""
"null","","","video-keyboard-response","127","291196","0.0-127.0","125dgcdr","","","null","","Agent A","scrambled","STIM_SET_2/1159819.bmp_pp151_L1_V1.0_scrambled_freeview_isoTrue.mp4",""
"null","","","html-keyboard-response","128","292702","0.0-128.0","125dgcdr","","<span style=""color:Black; font-size:50px;"">Agent B","null","","","","",""
"null","","","video-keyboard-response","129","295802","0.0-129.0","125dgcdr","","","null","","Agent B","veridical","STIM_SET_2/1159819.bmp_pp151_L1_V1.0_veridical_freeview_isoTrue.mp4",""
"","","","call-function","130","295803","0.0-130.0","125dgcdr","","","","","","","",""
"1637.9349999999977","{""judgement"":1}","[0]","survey-likert","131","297442","0.0-131.0","125dgcdr","","","","","","","","1"
"3476.234999999986","{""confidence"":3}","[0]","survey-likert","132","300920","0.0-132.0","125dgcdr","","","","","","","",""
"","","","call-function","133","300920","0.0-133.0","125dgcdr","","","","","","","",""
"null","","","html-keyboard-response","134","302422","0.0-134.0","125dgcdr","","<span style=""color:Black; font-size:50px;"">Agent A","null","","","","",""
"null","","","video-keyboard-response","135","305527","0.0-135.0","125dgcdr","","","null","","Agent A","veridical","STIM_SET_2/713858.bmp_pp57_L1_V1.0_veridical_freeview_isoTrue.mp4",""
"null","","","html-keyboard-response","136","307029","0.0-136.0","125dgcdr","","<span style=""color:Black; font-size:50px;"">Agent B","null","","","","",""
"null","","","video-keyboard-response","137","310131","0.0-137.0","125dgcdr","","","null","","Agent B","scrambled","STIM_SET_2/713858.bmp_pp57_L1_V1.0_scrambled_freeview_isoTrue.mp4",""
"","","","call-function","138","310131","0.0-138.0","125dgcdr","","","","","","","",""
"1486.469999999972","{""judgement"":0}","[0]","survey-likert","139","311619","0.0-139.0","125dgcdr","","","","","","","","0"
"2050.2949999999837","{""confidence"":3}","[0]","survey-likert","140","313671","0.0-140.0","125dgcdr","","","","","","","",""
"","","","call-function","141","313671","0.0-141.0","125dgcdr","","","","","","","",""
"null","","","html-keyboard-response","142","315174","0.0-142.0","125dgcdr","","<span style=""color:Black; font-size:50px;"">Agent A","null","","","","",""
"null","","","video-keyboard-response","143","318256","0.0-143.0","125dgcdr","","","null","","Agent A","scrambled","STIM_SET_2/713742.bmp_pp91_L3_V1.0_scrambled_freeview_isoTrue.mp4",""
"null","","","html-keyboard-response","144","319757","0.0-144.0","125dgcdr","","<span style=""color:Black; font-size:50px;"">Agent B","null","","","","",""
"null","","","video-keyboard-response","145","322865","0.0-145.0","125dgcdr","","","null","","Agent B","veridical","STIM_SET_2/713742.bmp_pp91_L3_V1.0_veridical_freeview_isoTrue.mp4",""
"","","","call-function","146","322865","0.0-146.0","125dgcdr","","","","","","","",""
"1260.75","{""judgement"":1}","[0]","survey-likert","147","324127","0.0-147.0","125dgcdr","","","","","","","","1"
"1326.7249999999767","{""confidence"":3}","[0]","survey-likert","148","325455","0.0-148.0","125dgcdr","","","","","","","",""
"","","","call-function","149","325455","0.0-149.0","125dgcdr","","","","","","","",""
"null","","","html-keyboard-response","150","326959","0.0-150.0","125dgcdr","","<span style=""color:Black; font-size:50px;"">Agent A","null","","","","",""
"null","","","video-keyboard-response","151","330035","0.0-151.0","125dgcdr","","","null","","Agent A","veridical","STIM_SET_2/1160247.bmp_pp54_L2_V1.0_veridical_freeview_isoTrue.mp4",""
"null","","","html-keyboard-response","152","331541","0.0-152.0","125dgcdr","","<span style=""color:Black; font-size:50px;"">Agent B","null","","","","",""
"null","","","video-keyboard-response","153","334620","0.0-153.0","125dgcdr","","","null","","Agent B","scrambled","STIM_SET_2/1160247.bmp_pp54_L2_V1.0_scrambled_freeview_isoTrue.mp4",""
"","","","call-function","154","334621","0.0-154.0","125dgcdr","","","","","","","",""
"1574.75","{""judgement"":0}","[0]","survey-likert","155","336197","0.0-155.0","125dgcdr","","","","","","","","0"
"1289.2050000000163","{""confidence"":3}","[0]","survey-likert","156","337488","0.0-156.0","125dgcdr","","","","","","","",""
"","","","call-function","157","337489","0.0-157.0","125dgcdr","","","","","","","",""
"null","","","html-keyboard-response","158","338991","0.0-158.0","125dgcdr","","<span style=""color:Black; font-size:50px;"">Agent A","null","","","","",""
"null","","","video-keyboard-response","159","342068","0.0-159.0","125dgcdr","","","null","","Agent A","veridical","STIM_SET_2/1592568.bmp_pp71_L1_V1.0_veridical_freeview_isoTrue.mp4",""
"null","","","html-keyboard-response","160","343570","0.0-160.0","125dgcdr","","<span style=""color:Black; font-size:50px;"">Agent B","null","","","","",""
"null","","","video-keyboard-response","161","346648","0.0-161.0","125dgcdr","","","null","","Agent B","scrambled","STIM_SET_2/1592568.bmp_pp71_L1_V1.0_scrambled_freeview_isoTrue.mp4",""
"","","","call-function","162","346649","0.0-162.0","125dgcdr","","","","","","","",""
"1546.4249999999884","{""judgement"":0}","[0]","survey-likert","163","348196","0.0-163.0","125dgcdr","","","","","","","","0"
"2605.945000000007","{""confidence"":3}","[0]","survey-likert","164","350804","0.0-164.0","125dgcdr","","","","","","","",""
"","","","call-function","165","350804","0.0-165.0","125dgcdr","","","","","","","",""
"null","","","html-keyboard-response","166","352312","0.0-166.0","125dgcdr","","<span style=""color:Black; font-size:50px;"">Agent A","null","","","","",""
"null","","","video-keyboard-response","167","355390","0.0-167.0","125dgcdr","","","null","","Agent A","scrambled","STIM_SET_2/1159592.bmp_pp91_L3_V1.0_scrambled_freeview_isoTrue.mp4",""
"null","","","html-keyboard-response","168","356895","0.0-168.0","125dgcdr","","<span style=""color:Black; font-size:50px;"">Agent B","null","","","","",""
"null","","","video-keyboard-response","169","359974","0.0-169.0","125dgcdr","","","null","","Agent B","veridical","STIM_SET_2/1159592.bmp_pp91_L3_V1.0_veridical_freeview_isoTrue.mp4",""
"","","","call-function","170","359975","0.0-170.0","125dgcdr","","","","","","","",""
"2878.4550000000163","{""judgement"":1}","[0]","survey-likert","171","362854","0.0-171.0","125dgcdr","","","","","","","","1"
"1950.9949999999953","{""confidence"":1}","[0]","survey-likert","172","364806","0.0-172.0","125dgcdr","","","","","","","",""
"2313.2999999999884","","","instructions","173","367120","0.0-173.0","125dgcdr","[{""page_index"":0,""viewing_time"":1028.515000000014},{""page_index"":1,""viewing_time"":728.2550000000047},{""page_index"":2,""viewing_time"":556.3549999999814}]","","","","","","",""
"1758.7550000000047","","","instructions","174","368879","0.0-174.0","125dgcdr","[{""page_index"":0,""viewing_time"":525.445000000007},{""page_index"":1,""viewing_time"":671.7900000000373},{""page_index"":2,""viewing_time"":561.2649999999558}]","","","","","","",""
"","","","call-function","175","368880","0.0-175.0","125dgcdr","","","","","","","",""
"null","","","html-keyboard-response","176","370382","0.0-176.0","125dgcdr","","<span style=""color:Black; font-size:50px;"">Agent A","null","","","","",""
"null","","","video-keyboard-response","177","373442","0.0-177.0","125dgcdr","","","null","","Agent A","veridical","STIM_SET_2/713328.bmp_pp86_L2_V1.0_veridical_freeview_isoTrue.mp4",""
"null","","","html-keyboard-response","178","374945","0.0-178.0","125dgcdr","","<span style=""color:Black; font-size:50px;"">Agent B","null","","","","",""
"null","","","video-keyboard-response","179","378001","0.0-179.0","125dgcdr","","","null","","Agent B","scrambled","STIM_SET_2/713328.bmp_pp86_L2_V1.0_scrambled_freeview_isoTrue.mp4",""
"","","","call-function","180","378002","0.0-180.0","125dgcdr","","","","","","","",""
"1504.9799999999814","{""judgement"":0}","[0]","survey-likert","181","379508","0.0-181.0","125dgcdr","","","","","","","","0"
"1275.1599999999744","{""confidence"":2}","[0]","survey-likert","182","380784","0.0-182.0","125dgcdr","","","","","","","",""
"","","","call-function","183","380784","0.0-183.0","125dgcdr","","","","","","","",""
"null","","","html-keyboard-response","184","382286","0.0-184.0","125dgcdr","","<span style=""color:Black; font-size:50px;"">Agent A","null","","","","",""
"null","","","video-keyboard-response","185","385379","0.0-185.0","125dgcdr","","","null","","Agent A","scrambled","STIM_SET_2/1159508.bmp_pp151_L1_V1.0_scrambled_freeview_isoTrue.mp4",""
"null","","","html-keyboard-response","186","386882","0.0-186.0","125dgcdr","","<span style=""color:Black; font-size:50px;"">Agent B","null","","","","",""
"null","","","video-keyboard-response","187","389981","0.0-187.0","125dgcdr","","","null","","Agent B","veridical","STIM_SET_2/1159508.bmp_pp151_L1_V1.0_veridical_freeview_isoTrue.mp4",""
"","","","call-function","188","389982","0.0-188.0","125dgcdr","","","","","","","",""
"1593.5050000000047","{""judgement"":1}","[0]","survey-likert","189","391576","0.0-189.0","125dgcdr","","","","","","","","1"
"1628.5750000000116","{""confidence"":3}","[0]","survey-likert","190","393206","0.0-190.0","125dgcdr","","","","","","","",""
"","","","call-function","191","393206","0.0-191.0","125dgcdr","","","","","","","",""
"null","","","html-keyboard-response","192","394709","0.0-192.0","125dgcdr","","<span style=""color:Black; font-size:50px;"">Agent A","null","","","","",""
"null","","","video-keyboard-response","193","397768","0.0-193.0","125dgcdr","","","null","","Agent A","veridical","STIM_SET_2/1159860.bmp_pp152_L2_V1.0_veridical_freeview_isoTrue.mp4",""
"null","","","html-keyboard-response","194","399272","0.0-194.0","125dgcdr","","<span style=""color:Black; font-size:50px;"">Agent B","null","","","","",""
"null","","","video-keyboard-response","195","402331","0.0-195.0","125dgcdr","","","null","","Agent B","scrambled","STIM_SET_2/1159860.bmp_pp152_L2_V1.0_scrambled_freeview_isoTrue.mp4",""
"","","","call-function","196","402332","0.0-196.0","125dgcdr","","","","","","","",""
"1941.7600000000093","{""judgement"":1}","[0]","survey-likert","197","404274","0.0-197.0","125dgcdr","","","","","","","","0"
"1409.4249999999884","{""confidence"":0}","[0]","survey-likert","198","405685","0.0-198.0","125dgcdr","","","","","","","",""
"","","","call-function","199","405686","0.0-199.0","125dgcdr","","","","","","","",""
"null","","","html-keyboard-response","200","407187","0.0-200.0","125dgcdr","","<span style=""color:Black; font-size:50px;"">Agent A","null","","","","",""
"null","","","video-keyboard-response","201","410253","0.0-201.0","125dgcdr","","","null","","Agent A","scrambled","STIM_SET_2/713829.bmp_pp60_L3_V1.0_scrambled_freeview_isoTrue.mp4",""
"null","","","html-keyboard-response","202","411759","0.0-202.0","125dgcdr","","<span style=""color:Black; font-size:50px;"">Agent B","null","","","","",""
"null","","","video-keyboard-response","203","414825","0.0-203.0","125dgcdr","","","null","","Agent B","veridical","STIM_SET_2/713829.bmp_pp60_L3_V1.0_veridical_freeview_isoTrue.mp4",""
"","","","call-function","204","414825","0.0-204.0","125dgcdr","","","","","","","",""
"1461.3300000000163","{""judgement"":1}","[0]","survey-likert","205","416288","0.0-205.0","125dgcdr","","","","","","","","1"
"1258.3400000000256","{""confidence"":3}","[0]","survey-likert","206","417547","0.0-206.0","125dgcdr","","","","","","","",""
"","","","call-function","207","417548","0.0-207.0","125dgcdr","","","","","","","",""
"null","","","html-keyboard-response","208","419051","0.0-208.0","125dgcdr","","<span style=""color:Black; font-size:50px;"">Agent A","null","","","","",""
"null","","","video-keyboard-response","209","422123","0.0-209.0","125dgcdr","","","null","","Agent A","veridical","STIM_SET_2/1592201.bmp_pp97_L3_V1.0_veridical_freeview_isoTrue.mp4",""
"null","","","html-keyboard-response","210","423627","0.0-210.0","125dgcdr","","<span style=""color:Black; font-size:50px;"">Agent B","null","","","","",""
"null","","","video-keyboard-response","211","426700","0.0-211.0","125dgcdr","","","null","","Agent B","scrambled","STIM_SET_2/1592201.bmp_pp97_L3_V1.0_scrambled_freeview_isoTrue.mp4",""
"","","","call-function","212","426701","0.0-212.0","125dgcdr","","","","","","","",""
"1399.125","{""judgement"":0}","[0]","survey-likert","213","428102","0.0-213.0","125dgcdr","","","","","","","","0"
"1102.9199999999837","{""confidence"":1}","[0]","survey-likert","214","429207","0.0-214.0","125dgcdr","","","","","","","",""
"","","","call-function","215","429208","0.0-215.0","125dgcdr","","","","","","","",""
"null","","","html-keyboard-response","216","430711","0.0-216.0","125dgcdr","","<span style=""color:Black; font-size:50px;"">Agent A","null","","","","",""
"null","","","video-keyboard-response","217","433777","0.0-217.0","125dgcdr","","","null","","Agent A","scrambled","STIM_SET_2/1591975.bmp_pp88_L2_V1.0_scrambled_freeview_isoTrue.mp4",""
"null","","","html-keyboard-response","218","435280","0.0-218.0","125dgcdr","","<span style=""color:Black; font-size:50px;"">Agent B","null","","","","",""
"null","","","video-keyboard-response","219","438349","0.0-219.0","125dgcdr","","","null","","Agent B","veridical","STIM_SET_2/1591975.bmp_pp88_L2_V1.0_veridical_freeview_isoTrue.mp4",""
"","","","call-function","220","438350","0.0-220.0","125dgcdr","","","","","","","",""
"1259.890000000014","{""judgement"":1}","[0]","survey-likert","221","439611","0.0-221.0","125dgcdr","","","","","","","","1"
"2136.0449999999837","{""confidence"":1}","[0]","survey-likert","222","441748","0.0-222.0","125dgcdr","","","","","","","",""
"","","","call-function","223","441749","0.0-223.0","125dgcdr","","","","","","","",""
"null","","","html-keyboard-response","224","443251","0.0-224.0","125dgcdr","","<span style=""color:Black; font-size:50px;"">Agent A","null","","","","",""
"null","","","video-keyboard-response","225","446326","0.0-225.0","125dgcdr","","","null","","Agent A","veridical","STIM_SET_2/498396.bmp_pp99_L2_V1.0_veridical_freeview_isoTrue.mp4",""
"null","","","html-keyboard-response","226","447828","0.0-226.0","125dgcdr","","<span style=""color:Black; font-size:50px;"">Agent B","null","","","","",""
"null","","","video-keyboard-response","227","450903","0.0-227.0","125dgcdr","","","null","","Agent B","scrambled","STIM_SET_2/498396.bmp_pp99_L2_V1.0_scrambled_freeview_isoTrue.mp4",""
"","","","call-function","228","450904","0.0-228.0","125dgcdr","","","","","","","",""
"2557.625","{""judgement"":0}","[0]","survey-likert","229","453463","0.0-229.0","125dgcdr","","","","","","","","0"
"1415.2249999999767","{""confidence"":0}","[0]","survey-likert","230","454879","0.0-230.0","125dgcdr","","","","","","","",""
"","","","call-function","231","454880","0.0-231.0","125dgcdr","","","","","","","",""
"null","","","html-keyboard-response","232","456381","0.0-232.0","125dgcdr","","<span style=""color:Black; font-size:50px;"">Agent A","null","","","","",""
"null","","","video-keyboard-response","233","459491","0.0-233.0","125dgcdr","","","null","","Agent A","scrambled","STIM_SET_2/713381.bmp_pp82_L2_V1.0_scrambled_freeview_isoTrue.mp4",""
"null","","","html-keyboard-response","234","460993","0.0-234.0","125dgcdr","","<span style=""color:Black; font-size:50px;"">Agent B","null","","","","",""
"null","","","video-keyboard-response","235","464095","0.0-235.0","125dgcdr","","","null","","Agent B","veridical","STIM_SET_2/713381.bmp_pp82_L2_V1.0_veridical_freeview_isoTrue.mp4",""
"","","","call-function","236","464096","0.0-236.0","125dgcdr","","","","","","","",""
"1512.3950000000186","{""judgement"":1}","[0]","survey-likert","237","465609","0.0-237.0","125dgcdr","","","","","","","","1"
"1875.2000000000116","{""confidence"":3}","[0]","survey-likert","238","467485","0.0-238.0","125dgcdr","","","","","","","",""
"","","","call-function","239","467486","0.0-239.0","125dgcdr","","","","","","","",""
"null","","","html-keyboard-response","240","468992","0.0-240.0","125dgcdr","","<span style=""color:Black; font-size:50px;"">Agent A","null","","","","",""
"null","","","video-keyboard-response","241","472097","0.0-241.0","125dgcdr","","","null","","Agent A","veridical","STIM_SET_2/107909.bmp_pp95_L2_V1.0_veridical_freeview_isoTrue.mp4",""
"null","","","html-keyboard-response","242","473599","0.0-242.0","125dgcdr","","<span style=""color:Black; font-size:50px;"">Agent B","null","","","","",""
"null","","","video-keyboard-response","243","476705","0.0-243.0","125dgcdr","","","null","","Agent B","scrambled","STIM_SET_2/107909.bmp_pp95_L2_V1.0_scrambled_freeview_isoTrue.mp4",""
"","","","call-function","244","476706","0.0-244.0","125dgcdr","","","","","","","",""
"1447.875","{""judgement"":0}","[0]","survey-likert","245","478155","0.0-245.0","125dgcdr","","","","","","","","0"
"1067.7249999999767","{""confidence"":2}","[0]","survey-likert","246","479224","0.0-246.0","125dgcdr","","","","","","","",""
"","","","call-function","247","479225","0.0-247.0","125dgcdr","","","","","","","",""
"null","","","html-keyboard-response","248","480727","0.0-248.0","125dgcdr","","<span style=""color:Black; font-size:50px;"">Agent A","null","","","","",""
"null","","","video-keyboard-response","249","483804","0.0-249.0","125dgcdr","","","null","","Agent A","scrambled","STIM_SET_2/498398.bmp_pp81_L1_V1.0_scrambled_freeview_isoTrue.mp4",""
"null","","","html-keyboard-response","250","485309","0.0-250.0","125dgcdr","","<span style=""color:Black; font-size:50px;"">Agent B","null","","","","",""
"null","","","video-keyboard-response","251","488384","0.0-251.0","125dgcdr","","","null","","Agent B","veridical","STIM_SET_2/498398.bmp_pp81_L1_V1.0_veridical_freeview_isoTrue.mp4",""
"","","","call-function","252","488385","0.0-252.0","125dgcdr","","","","","","","",""
"1621.8399999999674","{""judgement"":1}","[0]","survey-likert","253","490008","0.0-253.0","125dgcdr","","","","","","","","1"
"1301.0100000000093","{""confidence"":2}","[0]","survey-likert","254","491310","0.0-254.0","125dgcdr","","","","","","","",""
"2045.6749999999884","","","instructions","255","493356","0.0-255.0","125dgcdr","[{""page_index"":0,""viewing_time"":953.6149999999907},{""page_index"":1,""viewing_time"":642.8700000000536},{""page_index"":2,""viewing_time"":448.94999999995343}]","","","","","","",""
"1401.4250000000466","","","instructions","256","494758","0.0-256.0","125dgcdr","[{""page_index"":0,""viewing_time"":370.1900000000023},{""page_index"":1,""viewing_time"":593.0950000000303},{""page_index"":2,""viewing_time"":438.0249999999651}]","","","","","","",""
"","","","call-function","257","494759","0.0-257.0","125dgcdr","","","","","","","",""
"null","","","html-keyboard-response","258","496262","0.0-258.0","125dgcdr","","<span style=""color:Black; font-size:50px;"">Agent A","null","","","","",""
"null","","","video-keyboard-response","259","499335","0.0-259.0","125dgcdr","","","null","","Agent A","veridical","STIM_SET_2/1160189.bmp_pp64_L1_V1.0_veridical_freeview_isoTrue.mp4",""
"null","","","html-keyboard-response","260","500839","0.0-260.0","125dgcdr","","<span style=""color:Black; font-size:50px;"">Agent B","null","","","","",""
"null","","","video-keyboard-response","261","503913","0.0-261.0","125dgcdr","","","null","","Agent B","scrambled","STIM_SET_2/1160189.bmp_pp64_L1_V1.0_scrambled_freeview_isoTrue.mp4",""
"","","","call-function","262","503914","0.0-262.0","125dgcdr","","","","","","","",""
"1375.9349999999977","{""judgement"":0}","[0]","survey-likert","263","505292","0.0-263.0","125dgcdr","","","","","","","","0"
"1065.8949999999604","{""confidence"":2}","[0]","survey-likert","264","506359","0.0-264.0","125dgcdr","","","","","","","",""
"","","","call-function","265","506361","0.0-265.0","125dgcdr","","","","","","","",""
"null","","","html-keyboard-response","266","507866","0.0-266.0","125dgcdr","","<span style=""color:Black; font-size:50px;"">Agent A","null","","","","",""
"null","","","video-keyboard-response","267","510928","0.0-267.0","125dgcdr","","","null","","Agent A","scrambled","STIM_SET_2/285715.bmp_pp67_L2_V1.0_scrambled_freeview_isoTrue.mp4",""
"null","","","html-keyboard-response","268","512431","0.0-268.0","125dgcdr","","<span style=""color:Black; font-size:50px;"">Agent B","null","","","","",""
"null","","","video-keyboard-response","269","515496","0.0-269.0","125dgcdr","","","null","","Agent B","veridical","STIM_SET_2/285715.bmp_pp67_L2_V1.0_veridical_freeview_isoTrue.mp4",""
"","","","call-function","270","515496","0.0-270.0","125dgcdr","","","","","","","",""
"1675.4199999999837","{""judgement"":1}","[0]","survey-likert","271","517174","0.0-271.0","125dgcdr","","","","","","","","1"
"1372.3850000000093","{""confidence"":3}","[0]","survey-likert","272","518548","0.0-272.0","125dgcdr","","","","","","","",""
"","","","call-function","273","518549","0.0-273.0","125dgcdr","","","","","","","",""
"null","","","html-keyboard-response","274","520053","0.0-274.0","125dgcdr","","<span style=""color:Black; font-size:50px;"">Agent A","null","","","","",""
"null","","","video-keyboard-response","275","523121","0.0-275.0","125dgcdr","","","null","","Agent A","scrambled","STIM_SET_2/1592150.bmp_pp77_L3_V1.0_scrambled_freeview_isoTrue.mp4",""
"null","","","html-keyboard-response","276","524622","0.0-276.0","125dgcdr","","<span style=""color:Black; font-size:50px;"">Agent B","null","","","","",""
"null","","","video-keyboard-response","277","527696","0.0-277.0","125dgcdr","","","null","","Agent B","veridical","STIM_SET_2/1592150.bmp_pp77_L3_V1.0_veridical_freeview_isoTrue.mp4",""
"","","","call-function","278","527696","0.0-278.0","125dgcdr","","","","","","","",""
"1756.759999999893","{""judgement"":1}","[0]","survey-likert","279","529454","0.0-279.0","125dgcdr","","","","","","","","1"
"1362.8399999999674","{""confidence"":1}","[0]","survey-likert","280","530818","0.0-280.0","125dgcdr","","","","","","","",""
"","","","call-function","281","530819","0.0-281.0","125dgcdr","","","","","","","",""
"null","","","html-keyboard-response","282","532320","0.0-282.0","125dgcdr","","<span style=""color:Black; font-size:50px;"">Agent A","null","","","","",""
"null","","","video-keyboard-response","283","535420","0.0-283.0","125dgcdr","","","null","","Agent A","veridical","STIM_SET_2/1592530.bmp_pp75_L1_V1.0_veridical_freeview_isoTrue.mp4",""
"null","","","html-keyboard-response","284","536927","0.0-284.0","125dgcdr","","<span style=""color:Black; font-size:50px;"">Agent B","null","","","","",""
"null","","","video-keyboard-response","285","540027","0.0-285.0","125dgcdr","","","null","","Agent B","scrambled","STIM_SET_2/1592530.bmp_pp75_L1_V1.0_scrambled_freeview_isoTrue.mp4",""
"","","","call-function","286","540028","0.0-286.0","125dgcdr","","","","","","","",""
"1508.6600000000326","{""judgement"":0}","[0]","survey-likert","287","541537","0.0-287.0","125dgcdr","","","","","","","","0"
"1516.1300000000047","{""confidence"":1}","[0]","survey-likert","288","543055","0.0-288.0","125dgcdr","","","","","","","",""
"","","","call-function","289","543055","0.0-289.0","125dgcdr","","","","","","","",""
"null","","","html-keyboard-response","290","544558","0.0-290.0","125dgcdr","","<span style=""color:Black; font-size:50px;"">Agent A","null","","","","",""
"null","","","video-keyboard-response","291","547663","0.0-291.0","125dgcdr","","","null","","Agent A","veridical","STIM_SET_2/1591781.bmp_pp63_L1_V1.0_veridical_freeview_isoTrue.mp4",""
"null","","","html-keyboard-response","292","549167","0.0-292.0","125dgcdr","","<span style=""color:Black; font-size:50px;"">Agent B","null","","","","",""
"null","","","video-keyboard-response","293","552269","0.0-293.0","125dgcdr","","","null","","Agent B","scrambled","STIM_SET_2/1591781.bmp_pp63_L1_V1.0_scrambled_freeview_isoTrue.mp4",""
"","","","call-function","294","552270","0.0-294.0","125dgcdr","","","","","","","",""
"2263.0050000000047","{""judgement"":0}","[0]","survey-likert","295","554534","0.0-295.0","125dgcdr","","","","","","","","0"
"1307.719999999972","{""confidence"":2}","[0]","survey-likert","296","555842","0.0-296.0","125dgcdr","","","","","","","",""
"","","","call-function","297","555843","0.0-297.0","125dgcdr","","","","","","","",""
"null","","","html-keyboard-response","298","557348","0.0-298.0","125dgcdr","","<span style=""color:Black; font-size:50px;"">Agent A","null","","","","",""
"null","","","video-keyboard-response","299","560449","0.0-299.0","125dgcdr","","","null","","Agent A","scrambled","STIM_SET_2/150463.bmp_pp55_L3_V1.0_scrambled_freeview_isoTrue.mp4",""
"null","","","html-keyboard-response","300","561952","0.0-300.0","125dgcdr","","<span style=""color:Black; font-size:50px;"">Agent B","null","","","","",""
"null","","","video-keyboard-response","301","565050","0.0-301.0","125dgcdr","","","null","","Agent B","veridical","STIM_SET_2/150463.bmp_pp55_L3_V1.0_veridical_freeview_isoTrue.mp4",""
"","","","call-function","302","565051","0.0-302.0","125dgcdr","","","","","","","",""
"1469.9150000000373","{""judgement"":1}","[0]","survey-likert","303","566522","0.0-303.0","125dgcdr","","","","","","","","1"
"1228.6800000000512","{""confidence"":2}","[0]","survey-likert","304","567751","0.0-304.0","125dgcdr","","","","","","","",""
"","","","call-function","305","567752","0.0-305.0","125dgcdr","","","","","","","",""
"null","","","html-keyboard-response","306","569256","0.0-306.0","125dgcdr","","<span style=""color:Black; font-size:50px;"">Agent A","null","","","","",""
"null","","","video-keyboard-response","307","572360","0.0-307.0","125dgcdr","","","null","","Agent A","scrambled","STIM_SET_2/150277.bmp_pp65_L3_V1.0_scrambled_freeview_isoTrue.mp4",""
"null","","","html-keyboard-response","308","573861","0.0-308.0","125dgcdr","","<span style=""color:Black; font-size:50px;"">Agent B","null","","","","",""
"null","","","video-keyboard-response","309","576931","0.0-309.0","125dgcdr","","","null","","Agent B","veridical","STIM_SET_2/150277.bmp_pp65_L3_V1.0_veridical_freeview_isoTrue.mp4",""
"","","","call-function","310","576932","0.0-310.0","125dgcdr","","","","","","","",""
"1535.655000000028","{""judgement"":1}","[0]","survey-likert","311","578468","0.0-311.0","125dgcdr","","","","","","","","1"
"1286.9250000000466","{""confidence"":3}","[0]","survey-likert","312","579756","0.0-312.0","125dgcdr","","","","","","","",""
"","","","call-function","313","579757","0.0-313.0","125dgcdr","","","","","","","",""
"null","","","html-keyboard-response","314","581258","0.0-314.0","125dgcdr","","<span style=""color:Black; font-size:50px;"">Agent A","null","","","","",""
"null","","","video-keyboard-response","315","584329","0.0-315.0","125dgcdr","","","null","","Agent A","veridical","STIM_SET_2/1159973.bmp_pp98_L1_V1.0_veridical_freeview_isoTrue.mp4",""
"null","","","html-keyboard-response","316","585831","0.0-316.0","125dgcdr","","<span style=""color:Black; font-size:50px;"">Agent B","null","","","","",""
"null","","","video-keyboard-response","317","588901","0.0-317.0","125dgcdr","","","null","","Agent B","scrambled","STIM_SET_2/1159973.bmp_pp98_L1_V1.0_scrambled_freeview_isoTrue.mp4",""
"","","","call-function","318","588902","0.0-318.0","125dgcdr","","","","","","","",""
"1578.8450000000885","{""judgement"":1}","[0]","survey-likert","319","590482","0.0-319.0","125dgcdr","","","","","","","","0"
"1577.125","{""confidence"":0}","[0]","survey-likert","320","592061","0.0-320.0","125dgcdr","","","","","","","",""
"","","","call-function","321","592062","0.0-321.0","125dgcdr","","","","","","","",""
"null","","","html-keyboard-response","322","593565","0.0-322.0","125dgcdr","","<span style=""color:Black; font-size:50px;"">Agent A","null","","","","",""
"null","","","video-keyboard-response","323","596634","0.0-323.0","125dgcdr","","","null","","Agent A","scrambled","STIM_SET_2/713689.bmp_pp153_L3_V1.0_scrambled_freeview_isoTrue.mp4",""
"null","","","html-keyboard-response","324","598137","0.0-324.0","125dgcdr","","<span style=""color:Black; font-size:50px;"">Agent B","null","","","","",""
"null","","","video-keyboard-response","325","601208","0.0-325.0","125dgcdr","","","null","","Agent B","veridical","STIM_SET_2/713689.bmp_pp153_L3_V1.0_veridical_freeview_isoTrue.mp4",""
"","","","call-function","326","601209","0.0-326.0","125dgcdr","","","","","","","",""
"1579.0600000000559","{""judgement"":0}","[0]","survey-likert","327","602789","0.0-327.0","125dgcdr","","","","","","","","1"
"1310.6199999999953","{""confidence"":0}","[0]","survey-likert","328","604101","0.0-328.0","125dgcdr","","","","","","","",""
"","","","call-function","329","604102","0.0-329.0","125dgcdr","","","","","","","",""
"null","","","html-keyboard-response","330","605605","0.0-330.0","125dgcdr","","<span style=""color:Black; font-size:50px;"">Agent A","null","","","","",""
"null","","","video-keyboard-response","331","608673","0.0-331.0","125dgcdr","","","null","","Agent A","scrambled","STIM_SET_2/107955.bmp_pp90_L2_V1.0_scrambled_freeview_isoTrue.mp4",""
"null","","","html-keyboard-response","332","610179","0.0-332.0","125dgcdr","","<span style=""color:Black; font-size:50px;"">Agent B","null","","","","",""
"null","","","video-keyboard-response","333","613249","0.0-333.0","125dgcdr","","","null","","Agent B","veridical","STIM_SET_2/107955.bmp_pp90_L2_V1.0_veridical_freeview_isoTrue.mp4",""
"","","","call-function","334","613250","0.0-334.0","125dgcdr","","","","","","","",""
"1462.7150000000838","{""judgement"":1}","[0]","survey-likert","335","614714","0.0-335.0","125dgcdr","","","","","","","","1"
"2363.7700000000186","{""confidence"":3}","[0]","survey-likert","336","617079","0.0-336.0","125dgcdr","","","","","","","",""
"1987.9399999999441","","","instructions","337","619067","0.0-337.0","125dgcdr","[{""page_index"":0,""viewing_time"":820.0299999999115},{""page_index"":1,""viewing_time"":805.9100000000326},{""page_index"":2,""viewing_time"":361.78000000002794}]","","","","","","",""
"1188.5850000000792","","","instructions","338","620257","0.0-338.0","125dgcdr","[{""page_index"":0,""viewing_time"":373.1500000000233},{""page_index"":1,""viewing_time"":438.14000000001397},{""page_index"":2,""viewing_time"":377.1899999999441}]","","","","","","",""
"","","","call-function","339","620257","0.0-339.0","125dgcdr","","","","","","","",""
"null","","","html-keyboard-response","340","621763","0.0-340.0","125dgcdr","","<span style=""color:Black; font-size:50px;"">Agent A","null","","","","",""
"null","","","video-keyboard-response","341","624856","0.0-341.0","125dgcdr","","","null","","Agent A","scrambled","STIM_SET_2/1159392.bmp_pp96_L2_V1.0_scrambled_freeview_isoTrue.mp4",""
"null","","","html-keyboard-response","342","626358","0.0-342.0","125dgcdr","","<span style=""color:Black; font-size:50px;"">Agent B","null","","","","",""
"null","","","video-keyboard-response","343","629449","0.0-343.0","125dgcdr","","","null","","Agent B","veridical","STIM_SET_2/1159392.bmp_pp96_L2_V1.0_veridical_freeview_isoTrue.mp4",""
"","","","call-function","344","629449","0.0-344.0","125dgcdr","","","","","","","",""
"2310.015000000014","{""judgement"":1}","[0]","survey-likert","345","631760","0.0-345.0","125dgcdr","","","","","","","","1"
"1968.5400000000373","{""confidence"":0}","[0]","survey-likert","346","633730","0.0-346.0","125dgcdr","","","","","","","",""
"","","","call-function","347","633730","0.0-347.0","125dgcdr","","","","","","","",""
"null","","","html-keyboard-response","348","635234","0.0-348.0","125dgcdr","","<span style=""color:Black; font-size:50px;"">Agent A","null","","","","",""
"null","","","video-keyboard-response","349","638324","0.0-349.0","125dgcdr","","","null","","Agent A","veridical","STIM_SET_2/1592567.bmp_pp70_L2_V1.0_veridical_freeview_isoTrue.mp4",""
"null","","","html-keyboard-response","350","639826","0.0-350.0","125dgcdr","","<span style=""color:Black; font-size:50px;"">Agent B","null","","","","",""
"null","","","video-keyboard-response","351","642915","0.0-351.0","125dgcdr","","","null","","Agent B","scrambled","STIM_SET_2/1592567.bmp_pp70_L2_V1.0_scrambled_freeview_isoTrue.mp4",""
"","","","call-function","352","642915","0.0-352.0","125dgcdr","","","","","","","",""
"2732.6450000000186","{""judgement"":0}","[0]","survey-likert","353","645649","0.0-353.0","125dgcdr","","","","","","","","0"
"1159.6300000000047","{""confidence"":1}","[0]","survey-likert","354","646810","0.0-354.0","125dgcdr","","","","","","","",""
"","","","call-function","355","646810","0.0-355.0","125dgcdr","","","","","","","",""
"null","","","html-keyboard-response","356","648312","0.0-356.0","125dgcdr","","<span style=""color:Black; font-size:50px;"">Agent A","null","","","","",""
"null","","","video-keyboard-response","357","651407","0.0-357.0","125dgcdr","","","null","","Agent A","veridical","STIM_SET_2/1592017.bmp_pp154_L1_V1.0_veridical_freeview_isoTrue.mp4",""
"null","","","html-keyboard-response","358","652909","0.0-358.0","125dgcdr","","<span style=""color:Black; font-size:50px;"">Agent B","null","","","","",""
"null","","","video-keyboard-response","359","656006","0.0-359.0","125dgcdr","","","null","","Agent B","scrambled","STIM_SET_2/1592017.bmp_pp154_L1_V1.0_scrambled_freeview_isoTrue.mp4",""
"","","","call-function","360","656007","0.0-360.0","125dgcdr","","","","","","","",""
"1815.1500000000233","{""judgement"":0}","[0]","survey-likert","361","657823","0.0-361.0","125dgcdr","","","","","","","","0"
"1901.7149999999674","{""confidence"":3}","[0]","survey-likert","362","659726","0.0-362.0","125dgcdr","","","","","","","",""
"","","","call-function","363","659726","0.0-363.0","125dgcdr","","","","","","","",""
"null","","","html-keyboard-response","364","661232","0.0-364.0","125dgcdr","","<span style=""color:Black; font-size:50px;"">Agent A","null","","","","",""
"null","","","video-keyboard-response","365","664312","0.0-365.0","125dgcdr","","","null","","Agent A","scrambled","STIM_SET_2/1592168.bmp_pp71_L1_V1.0_scrambled_freeview_isoTrue.mp4",""
"null","","","html-keyboard-response","366","665816","0.0-366.0","125dgcdr","","<span style=""color:Black; font-size:50px;"">Agent B","null","","","","",""
"null","","","video-keyboard-response","367","668898","0.0-367.0","125dgcdr","","","null","","Agent B","veridical","STIM_SET_2/1592168.bmp_pp71_L1_V1.0_veridical_freeview_isoTrue.mp4",""
"","","","call-function","368","668899","0.0-368.0","125dgcdr","","","","","","","",""
"2526.3499999999767","{""judgement"":1}","[0]","survey-likert","369","671426","0.0-369.0","125dgcdr","","","","","","","","1"
"1227.4700000000885","{""confidence"":1}","[0]","survey-likert","370","672655","0.0-370.0","125dgcdr","","","","","","","",""
"","","","call-function","371","672655","0.0-371.0","125dgcdr","","","","","","","",""
"null","","","html-keyboard-response","372","674161","0.0-372.0","125dgcdr","","<span style=""color:Black; font-size:50px;"">Agent A","null","","","","",""
"null","","","video-keyboard-response","373","677226","0.0-373.0","125dgcdr","","","null","","Agent A","scrambled","STIM_SET_2/285932.bmp_pp64_L1_V1.0_scrambled_freeview_isoTrue.mp4",""
"null","","","html-keyboard-response","374","678730","0.0-374.0","125dgcdr","","<span style=""color:Black; font-size:50px;"">Agent B","null","","","","",""
"null","","","video-keyboard-response","375","681798","0.0-375.0","125dgcdr","","","null","","Agent B","veridical","STIM_SET_2/285932.bmp_pp64_L1_V1.0_veridical_freeview_isoTrue.mp4",""
"","","","call-function","376","681798","0.0-376.0","125dgcdr","","","","","","","",""
"1818.9099999999162","{""judgement"":1}","[0]","survey-likert","377","683618","0.0-377.0","125dgcdr","","","","","","","","1"
"1598.984999999986","{""confidence"":3}","[0]","survey-likert","378","685218","0.0-378.0","125dgcdr","","","","","","","",""
"","","","call-function","379","685219","0.0-379.0","125dgcdr","","","","","","","",""
"null","","","html-keyboard-response","380","686724","0.0-380.0","125dgcdr","","<span style=""color:Black; font-size:50px;"">Agent A","null","","","","",""
"null","","","video-keyboard-response","381","689821","0.0-381.0","125dgcdr","","","null","","Agent A","veridical","STIM_SET_2/1592857.bmp_pp52_L1_V1_veridical_freeview_isoTrue.mp4",""
"null","","","html-keyboard-response","382","691329","0.0-382.0","125dgcdr","","<span style=""color:Black; font-size:50px;"">Agent B","null","","","","",""
"null","","","video-keyboard-response","383","694429","0.0-383.0","125dgcdr","","","null","","Agent B","scrambled","STIM_SET_2/1592857.bmp_pp52_L1_V1_scrambled_freeview_isoTrue.mp4",""
"","","","call-function","384","694430","0.0-384.0","125dgcdr","","","","","","","",""
"1659.719999999972","{""judgement"":0}","[0]","survey-likert","385","696092","0.0-385.0","125dgcdr","","","","","","","","0"
"1391.3199999999488","{""confidence"":2}","[0]","survey-likert","386","697486","0.0-386.0","125dgcdr","","","","","","","",""
"","","","call-function","387","697487","0.0-387.0","125dgcdr","","","","","","","",""
"null","","","html-keyboard-response","388","698988","0.0-388.0","125dgcdr","","<span style=""color:Black; font-size:50px;"">Agent A","null","","","","",""
"null","","","video-keyboard-response","389","702061","0.0-389.0","125dgcdr","","","null","","Agent A","veridical","STIM_SET_2/713788.bmp_pp52_L1_V1.0_veridical_freeview_isoTrue.mp4",""
"null","","","html-keyboard-response","390","703565","0.0-390.0","125dgcdr","","<span style=""color:Black; font-size:50px;"">Agent B","null","","","","",""
"null","","","video-keyboard-response","391","706639","0.0-391.0","125dgcdr","","","null","","Agent B","scrambled","STIM_SET_2/713788.bmp_pp52_L1_V1.0_scrambled_freeview_isoTrue.mp4",""
"","","","call-function","392","706639","0.0-392.0","125dgcdr","","","","","","","",""
"1674.3699999999953","{""judgement"":0}","[0]","survey-likert","393","708315","0.0-393.0","125dgcdr","","","","","","","","0"
"2843.5449999999255","{""confidence"":3}","[0]","survey-likert","394","711160","0.0-394.0","125dgcdr","","","","","","","",""
"","","","call-function","395","711161","0.0-395.0","125dgcdr","","","","","","","",""
"null","","","html-keyboard-response","396","712666","0.0-396.0","125dgcdr","","<span style=""color:Black; font-size:50px;"">Agent A","null","","","","",""
"null","","","video-keyboard-response","397","715732","0.0-397.0","125dgcdr","","","null","","Agent A","veridical","STIM_SET_2/286034.bmp_pp69_L3_V1.0_veridical_freeview_isoTrue.mp4",""
"null","","","html-keyboard-response","398","717236","0.0-398.0","125dgcdr","","<span style=""color:Black; font-size:50px;"">Agent B","null","","","","",""
"null","","","video-keyboard-response","399","720303","0.0-399.0","125dgcdr","","","null","","Agent B","scrambled","STIM_SET_2/286034.bmp_pp69_L3_V1.0_scrambled_freeview_isoTrue.mp4",""
"","","","call-function","400","720304","0.0-400.0","125dgcdr","","","","","","","",""
"1381.4899999999907","{""judgement"":0}","[0]","survey-likert","401","721686","0.0-401.0","125dgcdr","","","","","","","","0"
"1272.375","{""confidence"":2}","[0]","survey-likert","402","722960","0.0-402.0","125dgcdr","","","","","","","",""
"","","","call-function","403","722960","0.0-403.0","125dgcdr","","","","","","","",""
"null","","","html-keyboard-response","404","724463","0.0-404.0","125dgcdr","","<span style=""color:Black; font-size:50px;"">Agent A","null","","","","",""
"null","","","video-keyboard-response","405","727558","0.0-405.0","125dgcdr","","","null","","Agent A","veridical","STIM_SET_2/1160204.bmp_pp54_L2_V1.0_veridical_freeview_isoTrue.mp4",""
"null","","","html-keyboard-response","406","729064","0.0-406.0","125dgcdr","","<span style=""color:Black; font-size:50px;"">Agent B","null","","","","",""
"null","","","video-keyboard-response","407","732155","0.0-407.0","125dgcdr","","","null","","Agent B","scrambled","STIM_SET_2/1160204.bmp_pp54_L2_V1.0_scrambled_freeview_isoTrue.mp4",""
"","","","call-function","408","732155","0.0-408.0","125dgcdr","","","","","","","",""
"1761.969999999972","{""judgement"":0}","[0]","survey-likert","409","733918","0.0-409.0","125dgcdr","","","","","","","","0"
"1207.594999999972","{""confidence"":3}","[0]","survey-likert","410","735127","0.0-410.0","125dgcdr","","","","","","","",""
"","","","call-function","411","735128","0.0-411.0","125dgcdr","","","","","","","",""
"null","","","html-keyboard-response","412","736632","0.0-412.0","125dgcdr","","<span style=""color:Black; font-size:50px;"">Agent A","null","","","","",""
"null","","","video-keyboard-response","413","739729","0.0-413.0","125dgcdr","","","null","","Agent A","veridical","STIM_SET_2/1591920.bmp_pp97_L3_V1_veridical_freeview_isoTrue.mp4",""
"null","","","html-keyboard-response","414","741231","0.0-414.0","125dgcdr","","<span style=""color:Black; font-size:50px;"">Agent B","null","","","","",""
"null","","","video-keyboard-response","415","744328","0.0-415.0","125dgcdr","","","null","","Agent B","scrambled","STIM_SET_2/1591920.bmp_pp97_L3_V1_scrambled_freeview_isoTrue.mp4",""
"","","","call-function","416","744328","0.0-416.0","125dgcdr","","","","","","","",""
"1425.1300000000047","{""judgement"":0}","[0]","survey-likert","417","745754","0.0-417.0","125dgcdr","","","","","","","","0"
"1370.7099999999627","{""confidence"":3}","[0]","survey-likert","418","747126","0.0-418.0","125dgcdr","","","","","","","",""
"2418.2200000000885","","","instructions","419","749545","0.0-419.0","125dgcdr","[{""page_index"":0,""viewing_time"":1527.1650000000373},{""page_index"":1,""viewing_time"":465.9000000000233},{""page_index"":2,""viewing_time"":425}]","","","","","","",""
"1278.3800000000047","","","instructions","420","750824","0.0-420.0","125dgcdr","[{""page_index"":0,""viewing_time"":387.34499999997206},{""page_index"":1,""viewing_time"":426.1350000000093},{""page_index"":2,""viewing_time"":464.79000000003725}]","","","","","","",""
"","","","call-function","421","750824","0.0-421.0","125dgcdr","","","","","","","",""
"null","","","html-keyboard-response","422","752329","0.0-422.0","125dgcdr","","<span style=""color:Black; font-size:50px;"">Agent A","null","","","","",""
"null","","","video-keyboard-response","423","755418","0.0-423.0","125dgcdr","","","null","","Agent A","veridical","STIM_SET_2/285946.bmp_pp79_L2_V1.0_veridical_freeview_isoTrue.mp4",""
"null","","","html-keyboard-response","424","756921","0.0-424.0","125dgcdr","","<span style=""color:Black; font-size:50px;"">Agent B","null","","","","",""
"null","","","video-keyboard-response","425","760010","0.0-425.0","125dgcdr","","","null","","Agent B","scrambled","STIM_SET_2/285946.bmp_pp79_L2_V1.0_scrambled_freeview_isoTrue.mp4",""
"","","","call-function","426","760010","0.0-426.0","125dgcdr","","","","","","","",""
"1776.9899999999907","{""judgement"":0}","[0]","survey-likert","427","761788","0.0-427.0","125dgcdr","","","","","","","","0"
"1308.890000000014","{""confidence"":0}","[0]","survey-likert","428","763098","0.0-428.0","125dgcdr","","","","","","","",""
"","","","call-function","429","763099","0.0-429.0","125dgcdr","","","","","","","",""
"null","","","html-keyboard-response","430","764604","0.0-430.0","125dgcdr","","<span style=""color:Black; font-size:50px;"">Agent A","null","","","","",""
"null","","","video-keyboard-response","431","767674","0.0-431.0","125dgcdr","","","null","","Agent A","veridical","STIM_SET_2/1592921.bmp_pp69_L3_V1.0_veridical_freeview_isoTrue.mp4",""
"null","","","html-keyboard-response","432","769177","0.0-432.0","125dgcdr","","<span style=""color:Black; font-size:50px;"">Agent B","null","","","","",""
"null","","","video-keyboard-response","433","772249","0.0-433.0","125dgcdr","","","null","","Agent B","scrambled","STIM_SET_2/1592921.bmp_pp69_L3_V1.0_scrambled_freeview_isoTrue.mp4",""
"","","","call-function","434","772250","0.0-434.0","125dgcdr","","","","","","","",""
"1412.0649999999441","{""judgement"":0}","[0]","survey-likert","435","773663","0.0-435.0","125dgcdr","","","","","","","","0"
"1060.015000000014","{""confidence"":2}","[0]","survey-likert","436","774724","0.0-436.0","125dgcdr","","","","","","","",""
"","","","call-function","437","774724","0.0-437.0","125dgcdr","","","","","","","",""
"null","","","html-keyboard-response","438","776228","0.0-438.0","125dgcdr","","<span style=""color:Black; font-size:50px;"">Agent A","null","","","","",""
"null","","","video-keyboard-response","439","779299","0.0-439.0","125dgcdr","","","null","","Agent A","veridical","STIM_SET_2/713274.bmp_pp73_L3_V1.0_veridical_freeview_isoTrue.mp4",""
"null","","","html-keyboard-response","440","780803","0.0-440.0","125dgcdr","","<span style=""color:Black; font-size:50px;"">Agent B","null","","","","",""
"null","","","video-keyboard-response","441","783875","0.0-441.0","125dgcdr","","","null","","Agent B","scrambled","STIM_SET_2/713274.bmp_pp73_L3_V1.0_scrambled_freeview_isoTrue.mp4",""
"","","","call-function","442","783875","0.0-442.0","125dgcdr","","","","","","","",""
"1550.6800000000512","{""judgement"":0}","[0]","survey-likert","443","785427","0.0-443.0","125dgcdr","","","","","","","","0"
"1075.5200000000186","{""confidence"":2}","[0]","survey-likert","444","786504","0.0-444.0","125dgcdr","","","","","","","",""
"","","","call-function","445","786505","0.0-445.0","125dgcdr","","","","","","","",""
"null","","","html-keyboard-response","446","788006","0.0-446.0","125dgcdr","","<span style=""color:Black; font-size:50px;"">Agent A","null","","","","",""
"null","","","video-keyboard-response","447","791080","0.0-447.0","125dgcdr","","","null","","Agent A","scrambled","STIM_SET_2/1159325.bmp_pp67_L2_V1.0_scrambled_freeview_isoTrue.mp4",""
"null","","","html-keyboard-response","448","792585","0.0-448.0","125dgcdr","","<span style=""color:Black; font-size:50px;"">Agent B","null","","","","",""
"null","","","video-keyboard-response","449","795652","0.0-449.0","125dgcdr","","","null","","Agent B","veridical","STIM_SET_2/1159325.bmp_pp67_L2_V1.0_veridical_freeview_isoTrue.mp4",""
"","","","call-function","450","795654","0.0-450.0","125dgcdr","","","","","","","",""
"1276.1800000000512","{""judgement"":1}","[0]","survey-likert","451","796932","0.0-451.0","125dgcdr","","","","","","","","1"
"2163.2550000000047","{""confidence"":1}","[0]","survey-likert","452","799097","0.0-452.0","125dgcdr","","","","","","","",""
"","","","call-function","453","799097","0.0-453.0","125dgcdr","","","","","","","",""
"null","","","html-keyboard-response","454","800600","0.0-454.0","125dgcdr","","<span style=""color:Black; font-size:50px;"">Agent A","null","","","","",""
"null","","","video-keyboard-response","455","803682","0.0-455.0","125dgcdr","","","null","","Agent A","scrambled","STIM_SET_2/713770.bmp_pp89_L1_V1.0_scrambled_freeview_isoTrue.mp4",""
"null","","","html-keyboard-response","456","805185","0.0-456.0","125dgcdr","","<span style=""color:Black; font-size:50px;"">Agent B","null","","","","",""
"null","","","video-keyboard-response","457","808267","0.0-457.0","125dgcdr","","","null","","Agent B","veridical","STIM_SET_2/713770.bmp_pp89_L1_V1.0_veridical_freeview_isoTrue.mp4",""
"","","","call-function","458","808268","0.0-458.0","125dgcdr","","","","","","","",""
"1522.204999999958","{""judgement"":1}","[0]","survey-likert","459","809791","0.0-459.0","125dgcdr","","","","","","","","1"
"1190.6149999999907","{""confidence"":0}","[0]","survey-likert","460","810983","0.0-460.0","125dgcdr","","","","","","","",""
"","","","call-function","461","810984","0.0-461.0","125dgcdr","","","","","","","",""
"null","","","html-keyboard-response","462","812488","0.0-462.0","125dgcdr","","<span style=""color:Black; font-size:50px;"">Agent A","null","","","","",""
"null","","","video-keyboard-response","463","815554","0.0-463.0","125dgcdr","","","null","","Agent A","scrambled","STIM_SET_2/1160049.bmp_pp53_L2_V1.0_scrambled_freeview_isoTrue.mp4",""
"null","","","html-keyboard-response","464","817057","0.0-464.0","125dgcdr","","<span style=""color:Black; font-size:50px;"">Agent B","null","","","","",""
"null","","","video-keyboard-response","465","820126","0.0-465.0","125dgcdr","","","null","","Agent B","veridical","STIM_SET_2/1160049.bmp_pp53_L2_V1.0_veridical_freeview_isoTrue.mp4",""
"","","","call-function","466","820127","0.0-466.0","125dgcdr","","","","","","","",""
"1604.530000000028","{""judgement"":1}","[0]","survey-likert","467","821732","0.0-467.0","125dgcdr","","","","","","","","1"
"1172.9600000000792","{""confidence"":3}","[0]","survey-likert","468","822907","0.0-468.0","125dgcdr","","","","","","","",""
"","","","call-function","469","822907","0.0-469.0","125dgcdr","","","","","","","",""
"null","","","html-keyboard-response","470","824410","0.0-470.0","125dgcdr","","<span style=""color:Black; font-size:50px;"">Agent A","null","","","","",""
"null","","","video-keyboard-response","471","827472","0.0-471.0","125dgcdr","","","null","","Agent A","veridical","STIM_SET_2/1592298.bmp_pp56_L3_V1.0_veridical_freeview_isoTrue.mp4",""
"null","","","html-keyboard-response","472","828975","0.0-472.0","125dgcdr","","<span style=""color:Black; font-size:50px;"">Agent B","null","","","","",""
"null","","","video-keyboard-response","473","832037","0.0-473.0","125dgcdr","","","null","","Agent B","scrambled","STIM_SET_2/1592298.bmp_pp56_L3_V1.0_scrambled_freeview_isoTrue.mp4",""
"","","","call-function","474","832037","0.0-474.0","125dgcdr","","","","","","","",""
"1452.4400000000605","{""judgement"":0}","[0]","survey-likert","475","833492","0.0-475.0","125dgcdr","","","","","","","","0"
"1375.9949999999953","{""confidence"":0}","[0]","survey-likert","476","834869","0.0-476.0","125dgcdr","","","","","","","",""
"","","","call-function","477","834870","0.0-477.0","125dgcdr","","","","","","","",""
"null","","","html-keyboard-response","478","836374","0.0-478.0","125dgcdr","","<span style=""color:Black; font-size:50px;"">Agent A","null","","","","",""
"null","","","video-keyboard-response","479","839480","0.0-479.0","125dgcdr","","","null","","Agent A","veridical","STIM_SET_2/285959.bmp_pp93_L1_V1.0_veridical_freeview_isoTrue.mp4",""
"null","","","html-keyboard-response","480","840986","0.0-480.0","125dgcdr","","<span style=""color:Black; font-size:50px;"">Agent B","null","","","","",""
"null","","","video-keyboard-response","481","844095","0.0-481.0","125dgcdr","","","null","","Agent B","scrambled","STIM_SET_2/285959.bmp_pp93_L1_V1.0_scrambled_freeview_isoTrue.mp4",""
"","","","call-function","482","844096","0.0-482.0","125dgcdr","","","","","","","",""
"2001.704999999958","{""judgement"":0}","[0]","survey-likert","483","846099","0.0-483.0","125dgcdr","","","","","","","","0"
"1118.5249999999069","{""confidence"":0}","[0]","survey-likert","484","847218","0.0-484.0","125dgcdr","","","","","","","",""
"","","","call-function","485","847219","0.0-485.0","125dgcdr","","","","","","","",""
"null","","","html-keyboard-response","486","848724","0.0-486.0","125dgcdr","","<span style=""color:Black; font-size:50px;"">Agent A","null","","","","",""
"null","","","video-keyboard-response","487","851827","0.0-487.0","125dgcdr","","","null","","Agent A","scrambled","STIM_SET_2/1592747.bmp_pp53_L2_V1.0_scrambled_freeview_isoTrue.mp4",""
"null","","","html-keyboard-response","488","853329","0.0-488.0","125dgcdr","","<span style=""color:Black; font-size:50px;"">Agent B","null","","","","",""
"null","","","video-keyboard-response","489","856429","0.0-489.0","125dgcdr","","","null","","Agent B","veridical","STIM_SET_2/1592747.bmp_pp53_L2_V1.0_veridical_freeview_isoTrue.mp4",""
"","","","call-function","490","856430","0.0-490.0","125dgcdr","","","","","","","",""
"1395.655000000028","{""judgement"":1}","[0]","survey-likert","491","857826","0.0-491.0","125dgcdr","","","","","","","","1"
"1838.7249999999767","{""confidence"":2}","[0]","survey-likert","492","859666","0.0-492.0","125dgcdr","","","","","","","",""
"","","","call-function","493","859667","0.0-493.0","125dgcdr","","","","","","","",""
"null","","","html-keyboard-response","494","861168","0.0-494.0","125dgcdr","","<span style=""color:Black; font-size:50px;"">Agent A","null","","","","",""
"null","","","video-keyboard-response","495","864267","0.0-495.0","125dgcdr","","","null","","Agent A","veridical","STIM_SET_2/1592038.bmp_pp79_L2_V1.0_veridical_freeview_isoTrue.mp4",""
"null","","","html-keyboard-response","496","865772","0.0-496.0","125dgcdr","","<span style=""color:Black; font-size:50px;"">Agent B","null","","","","",""
"null","","","video-keyboard-response","497","868845","0.0-497.0","125dgcdr","","","null","","Agent B","scrambled","STIM_SET_2/1592038.bmp_pp79_L2_V1.0_scrambled_freeview_isoTrue.mp4",""
"","","","call-function","498","868846","0.0-498.0","125dgcdr","","","","","","","",""
"2287.9899999999907","{""judgement"":1}","[0]","survey-likert","499","871134","0.0-499.0","125dgcdr","","","","","","","","0"
"3594.8450000000885","{""confidence"":0}","[0]","survey-likert","500","874730","0.0-500.0","125dgcdr","","","","","","","",""
"2054.1149999999907","","","instructions","501","876785","0.0-501.0","125dgcdr","[{""page_index"":0,""viewing_time"":1183.0500000000466},{""page_index"":1,""viewing_time"":477.9000000000233},{""page_index"":2,""viewing_time"":393.0100000000093}]","","","","","","",""
"1185.4450000000652","","","instructions","502","877971","0.0-502.0","125dgcdr","[{""page_index"":0,""viewing_time"":361.28000000002794},{""page_index"":1,""viewing_time"":406.9799999999814},{""page_index"":2,""viewing_time"":417.0799999999581}]","","","","","","",""
"","","","call-function","503","877972","0.0-503.0","125dgcdr","","","","","","","",""
"null","","","html-keyboard-response","504","879474","0.0-504.0","125dgcdr","","<span style=""color:Black; font-size:50px;"">Agent A","null","","","","",""
"null","","","video-keyboard-response","505","882543","0.0-505.0","125dgcdr","","","null","","Agent A","veridical","STIM_SET_2/1592314.bmp_pp100_L3_V1.0_veridical_freeview_isoTrue.mp4",""
"null","","","html-keyboard-response","506","884045","0.0-506.0","125dgcdr","","<span style=""color:Black; font-size:50px;"">Agent B","null","","","","",""
"null","","","video-keyboard-response","507","887112","0.0-507.0","125dgcdr","","","null","","Agent B","scrambled","STIM_SET_2/1592314.bmp_pp100_L3_V1.0_scrambled_freeview_isoTrue.mp4",""
"","","","call-function","508","887113","0.0-508.0","125dgcdr","","","","","","","",""
"2989.024999999907","{""judgement"":0}","[0]","survey-likert","509","890103","0.0-509.0","125dgcdr","","","","","","","","0"
"1415.859999999986","{""confidence"":0}","[0]","survey-likert","510","891520","0.0-510.0","125dgcdr","","","","","","","",""
"","","","call-function","511","891520","0.0-511.0","125dgcdr","","","","","","","",""
"null","","","html-keyboard-response","512","893024","0.0-512.0","125dgcdr","","<span style=""color:Black; font-size:50px;"">Agent A","null","","","","",""
"null","","","video-keyboard-response","513","896096","0.0-513.0","125dgcdr","","","null","","Agent A","scrambled","STIM_SET_2/713652.bmp_pp89_L1_V1_scrambled_freeview_isoTrue.mp4",""
"null","","","html-keyboard-response","514","897603","0.0-514.0","125dgcdr","","<span style=""color:Black; font-size:50px;"">Agent B","null","","","","",""
"null","","","video-keyboard-response","515","900702","0.0-515.0","125dgcdr","","","null","","Agent B","veridical","STIM_SET_2/713652.bmp_pp89_L1_V1_veridical_freeview_isoTrue.mp4",""
"","","","call-function","516","900704","0.0-516.0","125dgcdr","","","","","","","",""
"1165.2550000000047","{""judgement"":1}","[0]","survey-likert","517","901870","0.0-517.0","125dgcdr","","","","","","","","1"
"1625.8499999999767","{""confidence"":2}","[0]","survey-likert","518","903497","0.0-518.0","125dgcdr","","","","","","","",""
"","","","call-function","519","903499","0.0-519.0","125dgcdr","","","","","","","",""
"null","","","html-keyboard-response","520","905006","0.0-520.0","125dgcdr","","<span style=""color:Black; font-size:50px;"">Agent A","null","","","","",""
"null","","","video-keyboard-response","521","908072","0.0-521.0","125dgcdr","","","null","","Agent A","scrambled","STIM_SET_2/498326.bmp_pp57_L1_V1.0_scrambled_freeview_isoTrue.mp4",""
"null","","","html-keyboard-response","522","909575","0.0-522.0","125dgcdr","","<span style=""color:Black; font-size:50px;"">Agent B","null","","","","",""
"null","","","video-keyboard-response","523","912642","0.0-523.0","125dgcdr","","","null","","Agent B","veridical","STIM_SET_2/498326.bmp_pp57_L1_V1.0_veridical_freeview_isoTrue.mp4",""
"","","","call-function","524","912643","0.0-524.0","125dgcdr","","","","","","","",""
"1353.1949999999488","{""judgement"":1}","[0]","survey-likert","525","913997","0.0-525.0","125dgcdr","","","","","","","","1"
"2335.109999999986","{""confidence"":3}","[0]","survey-likert","526","916334","0.0-526.0","125dgcdr","","","","","","","",""
"","","","call-function","527","916334","0.0-527.0","125dgcdr","","","","","","","",""
"null","","","html-keyboard-response","528","917836","0.0-528.0","125dgcdr","","<span style=""color:Black; font-size:50px;"">Agent A","null","","","","",""
"null","","","video-keyboard-response","529","920913","0.0-529.0","125dgcdr","","","null","","Agent A","scrambled","STIM_SET_2/498372.bmp_pp95_L2_V1_scrambled_freeview_isoTrue.mp4",""
"null","","","html-keyboard-response","530","922420","0.0-530.0","125dgcdr","","<span style=""color:Black; font-size:50px;"">Agent B","null","","","","",""
"null","","","video-keyboard-response","531","925498","0.0-531.0","125dgcdr","","","null","","Agent B","veridical","STIM_SET_2/498372.bmp_pp95_L2_V1_veridical_freeview_isoTrue.mp4",""
"","","","call-function","532","925498","0.0-532.0","125dgcdr","","","","","","","",""
"3289.9899999999907","{""judgement"":1}","[0]","survey-likert","533","928789","0.0-533.0","125dgcdr","","","","","","","","1"
"1340.4449999999488","{""confidence"":0}","[0]","survey-likert","534","930131","0.0-534.0","125dgcdr","","","","","","","",""
"","","","call-function","535","930131","0.0-535.0","125dgcdr","","","","","","","",""
"null","","","html-keyboard-response","536","931633","0.0-536.0","125dgcdr","","<span style=""color:Black; font-size:50px;"">Agent A","null","","","","",""
"null","","","video-keyboard-response","537","934733","0.0-537.0","125dgcdr","","","null","","Agent A","scrambled","STIM_SET_2/1159874.bmp_pp96_L2_V1.0_scrambled_freeview_isoTrue.mp4",""
"null","","","html-keyboard-response","538","936235","0.0-538.0","125dgcdr","","<span style=""color:Black; font-size:50px;"">Agent B","null","","","","",""
"null","","","video-keyboard-response","539","939338","0.0-539.0","125dgcdr","","","null","","Agent B","veridical","STIM_SET_2/1159874.bmp_pp96_L2_V1.0_veridical_freeview_isoTrue.mp4",""
"","","","call-function","540","939339","0.0-540.0","125dgcdr","","","","","","","",""
"1821.8850000000093","{""judgement"":1}","[0]","survey-likert","541","941162","0.0-541.0","125dgcdr","","","","","","","","1"
"1986.7200000000885","{""confidence"":3}","[0]","survey-likert","542","943150","0.0-542.0","125dgcdr","","","","","","","",""
"","","","call-function","543","943150","0.0-543.0","125dgcdr","","","","","","","",""
"null","","","html-keyboard-response","544","944655","0.0-544.0","125dgcdr","","<span style=""color:Black; font-size:50px;"">Agent A","null","","","","",""
"null","","","video-keyboard-response","545","947751","0.0-545.0","125dgcdr","","","null","","Agent A","veridical","STIM_SET_2/498258.bmp_pp51_L1_V1.0_veridical_freeview_isoTrue.mp4",""
"null","","","html-keyboard-response","546","949254","0.0-546.0","125dgcdr","","<span style=""color:Black; font-size:50px;"">Agent B","null","","","","",""
"null","","","video-keyboard-response","547","952351","0.0-547.0","125dgcdr","","","null","","Agent B","scrambled","STIM_SET_2/498258.bmp_pp51_L1_V1.0_scrambled_freeview_isoTrue.mp4",""
"","","","call-function","548","952351","0.0-548.0","125dgcdr","","","","","","","",""
"2156.4899999999907","{""judgement"":0}","[0]","survey-likert","549","954508","0.0-549.0","125dgcdr","","","","","","","","0"
"1735.015000000014","{""confidence"":3}","[0]","survey-likert","550","956245","0.0-550.0","125dgcdr","","","","","","","",""
"","","","call-function","551","956246","0.0-551.0","125dgcdr","","","","","","","",""
"null","","","html-keyboard-response","552","957751","0.0-552.0","125dgcdr","","<span style=""color:Black; font-size:50px;"">Agent A","null","","","","",""
"null","","","video-keyboard-response","553","960847","0.0-553.0","125dgcdr","","","null","","Agent A","scrambled","STIM_SET_2/1159956.bmp_pp59_L3_V1.0_scrambled_freeview_isoTrue.mp4",""
"null","","","html-keyboard-response","554","962351","0.0-554.0","125dgcdr","","<span style=""color:Black; font-size:50px;"">Agent B","null","","","","",""
"null","","","video-keyboard-response","555","965454","0.0-555.0","125dgcdr","","","null","","Agent B","veridical","STIM_SET_2/1159956.bmp_pp59_L3_V1.0_veridical_freeview_isoTrue.mp4",""
"","","","call-function","556","965455","0.0-556.0","125dgcdr","","","","","","","",""
"2251.835000000079","{""judgement"":1}","[0]","survey-likert","557","967708","0.0-557.0","125dgcdr","","","","","","","","1"
"1502.2099999999627","{""confidence"":3}","[0]","survey-likert","558","969211","0.0-558.0","125dgcdr","","","","","","","",""
"","","","call-function","559","969212","0.0-559.0","125dgcdr","","","","","","","",""
"null","","","html-keyboard-response","560","970717","0.0-560.0","125dgcdr","","<span style=""color:Black; font-size:50px;"">Agent A","null","","","","",""
"null","","","video-keyboard-response","561","973792","0.0-561.0","125dgcdr","","","null","","Agent A","scrambled","STIM_SET_2/1159329.bmp_pp61_L2_V1.0_scrambled_freeview_isoTrue.mp4",""
"null","","","html-keyboard-response","562","975294","0.0-562.0","125dgcdr","","<span style=""color:Black; font-size:50px;"">Agent B","null","","","","",""
"null","","","video-keyboard-response","563","978368","0.0-563.0","125dgcdr","","","null","","Agent B","veridical","STIM_SET_2/1159329.bmp_pp61_L2_V1.0_veridical_freeview_isoTrue.mp4",""
"","","","call-function","564","978368","0.0-564.0","125dgcdr","","","","","","","",""
"1600.5699999999488","{""judgement"":1}","[0]","survey-likert","565","979970","0.0-565.0","125dgcdr","","","","","","","","1"
"1268.2700000000186","{""confidence"":2}","[0]","survey-likert","566","981239","0.0-566.0","125dgcdr","","","","","","","",""
"","","","call-function","567","981240","0.0-567.0","125dgcdr","","","","","","","",""
"null","","","html-keyboard-response","568","982744","0.0-568.0","125dgcdr","","<span style=""color:Black; font-size:50px;"">Agent A","null","","","","",""
"null","","","video-keyboard-response","569","985811","0.0-569.0","125dgcdr","","","null","","Agent A","scrambled","STIM_SET_2/1592047.bmp_pp51_L1_V1.0_scrambled_freeview_isoTrue.mp4",""
"null","","","html-keyboard-response","570","987314","0.0-570.0","125dgcdr","","<span style=""color:Black; font-size:50px;"">Agent B","null","","","","",""
"null","","","video-keyboard-response","571","990382","0.0-571.0","125dgcdr","","","null","","Agent B","veridical","STIM_SET_2/1592047.bmp_pp51_L1_V1.0_veridical_freeview_isoTrue.mp4",""
"","","","call-function","572","990383","0.0-572.0","125dgcdr","","","","","","","",""
"3868.0999999999767","{""judgement"":1}","[0]","survey-likert","573","994252","0.0-573.0","125dgcdr","","","","","","","","1"
"1143.6199999999953","{""confidence"":0}","[0]","survey-likert","574","995397","0.0-574.0","125dgcdr","","","","","","","",""
"","","","call-function","575","995397","0.0-575.0","125dgcdr","","","","","","","",""
"null","","","html-keyboard-response","576","996904","0.0-576.0","125dgcdr","","<span style=""color:Black; font-size:50px;"">Agent A","null","","","","",""
"null","","","video-keyboard-response","577","1000007","0.0-577.0","125dgcdr","","","null","","Agent A","scrambled","STIM_SET_2/1592305.bmp_pp65_L3_V1.0_scrambled_freeview_isoTrue.mp4",""
"null","","","html-keyboard-response","578","1001511","0.0-578.0","125dgcdr","","<span style=""color:Black; font-size:50px;"">Agent B","null","","","","",""
"null","","","video-keyboard-response","579","1004583","0.0-579.0","125dgcdr","","","null","","Agent B","veridical","STIM_SET_2/1592305.bmp_pp65_L3_V1.0_veridical_freeview_isoTrue.mp4",""
"","","","call-function","580","1004584","0.0-580.0","125dgcdr","","","","","","","",""
"1377.8100000000559","{""judgement"":1}","[0]","survey-likert","581","1005963","0.0-581.0","125dgcdr","","","","","","","","1"
"1270.6699999999255","{""confidence"":3}","[0]","survey-likert","582","1007235","0.0-582.0","125dgcdr","","","","","","","",""
"946.6000000000931","","","instructions","583","1008183","0.0-583.0","125dgcdr","[{""page_index"":0,""viewing_time"":946.4650000000838}]","","","","","","",""
"1097.2100000000792","","","instructions","584","1009280","0.0-584.0","125dgcdr","[{""page_index"":0,""viewing_time"":1097.1049999999814}]","","","","","","",""
"4816.094999999972","{""post-1"":2}","[0]","survey-likert","585","1014098","0.0-585.0","125dgcdr","","","","","","","",""
"3730.75","{""post-1"":0}","[0]","survey-likert","586","1017830","0.0-586.0","125dgcdr","","","","","","","",""
"3713.694999999949","{""post-2"":2}","[0]","survey-likert","587","1021545","0.0-587.0","125dgcdr","","","","","","","",""
"3095.8450000000885","{""post-2"":0}","[0]","survey-likert","588","1024642","0.0-588.0","125dgcdr","","","","","","","",""
"4152.594999999972","{""post-3"":3}","[0]","survey-likert","589","1028796","0.0-589.0","125dgcdr","","","","","","","",""
"3829.310000000056","{""post-3"":0}","[0]","survey-likert","590","1032627","0.0-590.0","125dgcdr","","","","","","","",""
"5007.695000000065","{""post-4"":2}","[0]","survey-likert","591","1037636","0.0-591.0","125dgcdr","","","","","","","",""
"3905.0299999999115","{""post-4"":0}","[0]","survey-likert","592","1041542","0.0-592.0","125dgcdr","","","","","","","",""
"4012.6500000000233","{""post-5"":0}","[0]","survey-likert","593","1045556","0.0-593.0","125dgcdr","","","","","","","",""
"3300.180000000051","{""post-5"":3}","[0]","survey-likert","594","1048858","0.0-594.0","125dgcdr","","","","","","","",""
"120779.10499999998","{""Q0"":""Because of the black background I feel like it was actually easier to differentiate between the two (A/B) because it was easier to see the visual attention patterns without the background image to distract from that.""}","","survey-text","595","1169644","0.0-595.0","125dgcdr","","","","","","","",""
"73911.06000000006","{""Q0"":""Just mentioned this but the lack of a background image made this one more straightforward for me because it was easier to see the patterns. Strategy-wise, I just tried to look for patterns and see if the attention hot spots aligned with how I would look at an image (attention moving slowly in an organized fashion across the screen rather than quick, random, jerky motions)""}","","survey-text","596","1243560","0.0-596.0","125dgcdr","","","","","","","",""
"53621.57499999995","{""Q0"":""Some of the trials were incredibly similar (both versions had very jerky visual attention movements where the hot-spot move rather rapidly around the screen so it was hard to differentiate in those cases. ""}","","survey-text","597","1297186","0.0-597.0","125dgcdr","","","","","","","",""
"1992.9849999998696","","","instructions","598","1299180","0.0-598.0","125dgcdr","[{""page_index"":0,""viewing_time"":1992.8499999998603}]","","","","","","",""
"2046139.8800000004","{""Experimenter_end"":[""Printed ID# 125dgcdr on consent form"",""Given subject SONA credit or payment"",""Given the subject debrief form""]}","[0]","survey-multi-select","599","3345329","0.0-599.0","125dgcdr","","","","","","","",""
