"rt","responses","question_order","trial_type","trial_index","time_elapsed","internal_node_id","ID","view_history","stimulus","key_press","value","agent","condition","image","correct_answer"
"65090.895","{""Experimenter"":[""Confirmed subject's identity"",""Confirmed normal or corrected-to-normal vision"",""Obtained consent (signature and date)"",""Checked the test room lighting"",""Checked computer screen lighting"",""Checked distance from screen to chin rest (50cm)"",""Cleaned and adjusted chin rest"",""Counterbalanced the order of the tasks"",""Opened the experiment in Firefox"",""Made the experiment full screen"",""Encouraged subject to silence phone, put away distractors, etc.""]}","[0]","survey-multi-select","0","65099","0.0-0.0","1rst85k5","","","","","","","",""
"59268.700000000004","","","instructions","1","124369","0.0-1.0","1rst85k5","[{""page_index"":0,""viewing_time"":59268.39000000001}]","","","","","","",""
"7827.385000000009","{""Age"":2,""Sex"":1,""Gender"":1}","[0,1,2]","survey-likert","2","132198","0.0-2.0","1rst85k5","","","","","","","",""
"11500.380000000005","","","instructions","3","143699","0.0-3.0","1rst85k5","[{""page_index"":0,""viewing_time"":2992.235000000015},{""page_index"":1,""viewing_time"":2381.9199999999837},{""page_index"":2,""viewing_time"":6126.095000000001}]","","","","","","",""
"2960.6849999999977","","","instructions","4","146660","0.0-4.0","1rst85k5","[{""page_index"":0,""viewing_time"":2960.5800000000163}]","","","","","","",""
"null","","","video-keyboard-response","5","149738","0.0-5.0","1rst85k5","","","null","","","","",""
"12057.535000000003","","","instructions","6","161796","0.0-6.0","1rst85k5","[{""page_index"":0,""viewing_time"":3754.209999999992},{""page_index"":1,""viewing_time"":3917.3250000000116},{""page_index"":2,""viewing_time"":4385.889999999985}]","","","","","","",""
"3793.4949999999953","","","instructions","7","165590","0.0-7.0","1rst85k5","[{""page_index"":0,""viewing_time"":3793.390000000014}]","","","","","","",""
"1163.2200000000012","","","instructions","8","166754","0.0-8.0","1rst85k5","[{""page_index"":0,""viewing_time"":1162.6849999999977}]","","","","","","",""
"null","","","video-keyboard-response","9","169827","0.0-9.0","1rst85k5","","","null","","","","",""
"17884.600000000006","","","instructions","10","187713","0.0-10.0","1rst85k5","[{""page_index"":0,""viewing_time"":1455.515000000014},{""page_index"":1,""viewing_time"":4708.024999999994},{""page_index"":2,""viewing_time"":11720.449999999983}]","","","","","","",""
"11932.50999999998","","","instructions","11","199647","0.0-11.0","1rst85k5","[{""page_index"":0,""viewing_time"":11932.399999999994}]","","","","","","",""
"","","","call-function","12","199648","0.0-12.0","1rst85k5","","","","","","","",""
"null","","","html-keyboard-response","13","201149","0.0-13.0","1rst85k5","","<span style=""color:Black; font-size:50px;"">Agent A","null","","","","",""
"null","","","video-keyboard-response","14","203973","0.0-14.0","1rst85k5","","","null","","Agent A","scrambled","FOR_REV_MAP_BLOBBY_STIM/713742.bmp_pp91_L3_V1.0_veridical_freeview_isoTrue_fps144_reversed_REAL.mp4",""
"null","","","html-keyboard-response","15","205474","0.0-15.0","1rst85k5","","<span style=""color:Black; font-size:50px;"">Agent B","null","","","","",""
"null","","","video-keyboard-response","16","208297","0.0-16.0","1rst85k5","","","null","","Agent B","veridical","FOR_REV_MAP_BLOBBY_STIM/713742.bmp_pp91_L3_V1.0_veridical_freeview_isoTrue_fps144.mp4",""
"","","","call-function","17","208297","0.0-17.0","1rst85k5","","","","","","","",""
"3268.960000000021","{""judgement"":1}","[0]","survey-likert","18","211567","0.0-18.0","1rst85k5","","","","","","","","1"
"3225.5599999999977","{""confidence"":1}","[0]","survey-likert","19","214794","0.0-19.0","1rst85k5","","","","","","","",""
"","","","call-function","20","214794","0.0-20.0","1rst85k5","","","","","","","",""
"null","","","html-keyboard-response","21","216298","0.0-21.0","1rst85k5","","<span style=""color:Black; font-size:50px;"">Agent A","null","","","","",""
"null","","","video-keyboard-response","22","219098","0.0-22.0","1rst85k5","","","null","","Agent A","veridical","FOR_REV_MAP_BLOBBY_STIM/1592530.bmp_pp75_L1_V1.0_veridical_freeview_isoTrue_fps144.mp4",""
"null","","","html-keyboard-response","23","220603","0.0-23.0","1rst85k5","","<span style=""color:Black; font-size:50px;"">Agent B","null","","","","",""
"null","","","video-keyboard-response","24","223440","0.0-24.0","1rst85k5","","","null","","Agent B","scrambled","FOR_REV_MAP_BLOBBY_STIM/1592530.bmp_pp75_L1_V1.0_veridical_freeview_isoTrue_fps144_reversed_REAL.mp4",""
"","","","call-function","25","223440","0.0-25.0","1rst85k5","","","","","","","",""
"3714.7000000000116","{""judgement"":0}","[0]","survey-likert","26","227156","0.0-26.0","1rst85k5","","","","","","","","0"
"1452.4599999999919","{""confidence"":1}","[0]","survey-likert","27","228609","0.0-27.0","1rst85k5","","","","","","","",""
"","","","call-function","28","228609","0.0-28.0","1rst85k5","","","","","","","",""
"null","","","html-keyboard-response","29","230115","0.0-29.0","1rst85k5","","<span style=""color:Black; font-size:50px;"">Agent A","null","","","","",""
"null","","","video-keyboard-response","30","232906","0.0-30.0","1rst85k5","","","null","","Agent A","veridical","FOR_REV_MAP_BLOBBY_STIM/1159860.bmp_pp152_L2_V1.0_veridical_freeview_isoTrue_fps144.mp4",""
"null","","","html-keyboard-response","31","234408","0.0-31.0","1rst85k5","","<span style=""color:Black; font-size:50px;"">Agent B","null","","","","",""
"null","","","video-keyboard-response","32","237192","0.0-32.0","1rst85k5","","","null","","Agent B","scrambled","FOR_REV_MAP_BLOBBY_STIM/1159860.bmp_pp152_L2_V1.0_veridical_freeview_isoTrue_fps144_reversed_REAL.mp4",""
"","","","call-function","33","237192","0.0-33.0","1rst85k5","","","","","","","",""
"3385.5100000000093","{""judgement"":0}","[0]","survey-likert","34","240579","0.0-34.0","1rst85k5","","","","","","","","0"
"4565.209999999992","{""confidence"":2}","[0]","survey-likert","35","245145","0.0-35.0","1rst85k5","","","","","","","",""
"","","","call-function","36","245145","0.0-36.0","1rst85k5","","","","","","","",""
"null","","","html-keyboard-response","37","246650","0.0-37.0","1rst85k5","","<span style=""color:Black; font-size:50px;"">Agent A","null","","","","",""
"null","","","video-keyboard-response","38","249482","0.0-38.0","1rst85k5","","","null","","Agent A","veridical","FOR_REV_MAP_BLOBBY_STIM/107955.bmp_pp90_L2_V1.0_veridical_freeview_isoTrue_fps144.mp4",""
"null","","","html-keyboard-response","39","250989","0.0-39.0","1rst85k5","","<span style=""color:Black; font-size:50px;"">Agent B","null","","","","",""
"null","","","video-keyboard-response","40","253823","0.0-40.0","1rst85k5","","","null","","Agent B","scrambled","FOR_REV_MAP_BLOBBY_STIM/107955.bmp_pp90_L2_V1.0_veridical_freeview_isoTrue_fps144_reversed_REAL.mp4",""
"","","","call-function","41","253823","0.0-41.0","1rst85k5","","","","","","","",""
"2441.4649999999965","{""judgement"":0}","[0]","survey-likert","42","256266","0.0-42.0","1rst85k5","","","","","","","","0"
"1265.0049999999756","{""confidence"":2}","[0]","survey-likert","43","257532","0.0-43.0","1rst85k5","","","","","","","",""
"","","","call-function","44","257532","0.0-44.0","1rst85k5","","","","","","","",""
"null","","","html-keyboard-response","45","259038","0.0-45.0","1rst85k5","","<span style=""color:Black; font-size:50px;"">Agent A","null","","","","",""
"null","","","video-keyboard-response","46","260932","0.0-46.0","1rst85k5","","","null","","Agent A","veridical","FOR_REV_MAP_BLOBBY_STIM/285946.bmp_pp79_L2_V1.0_veridical_freeview_isoTrue_fps144.mp4",""
"null","","","html-keyboard-response","47","262434","0.0-47.0","1rst85k5","","<span style=""color:Black; font-size:50px;"">Agent B","null","","","","",""
"null","","","video-keyboard-response","48","264330","0.0-48.0","1rst85k5","","","null","","Agent B","scrambled","FOR_REV_MAP_BLOBBY_STIM/285946.bmp_pp79_L2_V1.0_veridical_freeview_isoTrue_fps144_reversed_REAL.mp4",""
"","","","call-function","49","264330","0.0-49.0","1rst85k5","","","","","","","",""
"3576.820000000007","{""judgement"":0}","[0]","survey-likert","50","267907","0.0-50.0","1rst85k5","","","","","","","","0"
"1289.2000000000116","{""confidence"":1}","[0]","survey-likert","51","269198","0.0-51.0","1rst85k5","","","","","","","",""
"","","","call-function","52","269199","0.0-52.0","1rst85k5","","","","","","","",""
"null","","","html-keyboard-response","53","270700","0.0-53.0","1rst85k5","","<span style=""color:Black; font-size:50px;"">Agent A","null","","","","",""
"null","","","video-keyboard-response","54","273461","0.0-54.0","1rst85k5","","","null","","Agent A","scrambled","FOR_REV_MAP_BLOBBY_STIM/150277.bmp_pp65_L3_V1.0_veridical_freeview_isoTrue_fps144_reversed_REAL.mp4",""
"null","","","html-keyboard-response","55","274966","0.0-55.0","1rst85k5","","<span style=""color:Black; font-size:50px;"">Agent B","null","","","","",""
"null","","","video-keyboard-response","56","277730","0.0-56.0","1rst85k5","","","null","","Agent B","veridical","FOR_REV_MAP_BLOBBY_STIM/150277.bmp_pp65_L3_V1.0_veridical_freeview_isoTrue_fps144.mp4",""
"","","","call-function","57","277730","0.0-57.0","1rst85k5","","","","","","","",""
"7958.640000000014","{""judgement"":1}","[0]","survey-likert","58","285690","0.0-58.0","1rst85k5","","","","","","","","1"
"2349.2949999999837","{""confidence"":2}","[0]","survey-likert","59","288041","0.0-59.0","1rst85k5","","","","","","","",""
"","","","call-function","60","288042","0.0-60.0","1rst85k5","","","","","","","",""
"null","","","html-keyboard-response","61","289548","0.0-61.0","1rst85k5","","<span style=""color:Black; font-size:50px;"">Agent A","null","","","","",""
"null","","","video-keyboard-response","62","292323","0.0-62.0","1rst85k5","","","null","","Agent A","veridical","FOR_REV_MAP_BLOBBY_STIM/713790.bmp_pp100_L3_V1.0_veridical_freeview_isoTrue_fps144.mp4",""
"null","","","html-keyboard-response","63","293829","0.0-63.0","1rst85k5","","<span style=""color:Black; font-size:50px;"">Agent B","null","","","","",""
"null","","","video-keyboard-response","64","296606","0.0-64.0","1rst85k5","","","null","","Agent B","scrambled","FOR_REV_MAP_BLOBBY_STIM/713790.bmp_pp100_L3_V1.0_veridical_freeview_isoTrue_fps144_reversed_REAL.mp4",""
"","","","call-function","65","296606","0.0-65.0","1rst85k5","","","","","","","",""
"2453.679999999993","{""judgement"":1}","[0]","survey-likert","66","299061","0.0-66.0","1rst85k5","","","","","","","","0"
"1234.5599999999977","{""confidence"":2}","[0]","survey-likert","67","300297","0.0-67.0","1rst85k5","","","","","","","",""
"","","","call-function","68","300297","0.0-68.0","1rst85k5","","","","","","","",""
"null","","","html-keyboard-response","69","301800","0.0-69.0","1rst85k5","","<span style=""color:Black; font-size:50px;"">Agent A","null","","","","",""
"null","","","video-keyboard-response","70","304549","0.0-70.0","1rst85k5","","","null","","Agent A","scrambled","FOR_REV_MAP_BLOBBY_STIM/1160247.bmp_pp54_L2_V1.0_veridical_freeview_isoTrue_fps144_reversed_REAL.mp4",""
"null","","","html-keyboard-response","71","306056","0.0-71.0","1rst85k5","","<span style=""color:Black; font-size:50px;"">Agent B","null","","","","",""
"null","","","video-keyboard-response","72","308803","0.0-72.0","1rst85k5","","","null","","Agent B","veridical","FOR_REV_MAP_BLOBBY_STIM/1160247.bmp_pp54_L2_V1.0_veridical_freeview_isoTrue_fps144.mp4",""
"","","","call-function","73","308803","0.0-73.0","1rst85k5","","","","","","","",""
"1674.9899999999907","{""judgement"":1}","[0]","survey-likert","74","310479","0.0-74.0","1rst85k5","","","","","","","","1"
"1219.234999999986","{""confidence"":2}","[0]","survey-likert","75","311699","0.0-75.0","1rst85k5","","","","","","","",""
"","","","call-function","76","311699","0.0-76.0","1rst85k5","","","","","","","",""
"null","","","html-keyboard-response","77","313202","0.0-77.0","1rst85k5","","<span style=""color:Black; font-size:50px;"">Agent A","null","","","","",""
"null","","","video-keyboard-response","78","316012","0.0-78.0","1rst85k5","","","null","","Agent A","veridical","FOR_REV_MAP_BLOBBY_STIM/1159392.bmp_pp96_L2_V1.0_veridical_freeview_isoTrue_fps144.mp4",""
"null","","","html-keyboard-response","79","317515","0.0-79.0","1rst85k5","","<span style=""color:Black; font-size:50px;"">Agent B","null","","","","",""
"null","","","video-keyboard-response","80","320313","0.0-80.0","1rst85k5","","","null","","Agent B","scrambled","FOR_REV_MAP_BLOBBY_STIM/1159392.bmp_pp96_L2_V1.0_veridical_freeview_isoTrue_fps144_reversed_REAL.mp4",""
"","","","call-function","81","320314","0.0-81.0","1rst85k5","","","","","","","",""
"1590.1900000000023","{""judgement"":0}","[0]","survey-likert","82","321905","0.0-82.0","1rst85k5","","","","","","","","0"
"2206.1350000000093","{""confidence"":2}","[0]","survey-likert","83","324112","0.0-83.0","1rst85k5","","","","","","","",""
"","","","call-function","84","324112","0.0-84.0","1rst85k5","","","","","","","",""
"null","","","html-keyboard-response","85","325615","0.0-85.0","1rst85k5","","<span style=""color:Black; font-size:50px;"">Agent A","null","","","","",""
"null","","","video-keyboard-response","86","328416","0.0-86.0","1rst85k5","","","null","","Agent A","veridical","FOR_REV_MAP_BLOBBY_STIM/1592150.bmp_pp77_L3_V1.0_veridical_freeview_isoTrue_fps144.mp4",""
"null","","","html-keyboard-response","87","329922","0.0-87.0","1rst85k5","","<span style=""color:Black; font-size:50px;"">Agent B","null","","","","",""
"null","","","video-keyboard-response","88","332725","0.0-88.0","1rst85k5","","","null","","Agent B","scrambled","FOR_REV_MAP_BLOBBY_STIM/1592150.bmp_pp77_L3_V1.0_veridical_freeview_isoTrue_fps144_reversed_REAL.mp4",""
"","","","call-function","89","332725","0.0-89.0","1rst85k5","","","","","","","",""
"2132.3249999999534","{""judgement"":0}","[0]","survey-likert","90","334859","0.0-90.0","1rst85k5","","","","","","","","0"
"1433.295000000042","{""confidence"":2}","[0]","survey-likert","91","336293","0.0-91.0","1rst85k5","","","","","","","",""
"5321.380000000005","","","instructions","92","341615","0.0-92.0","1rst85k5","[{""page_index"":0,""viewing_time"":1841.3699999999953},{""page_index"":1,""viewing_time"":1953.9249999999884},{""page_index"":2,""viewing_time"":1525.9300000000512}]","","","","","","",""
"5294.224999999977","","","instructions","93","346909","0.0-93.0","1rst85k5","[{""page_index"":0,""viewing_time"":1316.5599999999977},{""page_index"":1,""viewing_time"":2923.320000000007},{""page_index"":2,""viewing_time"":1054.2299999999814}]","","","","","","",""
"","","","call-function","94","346909","0.0-94.0","1rst85k5","","","","","","","",""
"null","","","html-keyboard-response","95","348411","0.0-95.0","1rst85k5","","<span style=""color:Black; font-size:50px;"">Agent A","null","","","","",""
"null","","","video-keyboard-response","96","350520","0.0-96.0","1rst85k5","","","null","","Agent A","veridical","FOR_REV_MAP_BLOBBY_STIM/1159973.bmp_pp98_L1_V1.0_veridical_freeview_isoTrue_fps144.mp4",""
"null","","","html-keyboard-response","97","352022","0.0-97.0","1rst85k5","","<span style=""color:Black; font-size:50px;"">Agent B","null","","","","",""
"null","","","video-keyboard-response","98","354126","0.0-98.0","1rst85k5","","","null","","Agent B","scrambled","FOR_REV_MAP_BLOBBY_STIM/1159973.bmp_pp98_L1_V1.0_veridical_freeview_isoTrue_fps144_reversed_REAL.mp4",""
"","","","call-function","99","354126","0.0-99.0","1rst85k5","","","","","","","",""
"7716.945000000007","{""judgement"":1}","[0]","survey-likert","100","361844","0.0-100.0","1rst85k5","","","","","","","","0"
"2122.5199999999604","{""confidence"":1}","[0]","survey-likert","101","363969","0.0-101.0","1rst85k5","","","","","","","",""
"","","","call-function","102","363969","0.0-102.0","1rst85k5","","","","","","","",""
"null","","","html-keyboard-response","103","365470","0.0-103.0","1rst85k5","","<span style=""color:Black; font-size:50px;"">Agent A","null","","","","",""
"null","","","video-keyboard-response","104","368275","0.0-104.0","1rst85k5","","","null","","Agent A","veridical","FOR_REV_MAP_BLOBBY_STIM/1591920.bmp_pp97_L3_V1.0_veridical_freeview_isoTrue_fps144.mp4",""
"null","","","html-keyboard-response","105","369778","0.0-105.0","1rst85k5","","<span style=""color:Black; font-size:50px;"">Agent B","null","","","","",""
"null","","","video-keyboard-response","106","372585","0.0-106.0","1rst85k5","","","null","","Agent B","scrambled","FOR_REV_MAP_BLOBBY_STIM/1591920.bmp_pp97_L3_V1.0_veridical_freeview_isoTrue_fps144_reversed_REAL.mp4",""
"","","","call-function","107","372586","0.0-107.0","1rst85k5","","","","","","","",""
"2210.5899999999674","{""judgement"":0}","[0]","survey-likert","108","374798","0.0-108.0","1rst85k5","","","","","","","","0"
"1922.8499999999767","{""confidence"":3}","[0]","survey-likert","109","376723","0.0-109.0","1rst85k5","","","","","","","",""
"","","","call-function","110","376723","0.0-110.0","1rst85k5","","","","","","","",""
"null","","","html-keyboard-response","111","378227","0.0-111.0","1rst85k5","","<span style=""color:Black; font-size:50px;"">Agent A","null","","","","",""
"null","","","video-keyboard-response","112","380962","0.0-112.0","1rst85k5","","","null","","Agent A","scrambled","FOR_REV_MAP_BLOBBY_STIM/1159819.bmp_pp151_L1_V1.0_veridical_freeview_isoTrue_fps144_reversed_REAL.mp4",""
"null","","","html-keyboard-response","113","382469","0.0-113.0","1rst85k5","","<span style=""color:Black; font-size:50px;"">Agent B","null","","","","",""
"null","","","video-keyboard-response","114","385205","0.0-114.0","1rst85k5","","","null","","Agent B","veridical","FOR_REV_MAP_BLOBBY_STIM/1159819.bmp_pp151_L1_V1.0_veridical_freeview_isoTrue_fps144.mp4",""
"","","","call-function","115","385206","0.0-115.0","1rst85k5","","","","","","","",""
"2738.515000000014","{""judgement"":0}","[0]","survey-likert","116","387945","0.0-116.0","1rst85k5","","","","","","","","1"
"1301.4349999999977","{""confidence"":2}","[0]","survey-likert","117","389248","0.0-117.0","1rst85k5","","","","","","","",""
"","","","call-function","118","389248","0.0-118.0","1rst85k5","","","","","","","",""
"null","","","html-keyboard-response","119","390750","0.0-119.0","1rst85k5","","<span style=""color:Black; font-size:50px;"">Agent A","null","","","","",""
"null","","","video-keyboard-response","120","393545","0.0-120.0","1rst85k5","","","null","","Agent A","veridical","FOR_REV_MAP_BLOBBY_STIM/713689.bmp_pp153_L3_V1.0_veridical_freeview_isoTrue_fps144.mp4",""
"null","","","html-keyboard-response","121","395049","0.0-121.0","1rst85k5","","<span style=""color:Black; font-size:50px;"">Agent B","null","","","","",""
"null","","","video-keyboard-response","122","397864","0.0-122.0","1rst85k5","","","null","","Agent B","scrambled","FOR_REV_MAP_BLOBBY_STIM/713689.bmp_pp153_L3_V1.0_veridical_freeview_isoTrue_fps144_reversed_REAL.mp4",""
"","","","call-function","123","397865","0.0-123.0","1rst85k5","","","","","","","",""
"1670.030000000028","{""judgement"":0}","[0]","survey-likert","124","399536","0.0-124.0","1rst85k5","","","","","","","","0"
"1443.2200000000303","{""confidence"":2}","[0]","survey-likert","125","400980","0.0-125.0","1rst85k5","","","","","","","",""
"","","","call-function","126","400980","0.0-126.0","1rst85k5","","","","","","","",""
"null","","","html-keyboard-response","127","402487","0.0-127.0","1rst85k5","","<span style=""color:Black; font-size:50px;"">Agent A","null","","","","",""
"null","","","video-keyboard-response","128","405254","0.0-128.0","1rst85k5","","","null","","Agent A","scrambled","FOR_REV_MAP_BLOBBY_STIM/1592747.bmp_pp53_L2_V1.0_veridical_freeview_isoTrue_fps144_reversed_REAL.mp4",""
"null","","","html-keyboard-response","129","406760","0.0-129.0","1rst85k5","","<span style=""color:Black; font-size:50px;"">Agent B","null","","","","",""
"null","","","video-keyboard-response","130","409529","0.0-130.0","1rst85k5","","","null","","Agent B","veridical","FOR_REV_MAP_BLOBBY_STIM/1592747.bmp_pp53_L2_V1.0_veridical_freeview_isoTrue_fps144.mp4",""
"","","","call-function","131","409529","0.0-131.0","1rst85k5","","","","","","","",""
"1462.4749999999767","{""judgement"":0}","[0]","survey-likert","132","410993","0.0-132.0","1rst85k5","","","","","","","","1"
"1062.454999999958","{""confidence"":2}","[0]","survey-likert","133","412057","0.0-133.0","1rst85k5","","","","","","","",""
"","","","call-function","134","412057","0.0-134.0","1rst85k5","","","","","","","",""
"null","","","html-keyboard-response","135","413561","0.0-135.0","1rst85k5","","<span style=""color:Black; font-size:50px;"">Agent A","null","","","","",""
"null","","","video-keyboard-response","136","416375","0.0-136.0","1rst85k5","","","null","","Agent A","scrambled","FOR_REV_MAP_BLOBBY_STIM/1592314.bmp_pp100_L3_V1.0_veridical_freeview_isoTrue_fps144_reversed_REAL.mp4",""
"null","","","html-keyboard-response","137","417877","0.0-137.0","1rst85k5","","<span style=""color:Black; font-size:50px;"">Agent B","null","","","","",""
"null","","","video-keyboard-response","138","420697","0.0-138.0","1rst85k5","","","null","","Agent B","veridical","FOR_REV_MAP_BLOBBY_STIM/1592314.bmp_pp100_L3_V1.0_veridical_freeview_isoTrue_fps144.mp4",""
"","","","call-function","139","420697","0.0-139.0","1rst85k5","","","","","","","",""
"4082.6750000000466","{""judgement"":0}","[0]","survey-likert","140","424781","0.0-140.0","1rst85k5","","","","","","","","1"
"1728.0349999999744","{""confidence"":0}","[0]","survey-likert","141","426510","0.0-141.0","1rst85k5","","","","","","","",""
"","","","call-function","142","426510","0.0-142.0","1rst85k5","","","","","","","",""
"null","","","html-keyboard-response","143","428013","0.0-143.0","1rst85k5","","<span style=""color:Black; font-size:50px;"">Agent A","null","","","","",""
"null","","","video-keyboard-response","144","430832","0.0-144.0","1rst85k5","","","null","","Agent A","veridical","FOR_REV_MAP_BLOBBY_STIM/713770.bmp_pp89_L1_V1.0_veridical_freeview_isoTrue_fps144.mp4",""
"null","","","html-keyboard-response","145","432335","0.0-145.0","1rst85k5","","<span style=""color:Black; font-size:50px;"">Agent B","null","","","","",""
"null","","","video-keyboard-response","146","435151","0.0-146.0","1rst85k5","","","null","","Agent B","scrambled","FOR_REV_MAP_BLOBBY_STIM/713770.bmp_pp89_L1_V1.0_veridical_freeview_isoTrue_fps144_reversed_REAL.mp4",""
"","","","call-function","147","435151","0.0-147.0","1rst85k5","","","","","","","",""
"2207.75","{""judgement"":0}","[0]","survey-likert","148","437360","0.0-148.0","1rst85k5","","","","","","","","0"
"1421.9199999999837","{""confidence"":1}","[0]","survey-likert","149","438783","0.0-149.0","1rst85k5","","","","","","","",""
"","","","call-function","150","438783","0.0-150.0","1rst85k5","","","","","","","",""
"null","","","html-keyboard-response","151","440286","0.0-151.0","1rst85k5","","<span style=""color:Black; font-size:50px;"">Agent A","null","","","","",""
"null","","","video-keyboard-response","152","443069","0.0-152.0","1rst85k5","","","null","","Agent A","scrambled","FOR_REV_MAP_BLOBBY_STIM/286034.bmp_pp69_L3_V1.0_veridical_freeview_isoTrue_fps144_reversed_REAL.mp4",""
"null","","","html-keyboard-response","153","444571","0.0-153.0","1rst85k5","","<span style=""color:Black; font-size:50px;"">Agent B","null","","","","",""
"null","","","video-keyboard-response","154","447355","0.0-154.0","1rst85k5","","","null","","Agent B","veridical","FOR_REV_MAP_BLOBBY_STIM/286034.bmp_pp69_L3_V1.0_veridical_freeview_isoTrue_fps144.mp4",""
"","","","call-function","155","447355","0.0-155.0","1rst85k5","","","","","","","",""
"1713.969999999972","{""judgement"":1}","[0]","survey-likert","156","449070","0.0-156.0","1rst85k5","","","","","","","","1"
"1946.9599999999627","{""confidence"":1}","[0]","survey-likert","157","451018","0.0-157.0","1rst85k5","","","","","","","",""
"","","","call-function","158","451018","0.0-158.0","1rst85k5","","","","","","","",""
"null","","","html-keyboard-response","159","452522","0.0-159.0","1rst85k5","","<span style=""color:Black; font-size:50px;"">Agent A","null","","","","",""
"null","","","video-keyboard-response","160","455299","0.0-160.0","1rst85k5","","","null","","Agent A","scrambled","FOR_REV_MAP_BLOBBY_STIM/713328.bmp_pp86_L2_V1.0_veridical_freeview_isoTrue_fps144_reversed_REAL.mp4",""
"null","","","html-keyboard-response","161","456802","0.0-161.0","1rst85k5","","<span style=""color:Black; font-size:50px;"">Agent B","null","","","","",""
"null","","","video-keyboard-response","162","459563","0.0-162.0","1rst85k5","","","null","","Agent B","veridical","FOR_REV_MAP_BLOBBY_STIM/713328.bmp_pp86_L2_V1.0_veridical_freeview_isoTrue_fps144.mp4",""
"","","","call-function","163","459564","0.0-163.0","1rst85k5","","","","","","","",""
"2212.8600000000442","{""judgement"":1}","[0]","survey-likert","164","461778","0.0-164.0","1rst85k5","","","","","","","","1"
"2861.2399999999907","{""confidence"":1}","[0]","survey-likert","165","464642","0.0-165.0","1rst85k5","","","","","","","",""
"","","","call-function","166","464643","0.0-166.0","1rst85k5","","","","","","","",""
"null","","","html-keyboard-response","167","466146","0.0-167.0","1rst85k5","","<span style=""color:Black; font-size:50px;"">Agent A","null","","","","",""
"null","","","video-keyboard-response","168","468895","0.0-168.0","1rst85k5","","","null","","Agent A","scrambled","FOR_REV_MAP_BLOBBY_STIM/1592168.bmp_pp71_L1_V1.0_veridical_freeview_isoTrue_fps144_reversed_REAL.mp4",""
"null","","","html-keyboard-response","169","470401","0.0-169.0","1rst85k5","","<span style=""color:Black; font-size:50px;"">Agent B","null","","","","",""
"null","","","video-keyboard-response","170","473149","0.0-170.0","1rst85k5","","","null","","Agent B","veridical","FOR_REV_MAP_BLOBBY_STIM/1592168.bmp_pp71_L1_V1.0_veridical_freeview_isoTrue_fps144.mp4",""
"","","","call-function","171","473149","0.0-171.0","1rst85k5","","","","","","","",""
"3464.2299999999814","{""judgement"":0}","[0]","survey-likert","172","476615","0.0-172.0","1rst85k5","","","","","","","","1"
"1165.1949999999488","{""confidence"":1}","[0]","survey-likert","173","477781","0.0-173.0","1rst85k5","","","","","","","",""
"39293.369999999995","","","instructions","174","517075","0.0-174.0","1rst85k5","[{""page_index"":0,""viewing_time"":2056.6300000000047},{""page_index"":1,""viewing_time"":35877.05499999999},{""page_index"":2,""viewing_time"":1359.5349999999744}]","","","","","","",""
"2873.695000000007","","","instructions","175","519949","0.0-175.0","1rst85k5","[{""page_index"":0,""viewing_time"":1367.9899999999907},{""page_index"":1,""viewing_time"":798.6200000000536},{""page_index"":2,""viewing_time"":706.984999999986}]","","","","","","",""
"","","","call-function","176","519950","0.0-176.0","1rst85k5","","","","","","","",""
"null","","","html-keyboard-response","177","521454","0.0-177.0","1rst85k5","","<span style=""color:Black; font-size:50px;"">Agent A","null","","","","",""
"null","","","video-keyboard-response","178","524214","0.0-178.0","1rst85k5","","","null","","Agent A","veridical","FOR_REV_MAP_BLOBBY_STIM/1159329.bmp_pp61_L2_V1.0_veridical_freeview_isoTrue_fps144.mp4",""
"null","","","html-keyboard-response","179","525716","0.0-179.0","1rst85k5","","<span style=""color:Black; font-size:50px;"">Agent B","null","","","","",""
"null","","","video-keyboard-response","180","528481","0.0-180.0","1rst85k5","","","null","","Agent B","scrambled","FOR_REV_MAP_BLOBBY_STIM/1159329.bmp_pp61_L2_V1.0_veridical_freeview_isoTrue_fps144_reversed_REAL.mp4",""
"","","","call-function","181","528481","0.0-181.0","1rst85k5","","","","","","","",""
"1619.5100000000093","{""judgement"":0}","[0]","survey-likert","182","530102","0.0-182.0","1rst85k5","","","","","","","","0"
"1075.2850000000326","{""confidence"":1}","[0]","survey-likert","183","531178","0.0-183.0","1rst85k5","","","","","","","",""
"","","","call-function","184","531178","0.0-184.0","1rst85k5","","","","","","","",""
"null","","","html-keyboard-response","185","532682","0.0-185.0","1rst85k5","","<span style=""color:Black; font-size:50px;"">Agent A","null","","","","",""
"null","","","video-keyboard-response","186","535446","0.0-186.0","1rst85k5","","","null","","Agent A","veridical","FOR_REV_MAP_BLOBBY_STIM/285684.bmp_pp80_L3_V1.0_veridical_freeview_isoTrue_fps144.mp4",""
"null","","","html-keyboard-response","187","536948","0.0-187.0","1rst85k5","","<span style=""color:Black; font-size:50px;"">Agent B","null","","","","",""
"null","","","video-keyboard-response","188","539709","0.0-188.0","1rst85k5","","","null","","Agent B","scrambled","FOR_REV_MAP_BLOBBY_STIM/285684.bmp_pp80_L3_V1.0_veridical_freeview_isoTrue_fps144_reversed_REAL.mp4",""
"","","","call-function","189","539710","0.0-189.0","1rst85k5","","","","","","","",""
"2195.5250000000233","{""judgement"":0}","[0]","survey-likert","190","541906","0.0-190.0","1rst85k5","","","","","","","","0"
"1024.7099999999627","{""confidence"":1}","[0]","survey-likert","191","542932","0.0-191.0","1rst85k5","","","","","","","",""
"","","","call-function","192","542933","0.0-192.0","1rst85k5","","","","","","","",""
"null","","","html-keyboard-response","193","544435","0.0-193.0","1rst85k5","","<span style=""color:Black; font-size:50px;"">Agent A","null","","","","",""
"null","","","video-keyboard-response","194","547280","0.0-194.0","1rst85k5","","","null","","Agent A","veridical","FOR_REV_MAP_BLOBBY_STIM/1160204.bmp_pp54_L2_V1.0_veridical_freeview_isoTrue_fps144.mp4",""
"null","","","html-keyboard-response","195","548786","0.0-195.0","1rst85k5","","<span style=""color:Black; font-size:50px;"">Agent B","null","","","","",""
"null","","","video-keyboard-response","196","551625","0.0-196.0","1rst85k5","","","null","","Agent B","scrambled","FOR_REV_MAP_BLOBBY_STIM/1160204.bmp_pp54_L2_V1.0_veridical_freeview_isoTrue_fps144_reversed_REAL.mp4",""
"","","","call-function","197","551625","0.0-197.0","1rst85k5","","","","","","","",""
"2560.185000000056","{""judgement"":0}","[0]","survey-likert","198","554186","0.0-198.0","1rst85k5","","","","","","","","0"
"1575.7050000000745","{""confidence"":2}","[0]","survey-likert","199","555763","0.0-199.0","1rst85k5","","","","","","","",""
"","","","call-function","200","555763","0.0-200.0","1rst85k5","","","","","","","",""
"null","","","html-keyboard-response","201","557265","0.0-201.0","1rst85k5","","<span style=""color:Black; font-size:50px;"">Agent A","null","","","","",""
"null","","","video-keyboard-response","202","560097","0.0-202.0","1rst85k5","","","null","","Agent A","scrambled","FOR_REV_MAP_BLOBBY_STIM/1592025.bmp_pp68_L1_V1.0_veridical_freeview_isoTrue_fps144_reversed_REAL.mp4",""
"null","","","html-keyboard-response","203","561600","0.0-203.0","1rst85k5","","<span style=""color:Black; font-size:50px;"">Agent B","null","","","","",""
"null","","","video-keyboard-response","204","564428","0.0-204.0","1rst85k5","","","null","","Agent B","veridical","FOR_REV_MAP_BLOBBY_STIM/1592025.bmp_pp68_L1_V1.0_veridical_freeview_isoTrue_fps144.mp4",""
"","","","call-function","205","564429","0.0-205.0","1rst85k5","","","","","","","",""
"1824.8249999999534","{""judgement"":1}","[0]","survey-likert","206","566254","0.0-206.0","1rst85k5","","","","","","","","1"
"2589.539999999921","{""confidence"":2}","[0]","survey-likert","207","568845","0.0-207.0","1rst85k5","","","","","","","",""
"","","","call-function","208","568845","0.0-208.0","1rst85k5","","","","","","","",""
"null","","","html-keyboard-response","209","570346","0.0-209.0","1rst85k5","","<span style=""color:Black; font-size:50px;"">Agent A","null","","","","",""
"null","","","video-keyboard-response","210","573134","0.0-210.0","1rst85k5","","","null","","Agent A","veridical","FOR_REV_MAP_BLOBBY_STIM/1592289.bmp_pp92_L3_V1.0_veridical_freeview_isoTrue_fps144.mp4",""
"null","","","html-keyboard-response","211","574636","0.0-211.0","1rst85k5","","<span style=""color:Black; font-size:50px;"">Agent B","null","","","","",""
"null","","","video-keyboard-response","212","577425","0.0-212.0","1rst85k5","","","null","","Agent B","scrambled","FOR_REV_MAP_BLOBBY_STIM/1592289.bmp_pp92_L3_V1.0_veridical_freeview_isoTrue_fps144_reversed_REAL.mp4",""
"","","","call-function","213","577426","0.0-213.0","1rst85k5","","","","","","","",""
"1803.0699999999488","{""judgement"":0}","[0]","survey-likert","214","579229","0.0-214.0","1rst85k5","","","","","","","","0"
"2081.774999999907","{""confidence"":1}","[0]","survey-likert","215","581312","0.0-215.0","1rst85k5","","","","","","","",""
"","","","call-function","216","581313","0.0-216.0","1rst85k5","","","","","","","",""
"null","","","html-keyboard-response","217","582819","0.0-217.0","1rst85k5","","<span style=""color:Black; font-size:50px;"">Agent A","null","","","","",""
"null","","","video-keyboard-response","218","585627","0.0-218.0","1rst85k5","","","null","","Agent A","scrambled","FOR_REV_MAP_BLOBBY_STIM/713652.bmp_pp89_L1_V1.0_veridical_freeview_isoTrue_fps144_reversed_REAL.mp4",""
"null","","","html-keyboard-response","219","587128","0.0-219.0","1rst85k5","","<span style=""color:Black; font-size:50px;"">Agent B","null","","","","",""
"null","","","video-keyboard-response","220","589924","0.0-220.0","1rst85k5","","","null","","Agent B","veridical","FOR_REV_MAP_BLOBBY_STIM/713652.bmp_pp89_L1_V1.0_veridical_freeview_isoTrue_fps144.mp4",""
"","","","call-function","221","589924","0.0-221.0","1rst85k5","","","","","","","",""
"6588.914999999921","{""judgement"":1}","[0]","survey-likert","222","596514","0.0-222.0","1rst85k5","","","","","","","","1"
"1058.9899999999907","{""confidence"":1}","[0]","survey-likert","223","597574","0.0-223.0","1rst85k5","","","","","","","",""
"","","","call-function","224","597574","0.0-224.0","1rst85k5","","","","","","","",""
"null","","","html-keyboard-response","225","599075","0.0-225.0","1rst85k5","","<span style=""color:Black; font-size:50px;"">Agent A","null","","","","",""
"null","","","video-keyboard-response","226","601665","0.0-226.0","1rst85k5","","","null","","Agent A","veridical","FOR_REV_MAP_BLOBBY_STIM/713633.bmp_pp58_L1_V1.0_veridical_freeview_isoTrue_fps144.mp4",""
"null","","","html-keyboard-response","227","603192","0.0-227.0","1rst85k5","","<span style=""color:Black; font-size:50px;"">Agent B","null","","","","",""
"null","","","video-keyboard-response","228","605782","0.0-228.0","1rst85k5","","","null","","Agent B","scrambled","FOR_REV_MAP_BLOBBY_STIM/713633.bmp_pp58_L1_V1.0_veridical_freeview_isoTrue_fps144_reversed_REAL.mp4",""
"","","","call-function","229","605784","0.0-229.0","1rst85k5","","","","","","","",""
"1905.9149999999208","{""judgement"":0}","[0]","survey-likert","230","607691","0.0-230.0","1rst85k5","","","","","","","","0"
"1389.2149999999674","{""confidence"":2}","[0]","survey-likert","231","609081","0.0-231.0","1rst85k5","","","","","","","",""
"","","","call-function","232","609082","0.0-232.0","1rst85k5","","","","","","","",""
"null","","","html-keyboard-response","233","610583","0.0-233.0","1rst85k5","","<span style=""color:Black; font-size:50px;"">Agent A","null","","","","",""
"null","","","video-keyboard-response","234","613304","0.0-234.0","1rst85k5","","","null","","Agent A","veridical","FOR_REV_MAP_BLOBBY_STIM/1159592.bmp_pp91_L3_V1.0_veridical_freeview_isoTrue_fps144.mp4",""
"null","","","html-keyboard-response","235","614811","0.0-235.0","1rst85k5","","<span style=""color:Black; font-size:50px;"">Agent B","null","","","","",""
"null","","","video-keyboard-response","236","617530","0.0-236.0","1rst85k5","","","null","","Agent B","scrambled","FOR_REV_MAP_BLOBBY_STIM/1159592.bmp_pp91_L3_V1.0_veridical_freeview_isoTrue_fps144_reversed_REAL.mp4",""
"","","","call-function","237","617531","0.0-237.0","1rst85k5","","","","","","","",""
"1491.4500000000698","{""judgement"":1}","[0]","survey-likert","238","619023","0.0-238.0","1rst85k5","","","","","","","","0"
"2267.4499999999534","{""confidence"":1}","[0]","survey-likert","239","621292","0.0-239.0","1rst85k5","","","","","","","",""
"","","","call-function","240","621292","0.0-240.0","1rst85k5","","","","","","","",""
"null","","","html-keyboard-response","241","622796","0.0-241.0","1rst85k5","","<span style=""color:Black; font-size:50px;"">Agent A","null","","","","",""
"null","","","video-keyboard-response","242","625586","0.0-242.0","1rst85k5","","","null","","Agent A","veridical","FOR_REV_MAP_BLOBBY_STIM/1592305.bmp_pp65_L3_V1.0_veridical_freeview_isoTrue_fps144.mp4",""
"null","","","html-keyboard-response","243","627089","0.0-243.0","1rst85k5","","<span style=""color:Black; font-size:50px;"">Agent B","null","","","","",""
"null","","","video-keyboard-response","244","629880","0.0-244.0","1rst85k5","","","null","","Agent B","scrambled","FOR_REV_MAP_BLOBBY_STIM/1592305.bmp_pp65_L3_V1.0_veridical_freeview_isoTrue_fps144_reversed_REAL.mp4",""
"","","","call-function","245","629880","0.0-245.0","1rst85k5","","","","","","","",""
"2098.9150000000373","{""judgement"":0}","[0]","survey-likert","246","631980","0.0-246.0","1rst85k5","","","","","","","","0"
"1925.920000000042","{""confidence"":1}","[0]","survey-likert","247","633907","0.0-247.0","1rst85k5","","","","","","","",""
"","","","call-function","248","633908","0.0-248.0","1rst85k5","","","","","","","",""
"null","","","html-keyboard-response","249","635414","0.0-249.0","1rst85k5","","<span style=""color:Black; font-size:50px;"">Agent A","null","","","","",""
"null","","","video-keyboard-response","250","638192","0.0-250.0","1rst85k5","","","null","","Agent A","scrambled","FOR_REV_MAP_BLOBBY_STIM/1592017.bmp_pp154_L1_V1.0_veridical_freeview_isoTrue_fps144_reversed_REAL.mp4",""
"null","","","html-keyboard-response","251","639694","0.0-251.0","1rst85k5","","<span style=""color:Black; font-size:50px;"">Agent B","null","","","","",""
"null","","","video-keyboard-response","252","642460","0.0-252.0","1rst85k5","","","null","","Agent B","veridical","FOR_REV_MAP_BLOBBY_STIM/1592017.bmp_pp154_L1_V1.0_veridical_freeview_isoTrue_fps144.mp4",""
"","","","call-function","253","642460","0.0-253.0","1rst85k5","","","","","","","",""
"2056","{""judgement"":1}","[0]","survey-likert","254","644517","0.0-254.0","1rst85k5","","","","","","","","1"
"1345.3850000000093","{""confidence"":1}","[0]","survey-likert","255","645863","0.0-255.0","1rst85k5","","","","","","","",""
"5338.539999999921","","","instructions","256","651202","0.0-256.0","1rst85k5","[{""page_index"":0,""viewing_time"":1793.2999999999302},{""page_index"":1,""viewing_time"":2802.8649999999907},{""page_index"":2,""viewing_time"":742.0850000000792}]","","","","","","",""
"1590.5050000000047","","","instructions","257","652793","0.0-257.0","1rst85k5","[{""page_index"":0,""viewing_time"":516.3649999999907},{""page_index"":1,""viewing_time"":539.9899999999907},{""page_index"":2,""viewing_time"":534.0450000000419}]","","","","","","",""
"","","","call-function","258","652794","0.0-258.0","1rst85k5","","","","","","","",""
"null","","","html-keyboard-response","259","654294","0.0-259.0","1rst85k5","","<span style=""color:Black; font-size:50px;"">Agent A","null","","","","",""
"null","","","video-keyboard-response","260","656979","0.0-260.0","1rst85k5","","","null","","Agent A","veridical","FOR_REV_MAP_BLOBBY_STIM/713788.bmp_pp52_L1_V1.0_veridical_freeview_isoTrue_fps144.mp4",""
"null","","","html-keyboard-response","261","658483","0.0-261.0","1rst85k5","","<span style=""color:Black; font-size:50px;"">Agent B","null","","","","",""
"null","","","video-keyboard-response","262","661167","0.0-262.0","1rst85k5","","","null","","Agent B","scrambled","FOR_REV_MAP_BLOBBY_STIM/713788.bmp_pp52_L1_V1.0_veridical_freeview_isoTrue_fps144_reversed_REAL.mp4",""
"","","","call-function","263","661167","0.0-263.0","1rst85k5","","","","","","","",""
"1708.0250000000233","{""judgement"":0}","[0]","survey-likert","264","662876","0.0-264.0","1rst85k5","","","","","","","","0"
"1259.6499999999069","{""confidence"":1}","[0]","survey-likert","265","664137","0.0-265.0","1rst85k5","","","","","","","",""
"","","","call-function","266","664137","0.0-266.0","1rst85k5","","","","","","","",""
"null","","","html-keyboard-response","267","665642","0.0-267.0","1rst85k5","","<span style=""color:Black; font-size:50px;"">Agent A","null","","","","",""
"null","","","video-keyboard-response","268","668357","0.0-268.0","1rst85k5","","","null","","Agent A","veridical","FOR_REV_MAP_BLOBBY_STIM/1159427.bmp_pp98_L1_V1.0_veridical_freeview_isoTrue_fps144.mp4",""
"null","","","html-keyboard-response","269","669864","0.0-269.0","1rst85k5","","<span style=""color:Black; font-size:50px;"">Agent B","null","","","","",""
"null","","","video-keyboard-response","270","672575","0.0-270.0","1rst85k5","","","null","","Agent B","scrambled","FOR_REV_MAP_BLOBBY_STIM/1159427.bmp_pp98_L1_V1.0_veridical_freeview_isoTrue_fps144_reversed_REAL.mp4",""
"","","","call-function","271","672575","0.0-271.0","1rst85k5","","","","","","","",""
"2404.0400000000373","{""judgement"":0}","[0]","survey-likert","272","674981","0.0-272.0","1rst85k5","","","","","","","","0"
"1019.4299999999348","{""confidence"":1}","[0]","survey-likert","273","676001","0.0-273.0","1rst85k5","","","","","","","",""
"","","","call-function","274","676002","0.0-274.0","1rst85k5","","","","","","","",""
"null","","","html-keyboard-response","275","677503","0.0-275.0","1rst85k5","","<span style=""color:Black; font-size:50px;"">Agent A","null","","","","",""
"null","","","video-keyboard-response","276","680315","0.0-276.0","1rst85k5","","","null","","Agent A","veridical","FOR_REV_MAP_BLOBBY_STIM/713920.bmp_pp76_L1_V1.0_veridical_freeview_isoTrue_fps144.mp4",""
"null","","","html-keyboard-response","277","681819","0.0-277.0","1rst85k5","","<span style=""color:Black; font-size:50px;"">Agent B","null","","","","",""
"null","","","video-keyboard-response","278","684633","0.0-278.0","1rst85k5","","","null","","Agent B","scrambled","FOR_REV_MAP_BLOBBY_STIM/713920.bmp_pp76_L1_V1.0_veridical_freeview_isoTrue_fps144_reversed_REAL.mp4",""
"","","","call-function","279","684633","0.0-279.0","1rst85k5","","","","","","","",""
"1712.0400000000373","{""judgement"":1}","[0]","survey-likert","280","686346","0.0-280.0","1rst85k5","","","","","","","","0"
"1974.7600000000093","{""confidence"":1}","[0]","survey-likert","281","688322","0.0-281.0","1rst85k5","","","","","","","",""
"","","","call-function","282","688322","0.0-282.0","1rst85k5","","","","","","","",""
"null","","","html-keyboard-response","283","689825","0.0-283.0","1rst85k5","","<span style=""color:Black; font-size:50px;"">Agent A","null","","","","",""
"null","","","video-keyboard-response","284","692738","0.0-284.0","1rst85k5","","","null","","Agent A","veridical","FOR_REV_MAP_BLOBBY_STIM/498025.bmp_pp81_L1_V1.0_veridical_freeview_isoTrue_fps144.mp4",""
"null","","","html-keyboard-response","285","694239","0.0-285.0","1rst85k5","","<span style=""color:Black; font-size:50px;"">Agent B","null","","","","",""
"null","","","video-keyboard-response","286","697155","0.0-286.0","1rst85k5","","","null","","Agent B","scrambled","FOR_REV_MAP_BLOBBY_STIM/498025.bmp_pp81_L1_V1.0_veridical_freeview_isoTrue_fps144_reversed_REAL.mp4",""
"","","","call-function","287","697156","0.0-287.0","1rst85k5","","","","","","","",""
"1617.634999999893","{""judgement"":1}","[0]","survey-likert","288","698774","0.0-288.0","1rst85k5","","","","","","","","0"
"1387.1300000000047","{""confidence"":2}","[0]","survey-likert","289","700162","0.0-289.0","1rst85k5","","","","","","","",""
"","","","call-function","290","700163","0.0-290.0","1rst85k5","","","","","","","",""
"null","","","html-keyboard-response","291","701665","0.0-291.0","1rst85k5","","<span style=""color:Black; font-size:50px;"">Agent A","null","","","","",""
"null","","","video-keyboard-response","292","704457","0.0-292.0","1rst85k5","","","null","","Agent A","veridical","FOR_REV_MAP_BLOBBY_STIM/1160049.bmp_pp53_L2_V1.0_veridical_freeview_isoTrue_fps144.mp4",""
"null","","","html-keyboard-response","293","705963","0.0-293.0","1rst85k5","","<span style=""color:Black; font-size:50px;"">Agent B","null","","","","",""
"null","","","video-keyboard-response","294","708757","0.0-294.0","1rst85k5","","","null","","Agent B","scrambled","FOR_REV_MAP_BLOBBY_STIM/1160049.bmp_pp53_L2_V1.0_veridical_freeview_isoTrue_fps144_reversed_REAL.mp4",""
"","","","call-function","295","708759","0.0-295.0","1rst85k5","","","","","","","",""
"1914.4099999999162","{""judgement"":0}","[0]","survey-likert","296","710674","0.0-296.0","1rst85k5","","","","","","","","0"
"1584.4449999999488","{""confidence"":1}","[0]","survey-likert","297","712261","0.0-297.0","1rst85k5","","","","","","","",""
"","","","call-function","298","712262","0.0-298.0","1rst85k5","","","","","","","",""
"null","","","html-keyboard-response","299","713766","0.0-299.0","1rst85k5","","<span style=""color:Black; font-size:50px;"">Agent A","null","","","","",""
"null","","","video-keyboard-response","300","716596","0.0-300.0","1rst85k5","","","null","","Agent A","scrambled","FOR_REV_MAP_BLOBBY_STIM/498261.bmp_pp84_L3_V1.0_veridical_freeview_isoTrue_fps144_reversed_REAL.mp4",""
"null","","","html-keyboard-response","301","718098","0.0-301.0","1rst85k5","","<span style=""color:Black; font-size:50px;"">Agent B","null","","","","",""
"null","","","video-keyboard-response","302","720931","0.0-302.0","1rst85k5","","","null","","Agent B","veridical","FOR_REV_MAP_BLOBBY_STIM/498261.bmp_pp84_L3_V1.0_veridical_freeview_isoTrue_fps144.mp4",""
"","","","call-function","303","720932","0.0-303.0","1rst85k5","","","","","","","",""
"2219.319999999949","{""judgement"":1}","[0]","survey-likert","304","723152","0.0-304.0","1rst85k5","","","","","","","","1"
"1490.125","{""confidence"":1}","[0]","survey-likert","305","724643","0.0-305.0","1rst85k5","","","","","","","",""
"","","","call-function","306","724644","0.0-306.0","1rst85k5","","","","","","","",""
"null","","","html-keyboard-response","307","726147","0.0-307.0","1rst85k5","","<span style=""color:Black; font-size:50px;"">Agent A","null","","","","",""
"null","","","video-keyboard-response","308","728561","0.0-308.0","1rst85k5","","","null","","Agent A","scrambled","FOR_REV_MAP_BLOBBY_STIM/1592951.bmp_pp80_L3_V1.0_veridical_freeview_isoTrue_fps144_reversed_REAL.mp4",""
"null","","","html-keyboard-response","309","730063","0.0-309.0","1rst85k5","","<span style=""color:Black; font-size:50px;"">Agent B","null","","","","",""
"null","","","video-keyboard-response","310","732475","0.0-310.0","1rst85k5","","","null","","Agent B","veridical","FOR_REV_MAP_BLOBBY_STIM/1592951.bmp_pp80_L3_V1.0_veridical_freeview_isoTrue_fps144.mp4",""
"","","","call-function","311","732475","0.0-311.0","1rst85k5","","","","","","","",""
"7172.244999999995","{""judgement"":0}","[0]","survey-likert","312","739649","0.0-312.0","1rst85k5","","","","","","","","1"
"1958.3100000000559","{""confidence"":1}","[0]","survey-likert","313","741608","0.0-313.0","1rst85k5","","","","","","","",""
"","","","call-function","314","741608","0.0-314.0","1rst85k5","","","","","","","",""
"null","","","html-keyboard-response","315","743110","0.0-315.0","1rst85k5","","<span style=""color:Black; font-size:50px;"">Agent A","null","","","","",""
"null","","","video-keyboard-response","316","745818","0.0-316.0","1rst85k5","","","null","","Agent A","veridical","FOR_REV_MAP_BLOBBY_STIM/1592350.bmp_pp55_L3_V1.0_veridical_freeview_isoTrue_fps144.mp4",""
"null","","","html-keyboard-response","317","747319","0.0-317.0","1rst85k5","","<span style=""color:Black; font-size:50px;"">Agent B","null","","","","",""
"null","","","video-keyboard-response","318","750018","0.0-318.0","1rst85k5","","","null","","Agent B","scrambled","FOR_REV_MAP_BLOBBY_STIM/1592350.bmp_pp55_L3_V1.0_veridical_freeview_isoTrue_fps144_reversed_REAL.mp4",""
"","","","call-function","319","750019","0.0-319.0","1rst85k5","","","","","","","",""
"1359.905000000028","{""judgement"":1}","[0]","survey-likert","320","751380","0.0-320.0","1rst85k5","","","","","","","","0"
"1599.6399999998976","{""confidence"":1}","[0]","survey-likert","321","752980","0.0-321.0","1rst85k5","","","","","","","",""
"","","","call-function","322","752981","0.0-322.0","1rst85k5","","","","","","","",""
"null","","","html-keyboard-response","323","754485","0.0-323.0","1rst85k5","","<span style=""color:Black; font-size:50px;"">Agent A","null","","","","",""
"null","","","video-keyboard-response","324","757319","0.0-324.0","1rst85k5","","","null","","Agent A","veridical","FOR_REV_MAP_BLOBBY_STIM/713829.bmp_pp60_L3_V1.0_veridical_freeview_isoTrue_fps144.mp4",""
"null","","","html-keyboard-response","325","758825","0.0-325.0","1rst85k5","","<span style=""color:Black; font-size:50px;"">Agent B","null","","","","",""
"null","","","video-keyboard-response","326","761663","0.0-326.0","1rst85k5","","","null","","Agent B","scrambled","FOR_REV_MAP_BLOBBY_STIM/713829.bmp_pp60_L3_V1.0_veridical_freeview_isoTrue_fps144_reversed_REAL.mp4",""
"","","","call-function","327","761664","0.0-327.0","1rst85k5","","","","","","","",""
"2525.1049999999814","{""judgement"":0}","[0]","survey-likert","328","764190","0.0-328.0","1rst85k5","","","","","","","","0"
"967.0200000000186","{""confidence"":1}","[0]","survey-likert","329","765158","0.0-329.0","1rst85k5","","","","","","","",""
"","","","call-function","330","765158","0.0-330.0","1rst85k5","","","","","","","",""
"null","","","html-keyboard-response","331","766661","0.0-331.0","1rst85k5","","<span style=""color:Black; font-size:50px;"">Agent A","null","","","","",""
"null","","","video-keyboard-response","332","769399","0.0-332.0","1rst85k5","","","null","","Agent A","veridical","FOR_REV_MAP_BLOBBY_STIM/1591975.bmp_pp88_L2_V1.0_veridical_freeview_isoTrue_fps144.mp4",""
"null","","","html-keyboard-response","333","770904","0.0-333.0","1rst85k5","","<span style=""color:Black; font-size:50px;"">Agent B","null","","","","",""
"null","","","video-keyboard-response","334","773644","0.0-334.0","1rst85k5","","","null","","Agent B","scrambled","FOR_REV_MAP_BLOBBY_STIM/1591975.bmp_pp88_L2_V1.0_veridical_freeview_isoTrue_fps144_reversed_REAL.mp4",""
"","","","call-function","335","773644","0.0-335.0","1rst85k5","","","","","","","",""
"2331.7449999999953","{""judgement"":0}","[0]","survey-likert","336","775977","0.0-336.0","1rst85k5","","","","","","","","0"
"1398.2849999999162","{""confidence"":2}","[0]","survey-likert","337","777376","0.0-337.0","1rst85k5","","","","","","","",""
"3922.920000000042","","","instructions","338","781299","0.0-338.0","1rst85k5","[{""page_index"":0,""viewing_time"":2316.715000000084},{""page_index"":1,""viewing_time"":1005.1350000000093},{""page_index"":2,""viewing_time"":600.8249999999534}]","","","","","","",""
"1877.594999999972","","","instructions","339","783177","0.0-339.0","1rst85k5","[{""page_index"":0,""viewing_time"":723.5550000000512},{""page_index"":1,""viewing_time"":541.8099999999395},{""page_index"":2,""viewing_time"":612.1199999999953}]","","","","","","",""
"","","","call-function","340","783178","0.0-340.0","1rst85k5","","","","","","","",""
"null","","","html-keyboard-response","341","784680","0.0-341.0","1rst85k5","","<span style=""color:Black; font-size:50px;"">Agent A","null","","","","",""
"null","","","video-keyboard-response","342","787453","0.0-342.0","1rst85k5","","","null","","Agent A","scrambled","FOR_REV_MAP_BLOBBY_STIM/285932.bmp_pp64_L1_V1.0_veridical_freeview_isoTrue_fps144_reversed_REAL.mp4",""
"null","","","html-keyboard-response","343","788956","0.0-343.0","1rst85k5","","<span style=""color:Black; font-size:50px;"">Agent B","null","","","","",""
"null","","","video-keyboard-response","344","791724","0.0-344.0","1rst85k5","","","null","","Agent B","veridical","FOR_REV_MAP_BLOBBY_STIM/285932.bmp_pp64_L1_V1.0_veridical_freeview_isoTrue_fps144.mp4",""
"","","","call-function","345","791724","0.0-345.0","1rst85k5","","","","","","","",""
"2533.1450000000186","{""judgement"":1}","[0]","survey-likert","346","794258","0.0-346.0","1rst85k5","","","","","","","","1"
"2754.9749999999767","{""confidence"":2}","[0]","survey-likert","347","797014","0.0-347.0","1rst85k5","","","","","","","",""
"","","","call-function","348","797015","0.0-348.0","1rst85k5","","","","","","","",""
"null","","","html-keyboard-response","349","798516","0.0-349.0","1rst85k5","","<span style=""color:Black; font-size:50px;"">Agent A","null","","","","",""
"null","","","video-keyboard-response","350","801281","0.0-350.0","1rst85k5","","","null","","Agent A","scrambled","FOR_REV_MAP_BLOBBY_STIM/1592044.bmp_pp94_L2_V1.0_veridical_freeview_isoTrue_fps144_reversed_REAL.mp4",""
"null","","","html-keyboard-response","351","802788","0.0-351.0","1rst85k5","","<span style=""color:Black; font-size:50px;"">Agent B","null","","","","",""
"null","","","video-keyboard-response","352","805549","0.0-352.0","1rst85k5","","","null","","Agent B","veridical","FOR_REV_MAP_BLOBBY_STIM/1592044.bmp_pp94_L2_V1.0_veridical_freeview_isoTrue_fps144.mp4",""
"","","","call-function","353","805549","0.0-353.0","1rst85k5","","","","","","","",""
"1684.5849999999627","{""judgement"":0}","[0]","survey-likert","354","807234","0.0-354.0","1rst85k5","","","","","","","","1"
"2160.454999999958","{""confidence"":1}","[0]","survey-likert","355","809396","0.0-355.0","1rst85k5","","","","","","","",""
"","","","call-function","356","809396","0.0-356.0","1rst85k5","","","","","","","",""
"null","","","html-keyboard-response","357","810901","0.0-357.0","1rst85k5","","<span style=""color:Black; font-size:50px;"">Agent A","null","","","","",""
"null","","","video-keyboard-response","358","813643","0.0-358.0","1rst85k5","","","null","","Agent A","veridical","FOR_REV_MAP_BLOBBY_STIM/285715.bmp_pp67_L2_V1.0_veridical_freeview_isoTrue_fps144.mp4",""
"null","","","html-keyboard-response","359","815149","0.0-359.0","1rst85k5","","<span style=""color:Black; font-size:50px;"">Agent B","null","","","","",""
"null","","","video-keyboard-response","360","817880","0.0-360.0","1rst85k5","","","null","","Agent B","scrambled","FOR_REV_MAP_BLOBBY_STIM/285715.bmp_pp67_L2_V1.0_veridical_freeview_isoTrue_fps144_reversed_REAL.mp4",""
"","","","call-function","361","817881","0.0-361.0","1rst85k5","","","","","","","",""
"2863.944999999949","{""judgement"":0}","[0]","survey-likert","362","820745","0.0-362.0","1rst85k5","","","","","","","","0"
"1973.9499999999534","{""confidence"":1}","[0]","survey-likert","363","822720","0.0-363.0","1rst85k5","","","","","","","",""
"","","","call-function","364","822721","0.0-364.0","1rst85k5","","","","","","","",""
"null","","","html-keyboard-response","365","824225","0.0-365.0","1rst85k5","","<span style=""color:Black; font-size:50px;"">Agent A","null","","","","",""
"null","","","video-keyboard-response","366","826850","0.0-366.0","1rst85k5","","","null","","Agent A","veridical","FOR_REV_MAP_BLOBBY_STIM/1159874.bmp_pp96_L2_V1.0_veridical_freeview_isoTrue_fps144.mp4",""
"null","","","html-keyboard-response","367","828355","0.0-367.0","1rst85k5","","<span style=""color:Black; font-size:50px;"">Agent B","null","","","","",""
"null","","","video-keyboard-response","368","830955","0.0-368.0","1rst85k5","","","null","","Agent B","scrambled","FOR_REV_MAP_BLOBBY_STIM/1159874.bmp_pp96_L2_V1.0_veridical_freeview_isoTrue_fps144_reversed_REAL.mp4",""
"","","","call-function","369","830956","0.0-369.0","1rst85k5","","","","","","","",""
"3415.8649999999907","{""judgement"":1}","[0]","survey-likert","370","834373","0.0-370.0","1rst85k5","","","","","","","","0"
"1206.8000000000466","{""confidence"":1}","[0]","survey-likert","371","835582","0.0-371.0","1rst85k5","","","","","","","",""
"","","","call-function","372","835583","0.0-372.0","1rst85k5","","","","","","","",""
"null","","","html-keyboard-response","373","837085","0.0-373.0","1rst85k5","","<span style=""color:Black; font-size:50px;"">Agent A","null","","","","",""
"null","","","video-keyboard-response","374","839876","0.0-374.0","1rst85k5","","","null","","Agent A","veridical","FOR_REV_MAP_BLOBBY_STIM/713274.bmp_pp73_L3_V1.0_veridical_freeview_isoTrue_fps144.mp4",""
"null","","","html-keyboard-response","375","841378","0.0-375.0","1rst85k5","","<span style=""color:Black; font-size:50px;"">Agent B","null","","","","",""
"null","","","video-keyboard-response","376","844170","0.0-376.0","1rst85k5","","","null","","Agent B","scrambled","FOR_REV_MAP_BLOBBY_STIM/713274.bmp_pp73_L3_V1.0_veridical_freeview_isoTrue_fps144_reversed_REAL.mp4",""
"","","","call-function","377","844171","0.0-377.0","1rst85k5","","","","","","","",""
"2579.7900000000373","{""judgement"":0}","[0]","survey-likert","378","846752","0.0-378.0","1rst85k5","","","","","","","","0"
"2818.9799999999814","{""confidence"":1}","[0]","survey-likert","379","849572","0.0-379.0","1rst85k5","","","","","","","",""
"","","","call-function","380","849572","0.0-380.0","1rst85k5","","","","","","","",""
"null","","","html-keyboard-response","381","851075","0.0-381.0","1rst85k5","","<span style=""color:Black; font-size:50px;"">Agent A","null","","","","",""
"null","","","video-keyboard-response","382","853803","0.0-382.0","1rst85k5","","","null","","Agent A","veridical","FOR_REV_MAP_BLOBBY_STIM/1159956.bmp_pp59_L3_V1.0_veridical_freeview_isoTrue_fps144.mp4",""
"null","","","html-keyboard-response","383","855307","0.0-383.0","1rst85k5","","<span style=""color:Black; font-size:50px;"">Agent B","null","","","","",""
"null","","","video-keyboard-response","384","858035","0.0-384.0","1rst85k5","","","null","","Agent B","scrambled","FOR_REV_MAP_BLOBBY_STIM/1159956.bmp_pp59_L3_V1.0_veridical_freeview_isoTrue_fps144_reversed_REAL.mp4",""
"","","","call-function","385","858035","0.0-385.0","1rst85k5","","","","","","","",""
"2970.1300000000047","{""judgement"":1}","[0]","survey-likert","386","861006","0.0-386.0","1rst85k5","","","","","","","","0"
"1613.1300000000047","{""confidence"":1}","[0]","survey-likert","387","862621","0.0-387.0","1rst85k5","","","","","","","",""
"","","","call-function","388","862621","0.0-388.0","1rst85k5","","","","","","","",""
"null","","","html-keyboard-response","389","864123","0.0-389.0","1rst85k5","","<span style=""color:Black; font-size:50px;"">Agent A","null","","","","",""
"null","","","video-keyboard-response","390","866986","0.0-390.0","1rst85k5","","","null","","Agent A","veridical","FOR_REV_MAP_BLOBBY_STIM/498326.bmp_pp57_L1_V1.0_veridical_freeview_isoTrue_fps144.mp4",""
"null","","","html-keyboard-response","391","868493","0.0-391.0","1rst85k5","","<span style=""color:Black; font-size:50px;"">Agent B","null","","","","",""
"null","","","video-keyboard-response","392","871347","0.0-392.0","1rst85k5","","","null","","Agent B","scrambled","FOR_REV_MAP_BLOBBY_STIM/498326.bmp_pp57_L1_V1.0_veridical_freeview_isoTrue_fps144_reversed_REAL.mp4",""
"","","","call-function","393","871347","0.0-393.0","1rst85k5","","","","","","","",""
"2492.3099999999395","{""judgement"":1}","[0]","survey-likert","394","873841","0.0-394.0","1rst85k5","","","","","","","","0"
"1085.9349999999395","{""confidence"":1}","[0]","survey-likert","395","874927","0.0-395.0","1rst85k5","","","","","","","",""
"","","","call-function","396","874928","0.0-396.0","1rst85k5","","","","","","","",""
"null","","","html-keyboard-response","397","876431","0.0-397.0","1rst85k5","","<span style=""color:Black; font-size:50px;"">Agent A","null","","","","",""
"null","","","video-keyboard-response","398","879131","0.0-398.0","1rst85k5","","","null","","Agent A","veridical","FOR_REV_MAP_BLOBBY_STIM/713858.bmp_pp57_L1_V1.0_veridical_freeview_isoTrue_fps144.mp4",""
"null","","","html-keyboard-response","399","880634","0.0-399.0","1rst85k5","","<span style=""color:Black; font-size:50px;"">Agent B","null","","","","",""
"null","","","video-keyboard-response","400","883334","0.0-400.0","1rst85k5","","","null","","Agent B","scrambled","FOR_REV_MAP_BLOBBY_STIM/713858.bmp_pp57_L1_V1.0_veridical_freeview_isoTrue_fps144_reversed_REAL.mp4",""
"","","","call-function","401","883334","0.0-401.0","1rst85k5","","","","","","","",""
"2188.5849999999627","{""judgement"":0}","[0]","survey-likert","402","885524","0.0-402.0","1rst85k5","","","","","","","","0"
"1981.25","{""confidence"":1}","[0]","survey-likert","403","887506","0.0-403.0","1rst85k5","","","","","","","",""
"","","","call-function","404","887506","0.0-404.0","1rst85k5","","","","","","","",""
"null","","","html-keyboard-response","405","889013","0.0-405.0","1rst85k5","","<span style=""color:Black; font-size:50px;"">Agent A","null","","","","",""
"null","","","video-keyboard-response","406","891789","0.0-406.0","1rst85k5","","","null","","Agent A","veridical","FOR_REV_MAP_BLOBBY_STIM/150463.bmp_pp55_L3_V1.0_veridical_freeview_isoTrue_fps144.mp4",""
"null","","","html-keyboard-response","407","893295","0.0-407.0","1rst85k5","","<span style=""color:Black; font-size:50px;"">Agent B","null","","","","",""
"null","","","video-keyboard-response","408","896072","0.0-408.0","1rst85k5","","","null","","Agent B","scrambled","FOR_REV_MAP_BLOBBY_STIM/150463.bmp_pp55_L3_V1.0_veridical_freeview_isoTrue_fps144_reversed_REAL.mp4",""
"","","","call-function","409","896072","0.0-409.0","1rst85k5","","","","","","","",""
"2512.8850000000093","{""judgement"":0}","[0]","survey-likert","410","898586","0.0-410.0","1rst85k5","","","","","","","","0"
"2739.42499999993","{""confidence"":1}","[0]","survey-likert","411","901327","0.0-411.0","1rst85k5","","","","","","","",""
"","","","call-function","412","901328","0.0-412.0","1rst85k5","","","","","","","",""
"null","","","html-keyboard-response","413","902830","0.0-413.0","1rst85k5","","<span style=""color:Black; font-size:50px;"">Agent A","null","","","","",""
"null","","","video-keyboard-response","414","905394","0.0-414.0","1rst85k5","","","null","","Agent A","scrambled","FOR_REV_MAP_BLOBBY_STIM/498398.bmp_pp81_L1_V1.0_veridical_freeview_isoTrue_fps144_reversed_REAL.mp4",""
"null","","","html-keyboard-response","415","906901","0.0-415.0","1rst85k5","","<span style=""color:Black; font-size:50px;"">Agent B","null","","","","",""
"null","","","video-keyboard-response","416","909463","0.0-416.0","1rst85k5","","","null","","Agent B","veridical","FOR_REV_MAP_BLOBBY_STIM/498398.bmp_pp81_L1_V1.0_veridical_freeview_isoTrue_fps144.mp4",""
"","","","call-function","417","909464","0.0-417.0","1rst85k5","","","","","","","",""
"3822.1450000000186","{""judgement"":1}","[0]","survey-likert","418","913287","0.0-418.0","1rst85k5","","","","","","","","1"
"2434.8499999999767","{""confidence"":0}","[0]","survey-likert","419","915723","0.0-419.0","1rst85k5","","","","","","","",""
"12512.875","","","instructions","420","928236","0.0-420.0","1rst85k5","[{""page_index"":0,""viewing_time"":2366.545000000042},{""page_index"":1,""viewing_time"":9288.204999999958},{""page_index"":2,""viewing_time"":857.9549999999581}]","","","","","","",""
"2999.3649999999907","","","instructions","421","931237","0.0-421.0","1rst85k5","[{""page_index"":0,""viewing_time"":1347.1800000000512},{""page_index"":1,""viewing_time"":886.8049999999348},{""page_index"":2,""viewing_time"":765.2199999999721}]","","","","","","",""
"","","","call-function","422","931239","0.0-422.0","1rst85k5","","","","","","","",""
"null","","","html-keyboard-response","423","932740","0.0-423.0","1rst85k5","","<span style=""color:Black; font-size:50px;"">Agent A","null","","","","",""
"null","","","video-keyboard-response","424","935585","0.0-424.0","1rst85k5","","","null","","Agent A","scrambled","FOR_REV_MAP_BLOBBY_STIM/1592201.bmp_pp97_L3_V1.0_veridical_freeview_isoTrue_fps144_reversed_REAL.mp4",""
"null","","","html-keyboard-response","425","937089","0.0-425.0","1rst85k5","","<span style=""color:Black; font-size:50px;"">Agent B","null","","","","",""
"null","","","video-keyboard-response","426","939934","0.0-426.0","1rst85k5","","","null","","Agent B","veridical","FOR_REV_MAP_BLOBBY_STIM/1592201.bmp_pp97_L3_V1.0_veridical_freeview_isoTrue_fps144.mp4",""
"","","","call-function","427","939935","0.0-427.0","1rst85k5","","","","","","","",""
"2061.3600000001024","{""judgement"":1}","[0]","survey-likert","428","941997","0.0-428.0","1rst85k5","","","","","","","","1"
"2253.7449999999953","{""confidence"":1}","[0]","survey-likert","429","944252","0.0-429.0","1rst85k5","","","","","","","",""
"","","","call-function","430","944253","0.0-430.0","1rst85k5","","","","","","","",""
"null","","","html-keyboard-response","431","945759","0.0-431.0","1rst85k5","","<span style=""color:Black; font-size:50px;"">Agent A","null","","","","",""
"null","","","video-keyboard-response","432","948509","0.0-432.0","1rst85k5","","","null","","Agent A","scrambled","FOR_REV_MAP_BLOBBY_STIM/1159325.bmp_pp67_L2_V1.0_veridical_freeview_isoTrue_fps144_reversed_REAL.mp4",""
"null","","","html-keyboard-response","433","950010","0.0-433.0","1rst85k5","","<span style=""color:Black; font-size:50px;"">Agent B","null","","","","",""
"null","","","video-keyboard-response","434","952759","0.0-434.0","1rst85k5","","","null","","Agent B","veridical","FOR_REV_MAP_BLOBBY_STIM/1159325.bmp_pp67_L2_V1.0_veridical_freeview_isoTrue_fps144.mp4",""
"","","","call-function","435","952759","0.0-435.0","1rst85k5","","","","","","","",""
"2816.890000000014","{""judgement"":1}","[0]","survey-likert","436","955577","0.0-436.0","1rst85k5","","","","","","","","1"
"1898.6149999999907","{""confidence"":1}","[0]","survey-likert","437","957477","0.0-437.0","1rst85k5","","","","","","","",""
"","","","call-function","438","957477","0.0-438.0","1rst85k5","","","","","","","",""
"null","","","html-keyboard-response","439","958980","0.0-439.0","1rst85k5","","<span style=""color:Black; font-size:50px;"">Agent A","null","","","","",""
"null","","","video-keyboard-response","440","961820","0.0-440.0","1rst85k5","","","null","","Agent A","veridical","FOR_REV_MAP_BLOBBY_STIM/713381.bmp_pp82_L2_V1.0_veridical_freeview_isoTrue_fps144.mp4",""
"null","","","html-keyboard-response","441","963322","0.0-441.0","1rst85k5","","<span style=""color:Black; font-size:50px;"">Agent B","null","","","","",""
"null","","","video-keyboard-response","442","966148","0.0-442.0","1rst85k5","","","null","","Agent B","scrambled","FOR_REV_MAP_BLOBBY_STIM/713381.bmp_pp82_L2_V1.0_veridical_freeview_isoTrue_fps144_reversed_REAL.mp4",""
"","","","call-function","443","966149","0.0-443.0","1rst85k5","","","","","","","",""
"1573.4899999999907","{""judgement"":0}","[0]","survey-likert","444","967723","0.0-444.0","1rst85k5","","","","","","","","0"
"1351.3400000000838","{""confidence"":1}","[0]","survey-likert","445","969075","0.0-445.0","1rst85k5","","","","","","","",""
"","","","call-function","446","969076","0.0-446.0","1rst85k5","","","","","","","",""
"null","","","html-keyboard-response","447","970578","0.0-447.0","1rst85k5","","<span style=""color:Black; font-size:50px;"">Agent A","null","","","","",""
"null","","","video-keyboard-response","448","973370","0.0-448.0","1rst85k5","","","null","","Agent A","veridical","FOR_REV_MAP_BLOBBY_STIM/1592567.bmp_pp70_L2_V1.0_veridical_freeview_isoTrue_fps144.mp4",""
"null","","","html-keyboard-response","449","974876","0.0-449.0","1rst85k5","","<span style=""color:Black; font-size:50px;"">Agent B","null","","","","",""
"null","","","video-keyboard-response","450","977666","0.0-450.0","1rst85k5","","","null","","Agent B","scrambled","FOR_REV_MAP_BLOBBY_STIM/1592567.bmp_pp70_L2_V1.0_veridical_freeview_isoTrue_fps144_reversed_REAL.mp4",""
"","","","call-function","451","977666","0.0-451.0","1rst85k5","","","","","","","",""
"2864.3600000001024","{""judgement"":0}","[0]","survey-likert","452","980532","0.0-452.0","1rst85k5","","","","","","","","0"
"7571.204999999958","{""confidence"":1}","[0]","survey-likert","453","988104","0.0-453.0","1rst85k5","","","","","","","",""
"","","","call-function","454","988104","0.0-454.0","1rst85k5","","","","","","","",""
"null","","","html-keyboard-response","455","989607","0.0-455.0","1rst85k5","","<span style=""color:Black; font-size:50px;"">Agent A","null","","","","",""
"null","","","video-keyboard-response","456","992431","0.0-456.0","1rst85k5","","","null","","Agent A","scrambled","FOR_REV_MAP_BLOBBY_STIM/1159508.bmp_pp151_L1_V1.0_veridical_freeview_isoTrue_fps144_reversed_REAL.mp4",""
"null","","","html-keyboard-response","457","993937","0.0-457.0","1rst85k5","","<span style=""color:Black; font-size:50px;"">Agent B","null","","","","",""
"null","","","video-keyboard-response","458","996759","0.0-458.0","1rst85k5","","","null","","Agent B","veridical","FOR_REV_MAP_BLOBBY_STIM/1159508.bmp_pp151_L1_V1.0_veridical_freeview_isoTrue_fps144.mp4",""
"","","","call-function","459","996760","0.0-459.0","1rst85k5","","","","","","","",""
"1766.8800000000047","{""judgement"":1}","[0]","survey-likert","460","998528","0.0-460.0","1rst85k5","","","","","","","","1"
"2031.8500000000931","{""confidence"":2}","[0]","survey-likert","461","1000561","0.0-461.0","1rst85k5","","","","","","","",""
"","","","call-function","462","1000561","0.0-462.0","1rst85k5","","","","","","","",""
"null","","","html-keyboard-response","463","1002063","0.0-463.0","1rst85k5","","<span style=""color:Black; font-size:50px;"">Agent A","null","","","","",""
"null","","","video-keyboard-response","464","1004856","0.0-464.0","1rst85k5","","","null","","Agent A","scrambled","FOR_REV_MAP_BLOBBY_STIM/1592298.bmp_pp56_L3_V1.0_veridical_freeview_isoTrue_fps144_reversed_REAL.mp4",""
"null","","","html-keyboard-response","465","1006361","0.0-465.0","1rst85k5","","<span style=""color:Black; font-size:50px;"">Agent B","null","","","","",""
"null","","","video-keyboard-response","466","1009132","0.0-466.0","1rst85k5","","","null","","Agent B","veridical","FOR_REV_MAP_BLOBBY_STIM/1592298.bmp_pp56_L3_V1.0_veridical_freeview_isoTrue_fps144.mp4",""
"","","","call-function","467","1009132","0.0-467.0","1rst85k5","","","","","","","",""
"1587.3150000000605","{""judgement"":1}","[0]","survey-likert","468","1010720","0.0-468.0","1rst85k5","","","","","","","","1"
"1821.4600000000792","{""confidence"":1}","[0]","survey-likert","469","1012543","0.0-469.0","1rst85k5","","","","","","","",""
"","","","call-function","470","1012543","0.0-470.0","1rst85k5","","","","","","","",""
"null","","","html-keyboard-response","471","1014049","0.0-471.0","1rst85k5","","<span style=""color:Black; font-size:50px;"">Agent A","null","","","","",""
"null","","","video-keyboard-response","472","1016732","0.0-472.0","1rst85k5","","","null","","Agent A","veridical","FOR_REV_MAP_BLOBBY_STIM/61513.bmp_pp75_L1_V1.0_veridical_freeview_isoTrue_fps144.mp4",""
"null","","","html-keyboard-response","473","1018236","0.0-473.0","1rst85k5","","<span style=""color:Black; font-size:50px;"">Agent B","null","","","","",""
"null","","","video-keyboard-response","474","1020901","0.0-474.0","1rst85k5","","","null","","Agent B","scrambled","FOR_REV_MAP_BLOBBY_STIM/61513.bmp_pp75_L1_V1.0_veridical_freeview_isoTrue_fps144_reversed_REAL.mp4",""
"","","","call-function","475","1020902","0.0-475.0","1rst85k5","","","","","","","",""
"2488.179999999935","{""judgement"":1}","[0]","survey-likert","476","1023391","0.0-476.0","1rst85k5","","","","","","","","0"
"1593.2399999999907","{""confidence"":0}","[0]","survey-likert","477","1024985","0.0-477.0","1rst85k5","","","","","","","",""
"","","","call-function","478","1024985","0.0-478.0","1rst85k5","","","","","","","",""
"null","","","html-keyboard-response","479","1026490","0.0-479.0","1rst85k5","","<span style=""color:Black; font-size:50px;"">Agent A","null","","","","",""
"null","","","video-keyboard-response","480","1029304","0.0-480.0","1rst85k5","","","null","","Agent A","veridical","FOR_REV_MAP_BLOBBY_STIM/1591781.bmp_pp63_L1_V1.0_veridical_freeview_isoTrue_fps144.mp4",""
"null","","","html-keyboard-response","481","1030811","0.0-481.0","1rst85k5","","<span style=""color:Black; font-size:50px;"">Agent B","null","","","","",""
"null","","","video-keyboard-response","482","1033602","0.0-482.0","1rst85k5","","","null","","Agent B","scrambled","FOR_REV_MAP_BLOBBY_STIM/1591781.bmp_pp63_L1_V1.0_veridical_freeview_isoTrue_fps144_reversed_REAL.mp4",""
"","","","call-function","483","1033603","0.0-483.0","1rst85k5","","","","","","","",""
"3473.29999999993","{""judgement"":0}","[0]","survey-likert","484","1037078","0.0-484.0","1rst85k5","","","","","","","","0"
"1571.5100000000093","{""confidence"":0}","[0]","survey-likert","485","1038652","0.0-485.0","1rst85k5","","","","","","","",""
"","","","call-function","486","1038653","0.0-486.0","1rst85k5","","","","","","","",""
"null","","","html-keyboard-response","487","1040156","0.0-487.0","1rst85k5","","<span style=""color:Black; font-size:50px;"">Agent A","null","","","","",""
"null","","","video-keyboard-response","488","1042910","0.0-488.0","1rst85k5","","","null","","Agent A","veridical","FOR_REV_MAP_BLOBBY_STIM/1592047.bmp_pp51_L1_V1.0_veridical_freeview_isoTrue_fps144.mp4",""
"null","","","html-keyboard-response","489","1044415","0.0-489.0","1rst85k5","","<span style=""color:Black; font-size:50px;"">Agent B","null","","","","",""
"null","","","video-keyboard-response","490","1047173","0.0-490.0","1rst85k5","","","null","","Agent B","scrambled","FOR_REV_MAP_BLOBBY_STIM/1592047.bmp_pp51_L1_V1.0_veridical_freeview_isoTrue_fps144_reversed_REAL.mp4",""
"","","","call-function","491","1047174","0.0-491.0","1rst85k5","","","","","","","",""
"1839.0599999999395","{""judgement"":1}","[0]","survey-likert","492","1049014","0.0-492.0","1rst85k5","","","","","","","","0"
"2179.0849999999627","{""confidence"":1}","[0]","survey-likert","493","1051194","0.0-493.0","1rst85k5","","","","","","","",""
"","","","call-function","494","1051195","0.0-494.0","1rst85k5","","","","","","","",""
"null","","","html-keyboard-response","495","1052699","0.0-495.0","1rst85k5","","<span style=""color:Black; font-size:50px;"">Agent A","null","","","","",""
"null","","","video-keyboard-response","496","1055376","0.0-496.0","1rst85k5","","","null","","Agent A","veridical","FOR_REV_MAP_BLOBBY_STIM/1592038.bmp_pp79_L2_V1.0_veridical_freeview_isoTrue_fps144.mp4",""
"null","","","html-keyboard-response","497","1056878","0.0-497.0","1rst85k5","","<span style=""color:Black; font-size:50px;"">Agent B","null","","","","",""
"null","","","video-keyboard-response","498","1059560","0.0-498.0","1rst85k5","","","null","","Agent B","scrambled","FOR_REV_MAP_BLOBBY_STIM/1592038.bmp_pp79_L2_V1.0_veridical_freeview_isoTrue_fps144_reversed_REAL.mp4",""
"","","","call-function","499","1059560","0.0-499.0","1rst85k5","","","","","","","",""
"2787.840000000084","{""judgement"":0}","[0]","survey-likert","500","1062349","0.0-500.0","1rst85k5","","","","","","","","0"
"1507.1799999999348","{""confidence"":1}","[0]","survey-likert","501","1063857","0.0-501.0","1rst85k5","","","","","","","",""
"15151.22499999986","","","instructions","502","1079009","0.0-502.0","1rst85k5","[{""page_index"":0,""viewing_time"":2163.594999999972},{""page_index"":1,""viewing_time"":927.5349999999162},{""page_index"":2,""viewing_time"":12059.939999999944}]","","","","","","",""
"2753.304999999935","","","instructions","503","1081763","0.0-503.0","1rst85k5","[{""page_index"":0,""viewing_time"":831.5450000001583},{""page_index"":1,""viewing_time"":833.9899999999907},{""page_index"":2,""viewing_time"":1087.469999999972}]","","","","","","",""
"","","","call-function","504","1081763","0.0-504.0","1rst85k5","","","","","","","",""
"null","","","html-keyboard-response","505","1083267","0.0-505.0","1rst85k5","","<span style=""color:Black; font-size:50px;"">Agent A","null","","","","",""
"null","","","video-keyboard-response","506","1086109","0.0-506.0","1rst85k5","","","null","","Agent A","veridical","FOR_REV_MAP_BLOBBY_STIM/1592857.bmp_pp52_L1_V1.0_veridical_freeview_isoTrue_fps144.mp4",""
"null","","","html-keyboard-response","507","1087614","0.0-507.0","1rst85k5","","<span style=""color:Black; font-size:50px;"">Agent B","null","","","","",""
"null","","","video-keyboard-response","508","1090444","0.0-508.0","1rst85k5","","","null","","Agent B","scrambled","FOR_REV_MAP_BLOBBY_STIM/1592857.bmp_pp52_L1_V1.0_veridical_freeview_isoTrue_fps144_reversed_REAL.mp4",""
"","","","call-function","509","1090444","0.0-509.0","1rst85k5","","","","","","","",""
"1946.8500000000931","{""judgement"":1}","[0]","survey-likert","510","1092392","0.0-510.0","1rst85k5","","","","","","","","0"
"1608.0999999998603","{""confidence"":1}","[0]","survey-likert","511","1094001","0.0-511.0","1rst85k5","","","","","","","",""
"","","","call-function","512","1094001","0.0-512.0","1rst85k5","","","","","","","",""
"null","","","html-keyboard-response","513","1095503","0.0-513.0","1rst85k5","","<span style=""color:Black; font-size:50px;"">Agent A","null","","","","",""
"null","","","video-keyboard-response","514","1098309","0.0-514.0","1rst85k5","","","null","","Agent A","scrambled","FOR_REV_MAP_BLOBBY_STIM/107909.bmp_pp95_L2_V1.0_veridical_freeview_isoTrue_fps144_reversed_REAL.mp4",""
"null","","","html-keyboard-response","515","1099811","0.0-515.0","1rst85k5","","<span style=""color:Black; font-size:50px;"">Agent B","null","","","","",""
"null","","","video-keyboard-response","516","1102616","0.0-516.0","1rst85k5","","","null","","Agent B","veridical","FOR_REV_MAP_BLOBBY_STIM/107909.bmp_pp95_L2_V1.0_veridical_freeview_isoTrue_fps144.mp4",""
"","","","call-function","517","1102616","0.0-517.0","1rst85k5","","","","","","","",""
"2514.179999999935","{""judgement"":0}","[0]","survey-likert","518","1105131","0.0-518.0","1rst85k5","","","","","","","","1"
"1084.5749999999534","{""confidence"":1}","[0]","survey-likert","519","1106217","0.0-519.0","1rst85k5","","","","","","","",""
"","","","call-function","520","1106217","0.0-520.0","1rst85k5","","","","","","","",""
"null","","","html-keyboard-response","521","1107723","0.0-521.0","1rst85k5","","<span style=""color:Black; font-size:50px;"">Agent A","null","","","","",""
"null","","","video-keyboard-response","522","1110560","0.0-522.0","1rst85k5","","","null","","Agent A","scrambled","FOR_REV_MAP_BLOBBY_STIM/498396.bmp_pp99_L2_V1.0_veridical_freeview_isoTrue_fps144_reversed_REAL.mp4",""
"null","","","html-keyboard-response","523","1112064","0.0-523.0","1rst85k5","","<span style=""color:Black; font-size:50px;"">Agent B","null","","","","",""
"null","","","video-keyboard-response","524","1114904","0.0-524.0","1rst85k5","","","null","","Agent B","veridical","FOR_REV_MAP_BLOBBY_STIM/498396.bmp_pp99_L2_V1.0_veridical_freeview_isoTrue_fps144.mp4",""
"","","","call-function","525","1114905","0.0-525.0","1rst85k5","","","","","","","",""
"2072.2700000000186","{""judgement"":1}","[0]","survey-likert","526","1116978","0.0-526.0","1rst85k5","","","","","","","","1"
"1134.5999999998603","{""confidence"":1}","[0]","survey-likert","527","1118113","0.0-527.0","1rst85k5","","","","","","","",""
"","","","call-function","528","1118114","0.0-528.0","1rst85k5","","","","","","","",""
"null","","","html-keyboard-response","529","1119620","0.0-529.0","1rst85k5","","<span style=""color:Black; font-size:50px;"">Agent A","null","","","","",""
"null","","","video-keyboard-response","530","1122475","0.0-530.0","1rst85k5","","","null","","Agent A","veridical","FOR_REV_MAP_BLOBBY_STIM/1160189.bmp_pp64_L1_V1.0_veridical_freeview_isoTrue_fps144.mp4",""
"null","","","html-keyboard-response","531","1123977","0.0-531.0","1rst85k5","","<span style=""color:Black; font-size:50px;"">Agent B","null","","","","",""
"null","","","video-keyboard-response","532","1126826","0.0-532.0","1rst85k5","","","null","","Agent B","scrambled","FOR_REV_MAP_BLOBBY_STIM/1160189.bmp_pp64_L1_V1.0_veridical_freeview_isoTrue_fps144_reversed_REAL.mp4",""
"","","","call-function","533","1126827","0.0-533.0","1rst85k5","","","","","","","",""
"4131.385000000009","{""judgement"":0}","[0]","survey-likert","534","1130959","0.0-534.0","1rst85k5","","","","","","","","0"
"2123.280000000028","{""confidence"":1}","[0]","survey-likert","535","1133083","0.0-535.0","1rst85k5","","","","","","","",""
"","","","call-function","536","1133084","0.0-536.0","1rst85k5","","","","","","","",""
"null","","","html-keyboard-response","537","1134588","0.0-537.0","1rst85k5","","<span style=""color:Black; font-size:50px;"">Agent A","null","","","","",""
"null","","","video-keyboard-response","538","1137371","0.0-538.0","1rst85k5","","","null","","Agent A","scrambled","FOR_REV_MAP_BLOBBY_STIM/498372.bmp_pp95_L2_V1.0_veridical_freeview_isoTrue_fps144_reversed_REAL.mp4",""
"null","","","html-keyboard-response","539","1138875","0.0-539.0","1rst85k5","","<span style=""color:Black; font-size:50px;"">Agent B","null","","","","",""
"null","","","video-keyboard-response","540","1141655","0.0-540.0","1rst85k5","","","null","","Agent B","veridical","FOR_REV_MAP_BLOBBY_STIM/498372.bmp_pp95_L2_V1.0_veridical_freeview_isoTrue_fps144.mp4",""
"","","","call-function","541","1141656","0.0-541.0","1rst85k5","","","","","","","",""
"3514.689999999944","{""judgement"":1}","[0]","survey-likert","542","1145171","0.0-542.0","1rst85k5","","","","","","","","1"
"5938.429999999935","{""confidence"":1}","[0]","survey-likert","543","1151111","0.0-543.0","1rst85k5","","","","","","","",""
"","","","call-function","544","1151111","0.0-544.0","1rst85k5","","","","","","","",""
"null","","","html-keyboard-response","545","1152613","0.0-545.0","1rst85k5","","<span style=""color:Black; font-size:50px;"">Agent A","null","","","","",""
"null","","","video-keyboard-response","546","1155388","0.0-546.0","1rst85k5","","","null","","Agent A","veridical","FOR_REV_MAP_BLOBBY_STIM/1592129.bmp_pp153_L3_V1.0_veridical_freeview_isoTrue_fps144.mp4",""
"null","","","html-keyboard-response","547","1156893","0.0-547.0","1rst85k5","","<span style=""color:Black; font-size:50px;"">Agent B","null","","","","",""
"null","","","video-keyboard-response","548","1159661","0.0-548.0","1rst85k5","","","null","","Agent B","scrambled","FOR_REV_MAP_BLOBBY_STIM/1592129.bmp_pp153_L3_V1.0_veridical_freeview_isoTrue_fps144_reversed_REAL.mp4",""
"","","","call-function","549","1159661","0.0-549.0","1rst85k5","","","","","","","",""
"2125.5149999998976","{""judgement"":0}","[0]","survey-likert","550","1161788","0.0-550.0","1rst85k5","","","","","","","","0"
"1561.5400000000373","{""confidence"":2}","[0]","survey-likert","551","1163352","0.0-551.0","1rst85k5","","","","","","","",""
"","","","call-function","552","1163354","0.0-552.0","1rst85k5","","","","","","","",""
"null","","","html-keyboard-response","553","1164857","0.0-553.0","1rst85k5","","<span style=""color:Black; font-size:50px;"">Agent A","null","","","","",""
"null","","","video-keyboard-response","554","1167654","0.0-554.0","1rst85k5","","","null","","Agent A","scrambled","FOR_REV_MAP_BLOBBY_STIM/1592921.bmp_pp69_L3_V1.0_veridical_freeview_isoTrue_fps144_reversed_REAL.mp4",""
"null","","","html-keyboard-response","555","1169156","0.0-555.0","1rst85k5","","<span style=""color:Black; font-size:50px;"">Agent B","null","","","","",""
"null","","","video-keyboard-response","556","1171953","0.0-556.0","1rst85k5","","","null","","Agent B","veridical","FOR_REV_MAP_BLOBBY_STIM/1592921.bmp_pp69_L3_V1.0_veridical_freeview_isoTrue_fps144.mp4",""
"","","","call-function","557","1171954","0.0-557.0","1rst85k5","","","","","","","",""
"2019.380000000121","{""judgement"":0}","[0]","survey-likert","558","1173974","0.0-558.0","1rst85k5","","","","","","","","1"
"1544.2549999998882","{""confidence"":1}","[0]","survey-likert","559","1175520","0.0-559.0","1rst85k5","","","","","","","",""
"","","","call-function","560","1175520","0.0-560.0","1rst85k5","","","","","","","",""
"null","","","html-keyboard-response","561","1177023","0.0-561.0","1rst85k5","","<span style=""color:Black; font-size:50px;"">Agent A","null","","","","",""
"null","","","video-keyboard-response","562","1179752","0.0-562.0","1rst85k5","","","null","","Agent A","veridical","FOR_REV_MAP_BLOBBY_STIM/285959.bmp_pp93_L1_V1.0_veridical_freeview_isoTrue_fps144.mp4",""
"null","","","html-keyboard-response","563","1181255","0.0-563.0","1rst85k5","","<span style=""color:Black; font-size:50px;"">Agent B","null","","","","",""
"null","","","video-keyboard-response","564","1183984","0.0-564.0","1rst85k5","","","null","","Agent B","scrambled","FOR_REV_MAP_BLOBBY_STIM/285959.bmp_pp93_L1_V1.0_veridical_freeview_isoTrue_fps144_reversed_REAL.mp4",""
"","","","call-function","565","1183984","0.0-565.0","1rst85k5","","","","","","","",""
"2296.034999999916","{""judgement"":1}","[0]","survey-likert","566","1186281","0.0-566.0","1rst85k5","","","","","","","","0"
"1149.8199999998324","{""confidence"":1}","[0]","survey-likert","567","1187432","0.0-567.0","1rst85k5","","","","","","","",""
"","","","call-function","568","1187433","0.0-568.0","1rst85k5","","","","","","","",""
"null","","","html-keyboard-response","569","1188934","0.0-569.0","1rst85k5","","<span style=""color:Black; font-size:50px;"">Agent A","null","","","","",""
"null","","","video-keyboard-response","570","1191755","0.0-570.0","1rst85k5","","","null","","Agent A","veridical","FOR_REV_MAP_BLOBBY_STIM/498258.bmp_pp51_L1_V1.0_veridical_freeview_isoTrue_fps144.mp4",""
"null","","","html-keyboard-response","571","1193260","0.0-571.0","1rst85k5","","<span style=""color:Black; font-size:50px;"">Agent B","null","","","","",""
"null","","","video-keyboard-response","572","1196072","0.0-572.0","1rst85k5","","","null","","Agent B","scrambled","FOR_REV_MAP_BLOBBY_STIM/498258.bmp_pp51_L1_V1.0_veridical_freeview_isoTrue_fps144_reversed_REAL.mp4",""
"","","","call-function","573","1196072","0.0-573.0","1rst85k5","","","","","","","",""
"2341.9599999999627","{""judgement"":0}","[0]","survey-likert","574","1198415","0.0-574.0","1rst85k5","","","","","","","","0"
"1625.1000000000931","{""confidence"":1}","[0]","survey-likert","575","1200041","0.0-575.0","1rst85k5","","","","","","","",""
"","","","call-function","576","1200042","0.0-576.0","1rst85k5","","","","","","","",""
"null","","","html-keyboard-response","577","1201546","0.0-577.0","1rst85k5","","<span style=""color:Black; font-size:50px;"">Agent A","null","","","","",""
"null","","","video-keyboard-response","578","1204483","0.0-578.0","1rst85k5","","","null","","Agent A","scrambled","FOR_REV_MAP_BLOBBY_STIM/1592568.bmp_pp71_L1_V1.0_veridical_freeview_isoTrue_fps144_reversed_REAL.mp4",""
"null","","","html-keyboard-response","579","1205989","0.0-579.0","1rst85k5","","<span style=""color:Black; font-size:50px;"">Agent B","null","","","","",""
"null","","","video-keyboard-response","580","1208923","0.0-580.0","1rst85k5","","","null","","Agent B","veridical","FOR_REV_MAP_BLOBBY_STIM/1592568.bmp_pp71_L1_V1.0_veridical_freeview_isoTrue_fps144.mp4",""
"","","","call-function","581","1208923","0.0-581.0","1rst85k5","","","","","","","",""
"2397.189999999944","{""judgement"":1}","[0]","survey-likert","582","1211321","0.0-582.0","1rst85k5","","","","","","","","1"
"1336.5500000000466","{""confidence"":1}","[0]","survey-likert","583","1212659","0.0-583.0","1rst85k5","","","","","","","",""
"3360.505000000121","","","instructions","584","1216020","0.0-584.0","1rst85k5","[{""page_index"":0,""viewing_time"":3360.3649999999907}]","","","","","","",""
"3765.7600000000093","","","instructions","585","1219786","0.0-585.0","1rst85k5","[{""page_index"":0,""viewing_time"":3765.649999999907}]","","","","","","",""
"15189.76000000001","{""post-1"":1}","[0]","survey-likert","586","1234977","0.0-586.0","1rst85k5","","","","","","","",""
"4634.540000000037","{""post-1"":1}","[0]","survey-likert","587","1239613","0.0-587.0","1rst85k5","","","","","","","",""
"15362.270000000019","{""post-2"":2}","[0]","survey-likert","588","1254977","0.0-588.0","1rst85k5","","","","","","","",""
"4901.174999999814","{""post-2"":1}","[0]","survey-likert","589","1259880","0.0-589.0","1rst85k5","","","","","","","",""
"9830.905000000028","{""post-3"":2}","[0]","survey-likert","590","1269712","0.0-590.0","1rst85k5","","","","","","","",""
"2997.7600000000093","{""post-3"":1}","[0]","survey-likert","591","1272711","0.0-591.0","1rst85k5","","","","","","","",""
"12838.850000000093","{""post-4"":1}","[0]","survey-likert","592","1285552","0.0-592.0","1rst85k5","","","","","","","",""
"1396.6149999999907","{""post-4"":1}","[0]","survey-likert","593","1286951","0.0-593.0","1rst85k5","","","","","","","",""
"9136.804999999935","{""post-5"":1}","[0]","survey-likert","594","1296090","0.0-594.0","1rst85k5","","","","","","","",""
"2630.7649999998976","{""post-5"":2}","[0]","survey-likert","595","1298722","0.0-595.0","1rst85k5","","","","","","","",""
"69841.1549999998","{""Q0"":""I tended to judge the more human agents based on where I felt my attention would draw in general first. So I tended to pick the ones that started in the center first then went to other spots of the black screen""}","","survey-text","596","1368568","0.0-596.0","1rst85k5","","","","","","","",""
"62948.46499999985","{""Q0"":""I noticed that Agent B would just be looking in the opposite order of Agent A and I would go with whatever felt more natural, which tended to be the ones that start in the middle ""}","","survey-text","597","1431520","0.0-597.0","1rst85k5","","","","","","","",""
"26453.01000000001","{""Q0"":""I think the fuzzy spots made it more difficult to judge and the spots that would linger as well. ""}","","survey-text","598","1457978","0.0-598.0","1rst85k5","","","","","","","",""
"25268.299999999814","","","instructions","599","1483247","0.0-599.0","1rst85k5","[{""page_index"":0,""viewing_time"":25268.07999999984}]","","","","","","",""
"31213.469999999972","{""Experimenter_end"":[""Printed ID# 1rst85k5 on consent form"",""Given subject SONA credit or payment"",""Given the subject debrief form""]}","[0]","survey-multi-select","600","1514463","0.0-600.0","1rst85k5","","","","","","","",""
