"rt","responses","question_order","trial_type","trial_index","time_elapsed","internal_node_id","ID","view_history","stimulus","key_press","value","agent","condition","image","correct_answer"
"79991.975","{""Experimenter"":[""Confirmed subject's identity"",""Confirmed normal or corrected-to-normal vision"",""Obtained consent (signature and date)"",""Checked the test room lighting"",""Checked computer screen lighting"",""Checked distance from screen to chin rest (50cm)"",""Cleaned and adjusted chin rest"",""Counterbalanced the order of the tasks"",""Opened the experiment in Firefox"",""Made the experiment full screen"",""Encouraged subject to silence phone, put away distractors, etc.""]}","[0]","survey-multi-select","0","80000","0.0-0.0","23634kc7","","","","","","","",""
"35148.69500000001","","","instructions","1","115151","0.0-1.0","23634kc7","[{""page_index"":0,""viewing_time"":35148.535}]","","","","","","",""
"20387.770000000004","","","instructions","2","135539","0.0-2.0","23634kc7","[{""page_index"":0,""viewing_time"":12277.774999999994},{""page_index"":1,""viewing_time"":2448.0250000000087},{""page_index"":2,""viewing_time"":5661.845000000001}]","","","","","","",""
"2370.569999999978","","","instructions","3","137911","0.0-3.0","23634kc7","[{""page_index"":0,""viewing_time"":2370.459999999992}]","","","","","","",""
"null","","","video-keyboard-response","4","140987","0.0-4.0","23634kc7","","","null","","","","",""
"10193.39499999999","","","instructions","5","151181","0.0-5.0","23634kc7","[{""page_index"":0,""viewing_time"":2505.595000000001},{""page_index"":1,""viewing_time"":2728.485000000015},{""page_index"":2,""viewing_time"":4958.664999999979}]","","","","","","",""
"2244.149999999994","","","instructions","6","153427","0.0-6.0","23634kc7","[{""page_index"":0,""viewing_time"":2244.039999999979}]","","","","","","",""
"1061.8299999999872","","","instructions","7","154489","0.0-7.0","23634kc7","[{""page_index"":0,""viewing_time"":1061.7250000000058}]","","","","","","",""
"null","","","video-keyboard-response","8","157566","0.0-8.0","23634kc7","","","null","","","","",""
"14857.440000000002","","","instructions","9","172423","0.0-9.0","23634kc7","[{""page_index"":0,""viewing_time"":1143.4949999999953},{""page_index"":1,""viewing_time"":3009.725000000006},{""page_index"":2,""viewing_time"":10704.089999999997}]","","","","","","",""
"5663.470000000001","","","instructions","10","178087","0.0-10.0","23634kc7","[{""page_index"":0,""viewing_time"":5663.3550000000105}]","","","","","","",""
"","","","call-function","11","178088","0.0-11.0","23634kc7","","","","","","","",""
"null","","","html-keyboard-response","12","179595","0.0-12.0","23634kc7","","<span style=""color:Black; font-size:50px;"">Agent A","null","","","","",""
"null","","","video-keyboard-response","13","182166","0.0-13.0","23634kc7","","","null","","Agent A","scrambled","FOR_REV_MAP_BLOBBY_STIM/498398.bmp_pp81_L1_V1.0_veridical_freeview_isoTrue_fps144_reversed_REAL.mp4",""
"null","","","html-keyboard-response","14","183670","0.0-14.0","23634kc7","","<span style=""color:Black; font-size:50px;"">Agent B","null","","","","",""
"null","","","video-keyboard-response","15","186241","0.0-15.0","23634kc7","","","null","","Agent B","veridical","FOR_REV_MAP_BLOBBY_STIM/498398.bmp_pp81_L1_V1.0_veridical_freeview_isoTrue_fps144.mp4",""
"","","","call-function","16","186241","0.0-16.0","23634kc7","","","","","","","",""
"3077.7700000000186","{""judgement"":0}","[0]","survey-likert","17","189320","0.0-17.0","23634kc7","","","","","","","","1"
"3124.9949999999953","{""confidence"":1}","[0]","survey-likert","18","192447","0.0-18.0","23634kc7","","","","","","","",""
"","","","call-function","19","192447","0.0-19.0","23634kc7","","","","","","","",""
"null","","","html-keyboard-response","20","193948","0.0-20.0","23634kc7","","<span style=""color:Black; font-size:50px;"">Agent A","null","","","","",""
"null","","","video-keyboard-response","21","196751","0.0-21.0","23634kc7","","","null","","Agent A","veridical","FOR_REV_MAP_BLOBBY_STIM/713652.bmp_pp89_L1_V1.0_veridical_freeview_isoTrue_fps144.mp4",""
"null","","","html-keyboard-response","22","198257","0.0-22.0","23634kc7","","<span style=""color:Black; font-size:50px;"">Agent B","null","","","","",""
"null","","","video-keyboard-response","23","201073","0.0-23.0","23634kc7","","","null","","Agent B","scrambled","FOR_REV_MAP_BLOBBY_STIM/713652.bmp_pp89_L1_V1.0_veridical_freeview_isoTrue_fps144_reversed_REAL.mp4",""
"","","","call-function","24","201074","0.0-24.0","23634kc7","","","","","","","",""
"2510.194999999978","{""judgement"":0}","[0]","survey-likert","25","203585","0.0-25.0","23634kc7","","","","","","","","0"
"2623.445000000007","{""confidence"":2}","[0]","survey-likert","26","206210","0.0-26.0","23634kc7","","","","","","","",""
"","","","call-function","27","206211","0.0-27.0","23634kc7","","","","","","","",""
"null","","","html-keyboard-response","28","207713","0.0-28.0","23634kc7","","<span style=""color:Black; font-size:50px;"">Agent A","null","","","","",""
"null","","","video-keyboard-response","29","210512","0.0-29.0","23634kc7","","","null","","Agent A","scrambled","FOR_REV_MAP_BLOBBY_STIM/286034.bmp_pp69_L3_V1.0_veridical_freeview_isoTrue_fps144_reversed_REAL.mp4",""
"null","","","html-keyboard-response","30","212017","0.0-30.0","23634kc7","","<span style=""color:Black; font-size:50px;"">Agent B","null","","","","",""
"null","","","video-keyboard-response","31","214819","0.0-31.0","23634kc7","","","null","","Agent B","veridical","FOR_REV_MAP_BLOBBY_STIM/286034.bmp_pp69_L3_V1.0_veridical_freeview_isoTrue_fps144.mp4",""
"","","","call-function","32","214819","0.0-32.0","23634kc7","","","","","","","",""
"2337.2449999999953","{""judgement"":1}","[0]","survey-likert","33","217157","0.0-33.0","23634kc7","","","","","","","","1"
"2116.1199999999953","{""confidence"":1}","[0]","survey-likert","34","219275","0.0-34.0","23634kc7","","","","","","","",""
"","","","call-function","35","219275","0.0-35.0","23634kc7","","","","","","","",""
"null","","","html-keyboard-response","36","220780","0.0-36.0","23634kc7","","<span style=""color:Black; font-size:50px;"">Agent A","null","","","","",""
"null","","","video-keyboard-response","37","223594","0.0-37.0","23634kc7","","","null","","Agent A","veridical","FOR_REV_MAP_BLOBBY_STIM/1159508.bmp_pp151_L1_V1.0_veridical_freeview_isoTrue_fps144.mp4",""
"null","","","html-keyboard-response","38","225100","0.0-38.0","23634kc7","","<span style=""color:Black; font-size:50px;"">Agent B","null","","","","",""
"null","","","video-keyboard-response","39","227934","0.0-39.0","23634kc7","","","null","","Agent B","scrambled","FOR_REV_MAP_BLOBBY_STIM/1159508.bmp_pp151_L1_V1.0_veridical_freeview_isoTrue_fps144_reversed_REAL.mp4",""
"","","","call-function","40","227935","0.0-40.0","23634kc7","","","","","","","",""
"2440.0049999999756","{""judgement"":0}","[0]","survey-likert","41","230376","0.0-41.0","23634kc7","","","","","","","","0"
"1859.7200000000012","{""confidence"":0}","[0]","survey-likert","42","232237","0.0-42.0","23634kc7","","","","","","","",""
"","","","call-function","43","232237","0.0-43.0","23634kc7","","","","","","","",""
"null","","","html-keyboard-response","44","233739","0.0-44.0","23634kc7","","<span style=""color:Black; font-size:50px;"">Agent A","null","","","","",""
"null","","","video-keyboard-response","45","236509","0.0-45.0","23634kc7","","","null","","Agent A","scrambled","FOR_REV_MAP_BLOBBY_STIM/1592168.bmp_pp71_L1_V1.0_veridical_freeview_isoTrue_fps144_reversed_REAL.mp4",""
"null","","","html-keyboard-response","46","238012","0.0-46.0","23634kc7","","<span style=""color:Black; font-size:50px;"">Agent B","null","","","","",""
"null","","","video-keyboard-response","47","240785","0.0-47.0","23634kc7","","","null","","Agent B","veridical","FOR_REV_MAP_BLOBBY_STIM/1592168.bmp_pp71_L1_V1.0_veridical_freeview_isoTrue_fps144.mp4",""
"","","","call-function","48","240787","0.0-48.0","23634kc7","","","","","","","",""
"3341.404999999999","{""judgement"":1}","[0]","survey-likert","49","244129","0.0-49.0","23634kc7","","","","","","","","1"
"1570.8849999999802","{""confidence"":1}","[0]","survey-likert","50","245702","0.0-50.0","23634kc7","","","","","","","",""
"","","","call-function","51","245702","0.0-51.0","23634kc7","","","","","","","",""
"null","","","html-keyboard-response","52","247208","0.0-52.0","23634kc7","","<span style=""color:Black; font-size:50px;"">Agent A","null","","","","",""
"null","","","video-keyboard-response","53","249974","0.0-53.0","23634kc7","","","null","","Agent A","veridical","FOR_REV_MAP_BLOBBY_STIM/150463.bmp_pp55_L3_V1.0_veridical_freeview_isoTrue_fps144.mp4",""
"null","","","html-keyboard-response","54","251478","0.0-54.0","23634kc7","","<span style=""color:Black; font-size:50px;"">Agent B","null","","","","",""
"null","","","video-keyboard-response","55","254246","0.0-55.0","23634kc7","","","null","","Agent B","scrambled","FOR_REV_MAP_BLOBBY_STIM/150463.bmp_pp55_L3_V1.0_veridical_freeview_isoTrue_fps144_reversed_REAL.mp4",""
"","","","call-function","56","254246","0.0-56.0","23634kc7","","","","","","","",""
"2230.954999999987","{""judgement"":1}","[0]","survey-likert","57","256478","0.0-57.0","23634kc7","","","","","","","","0"
"1378.3800000000047","{""confidence"":2}","[0]","survey-likert","58","257858","0.0-58.0","23634kc7","","","","","","","",""
"","","","call-function","59","257859","0.0-59.0","23634kc7","","","","","","","",""
"null","","","html-keyboard-response","60","259363","0.0-60.0","23634kc7","","<span style=""color:Black; font-size:50px;"">Agent A","null","","","","",""
"null","","","video-keyboard-response","61","262154","0.0-61.0","23634kc7","","","null","","Agent A","scrambled","FOR_REV_MAP_BLOBBY_STIM/1159392.bmp_pp96_L2_V1.0_veridical_freeview_isoTrue_fps144_reversed_REAL.mp4",""
"null","","","html-keyboard-response","62","263660","0.0-62.0","23634kc7","","<span style=""color:Black; font-size:50px;"">Agent B","null","","","","",""
"null","","","video-keyboard-response","63","266453","0.0-63.0","23634kc7","","","null","","Agent B","veridical","FOR_REV_MAP_BLOBBY_STIM/1159392.bmp_pp96_L2_V1.0_veridical_freeview_isoTrue_fps144.mp4",""
"","","","call-function","64","266454","0.0-64.0","23634kc7","","","","","","","",""
"3079.734999999986","{""judgement"":0}","[0]","survey-likert","65","269534","0.0-65.0","23634kc7","","","","","","","","1"
"1215.695000000007","{""confidence"":1}","[0]","survey-likert","66","270751","0.0-66.0","23634kc7","","","","","","","",""
"","","","call-function","67","270752","0.0-67.0","23634kc7","","","","","","","",""
"null","","","html-keyboard-response","68","272252","0.0-68.0","23634kc7","","<span style=""color:Black; font-size:50px;"">Agent A","null","","","","",""
"null","","","video-keyboard-response","69","274688","0.0-69.0","23634kc7","","","null","","Agent A","scrambled","FOR_REV_MAP_BLOBBY_STIM/1592951.bmp_pp80_L3_V1.0_veridical_freeview_isoTrue_fps144_reversed_REAL.mp4",""
"null","","","html-keyboard-response","70","276193","0.0-70.0","23634kc7","","<span style=""color:Black; font-size:50px;"">Agent B","null","","","","",""
"null","","","video-keyboard-response","71","278624","0.0-71.0","23634kc7","","","null","","Agent B","veridical","FOR_REV_MAP_BLOBBY_STIM/1592951.bmp_pp80_L3_V1.0_veridical_freeview_isoTrue_fps144.mp4",""
"","","","call-function","72","278625","0.0-72.0","23634kc7","","","","","","","",""
"1976.039999999979","{""judgement"":1}","[0]","survey-likert","73","280602","0.0-73.0","23634kc7","","","","","","","","1"
"2046.1900000000023","{""confidence"":2}","[0]","survey-likert","74","282649","0.0-74.0","23634kc7","","","","","","","",""
"","","","call-function","75","282650","0.0-75.0","23634kc7","","","","","","","",""
"null","","","html-keyboard-response","76","284156","0.0-76.0","23634kc7","","<span style=""color:Black; font-size:50px;"">Agent A","null","","","","",""
"null","","","video-keyboard-response","77","286994","0.0-77.0","23634kc7","","","null","","Agent A","scrambled","FOR_REV_MAP_BLOBBY_STIM/1160204.bmp_pp54_L2_V1.0_veridical_freeview_isoTrue_fps144_reversed_REAL.mp4",""
"null","","","html-keyboard-response","78","288497","0.0-78.0","23634kc7","","<span style=""color:Black; font-size:50px;"">Agent B","null","","","","",""
"null","","","video-keyboard-response","79","291341","0.0-79.0","23634kc7","","","null","","Agent B","veridical","FOR_REV_MAP_BLOBBY_STIM/1160204.bmp_pp54_L2_V1.0_veridical_freeview_isoTrue_fps144.mp4",""
"","","","call-function","80","291342","0.0-80.0","23634kc7","","","","","","","",""
"4799.195000000007","{""judgement"":0}","[0]","survey-likert","81","296142","0.0-81.0","23634kc7","","","","","","","","1"
"1497.0050000000047","{""confidence"":1}","[0]","survey-likert","82","297640","0.0-82.0","23634kc7","","","","","","","",""
"","","","call-function","83","297640","0.0-83.0","23634kc7","","","","","","","",""
"null","","","html-keyboard-response","84","299143","0.0-84.0","23634kc7","","<span style=""color:Black; font-size:50px;"">Agent A","null","","","","",""
"null","","","video-keyboard-response","85","302000","0.0-85.0","23634kc7","","","null","","Agent A","veridical","FOR_REV_MAP_BLOBBY_STIM/498396.bmp_pp99_L2_V1.0_veridical_freeview_isoTrue_fps144.mp4",""
"null","","","html-keyboard-response","86","303505","0.0-86.0","23634kc7","","<span style=""color:Black; font-size:50px;"">Agent B","null","","","","",""
"null","","","video-keyboard-response","87","306363","0.0-87.0","23634kc7","","","null","","Agent B","scrambled","FOR_REV_MAP_BLOBBY_STIM/498396.bmp_pp99_L2_V1.0_veridical_freeview_isoTrue_fps144_reversed_REAL.mp4",""
"","","","call-function","88","306363","0.0-88.0","23634kc7","","","","","","","",""
"2402.429999999993","{""judgement"":0}","[0]","survey-likert","89","308767","0.0-89.0","23634kc7","","","","","","","","0"
"1472.734999999986","{""confidence"":2}","[0]","survey-likert","90","310242","0.0-90.0","23634kc7","","","","","","","",""
"65603.02999999997","","","instructions","91","375846","0.0-91.0","23634kc7","[{""page_index"":0,""viewing_time"":1243.1699999999837},{""page_index"":1,""viewing_time"":60899.36499999999},{""page_index"":2,""viewing_time"":3460.3300000000163}]","","","","","","",""
"6313.854999999981","","","instructions","92","382161","0.0-92.0","23634kc7","[{""page_index"":0,""viewing_time"":2917.6699999999837},{""page_index"":1,""viewing_time"":2757.0400000000373},{""page_index"":2,""viewing_time"":639.0349999999744}]","","","","","","",""
"","","","call-function","93","382162","0.0-93.0","23634kc7","","","","","","","",""
"null","","","html-keyboard-response","94","383662","0.0-94.0","23634kc7","","<span style=""color:Black; font-size:50px;"">Agent A","null","","","","",""
"null","","","video-keyboard-response","95","386395","0.0-95.0","23634kc7","","","null","","Agent A","veridical","FOR_REV_MAP_BLOBBY_STIM/1591975.bmp_pp88_L2_V1.0_veridical_freeview_isoTrue_fps144.mp4",""
"null","","","html-keyboard-response","96","387895","0.0-96.0","23634kc7","","<span style=""color:Black; font-size:50px;"">Agent B","null","","","","",""
"null","","","video-keyboard-response","97","390627","0.0-97.0","23634kc7","","","null","","Agent B","scrambled","FOR_REV_MAP_BLOBBY_STIM/1591975.bmp_pp88_L2_V1.0_veridical_freeview_isoTrue_fps144_reversed_REAL.mp4",""
"","","","call-function","98","390628","0.0-98.0","23634kc7","","","","","","","",""
"2119.899999999965","{""judgement"":0}","[0]","survey-likert","99","392749","0.0-99.0","23634kc7","","","","","","","","0"
"2929.3899999999558","{""confidence"":2}","[0]","survey-likert","100","395680","0.0-100.0","23634kc7","","","","","","","",""
"","","","call-function","101","395680","0.0-101.0","23634kc7","","","","","","","",""
"null","","","html-keyboard-response","102","397181","0.0-102.0","23634kc7","","<span style=""color:Black; font-size:50px;"">Agent A","null","","","","",""
"null","","","video-keyboard-response","103","399974","0.0-103.0","23634kc7","","","null","","Agent A","veridical","FOR_REV_MAP_BLOBBY_STIM/1592305.bmp_pp65_L3_V1.0_veridical_freeview_isoTrue_fps144.mp4",""
"null","","","html-keyboard-response","104","401479","0.0-104.0","23634kc7","","<span style=""color:Black; font-size:50px;"">Agent B","null","","","","",""
"null","","","video-keyboard-response","105","404270","0.0-105.0","23634kc7","","","null","","Agent B","scrambled","FOR_REV_MAP_BLOBBY_STIM/1592305.bmp_pp65_L3_V1.0_veridical_freeview_isoTrue_fps144_reversed_REAL.mp4",""
"","","","call-function","106","404270","0.0-106.0","23634kc7","","","","","","","",""
"2691.5","{""judgement"":1}","[0]","survey-likert","107","406962","0.0-107.0","23634kc7","","","","","","","","0"
"1766.1199999999953","{""confidence"":0}","[0]","survey-likert","108","408730","0.0-108.0","23634kc7","","","","","","","",""
"","","","call-function","109","408730","0.0-109.0","23634kc7","","","","","","","",""
"null","","","html-keyboard-response","110","410232","0.0-110.0","23634kc7","","<span style=""color:Black; font-size:50px;"">Agent A","null","","","","",""
"null","","","video-keyboard-response","111","413105","0.0-111.0","23634kc7","","","null","","Agent A","scrambled","FOR_REV_MAP_BLOBBY_STIM/1160189.bmp_pp64_L1_V1.0_veridical_freeview_isoTrue_fps144_reversed_REAL.mp4",""
"null","","","html-keyboard-response","112","414609","0.0-112.0","23634kc7","","<span style=""color:Black; font-size:50px;"">Agent B","null","","","","",""
"null","","","video-keyboard-response","113","417484","0.0-113.0","23634kc7","","","null","","Agent B","veridical","FOR_REV_MAP_BLOBBY_STIM/1160189.bmp_pp64_L1_V1.0_veridical_freeview_isoTrue_fps144.mp4",""
"","","","call-function","114","417485","0.0-114.0","23634kc7","","","","","","","",""
"3696.8950000000186","{""judgement"":0}","[0]","survey-likert","115","421183","0.0-115.0","23634kc7","","","","","","","","1"
"1175.7299999999814","{""confidence"":1}","[0]","survey-likert","116","422361","0.0-116.0","23634kc7","","","","","","","",""
"","","","call-function","117","422362","0.0-117.0","23634kc7","","","","","","","",""
"null","","","html-keyboard-response","118","423866","0.0-118.0","23634kc7","","<span style=""color:Black; font-size:50px;"">Agent A","null","","","","",""
"null","","","video-keyboard-response","119","425747","0.0-119.0","23634kc7","","","null","","Agent A","veridical","FOR_REV_MAP_BLOBBY_STIM/285946.bmp_pp79_L2_V1.0_veridical_freeview_isoTrue_fps144.mp4",""
"null","","","html-keyboard-response","120","427254","0.0-120.0","23634kc7","","<span style=""color:Black; font-size:50px;"">Agent B","null","","","","",""
"null","","","video-keyboard-response","121","429136","0.0-121.0","23634kc7","","","null","","Agent B","scrambled","FOR_REV_MAP_BLOBBY_STIM/285946.bmp_pp79_L2_V1.0_veridical_freeview_isoTrue_fps144_reversed_REAL.mp4",""
"","","","call-function","122","429136","0.0-122.0","23634kc7","","","","","","","",""
"3393.289999999979","{""judgement"":1}","[0]","survey-likert","123","432531","0.0-123.0","23634kc7","","","","","","","","0"
"1727.9550000000163","{""confidence"":0}","[0]","survey-likert","124","434260","0.0-124.0","23634kc7","","","","","","","",""
"","","","call-function","125","434260","0.0-125.0","23634kc7","","","","","","","",""
"null","","","html-keyboard-response","126","435767","0.0-126.0","23634kc7","","<span style=""color:Black; font-size:50px;"">Agent A","null","","","","",""
"null","","","video-keyboard-response","127","438529","0.0-127.0","23634kc7","","","null","","Agent A","scrambled","FOR_REV_MAP_BLOBBY_STIM/1159329.bmp_pp61_L2_V1.0_veridical_freeview_isoTrue_fps144_reversed_REAL.mp4",""
"null","","","html-keyboard-response","128","440033","0.0-128.0","23634kc7","","<span style=""color:Black; font-size:50px;"">Agent B","null","","","","",""
"null","","","video-keyboard-response","129","442796","0.0-129.0","23634kc7","","","null","","Agent B","veridical","FOR_REV_MAP_BLOBBY_STIM/1159329.bmp_pp61_L2_V1.0_veridical_freeview_isoTrue_fps144.mp4",""
"","","","call-function","130","442796","0.0-130.0","23634kc7","","","","","","","",""
"2522.429999999993","{""judgement"":1}","[0]","survey-likert","131","445320","0.0-131.0","23634kc7","","","","","","","","1"
"1933.7799999999697","{""confidence"":1}","[0]","survey-likert","132","447255","0.0-132.0","23634kc7","","","","","","","",""
"","","","call-function","133","447255","0.0-133.0","23634kc7","","","","","","","",""
"null","","","html-keyboard-response","134","448758","0.0-134.0","23634kc7","","<span style=""color:Black; font-size:50px;"">Agent A","null","","","","",""
"null","","","video-keyboard-response","135","451498","0.0-135.0","23634kc7","","","null","","Agent A","veridical","FOR_REV_MAP_BLOBBY_STIM/285715.bmp_pp67_L2_V1.0_veridical_freeview_isoTrue_fps144.mp4",""
"null","","","html-keyboard-response","136","453003","0.0-136.0","23634kc7","","<span style=""color:Black; font-size:50px;"">Agent B","null","","","","",""
"null","","","video-keyboard-response","137","455740","0.0-137.0","23634kc7","","","null","","Agent B","scrambled","FOR_REV_MAP_BLOBBY_STIM/285715.bmp_pp67_L2_V1.0_veridical_freeview_isoTrue_fps144_reversed_REAL.mp4",""
"","","","call-function","138","455740","0.0-138.0","23634kc7","","","","","","","",""
"2772.3099999999977","{""judgement"":0}","[0]","survey-likert","139","458513","0.0-139.0","23634kc7","","","","","","","","0"
"2634.930000000051","{""confidence"":2}","[0]","survey-likert","140","461149","0.0-140.0","23634kc7","","","","","","","",""
"","","","call-function","141","461150","0.0-141.0","23634kc7","","","","","","","",""
"null","","","html-keyboard-response","142","462651","0.0-142.0","23634kc7","","<span style=""color:Black; font-size:50px;"">Agent A","null","","","","",""
"null","","","video-keyboard-response","143","465342","0.0-143.0","23634kc7","","","null","","Agent A","scrambled","FOR_REV_MAP_BLOBBY_STIM/713788.bmp_pp52_L1_V1.0_veridical_freeview_isoTrue_fps144_reversed_REAL.mp4",""
"null","","","html-keyboard-response","144","466849","0.0-144.0","23634kc7","","<span style=""color:Black; font-size:50px;"">Agent B","null","","","","",""
"null","","","video-keyboard-response","145","469537","0.0-145.0","23634kc7","","","null","","Agent B","veridical","FOR_REV_MAP_BLOBBY_STIM/713788.bmp_pp52_L1_V1.0_veridical_freeview_isoTrue_fps144.mp4",""
"","","","call-function","146","469537","0.0-146.0","23634kc7","","","","","","","",""
"13737.450000000012","{""judgement"":0}","[0]","survey-likert","147","483276","0.0-147.0","23634kc7","","","","","","","","1"
"1970.9300000000512","{""confidence"":0}","[0]","survey-likert","148","485248","0.0-148.0","23634kc7","","","","","","","",""
"","","","call-function","149","485248","0.0-149.0","23634kc7","","","","","","","",""
"null","","","html-keyboard-response","150","486753","0.0-150.0","23634kc7","","<span style=""color:Black; font-size:50px;"">Agent A","null","","","","",""
"null","","","video-keyboard-response","151","489510","0.0-151.0","23634kc7","","","null","","Agent A","veridical","FOR_REV_MAP_BLOBBY_STIM/713328.bmp_pp86_L2_V1.0_veridical_freeview_isoTrue_fps144.mp4",""
"null","","","html-keyboard-response","152","491015","0.0-152.0","23634kc7","","<span style=""color:Black; font-size:50px;"">Agent B","null","","","","",""
"null","","","video-keyboard-response","153","493772","0.0-153.0","23634kc7","","","null","","Agent B","scrambled","FOR_REV_MAP_BLOBBY_STIM/713328.bmp_pp86_L2_V1.0_veridical_freeview_isoTrue_fps144_reversed_REAL.mp4",""
"","","","call-function","154","493772","0.0-154.0","23634kc7","","","","","","","",""
"8974.859999999986","{""judgement"":0}","[0]","survey-likert","155","502749","0.0-155.0","23634kc7","","","","","","","","0"
"2735.0849999999627","{""confidence"":0}","[0]","survey-likert","156","505486","0.0-156.0","23634kc7","","","","","","","",""
"","","","call-function","157","505487","0.0-157.0","23634kc7","","","","","","","",""
"null","","","html-keyboard-response","158","506992","0.0-158.0","23634kc7","","<span style=""color:Black; font-size:50px;"">Agent A","null","","","","",""
"null","","","video-keyboard-response","159","509723","0.0-159.0","23634kc7","","","null","","Agent A","scrambled","FOR_REV_MAP_BLOBBY_STIM/285959.bmp_pp93_L1_V1.0_veridical_freeview_isoTrue_fps144_reversed_REAL.mp4",""
"null","","","html-keyboard-response","160","511228","0.0-160.0","23634kc7","","<span style=""color:Black; font-size:50px;"">Agent B","null","","","","",""
"null","","","video-keyboard-response","161","513957","0.0-161.0","23634kc7","","","null","","Agent B","veridical","FOR_REV_MAP_BLOBBY_STIM/285959.bmp_pp93_L1_V1.0_veridical_freeview_isoTrue_fps144.mp4",""
"","","","call-function","162","513957","0.0-162.0","23634kc7","","","","","","","",""
"1818.7050000000163","{""judgement"":0}","[0]","survey-likert","163","515777","0.0-163.0","23634kc7","","","","","","","","1"
"1632.9400000000023","{""confidence"":1}","[0]","survey-likert","164","517411","0.0-164.0","23634kc7","","","","","","","",""
"","","","call-function","165","517412","0.0-165.0","23634kc7","","","","","","","",""
"null","","","html-keyboard-response","166","518918","0.0-166.0","23634kc7","","<span style=""color:Black; font-size:50px;"">Agent A","null","","","","",""
"null","","","video-keyboard-response","167","521725","0.0-167.0","23634kc7","","","null","","Agent A","veridical","FOR_REV_MAP_BLOBBY_STIM/713770.bmp_pp89_L1_V1.0_veridical_freeview_isoTrue_fps144.mp4",""
"null","","","html-keyboard-response","168","523228","0.0-168.0","23634kc7","","<span style=""color:Black; font-size:50px;"">Agent B","null","","","","",""
"null","","","video-keyboard-response","169","526034","0.0-169.0","23634kc7","","","null","","Agent B","scrambled","FOR_REV_MAP_BLOBBY_STIM/713770.bmp_pp89_L1_V1.0_veridical_freeview_isoTrue_fps144_reversed_REAL.mp4",""
"","","","call-function","170","526034","0.0-170.0","23634kc7","","","","","","","",""
"1850.4499999999534","{""judgement"":0}","[0]","survey-likert","171","527886","0.0-171.0","23634kc7","","","","","","","","0"
"2287.79999999993","{""confidence"":2}","[0]","survey-likert","172","530175","0.0-172.0","23634kc7","","","","","","","",""
"31117.064999999944","","","instructions","173","561293","0.0-173.0","23634kc7","[{""page_index"":0,""viewing_time"":23206.92499999993},{""page_index"":1,""viewing_time"":6349.734999999986},{""page_index"":2,""viewing_time"":1560.2399999999907}]","","","","","","",""
"2219.530000000028","","","instructions","174","563513","0.0-174.0","23634kc7","[{""page_index"":0,""viewing_time"":99.39000000001397},{""page_index"":1,""viewing_time"":1406.5999999999767},{""page_index"":2,""viewing_time"":713.3200000000652}]","","","","","","",""
"","","","call-function","175","563514","0.0-175.0","23634kc7","","","","","","","",""
"null","","","html-keyboard-response","176","565015","0.0-176.0","23634kc7","","<span style=""color:Black; font-size:50px;"">Agent A","null","","","","",""
"null","","","video-keyboard-response","177","567796","0.0-177.0","23634kc7","","","null","","Agent A","scrambled","FOR_REV_MAP_BLOBBY_STIM/285684.bmp_pp80_L3_V1.0_veridical_freeview_isoTrue_fps144_reversed_REAL.mp4",""
"null","","","html-keyboard-response","178","569298","0.0-178.0","23634kc7","","<span style=""color:Black; font-size:50px;"">Agent B","null","","","","",""
"null","","","video-keyboard-response","179","572090","0.0-179.0","23634kc7","","","null","","Agent B","veridical","FOR_REV_MAP_BLOBBY_STIM/285684.bmp_pp80_L3_V1.0_veridical_freeview_isoTrue_fps144.mp4",""
"","","","call-function","180","572091","0.0-180.0","23634kc7","","","","","","","",""
"2137.265000000014","{""judgement"":0}","[0]","survey-likert","181","574230","0.0-181.0","23634kc7","","","","","","","","1"
"2416.9799999999814","{""confidence"":2}","[0]","survey-likert","182","576648","0.0-182.0","23634kc7","","","","","","","",""
"","","","call-function","183","576649","0.0-183.0","23634kc7","","","","","","","",""
"null","","","html-keyboard-response","184","578151","0.0-184.0","23634kc7","","<span style=""color:Black; font-size:50px;"">Agent A","null","","","","",""
"null","","","video-keyboard-response","185","580982","0.0-185.0","23634kc7","","","null","","Agent A","veridical","FOR_REV_MAP_BLOBBY_STIM/498261.bmp_pp84_L3_V1.0_veridical_freeview_isoTrue_fps144.mp4",""
"null","","","html-keyboard-response","186","582483","0.0-186.0","23634kc7","","<span style=""color:Black; font-size:50px;"">Agent B","null","","","","",""
"null","","","video-keyboard-response","187","585319","0.0-187.0","23634kc7","","","null","","Agent B","scrambled","FOR_REV_MAP_BLOBBY_STIM/498261.bmp_pp84_L3_V1.0_veridical_freeview_isoTrue_fps144_reversed_REAL.mp4",""
"","","","call-function","188","585320","0.0-188.0","23634kc7","","","","","","","",""
"2878.2299999999814","{""judgement"":0}","[0]","survey-likert","189","588199","0.0-189.0","23634kc7","","","","","","","","0"
"3306.6350000000093","{""confidence"":3}","[0]","survey-likert","190","591507","0.0-190.0","23634kc7","","","","","","","",""
"","","","call-function","191","591507","0.0-191.0","23634kc7","","","","","","","",""
"null","","","html-keyboard-response","192","593010","0.0-192.0","23634kc7","","<span style=""color:Black; font-size:50px;"">Agent A","null","","","","",""
"null","","","video-keyboard-response","193","595099","0.0-193.0","23634kc7","","","null","","Agent A","veridical","FOR_REV_MAP_BLOBBY_STIM/1159973.bmp_pp98_L1_V1.0_veridical_freeview_isoTrue_fps144.mp4",""
"null","","","html-keyboard-response","194","596604","0.0-194.0","23634kc7","","<span style=""color:Black; font-size:50px;"">Agent B","null","","","","",""
"null","","","video-keyboard-response","195","598695","0.0-195.0","23634kc7","","","null","","Agent B","scrambled","FOR_REV_MAP_BLOBBY_STIM/1159973.bmp_pp98_L1_V1.0_veridical_freeview_isoTrue_fps144_reversed_REAL.mp4",""
"","","","call-function","196","598695","0.0-196.0","23634kc7","","","","","","","",""
"3306.804999999935","{""judgement"":0}","[0]","survey-likert","197","602003","0.0-197.0","23634kc7","","","","","","","","0"
"3071.359999999986","{""confidence"":2}","[0]","survey-likert","198","605076","0.0-198.0","23634kc7","","","","","","","",""
"","","","call-function","199","605077","0.0-199.0","23634kc7","","","","","","","",""
"null","","","html-keyboard-response","200","606583","0.0-200.0","23634kc7","","<span style=""color:Black; font-size:50px;"">Agent A","null","","","","",""
"null","","","video-keyboard-response","201","609192","0.0-201.0","23634kc7","","","null","","Agent A","scrambled","FOR_REV_MAP_BLOBBY_STIM/713633.bmp_pp58_L1_V1.0_veridical_freeview_isoTrue_fps144_reversed_REAL.mp4",""
"null","","","html-keyboard-response","202","610695","0.0-202.0","23634kc7","","<span style=""color:Black; font-size:50px;"">Agent B","null","","","","",""
"null","","","video-keyboard-response","203","613299","0.0-203.0","23634kc7","","","null","","Agent B","veridical","FOR_REV_MAP_BLOBBY_STIM/713633.bmp_pp58_L1_V1.0_veridical_freeview_isoTrue_fps144.mp4",""
"","","","call-function","204","613299","0.0-204.0","23634kc7","","","","","","","",""
"3142.5650000000605","{""judgement"":1}","[0]","survey-likert","205","616443","0.0-205.0","23634kc7","","","","","","","","1"
"1739.140000000014","{""confidence"":1}","[0]","survey-likert","206","618183","0.0-206.0","23634kc7","","","","","","","",""
"","","","call-function","207","618184","0.0-207.0","23634kc7","","","","","","","",""
"null","","","html-keyboard-response","208","619685","0.0-208.0","23634kc7","","<span style=""color:Black; font-size:50px;"">Agent A","null","","","","",""
"null","","","video-keyboard-response","209","622380","0.0-209.0","23634kc7","","","null","","Agent A","scrambled","FOR_REV_MAP_BLOBBY_STIM/1592038.bmp_pp79_L2_V1.0_veridical_freeview_isoTrue_fps144_reversed_REAL.mp4",""
"null","","","html-keyboard-response","210","623884","0.0-210.0","23634kc7","","<span style=""color:Black; font-size:50px;"">Agent B","null","","","","",""
"null","","","video-keyboard-response","211","626577","0.0-211.0","23634kc7","","","null","","Agent B","veridical","FOR_REV_MAP_BLOBBY_STIM/1592038.bmp_pp79_L2_V1.0_veridical_freeview_isoTrue_fps144.mp4",""
"","","","call-function","212","626578","0.0-212.0","23634kc7","","","","","","","",""
"8216.630000000005","{""judgement"":1}","[0]","survey-likert","213","634795","0.0-213.0","23634kc7","","","","","","","","1"
"1898.4899999999907","{""confidence"":0}","[0]","survey-likert","214","636695","0.0-214.0","23634kc7","","","","","","","",""
"","","","call-function","215","636697","0.0-215.0","23634kc7","","","","","","","",""
"null","","","html-keyboard-response","216","638204","0.0-216.0","23634kc7","","<span style=""color:Black; font-size:50px;"">Agent A","null","","","","",""
"null","","","video-keyboard-response","217","640988","0.0-217.0","23634kc7","","","null","","Agent A","veridical","FOR_REV_MAP_BLOBBY_STIM/1592747.bmp_pp53_L2_V1.0_veridical_freeview_isoTrue_fps144.mp4",""
"null","","","html-keyboard-response","218","642490","0.0-218.0","23634kc7","","<span style=""color:Black; font-size:50px;"">Agent B","null","","","","",""
"null","","","video-keyboard-response","219","645249","0.0-219.0","23634kc7","","","null","","Agent B","scrambled","FOR_REV_MAP_BLOBBY_STIM/1592747.bmp_pp53_L2_V1.0_veridical_freeview_isoTrue_fps144_reversed_REAL.mp4",""
"","","","call-function","220","645249","0.0-220.0","23634kc7","","","","","","","",""
"3228.644999999902","{""judgement"":0}","[0]","survey-likert","221","648479","0.0-221.0","23634kc7","","","","","","","","0"
"1766.6750000000466","{""confidence"":1}","[0]","survey-likert","222","650247","0.0-222.0","23634kc7","","","","","","","",""
"","","","call-function","223","650248","0.0-223.0","23634kc7","","","","","","","",""
"null","","","html-keyboard-response","224","651751","0.0-224.0","23634kc7","","<span style=""color:Black; font-size:50px;"">Agent A","null","","","","",""
"null","","","video-keyboard-response","225","654673","0.0-225.0","23634kc7","","","null","","Agent A","veridical","FOR_REV_MAP_BLOBBY_STIM/498025.bmp_pp81_L1_V1.0_veridical_freeview_isoTrue_fps144.mp4",""
"null","","","html-keyboard-response","226","656177","0.0-226.0","23634kc7","","<span style=""color:Black; font-size:50px;"">Agent B","null","","","","",""
"null","","","video-keyboard-response","227","659090","0.0-227.0","23634kc7","","","null","","Agent B","scrambled","FOR_REV_MAP_BLOBBY_STIM/498025.bmp_pp81_L1_V1.0_veridical_freeview_isoTrue_fps144_reversed_REAL.mp4",""
"","","","call-function","228","659090","0.0-228.0","23634kc7","","","","","","","",""
"4341.694999999949","{""judgement"":1}","[0]","survey-likert","229","663433","0.0-229.0","23634kc7","","","","","","","","0"
"7823.564999999944","{""confidence"":1}","[0]","survey-likert","230","671258","0.0-230.0","23634kc7","","","","","","","",""
"","","","call-function","231","671259","0.0-231.0","23634kc7","","","","","","","",""
"null","","","html-keyboard-response","232","672763","0.0-232.0","23634kc7","","<span style=""color:Black; font-size:50px;"">Agent A","null","","","","",""
"null","","","video-keyboard-response","233","675552","0.0-233.0","23634kc7","","","null","","Agent A","scrambled","FOR_REV_MAP_BLOBBY_STIM/1159860.bmp_pp152_L2_V1.0_veridical_freeview_isoTrue_fps144_reversed_REAL.mp4",""
"null","","","html-keyboard-response","234","677054","0.0-234.0","23634kc7","","<span style=""color:Black; font-size:50px;"">Agent B","null","","","","",""
"null","","","video-keyboard-response","235","679843","0.0-235.0","23634kc7","","","null","","Agent B","veridical","FOR_REV_MAP_BLOBBY_STIM/1159860.bmp_pp152_L2_V1.0_veridical_freeview_isoTrue_fps144.mp4",""
"","","","call-function","236","679843","0.0-236.0","23634kc7","","","","","","","",""
"3100.064999999944","{""judgement"":1}","[0]","survey-likert","237","682944","0.0-237.0","23634kc7","","","","","","","","1"
"2393.45000000007","{""confidence"":0}","[0]","survey-likert","238","685339","0.0-238.0","23634kc7","","","","","","","",""
"","","","call-function","239","685340","0.0-239.0","23634kc7","","","","","","","",""
"null","","","html-keyboard-response","240","686845","0.0-240.0","23634kc7","","<span style=""color:Black; font-size:50px;"">Agent A","null","","","","",""
"null","","","video-keyboard-response","241","689597","0.0-241.0","23634kc7","","","null","","Agent A","scrambled","FOR_REV_MAP_BLOBBY_STIM/1159819.bmp_pp151_L1_V1.0_veridical_freeview_isoTrue_fps144_reversed_REAL.mp4",""
"null","","","html-keyboard-response","242","691098","0.0-242.0","23634kc7","","<span style=""color:Black; font-size:50px;"">Agent B","null","","","","",""
"null","","","video-keyboard-response","243","693852","0.0-243.0","23634kc7","","","null","","Agent B","veridical","FOR_REV_MAP_BLOBBY_STIM/1159819.bmp_pp151_L1_V1.0_veridical_freeview_isoTrue_fps144.mp4",""
"","","","call-function","244","693853","0.0-244.0","23634kc7","","","","","","","",""
"1896.3349999999627","{""judgement"":1}","[0]","survey-likert","245","695750","0.0-245.0","23634kc7","","","","","","","","1"
"3538.6300000000047","{""confidence"":1}","[0]","survey-likert","246","699290","0.0-246.0","23634kc7","","","","","","","",""
"","","","call-function","247","699291","0.0-247.0","23634kc7","","","","","","","",""
"null","","","html-keyboard-response","248","700797","0.0-248.0","23634kc7","","<span style=""color:Black; font-size:50px;"">Agent A","null","","","","",""
"null","","","video-keyboard-response","249","703577","0.0-249.0","23634kc7","","","null","","Agent A","scrambled","FOR_REV_MAP_BLOBBY_STIM/1592044.bmp_pp94_L2_V1.0_veridical_freeview_isoTrue_fps144_reversed_REAL.mp4",""
"null","","","html-keyboard-response","250","705078","0.0-250.0","23634kc7","","<span style=""color:Black; font-size:50px;"">Agent B","null","","","","",""
"null","","","video-keyboard-response","251","707843","0.0-251.0","23634kc7","","","null","","Agent B","veridical","FOR_REV_MAP_BLOBBY_STIM/1592044.bmp_pp94_L2_V1.0_veridical_freeview_isoTrue_fps144.mp4",""
"","","","call-function","252","707844","0.0-252.0","23634kc7","","","","","","","",""
"1241.5800000000745","{""judgement"":1}","[0]","survey-likert","253","709088","0.0-253.0","23634kc7","","","","","","","","1"
"1987.2399999999907","{""confidence"":3}","[0]","survey-likert","254","711077","0.0-254.0","23634kc7","","","","","","","",""
"121096.10499999998","","","instructions","255","832174","0.0-255.0","23634kc7","[{""page_index"":0,""viewing_time"":2690.2600000000093},{""page_index"":1,""viewing_time"":77646.375},{""page_index"":2,""viewing_time"":40759.310000000056}]","","","","","","",""
"2898.4899999999907","","","instructions","256","835073","0.0-256.0","23634kc7","[{""page_index"":0,""viewing_time"":2076.5500000000466},{""page_index"":1,""viewing_time"":41.95999999996275},{""page_index"":2,""viewing_time"":779.875}]","","","","","","",""
"","","","call-function","257","835074","0.0-257.0","23634kc7","","","","","","","",""
"null","","","html-keyboard-response","258","836575","0.0-258.0","23634kc7","","<span style=""color:Black; font-size:50px;"">Agent A","null","","","","",""
"null","","","video-keyboard-response","259","839347","0.0-259.0","23634kc7","","","null","","Agent A","scrambled","FOR_REV_MAP_BLOBBY_STIM/285932.bmp_pp64_L1_V1.0_veridical_freeview_isoTrue_fps144_reversed_REAL.mp4",""
"null","","","html-keyboard-response","260","840850","0.0-260.0","23634kc7","","<span style=""color:Black; font-size:50px;"">Agent B","null","","","","",""
"null","","","video-keyboard-response","261","843624","0.0-261.0","23634kc7","","","null","","Agent B","veridical","FOR_REV_MAP_BLOBBY_STIM/285932.bmp_pp64_L1_V1.0_veridical_freeview_isoTrue_fps144.mp4",""
"","","","call-function","262","843624","0.0-262.0","23634kc7","","","","","","","",""
"1974.0399999999208","{""judgement"":0}","[0]","survey-likert","263","845599","0.0-263.0","23634kc7","","","","","","","","1"
"1399.7600000000093","{""confidence"":1}","[0]","survey-likert","264","847001","0.0-264.0","23634kc7","","","","","","","",""
"","","","call-function","265","847001","0.0-265.0","23634kc7","","","","","","","",""
"null","","","html-keyboard-response","266","848503","0.0-266.0","23634kc7","","<span style=""color:Black; font-size:50px;"">Agent A","null","","","","",""
"null","","","video-keyboard-response","267","851266","0.0-267.0","23634kc7","","","null","","Agent A","veridical","FOR_REV_MAP_BLOBBY_STIM/1592017.bmp_pp154_L1_V1.0_veridical_freeview_isoTrue_fps144.mp4",""
"null","","","html-keyboard-response","268","852767","0.0-268.0","23634kc7","","<span style=""color:Black; font-size:50px;"">Agent B","null","","","","",""
"null","","","video-keyboard-response","269","855527","0.0-269.0","23634kc7","","","null","","Agent B","scrambled","FOR_REV_MAP_BLOBBY_STIM/1592017.bmp_pp154_L1_V1.0_veridical_freeview_isoTrue_fps144_reversed_REAL.mp4",""
"","","","call-function","270","855527","0.0-270.0","23634kc7","","","","","","","",""
"6058.050000000047","{""judgement"":1}","[0]","survey-likert","271","861587","0.0-271.0","23634kc7","","","","","","","","0"
"1605.2000000000698","{""confidence"":0}","[0]","survey-likert","272","863194","0.0-272.0","23634kc7","","","","","","","",""
"","","","call-function","273","863194","0.0-273.0","23634kc7","","","","","","","",""
"null","","","html-keyboard-response","274","864695","0.0-274.0","23634kc7","","<span style=""color:Black; font-size:50px;"">Agent A","null","","","","",""
"null","","","video-keyboard-response","275","867505","0.0-275.0","23634kc7","","","null","","Agent A","veridical","FOR_REV_MAP_BLOBBY_STIM/107909.bmp_pp95_L2_V1.0_veridical_freeview_isoTrue_fps144.mp4",""
"null","","","html-keyboard-response","276","869010","0.0-276.0","23634kc7","","<span style=""color:Black; font-size:50px;"">Agent B","null","","","","",""
"null","","","video-keyboard-response","277","871815","0.0-277.0","23634kc7","","","null","","Agent B","scrambled","FOR_REV_MAP_BLOBBY_STIM/107909.bmp_pp95_L2_V1.0_veridical_freeview_isoTrue_fps144_reversed_REAL.mp4",""
"","","","call-function","278","871816","0.0-278.0","23634kc7","","","","","","","",""
"2827.8150000000605","{""judgement"":1}","[0]","survey-likert","279","874644","0.0-279.0","23634kc7","","","","","","","","0"
"2354.8649999999907","{""confidence"":1}","[0]","survey-likert","280","877000","0.0-280.0","23634kc7","","","","","","","",""
"","","","call-function","281","877001","0.0-281.0","23634kc7","","","","","","","",""
"null","","","html-keyboard-response","282","878505","0.0-282.0","23634kc7","","<span style=""color:Black; font-size:50px;"">Agent A","null","","","","",""
"null","","","video-keyboard-response","283","881356","0.0-283.0","23634kc7","","","null","","Agent A","veridical","FOR_REV_MAP_BLOBBY_STIM/713742.bmp_pp91_L3_V1.0_veridical_freeview_isoTrue_fps144.mp4",""
"null","","","html-keyboard-response","284","882860","0.0-284.0","23634kc7","","<span style=""color:Black; font-size:50px;"">Agent B","null","","","","",""
"null","","","video-keyboard-response","285","885686","0.0-285.0","23634kc7","","","null","","Agent B","scrambled","FOR_REV_MAP_BLOBBY_STIM/713742.bmp_pp91_L3_V1.0_veridical_freeview_isoTrue_fps144_reversed_REAL.mp4",""
"","","","call-function","286","885687","0.0-286.0","23634kc7","","","","","","","",""
"1868.3400000000838","{""judgement"":0}","[0]","survey-likert","287","887556","0.0-287.0","23634kc7","","","","","","","","0"
"1489.4299999999348","{""confidence"":2}","[0]","survey-likert","288","889047","0.0-288.0","23634kc7","","","","","","","",""
"","","","call-function","289","889048","0.0-289.0","23634kc7","","","","","","","",""
"null","","","html-keyboard-response","290","890551","0.0-290.0","23634kc7","","<span style=""color:Black; font-size:50px;"">Agent A","null","","","","",""
"null","","","video-keyboard-response","291","893362","0.0-291.0","23634kc7","","","null","","Agent A","veridical","FOR_REV_MAP_BLOBBY_STIM/1591920.bmp_pp97_L3_V1.0_veridical_freeview_isoTrue_fps144.mp4",""
"null","","","html-keyboard-response","292","894867","0.0-292.0","23634kc7","","<span style=""color:Black; font-size:50px;"">Agent B","null","","","","",""
"null","","","video-keyboard-response","293","897673","0.0-293.0","23634kc7","","","null","","Agent B","scrambled","FOR_REV_MAP_BLOBBY_STIM/1591920.bmp_pp97_L3_V1.0_veridical_freeview_isoTrue_fps144_reversed_REAL.mp4",""
"","","","call-function","294","897673","0.0-294.0","23634kc7","","","","","","","",""
"2259.0950000000885","{""judgement"":0}","[0]","survey-likert","295","899933","0.0-295.0","23634kc7","","","","","","","","0"
"5993.359999999986","{""confidence"":0}","[0]","survey-likert","296","905928","0.0-296.0","23634kc7","","","","","","","",""
"","","","call-function","297","905929","0.0-297.0","23634kc7","","","","","","","",""
"null","","","html-keyboard-response","298","907431","0.0-298.0","23634kc7","","<span style=""color:Black; font-size:50px;"">Agent A","null","","","","",""
"null","","","video-keyboard-response","299","910208","0.0-299.0","23634kc7","","","null","","Agent A","veridical","FOR_REV_MAP_BLOBBY_STIM/713790.bmp_pp100_L3_V1.0_veridical_freeview_isoTrue_fps144.mp4",""
"null","","","html-keyboard-response","300","911712","0.0-300.0","23634kc7","","<span style=""color:Black; font-size:50px;"">Agent B","null","","","","",""
"null","","","video-keyboard-response","301","914513","0.0-301.0","23634kc7","","","null","","Agent B","scrambled","FOR_REV_MAP_BLOBBY_STIM/713790.bmp_pp100_L3_V1.0_veridical_freeview_isoTrue_fps144_reversed_REAL.mp4",""
"","","","call-function","302","914514","0.0-302.0","23634kc7","","","","","","","",""
"3355.295000000042","{""judgement"":1}","[0]","survey-likert","303","917870","0.0-303.0","23634kc7","","","","","","","","0"
"1552.6350000000093","{""confidence"":1}","[0]","survey-likert","304","919424","0.0-304.0","23634kc7","","","","","","","",""
"","","","call-function","305","919425","0.0-305.0","23634kc7","","","","","","","",""
"null","","","html-keyboard-response","306","920930","0.0-306.0","23634kc7","","<span style=""color:Black; font-size:50px;"">Agent A","null","","","","",""
"null","","","video-keyboard-response","307","923869","0.0-307.0","23634kc7","","","null","","Agent A","scrambled","FOR_REV_MAP_BLOBBY_STIM/1592568.bmp_pp71_L1_V1.0_veridical_freeview_isoTrue_fps144_reversed_REAL.mp4",""
"null","","","html-keyboard-response","308","925373","0.0-308.0","23634kc7","","<span style=""color:Black; font-size:50px;"">Agent B","null","","","","",""
"null","","","video-keyboard-response","309","928311","0.0-309.0","23634kc7","","","null","","Agent B","veridical","FOR_REV_MAP_BLOBBY_STIM/1592568.bmp_pp71_L1_V1.0_veridical_freeview_isoTrue_fps144.mp4",""
"","","","call-function","310","928312","0.0-310.0","23634kc7","","","","","","","",""
"2481.67499999993","{""judgement"":0}","[0]","survey-likert","311","930795","0.0-311.0","23634kc7","","","","","","","","1"
"1152.734999999986","{""confidence"":2}","[0]","survey-likert","312","931949","0.0-312.0","23634kc7","","","","","","","",""
"","","","call-function","313","931949","0.0-313.0","23634kc7","","","","","","","",""
"null","","","html-keyboard-response","314","933453","0.0-314.0","23634kc7","","<span style=""color:Black; font-size:50px;"">Agent A","null","","","","",""
"null","","","video-keyboard-response","315","936311","0.0-315.0","23634kc7","","","null","","Agent A","scrambled","FOR_REV_MAP_BLOBBY_STIM/498326.bmp_pp57_L1_V1.0_veridical_freeview_isoTrue_fps144_reversed_REAL.mp4",""
"null","","","html-keyboard-response","316","937816","0.0-316.0","23634kc7","","<span style=""color:Black; font-size:50px;"">Agent B","null","","","","",""
"null","","","video-keyboard-response","317","940674","0.0-317.0","23634kc7","","","null","","Agent B","veridical","FOR_REV_MAP_BLOBBY_STIM/498326.bmp_pp57_L1_V1.0_veridical_freeview_isoTrue_fps144.mp4",""
"","","","call-function","318","940674","0.0-318.0","23634kc7","","","","","","","",""
"2521.975000000093","{""judgement"":1}","[0]","survey-likert","319","943197","0.0-319.0","23634kc7","","","","","","","","1"
"2004.9100000000326","{""confidence"":3}","[0]","survey-likert","320","945203","0.0-320.0","23634kc7","","","","","","","",""
"","","","call-function","321","945204","0.0-321.0","23634kc7","","","","","","","",""
"null","","","html-keyboard-response","322","946706","0.0-322.0","23634kc7","","<span style=""color:Black; font-size:50px;"">Agent A","null","","","","",""
"null","","","video-keyboard-response","323","949508","0.0-323.0","23634kc7","","","null","","Agent A","scrambled","FOR_REV_MAP_BLOBBY_STIM/498258.bmp_pp51_L1_V1.0_veridical_freeview_isoTrue_fps144_reversed_REAL.mp4",""
"null","","","html-keyboard-response","324","951015","0.0-324.0","23634kc7","","<span style=""color:Black; font-size:50px;"">Agent B","null","","","","",""
"null","","","video-keyboard-response","325","953836","0.0-325.0","23634kc7","","","null","","Agent B","veridical","FOR_REV_MAP_BLOBBY_STIM/498258.bmp_pp51_L1_V1.0_veridical_freeview_isoTrue_fps144.mp4",""
"","","","call-function","326","953836","0.0-326.0","23634kc7","","","","","","","",""
"2710.1350000000093","{""judgement"":0}","[0]","survey-likert","327","956548","0.0-327.0","23634kc7","","","","","","","","1"
"1865.469999999972","{""confidence"":2}","[0]","survey-likert","328","958414","0.0-328.0","23634kc7","","","","","","","",""
"","","","call-function","329","958415","0.0-329.0","23634kc7","","","","","","","",""
"null","","","html-keyboard-response","330","959921","0.0-330.0","23634kc7","","<span style=""color:Black; font-size:50px;"">Agent A","null","","","","",""
"null","","","video-keyboard-response","331","962700","0.0-331.0","23634kc7","","","null","","Agent A","veridical","FOR_REV_MAP_BLOBBY_STIM/1592567.bmp_pp70_L2_V1.0_veridical_freeview_isoTrue_fps144.mp4",""
"null","","","html-keyboard-response","332","964202","0.0-332.0","23634kc7","","<span style=""color:Black; font-size:50px;"">Agent B","null","","","","",""
"null","","","video-keyboard-response","333","966979","0.0-333.0","23634kc7","","","null","","Agent B","scrambled","FOR_REV_MAP_BLOBBY_STIM/1592567.bmp_pp70_L2_V1.0_veridical_freeview_isoTrue_fps144_reversed_REAL.mp4",""
"","","","call-function","334","966980","0.0-334.0","23634kc7","","","","","","","",""
"2155.9400000000605","{""judgement"":0}","[0]","survey-likert","335","969138","0.0-335.0","23634kc7","","","","","","","","0"
"1629.2750000000233","{""confidence"":2}","[0]","survey-likert","336","970769","0.0-336.0","23634kc7","","","","","","","",""
"158315.65999999992","","","instructions","337","1129087","0.0-337.0","23634kc7","[{""page_index"":0,""viewing_time"":1498.4449999999488},{""page_index"":1,""viewing_time"":156643.06500000006},{""page_index"":2,""viewing_time"":173.95999999996275}]","","","","","","",""
"9046.024999999907","","","instructions","338","1138133","0.0-338.0","23634kc7","[{""page_index"":0,""viewing_time"":579.0699999998324},{""page_index"":1,""viewing_time"":7802.020000000019},{""page_index"":2,""viewing_time"":664.8250000001863}]","","","","","","",""
"","","","call-function","339","1138134","0.0-339.0","23634kc7","","","","","","","",""
"null","","","html-keyboard-response","340","1139640","0.0-340.0","23634kc7","","<span style=""color:Black; font-size:50px;"">Agent A","null","","","","",""
"null","","","video-keyboard-response","341","1142440","0.0-341.0","23634kc7","","","null","","Agent A","veridical","FOR_REV_MAP_BLOBBY_STIM/713689.bmp_pp153_L3_V1.0_veridical_freeview_isoTrue_fps144.mp4",""
"null","","","html-keyboard-response","342","1143944","0.0-342.0","23634kc7","","<span style=""color:Black; font-size:50px;"">Agent B","null","","","","",""
"null","","","video-keyboard-response","343","1146747","0.0-343.0","23634kc7","","","null","","Agent B","scrambled","FOR_REV_MAP_BLOBBY_STIM/713689.bmp_pp153_L3_V1.0_veridical_freeview_isoTrue_fps144_reversed_REAL.mp4",""
"","","","call-function","344","1146748","0.0-344.0","23634kc7","","","","","","","",""
"1878.8649999999907","{""judgement"":0}","[0]","survey-likert","345","1148628","0.0-345.0","23634kc7","","","","","","","","0"
"2046.530000000028","{""confidence"":2}","[0]","survey-likert","346","1150677","0.0-346.0","23634kc7","","","","","","","",""
"","","","call-function","347","1150677","0.0-347.0","23634kc7","","","","","","","",""
"null","","","html-keyboard-response","348","1152179","0.0-348.0","23634kc7","","<span style=""color:Black; font-size:50px;"">Agent A","null","","","","",""
"null","","","video-keyboard-response","349","1155004","0.0-349.0","23634kc7","","","null","","Agent A","veridical","FOR_REV_MAP_BLOBBY_STIM/713829.bmp_pp60_L3_V1.0_veridical_freeview_isoTrue_fps144.mp4",""
"null","","","html-keyboard-response","350","1156510","0.0-350.0","23634kc7","","<span style=""color:Black; font-size:50px;"">Agent B","null","","","","",""
"null","","","video-keyboard-response","351","1159336","0.0-351.0","23634kc7","","","null","","Agent B","scrambled","FOR_REV_MAP_BLOBBY_STIM/713829.bmp_pp60_L3_V1.0_veridical_freeview_isoTrue_fps144_reversed_REAL.mp4",""
"","","","call-function","352","1159336","0.0-352.0","23634kc7","","","","","","","",""
"1965.7650000001304","{""judgement"":0}","[0]","survey-likert","353","1161303","0.0-353.0","23634kc7","","","","","","","","0"
"1509.3199999998324","{""confidence"":2}","[0]","survey-likert","354","1162814","0.0-354.0","23634kc7","","","","","","","",""
"","","","call-function","355","1162814","0.0-355.0","23634kc7","","","","","","","",""
"null","","","html-keyboard-response","356","1164317","0.0-356.0","23634kc7","","<span style=""color:Black; font-size:50px;"">Agent A","null","","","","",""
"null","","","video-keyboard-response","357","1167128","0.0-357.0","23634kc7","","","null","","Agent A","veridical","FOR_REV_MAP_BLOBBY_STIM/713274.bmp_pp73_L3_V1.0_veridical_freeview_isoTrue_fps144.mp4",""
"null","","","html-keyboard-response","358","1168629","0.0-358.0","23634kc7","","<span style=""color:Black; font-size:50px;"">Agent B","null","","","","",""
"null","","","video-keyboard-response","359","1171438","0.0-359.0","23634kc7","","","null","","Agent B","scrambled","FOR_REV_MAP_BLOBBY_STIM/713274.bmp_pp73_L3_V1.0_veridical_freeview_isoTrue_fps144_reversed_REAL.mp4",""
"","","","call-function","360","1171438","0.0-360.0","23634kc7","","","","","","","",""
"1641.0699999998324","{""judgement"":0}","[0]","survey-likert","361","1173080","0.0-361.0","23634kc7","","","","","","","","0"
"1143.5100000000093","{""confidence"":2}","[0]","survey-likert","362","1174225","0.0-362.0","23634kc7","","","","","","","",""
"","","","call-function","363","1174226","0.0-363.0","23634kc7","","","","","","","",""
"null","","","html-keyboard-response","364","1175731","0.0-364.0","23634kc7","","<span style=""color:Black; font-size:50px;"">Agent A","null","","","","",""
"null","","","video-keyboard-response","365","1178597","0.0-365.0","23634kc7","","","null","","Agent A","veridical","FOR_REV_MAP_BLOBBY_STIM/1592201.bmp_pp97_L3_V1.0_veridical_freeview_isoTrue_fps144.mp4",""
"null","","","html-keyboard-response","366","1180101","0.0-366.0","23634kc7","","<span style=""color:Black; font-size:50px;"">Agent B","null","","","","",""
"null","","","video-keyboard-response","367","1182967","0.0-367.0","23634kc7","","","null","","Agent B","scrambled","FOR_REV_MAP_BLOBBY_STIM/1592201.bmp_pp97_L3_V1.0_veridical_freeview_isoTrue_fps144_reversed_REAL.mp4",""
"","","","call-function","368","1182968","0.0-368.0","23634kc7","","","","","","","",""
"2294.534999999916","{""judgement"":0}","[0]","survey-likert","369","1185263","0.0-369.0","23634kc7","","","","","","","","0"
"1582.9350000000559","{""confidence"":0}","[0]","survey-likert","370","1186847","0.0-370.0","23634kc7","","","","","","","",""
"","","","call-function","371","1186848","0.0-371.0","23634kc7","","","","","","","",""
"null","","","html-keyboard-response","372","1188354","0.0-372.0","23634kc7","","<span style=""color:Black; font-size:50px;"">Agent A","null","","","","",""
"null","","","video-keyboard-response","373","1191073","0.0-373.0","23634kc7","","","null","","Agent A","veridical","FOR_REV_MAP_BLOBBY_STIM/1159427.bmp_pp98_L1_V1.0_veridical_freeview_isoTrue_fps144.mp4",""
"null","","","html-keyboard-response","374","1192579","0.0-374.0","23634kc7","","<span style=""color:Black; font-size:50px;"">Agent B","null","","","","",""
"null","","","video-keyboard-response","375","1195301","0.0-375.0","23634kc7","","","null","","Agent B","scrambled","FOR_REV_MAP_BLOBBY_STIM/1159427.bmp_pp98_L1_V1.0_veridical_freeview_isoTrue_fps144_reversed_REAL.mp4",""
"","","","call-function","376","1195302","0.0-376.0","23634kc7","","","","","","","",""
"2975.9500000001863","{""judgement"":0}","[0]","survey-likert","377","1198278","0.0-377.0","23634kc7","","","","","","","","0"
"1464.3349999999627","{""confidence"":2}","[0]","survey-likert","378","1199744","0.0-378.0","23634kc7","","","","","","","",""
"","","","call-function","379","1199745","0.0-379.0","23634kc7","","","","","","","",""
"null","","","html-keyboard-response","380","1201251","0.0-380.0","23634kc7","","<span style=""color:Black; font-size:50px;"">Agent A","null","","","","",""
"null","","","video-keyboard-response","381","1204161","0.0-381.0","23634kc7","","","null","","Agent A","veridical","FOR_REV_MAP_BLOBBY_STIM/713381.bmp_pp82_L2_V1.0_veridical_freeview_isoTrue_fps144.mp4",""
"null","","","html-keyboard-response","382","1205664","0.0-382.0","23634kc7","","<span style=""color:Black; font-size:50px;"">Agent B","null","","","","",""
"null","","","video-keyboard-response","383","1208486","0.0-383.0","23634kc7","","","null","","Agent B","scrambled","FOR_REV_MAP_BLOBBY_STIM/713381.bmp_pp82_L2_V1.0_veridical_freeview_isoTrue_fps144_reversed_REAL.mp4",""
"","","","call-function","384","1208487","0.0-384.0","23634kc7","","","","","","","",""
"2787.75","{""judgement"":1}","[0]","survey-likert","385","1211276","0.0-385.0","23634kc7","","","","","","","","0"
"2370.320000000065","{""confidence"":1}","[0]","survey-likert","386","1213647","0.0-386.0","23634kc7","","","","","","","",""
"","","","call-function","387","1213648","0.0-387.0","23634kc7","","","","","","","",""
"null","","","html-keyboard-response","388","1215150","0.0-388.0","23634kc7","","<span style=""color:Black; font-size:50px;"">Agent A","null","","","","",""
"null","","","video-keyboard-response","389","1217927","0.0-389.0","23634kc7","","","null","","Agent A","scrambled","FOR_REV_MAP_BLOBBY_STIM/1592289.bmp_pp92_L3_V1.0_veridical_freeview_isoTrue_fps144_reversed_REAL.mp4",""
"null","","","html-keyboard-response","390","1219432","0.0-390.0","23634kc7","","<span style=""color:Black; font-size:50px;"">Agent B","null","","","","",""
"null","","","video-keyboard-response","391","1222209","0.0-391.0","23634kc7","","","null","","Agent B","veridical","FOR_REV_MAP_BLOBBY_STIM/1592289.bmp_pp92_L3_V1.0_veridical_freeview_isoTrue_fps144.mp4",""
"","","","call-function","392","1222209","0.0-392.0","23634kc7","","","","","","","",""
"1807.4350000000559","{""judgement"":0}","[0]","survey-likert","393","1224018","0.0-393.0","23634kc7","","","","","","","","1"
"1877.8599999998696","{""confidence"":0}","[0]","survey-likert","394","1225897","0.0-394.0","23634kc7","","","","","","","",""
"","","","call-function","395","1225898","0.0-395.0","23634kc7","","","","","","","",""
"null","","","html-keyboard-response","396","1227400","0.0-396.0","23634kc7","","<span style=""color:Black; font-size:50px;"">Agent A","null","","","","",""
"null","","","video-keyboard-response","397","1230109","0.0-397.0","23634kc7","","","null","","Agent A","scrambled","FOR_REV_MAP_BLOBBY_STIM/713858.bmp_pp57_L1_V1.0_veridical_freeview_isoTrue_fps144_reversed_REAL.mp4",""
"null","","","html-keyboard-response","398","1231614","0.0-398.0","23634kc7","","<span style=""color:Black; font-size:50px;"">Agent B","null","","","","",""
"null","","","video-keyboard-response","399","1234318","0.0-399.0","23634kc7","","","null","","Agent B","veridical","FOR_REV_MAP_BLOBBY_STIM/713858.bmp_pp57_L1_V1.0_veridical_freeview_isoTrue_fps144.mp4",""
"","","","call-function","400","1234318","0.0-400.0","23634kc7","","","","","","","",""
"3423","{""judgement"":1}","[0]","survey-likert","401","1237742","0.0-401.0","23634kc7","","","","","","","","1"
"1161.9099999999162","{""confidence"":1}","[0]","survey-likert","402","1238906","0.0-402.0","23634kc7","","","","","","","",""
"","","","call-function","403","1238906","0.0-403.0","23634kc7","","","","","","","",""
"null","","","html-keyboard-response","404","1240409","0.0-404.0","23634kc7","","<span style=""color:Black; font-size:50px;"">Agent A","null","","","","",""
"null","","","video-keyboard-response","405","1243181","0.0-405.0","23634kc7","","","null","","Agent A","veridical","FOR_REV_MAP_BLOBBY_STIM/1592129.bmp_pp153_L3_V1.0_veridical_freeview_isoTrue_fps144.mp4",""
"null","","","html-keyboard-response","406","1244685","0.0-406.0","23634kc7","","<span style=""color:Black; font-size:50px;"">Agent B","null","","","","",""
"null","","","video-keyboard-response","407","1247458","0.0-407.0","23634kc7","","","null","","Agent B","scrambled","FOR_REV_MAP_BLOBBY_STIM/1592129.bmp_pp153_L3_V1.0_veridical_freeview_isoTrue_fps144_reversed_REAL.mp4",""
"","","","call-function","408","1247459","0.0-408.0","23634kc7","","","","","","","",""
"8063.574999999953","{""judgement"":0}","[0]","survey-likert","409","1255524","0.0-409.0","23634kc7","","","","","","","","0"
"1595.280000000028","{""confidence"":0}","[0]","survey-likert","410","1257120","0.0-410.0","23634kc7","","","","","","","",""
"","","","call-function","411","1257121","0.0-411.0","23634kc7","","","","","","","",""
"null","","","html-keyboard-response","412","1258626","0.0-412.0","23634kc7","","<span style=""color:Black; font-size:50px;"">Agent A","null","","","","",""
"null","","","video-keyboard-response","413","1261389","0.0-413.0","23634kc7","","","null","","Agent A","veridical","FOR_REV_MAP_BLOBBY_STIM/1159325.bmp_pp67_L2_V1.0_veridical_freeview_isoTrue_fps144.mp4",""
"null","","","html-keyboard-response","414","1262893","0.0-414.0","23634kc7","","<span style=""color:Black; font-size:50px;"">Agent B","null","","","","",""
"null","","","video-keyboard-response","415","1265666","0.0-415.0","23634kc7","","","null","","Agent B","scrambled","FOR_REV_MAP_BLOBBY_STIM/1159325.bmp_pp67_L2_V1.0_veridical_freeview_isoTrue_fps144_reversed_REAL.mp4",""
"","","","call-function","416","1265666","0.0-416.0","23634kc7","","","","","","","",""
"2629.1800000001676","{""judgement"":0}","[0]","survey-likert","417","1268296","0.0-417.0","23634kc7","","","","","","","","0"
"4122.070000000065","{""confidence"":3}","[0]","survey-likert","418","1272420","0.0-418.0","23634kc7","","","","","","","",""
"48239.52500000014","","","instructions","419","1320660","0.0-419.0","23634kc7","[{""page_index"":0,""viewing_time"":43310.31500000018},{""page_index"":1,""viewing_time"":3897.9499999999534},{""page_index"":2,""viewing_time"":1031.0999999998603}]","","","","","","",""
"4272.274999999907","","","instructions","420","1324934","0.0-420.0","23634kc7","[{""page_index"":0,""viewing_time"":670.3499999998603},{""page_index"":1,""viewing_time"":1873.9150000000373},{""page_index"":2,""viewing_time"":1727.9000000001397}]","","","","","","",""
"","","","call-function","421","1324935","0.0-421.0","23634kc7","","","","","","","",""
"null","","","html-keyboard-response","422","1326441","0.0-422.0","23634kc7","","<span style=""color:Black; font-size:50px;"">Agent A","null","","","","",""
"null","","","video-keyboard-response","423","1329235","0.0-423.0","23634kc7","","","null","","Agent A","scrambled","FOR_REV_MAP_BLOBBY_STIM/1591781.bmp_pp63_L1_V1.0_veridical_freeview_isoTrue_fps144_reversed_REAL.mp4",""
"null","","","html-keyboard-response","424","1330736","0.0-424.0","23634kc7","","<span style=""color:Black; font-size:50px;"">Agent B","null","","","","",""
"null","","","video-keyboard-response","425","1333530","0.0-425.0","23634kc7","","","null","","Agent B","veridical","FOR_REV_MAP_BLOBBY_STIM/1591781.bmp_pp63_L1_V1.0_veridical_freeview_isoTrue_fps144.mp4",""
"","","","call-function","426","1333531","0.0-426.0","23634kc7","","","","","","","",""
"4978.034999999916","{""judgement"":0}","[0]","survey-likert","427","1338510","0.0-427.0","23634kc7","","","","","","","","1"
"2053.7450000001118","{""confidence"":2}","[0]","survey-likert","428","1340565","0.0-428.0","23634kc7","","","","","","","",""
"","","","call-function","429","1340565","0.0-429.0","23634kc7","","","","","","","",""
"null","","","html-keyboard-response","430","1342071","0.0-430.0","23634kc7","","<span style=""color:Black; font-size:50px;"">Agent A","null","","","","",""
"null","","","video-keyboard-response","431","1344872","0.0-431.0","23634kc7","","","null","","Agent A","scrambled","FOR_REV_MAP_BLOBBY_STIM/1592530.bmp_pp75_L1_V1.0_veridical_freeview_isoTrue_fps144_reversed_REAL.mp4",""
"null","","","html-keyboard-response","432","1346377","0.0-432.0","23634kc7","","<span style=""color:Black; font-size:50px;"">Agent B","null","","","","",""
"null","","","video-keyboard-response","433","1349176","0.0-433.0","23634kc7","","","null","","Agent B","veridical","FOR_REV_MAP_BLOBBY_STIM/1592530.bmp_pp75_L1_V1.0_veridical_freeview_isoTrue_fps144.mp4",""
"","","","call-function","434","1349177","0.0-434.0","23634kc7","","","","","","","",""
"4839.7050000000745","{""judgement"":0}","[0]","survey-likert","435","1354017","0.0-435.0","23634kc7","","","","","","","","1"
"2417.5749999999534","{""confidence"":1}","[0]","survey-likert","436","1356436","0.0-436.0","23634kc7","","","","","","","",""
"","","","call-function","437","1356437","0.0-437.0","23634kc7","","","","","","","",""
"null","","","html-keyboard-response","438","1357941","0.0-438.0","23634kc7","","<span style=""color:Black; font-size:50px;"">Agent A","null","","","","",""
"null","","","video-keyboard-response","439","1360683","0.0-439.0","23634kc7","","","null","","Agent A","veridical","FOR_REV_MAP_BLOBBY_STIM/1159956.bmp_pp59_L3_V1.0_veridical_freeview_isoTrue_fps144.mp4",""
"null","","","html-keyboard-response","440","1362190","0.0-440.0","23634kc7","","<span style=""color:Black; font-size:50px;"">Agent B","null","","","","",""
"null","","","video-keyboard-response","441","1364936","0.0-441.0","23634kc7","","","null","","Agent B","scrambled","FOR_REV_MAP_BLOBBY_STIM/1159956.bmp_pp59_L3_V1.0_veridical_freeview_isoTrue_fps144_reversed_REAL.mp4",""
"","","","call-function","442","1364937","0.0-442.0","23634kc7","","","","","","","",""
"2509.6400000001304","{""judgement"":1}","[0]","survey-likert","443","1367448","0.0-443.0","23634kc7","","","","","","","","0"
"2120.5699999998324","{""confidence"":1}","[0]","survey-likert","444","1369570","0.0-444.0","23634kc7","","","","","","","",""
"","","","call-function","445","1369570","0.0-445.0","23634kc7","","","","","","","",""
"null","","","html-keyboard-response","446","1371074","0.0-446.0","23634kc7","","<span style=""color:Black; font-size:50px;"">Agent A","null","","","","",""
"null","","","video-keyboard-response","447","1373861","0.0-447.0","23634kc7","","","null","","Agent A","veridical","FOR_REV_MAP_BLOBBY_STIM/498372.bmp_pp95_L2_V1.0_veridical_freeview_isoTrue_fps144.mp4",""
"null","","","html-keyboard-response","448","1375366","0.0-448.0","23634kc7","","<span style=""color:Black; font-size:50px;"">Agent B","null","","","","",""
"null","","","video-keyboard-response","449","1378154","0.0-449.0","23634kc7","","","null","","Agent B","scrambled","FOR_REV_MAP_BLOBBY_STIM/498372.bmp_pp95_L2_V1.0_veridical_freeview_isoTrue_fps144_reversed_REAL.mp4",""
"","","","call-function","450","1378155","0.0-450.0","23634kc7","","","","","","","",""
"2596.0749999999534","{""judgement"":0}","[0]","survey-likert","451","1380751","0.0-451.0","23634kc7","","","","","","","","0"
"1488.7849999999162","{""confidence"":2}","[0]","survey-likert","452","1382241","0.0-452.0","23634kc7","","","","","","","",""
"","","","call-function","453","1382242","0.0-453.0","23634kc7","","","","","","","",""
"null","","","html-keyboard-response","454","1383747","0.0-454.0","23634kc7","","<span style=""color:Black; font-size:50px;"">Agent A","null","","","","",""
"null","","","video-keyboard-response","455","1386515","0.0-455.0","23634kc7","","","null","","Agent A","scrambled","FOR_REV_MAP_BLOBBY_STIM/1160247.bmp_pp54_L2_V1.0_veridical_freeview_isoTrue_fps144_reversed_REAL.mp4",""
"null","","","html-keyboard-response","456","1388020","0.0-456.0","23634kc7","","<span style=""color:Black; font-size:50px;"">Agent B","null","","","","",""
"null","","","video-keyboard-response","457","1390786","0.0-457.0","23634kc7","","","null","","Agent B","veridical","FOR_REV_MAP_BLOBBY_STIM/1160247.bmp_pp54_L2_V1.0_veridical_freeview_isoTrue_fps144.mp4",""
"","","","call-function","458","1390786","0.0-458.0","23634kc7","","","","","","","",""
"9277.034999999916","{""judgement"":1}","[0]","survey-likert","459","1400064","0.0-459.0","23634kc7","","","","","","","","1"
"3056.7700000000186","{""confidence"":1}","[0]","survey-likert","460","1403123","0.0-460.0","23634kc7","","","","","","","",""
"","","","call-function","461","1403123","0.0-461.0","23634kc7","","","","","","","",""
"null","","","html-keyboard-response","462","1404627","0.0-462.0","23634kc7","","<span style=""color:Black; font-size:50px;"">Agent A","null","","","","",""
"null","","","video-keyboard-response","463","1407386","0.0-463.0","23634kc7","","","null","","Agent A","veridical","FOR_REV_MAP_BLOBBY_STIM/1592047.bmp_pp51_L1_V1.0_veridical_freeview_isoTrue_fps144.mp4",""
"null","","","html-keyboard-response","464","1408893","0.0-464.0","23634kc7","","<span style=""color:Black; font-size:50px;"">Agent B","null","","","","",""
"null","","","video-keyboard-response","465","1411651","0.0-465.0","23634kc7","","","null","","Agent B","scrambled","FOR_REV_MAP_BLOBBY_STIM/1592047.bmp_pp51_L1_V1.0_veridical_freeview_isoTrue_fps144_reversed_REAL.mp4",""
"","","","call-function","466","1411653","0.0-466.0","23634kc7","","","","","","","",""
"1632.1999999999534","{""judgement"":1}","[0]","survey-likert","467","1413287","0.0-467.0","23634kc7","","","","","","","","0"
"1912.2399999999907","{""confidence"":1}","[0]","survey-likert","468","1415201","0.0-468.0","23634kc7","","","","","","","",""
"","","","call-function","469","1415201","0.0-469.0","23634kc7","","","","","","","",""
"null","","","html-keyboard-response","470","1416704","0.0-470.0","23634kc7","","<span style=""color:Black; font-size:50px;"">Agent A","null","","","","",""
"null","","","video-keyboard-response","471","1419475","0.0-471.0","23634kc7","","","null","","Agent A","scrambled","FOR_REV_MAP_BLOBBY_STIM/1160049.bmp_pp53_L2_V1.0_veridical_freeview_isoTrue_fps144_reversed_REAL.mp4",""
"null","","","html-keyboard-response","472","1420979","0.0-472.0","23634kc7","","<span style=""color:Black; font-size:50px;"">Agent B","null","","","","",""
"null","","","video-keyboard-response","473","1423751","0.0-473.0","23634kc7","","","null","","Agent B","veridical","FOR_REV_MAP_BLOBBY_STIM/1160049.bmp_pp53_L2_V1.0_veridical_freeview_isoTrue_fps144.mp4",""
"","","","call-function","474","1423752","0.0-474.0","23634kc7","","","","","","","",""
"6666.1699999999255","{""judgement"":1}","[0]","survey-likert","475","1430419","0.0-475.0","23634kc7","","","","","","","","1"
"1301.5349999999162","{""confidence"":0}","[0]","survey-likert","476","1431723","0.0-476.0","23634kc7","","","","","","","",""
"","","","call-function","477","1431723","0.0-477.0","23634kc7","","","","","","","",""
"null","","","html-keyboard-response","478","1433229","0.0-478.0","23634kc7","","<span style=""color:Black; font-size:50px;"">Agent A","null","","","","",""
"null","","","video-keyboard-response","479","1435917","0.0-479.0","23634kc7","","","null","","Agent A","veridical","FOR_REV_MAP_BLOBBY_STIM/1592350.bmp_pp55_L3_V1.0_veridical_freeview_isoTrue_fps144.mp4",""
"null","","","html-keyboard-response","480","1437422","0.0-480.0","23634kc7","","<span style=""color:Black; font-size:50px;"">Agent B","null","","","","",""
"null","","","video-keyboard-response","481","1440126","0.0-481.0","23634kc7","","","null","","Agent B","scrambled","FOR_REV_MAP_BLOBBY_STIM/1592350.bmp_pp55_L3_V1.0_veridical_freeview_isoTrue_fps144_reversed_REAL.mp4",""
"","","","call-function","482","1440126","0.0-482.0","23634kc7","","","","","","","",""
"3212.3000000000466","{""judgement"":0}","[0]","survey-likert","483","1443340","0.0-483.0","23634kc7","","","","","","","","0"
"1325.5249999999069","{""confidence"":1}","[0]","survey-likert","484","1444667","0.0-484.0","23634kc7","","","","","","","",""
"","","","call-function","485","1444667","0.0-485.0","23634kc7","","","","","","","",""
"null","","","html-keyboard-response","486","1446173","0.0-486.0","23634kc7","","<span style=""color:Black; font-size:50px;"">Agent A","null","","","","",""
"null","","","video-keyboard-response","487","1449008","0.0-487.0","23634kc7","","","null","","Agent A","veridical","FOR_REV_MAP_BLOBBY_STIM/1592857.bmp_pp52_L1_V1.0_veridical_freeview_isoTrue_fps144.mp4",""
"null","","","html-keyboard-response","488","1450515","0.0-488.0","23634kc7","","<span style=""color:Black; font-size:50px;"">Agent B","null","","","","",""
"null","","","video-keyboard-response","489","1453352","0.0-489.0","23634kc7","","","null","","Agent B","scrambled","FOR_REV_MAP_BLOBBY_STIM/1592857.bmp_pp52_L1_V1.0_veridical_freeview_isoTrue_fps144_reversed_REAL.mp4",""
"","","","call-function","490","1453353","0.0-490.0","23634kc7","","","","","","","",""
"2302.225000000093","{""judgement"":0}","[0]","survey-likert","491","1455656","0.0-491.0","23634kc7","","","","","","","","0"
"2571.5400000000373","{""confidence"":2}","[0]","survey-likert","492","1458229","0.0-492.0","23634kc7","","","","","","","",""
"","","","call-function","493","1458229","0.0-493.0","23634kc7","","","","","","","",""
"null","","","html-keyboard-response","494","1459731","0.0-494.0","23634kc7","","<span style=""color:Black; font-size:50px;"">Agent A","null","","","","",""
"null","","","video-keyboard-response","495","1462566","0.0-495.0","23634kc7","","","null","","Agent A","scrambled","FOR_REV_MAP_BLOBBY_STIM/107955.bmp_pp90_L2_V1.0_veridical_freeview_isoTrue_fps144_reversed_REAL.mp4",""
"null","","","html-keyboard-response","496","1464072","0.0-496.0","23634kc7","","<span style=""color:Black; font-size:50px;"">Agent B","null","","","","",""
"null","","","video-keyboard-response","497","1466907","0.0-497.0","23634kc7","","","null","","Agent B","veridical","FOR_REV_MAP_BLOBBY_STIM/107955.bmp_pp90_L2_V1.0_veridical_freeview_isoTrue_fps144.mp4",""
"","","","call-function","498","1466907","0.0-498.0","23634kc7","","","","","","","",""
"2711.4150000000373","{""judgement"":1}","[0]","survey-likert","499","1469620","0.0-499.0","23634kc7","","","","","","","","1"
"2144.6450000000186","{""confidence"":1}","[0]","survey-likert","500","1471766","0.0-500.0","23634kc7","","","","","","","",""
"31883.310000000056","","","instructions","501","1503650","0.0-501.0","23634kc7","[{""page_index"":0,""viewing_time"":30450.780000000028},{""page_index"":1,""viewing_time"":1267.9799999999814},{""page_index"":2,""viewing_time"":164.38999999989755}]","","","","","","",""
"2156.344999999972","","","instructions","502","1505806","0.0-502.0","23634kc7","[{""page_index"":0,""viewing_time"":387.2600000000093},{""page_index"":1,""viewing_time"":1291.6450000000186},{""page_index"":2,""viewing_time"":477.32499999995343}]","","","","","","",""
"","","","call-function","503","1505807","0.0-503.0","23634kc7","","","","","","","",""
"null","","","html-keyboard-response","504","1507310","0.0-504.0","23634kc7","","<span style=""color:Black; font-size:50px;"">Agent A","null","","","","",""
"null","","","video-keyboard-response","505","1510078","0.0-505.0","23634kc7","","","null","","Agent A","veridical","FOR_REV_MAP_BLOBBY_STIM/150277.bmp_pp65_L3_V1.0_veridical_freeview_isoTrue_fps144.mp4",""
"null","","","html-keyboard-response","506","1511579","0.0-506.0","23634kc7","","<span style=""color:Black; font-size:50px;"">Agent B","null","","","","",""
"null","","","video-keyboard-response","507","1514345","0.0-507.0","23634kc7","","","null","","Agent B","scrambled","FOR_REV_MAP_BLOBBY_STIM/150277.bmp_pp65_L3_V1.0_veridical_freeview_isoTrue_fps144_reversed_REAL.mp4",""
"","","","call-function","508","1514347","0.0-508.0","23634kc7","","","","","","","",""
"1870.9200000001583","{""judgement"":0}","[0]","survey-likert","509","1516219","0.0-509.0","23634kc7","","","","","","","","0"
"1764.0549999999348","{""confidence"":3}","[0]","survey-likert","510","1517986","0.0-510.0","23634kc7","","","","","","","",""
"","","","call-function","511","1517987","0.0-511.0","23634kc7","","","","","","","",""
"null","","","html-keyboard-response","512","1519492","0.0-512.0","23634kc7","","<span style=""color:Black; font-size:50px;"">Agent A","null","","","","",""
"null","","","video-keyboard-response","513","1522158","0.0-513.0","23634kc7","","","null","","Agent A","veridical","FOR_REV_MAP_BLOBBY_STIM/61513.bmp_pp75_L1_V1.0_veridical_freeview_isoTrue_fps144.mp4",""
"null","","","html-keyboard-response","514","1523662","0.0-514.0","23634kc7","","<span style=""color:Black; font-size:50px;"">Agent B","null","","","","",""
"null","","","video-keyboard-response","515","1526334","0.0-515.0","23634kc7","","","null","","Agent B","scrambled","FOR_REV_MAP_BLOBBY_STIM/61513.bmp_pp75_L1_V1.0_veridical_freeview_isoTrue_fps144_reversed_REAL.mp4",""
"","","","call-function","516","1526335","0.0-516.0","23634kc7","","","","","","","",""
"2111.3249999999534","{""judgement"":1}","[0]","survey-likert","517","1528447","0.0-517.0","23634kc7","","","","","","","","0"
"1138.655000000028","{""confidence"":2}","[0]","survey-likert","518","1529587","0.0-518.0","23634kc7","","","","","","","",""
"","","","call-function","519","1529588","0.0-519.0","23634kc7","","","","","","","",""
"null","","","html-keyboard-response","520","1531091","0.0-520.0","23634kc7","","<span style=""color:Black; font-size:50px;"">Agent A","null","","","","",""
"null","","","video-keyboard-response","521","1533695","0.0-521.0","23634kc7","","","null","","Agent A","scrambled","FOR_REV_MAP_BLOBBY_STIM/1159874.bmp_pp96_L2_V1.0_veridical_freeview_isoTrue_fps144_reversed_REAL.mp4",""
"null","","","html-keyboard-response","522","1535199","0.0-522.0","23634kc7","","<span style=""color:Black; font-size:50px;"">Agent B","null","","","","",""
"null","","","video-keyboard-response","523","1537806","0.0-523.0","23634kc7","","","null","","Agent B","veridical","FOR_REV_MAP_BLOBBY_STIM/1159874.bmp_pp96_L2_V1.0_veridical_freeview_isoTrue_fps144.mp4",""
"","","","call-function","524","1537807","0.0-524.0","23634kc7","","","","","","","",""
"3483.6750000000466","{""judgement"":0}","[0]","survey-likert","525","1541291","0.0-525.0","23634kc7","","","","","","","","1"
"2074.2099999999627","{""confidence"":1}","[0]","survey-likert","526","1543367","0.0-526.0","23634kc7","","","","","","","",""
"","","","call-function","527","1543367","0.0-527.0","23634kc7","","","","","","","",""
"null","","","html-keyboard-response","528","1544870","0.0-528.0","23634kc7","","<span style=""color:Black; font-size:50px;"">Agent A","null","","","","",""
"null","","","video-keyboard-response","529","1547706","0.0-529.0","23634kc7","","","null","","Agent A","scrambled","FOR_REV_MAP_BLOBBY_STIM/1592025.bmp_pp68_L1_V1.0_veridical_freeview_isoTrue_fps144_reversed_REAL.mp4",""
"null","","","html-keyboard-response","530","1549209","0.0-530.0","23634kc7","","<span style=""color:Black; font-size:50px;"">Agent B","null","","","","",""
"null","","","video-keyboard-response","531","1552042","0.0-531.0","23634kc7","","","null","","Agent B","veridical","FOR_REV_MAP_BLOBBY_STIM/1592025.bmp_pp68_L1_V1.0_veridical_freeview_isoTrue_fps144.mp4",""
"","","","call-function","532","1552042","0.0-532.0","23634kc7","","","","","","","",""
"1648.3149999999441","{""judgement"":1}","[0]","survey-likert","533","1553692","0.0-533.0","23634kc7","","","","","","","","1"
"1425.714999999851","{""confidence"":3}","[0]","survey-likert","534","1555119","0.0-534.0","23634kc7","","","","","","","",""
"","","","call-function","535","1555119","0.0-535.0","23634kc7","","","","","","","",""
"null","","","html-keyboard-response","536","1556623","0.0-536.0","23634kc7","","<span style=""color:Black; font-size:50px;"">Agent A","null","","","","",""
"null","","","video-keyboard-response","537","1559358","0.0-537.0","23634kc7","","","null","","Agent A","veridical","FOR_REV_MAP_BLOBBY_STIM/1159592.bmp_pp91_L3_V1.0_veridical_freeview_isoTrue_fps144.mp4",""
"null","","","html-keyboard-response","538","1560860","0.0-538.0","23634kc7","","<span style=""color:Black; font-size:50px;"">Agent B","null","","","","",""
"null","","","video-keyboard-response","539","1563601","0.0-539.0","23634kc7","","","null","","Agent B","scrambled","FOR_REV_MAP_BLOBBY_STIM/1159592.bmp_pp91_L3_V1.0_veridical_freeview_isoTrue_fps144_reversed_REAL.mp4",""
"","","","call-function","540","1563602","0.0-540.0","23634kc7","","","","","","","",""
"1259.1499999999069","{""judgement"":1}","[0]","survey-likert","541","1564862","0.0-541.0","23634kc7","","","","","","","","0"
"1861.0900000000838","{""confidence"":1}","[0]","survey-likert","542","1566725","0.0-542.0","23634kc7","","","","","","","",""
"","","","call-function","543","1566725","0.0-543.0","23634kc7","","","","","","","",""
"null","","","html-keyboard-response","544","1568227","0.0-544.0","23634kc7","","<span style=""color:Black; font-size:50px;"">Agent A","null","","","","",""
"null","","","video-keyboard-response","545","1571001","0.0-545.0","23634kc7","","","null","","Agent A","veridical","FOR_REV_MAP_BLOBBY_STIM/1592298.bmp_pp56_L3_V1.0_veridical_freeview_isoTrue_fps144.mp4",""
"null","","","html-keyboard-response","546","1572505","0.0-546.0","23634kc7","","<span style=""color:Black; font-size:50px;"">Agent B","null","","","","",""
"null","","","video-keyboard-response","547","1575278","0.0-547.0","23634kc7","","","null","","Agent B","scrambled","FOR_REV_MAP_BLOBBY_STIM/1592298.bmp_pp56_L3_V1.0_veridical_freeview_isoTrue_fps144_reversed_REAL.mp4",""
"","","","call-function","548","1575279","0.0-548.0","23634kc7","","","","","","","",""
"2885.9849999998696","{""judgement"":1}","[0]","survey-likert","549","1578166","0.0-549.0","23634kc7","","","","","","","","0"
"2148.3549999999814","{""confidence"":2}","[0]","survey-likert","550","1580316","0.0-550.0","23634kc7","","","","","","","",""
"","","","call-function","551","1580317","0.0-551.0","23634kc7","","","","","","","",""
"null","","","html-keyboard-response","552","1581823","0.0-552.0","23634kc7","","<span style=""color:Black; font-size:50px;"">Agent A","null","","","","",""
"null","","","video-keyboard-response","553","1584643","0.0-553.0","23634kc7","","","null","","Agent A","scrambled","FOR_REV_MAP_BLOBBY_STIM/1592314.bmp_pp100_L3_V1.0_veridical_freeview_isoTrue_fps144_reversed_REAL.mp4",""
"null","","","html-keyboard-response","554","1586148","0.0-554.0","23634kc7","","<span style=""color:Black; font-size:50px;"">Agent B","null","","","","",""
"null","","","video-keyboard-response","555","1588958","0.0-555.0","23634kc7","","","null","","Agent B","veridical","FOR_REV_MAP_BLOBBY_STIM/1592314.bmp_pp100_L3_V1.0_veridical_freeview_isoTrue_fps144.mp4",""
"","","","call-function","556","1588959","0.0-556.0","23634kc7","","","","","","","",""
"2231.2000000001863","{""judgement"":0}","[0]","survey-likert","557","1591191","0.0-557.0","23634kc7","","","","","","","","1"
"1455.9250000000466","{""confidence"":2}","[0]","survey-likert","558","1592648","0.0-558.0","23634kc7","","","","","","","",""
"","","","call-function","559","1592649","0.0-559.0","23634kc7","","","","","","","",""
"null","","","html-keyboard-response","560","1594153","0.0-560.0","23634kc7","","<span style=""color:Black; font-size:50px;"">Agent A","null","","","","",""
"null","","","video-keyboard-response","561","1596947","0.0-561.0","23634kc7","","","null","","Agent A","scrambled","FOR_REV_MAP_BLOBBY_STIM/1592150.bmp_pp77_L3_V1.0_veridical_freeview_isoTrue_fps144_reversed_REAL.mp4",""
"null","","","html-keyboard-response","562","1598450","0.0-562.0","23634kc7","","<span style=""color:Black; font-size:50px;"">Agent B","null","","","","",""
"null","","","video-keyboard-response","563","1601241","0.0-563.0","23634kc7","","","null","","Agent B","veridical","FOR_REV_MAP_BLOBBY_STIM/1592150.bmp_pp77_L3_V1.0_veridical_freeview_isoTrue_fps144.mp4",""
"","","","call-function","564","1601242","0.0-564.0","23634kc7","","","","","","","",""
"3493.2600000000093","{""judgement"":1}","[0]","survey-likert","565","1604737","0.0-565.0","23634kc7","","","","","","","","1"
"1454.5200000000186","{""confidence"":0}","[0]","survey-likert","566","1606194","0.0-566.0","23634kc7","","","","","","","",""
"","","","call-function","567","1606195","0.0-567.0","23634kc7","","","","","","","",""
"null","","","html-keyboard-response","568","1607700","0.0-568.0","23634kc7","","<span style=""color:Black; font-size:50px;"">Agent A","null","","","","",""
"null","","","video-keyboard-response","569","1610521","0.0-569.0","23634kc7","","","null","","Agent A","scrambled","FOR_REV_MAP_BLOBBY_STIM/1592921.bmp_pp69_L3_V1.0_veridical_freeview_isoTrue_fps144_reversed_REAL.mp4",""
"null","","","html-keyboard-response","570","1612025","0.0-570.0","23634kc7","","<span style=""color:Black; font-size:50px;"">Agent B","null","","","","",""
"null","","","video-keyboard-response","571","1614830","0.0-571.0","23634kc7","","","null","","Agent B","veridical","FOR_REV_MAP_BLOBBY_STIM/1592921.bmp_pp69_L3_V1.0_veridical_freeview_isoTrue_fps144.mp4",""
"","","","call-function","572","1614831","0.0-572.0","23634kc7","","","","","","","",""
"3573.590000000084","{""judgement"":1}","[0]","survey-likert","573","1618406","0.0-573.0","23634kc7","","","","","","","","1"
"1583.875","{""confidence"":0}","[0]","survey-likert","574","1619991","0.0-574.0","23634kc7","","","","","","","",""
"","","","call-function","575","1619992","0.0-575.0","23634kc7","","","","","","","",""
"null","","","html-keyboard-response","576","1621497","0.0-576.0","23634kc7","","<span style=""color:Black; font-size:50px;"">Agent A","null","","","","",""
"null","","","video-keyboard-response","577","1624334","0.0-577.0","23634kc7","","","null","","Agent A","veridical","FOR_REV_MAP_BLOBBY_STIM/713920.bmp_pp76_L1_V1.0_veridical_freeview_isoTrue_fps144.mp4",""
"null","","","html-keyboard-response","578","1625839","0.0-578.0","23634kc7","","<span style=""color:Black; font-size:50px;"">Agent B","null","","","","",""
"null","","","video-keyboard-response","579","1628655","0.0-579.0","23634kc7","","","null","","Agent B","scrambled","FOR_REV_MAP_BLOBBY_STIM/713920.bmp_pp76_L1_V1.0_veridical_freeview_isoTrue_fps144_reversed_REAL.mp4",""
"","","","call-function","580","1628655","0.0-580.0","23634kc7","","","","","","","",""
"2658.6750000000466","{""judgement"":0}","[0]","survey-likert","581","1631315","0.0-581.0","23634kc7","","","","","","","","0"
"1870.9799999999814","{""confidence"":0}","[0]","survey-likert","582","1633187","0.0-582.0","23634kc7","","","","","","","",""
"1190.714999999851","","","instructions","583","1634379","0.0-583.0","23634kc7","[{""page_index"":0,""viewing_time"":1190.5700000000652}]","","","","","","",""
"1986.6999999999534","","","instructions","584","1636366","0.0-584.0","23634kc7","[{""page_index"":0,""viewing_time"":1986.4750000000931}]","","","","","","",""
"6257.714999999851","{""post-1"":2}","[0]","survey-likert","585","1642625","0.0-585.0","23634kc7","","","","","","","",""
"4182.739999999991","{""post-1"":1}","[0]","survey-likert","586","1646809","0.0-586.0","23634kc7","","","","","","","",""
"8348.835000000196","{""post-2"":1}","[0]","survey-likert","587","1655160","0.0-587.0","23634kc7","","","","","","","",""
"4609.440000000177","{""post-2"":1}","[0]","survey-likert","588","1659772","0.0-588.0","23634kc7","","","","","","","",""
"7045.135000000009","{""post-3"":0}","[0]","survey-likert","589","1666819","0.0-589.0","23634kc7","","","","","","","",""
"3928.964999999851","{""post-3"":1}","[0]","survey-likert","590","1670750","0.0-590.0","23634kc7","","","","","","","",""
"8046.324999999953","{""post-4"":0}","[0]","survey-likert","591","1678798","0.0-591.0","23634kc7","","","","","","","",""
"2968.1299999998882","{""post-4"":0}","[0]","survey-likert","592","1681767","0.0-592.0","23634kc7","","","","","","","",""
"4031.5049999998882","{""post-5"":2}","[0]","survey-likert","593","1685800","0.0-593.0","23634kc7","","","","","","","",""
"3672.230000000214","{""post-5"":2}","[0]","survey-likert","594","1689474","0.0-594.0","23634kc7","","","","","","","",""
"40833.9850000001","{""Q0"":""Moderate to severe ADHD, inattentive type\n""}","","survey-text","595","1730313","0.0-595.0","23634kc7","","","","","","","",""
"16587.11999999988","{""Q0"":""I found assessing my confidence level easy""}","","survey-text","596","1746904","0.0-596.0","23634kc7","","","","","","","",""
"15018.469999999972","{""Q0"":""paying focused attention to the screen for a long time""}","","survey-text","597","1761926","0.0-597.0","23634kc7","","","","","","","",""
"935.7249999998603","","","instructions","598","1762862","0.0-598.0","23634kc7","[{""page_index"":0,""viewing_time"":935.5799999998417}]","","","","","","",""
"41347.57999999984","{""Experimenter_end"":[""Printed ID# 23634kc7 on consent form"",""Given subject SONA credit or payment"",""Given the subject debrief form""]}","[0]","survey-multi-select","599","1804212","0.0-599.0","23634kc7","","","","","","","",""
