"rt","responses","question_order","trial_type","trial_index","time_elapsed","internal_node_id","ID","view_history","stimulus","key_press","value","agent","condition","image","correct_answer"
"12643.470000000001","{""Experimenter"":[""Confirmed subject's identity (ID card)"",""Confirmed normal or corrected-to-normal vision"",""Obtained consent (signature and date)"",""Checked the test room lighting"",""Checked computer screen lighting"",""Checked distance from screen to chin rest (50cm)"",""Cleaned and adjusted chin rest"",""Counterbalanced the order of the tasks"",""Opened the experiment in Firefox"",""Made the experiment full screen"",""Encouraged subject to silence phone, put away distractors, etc.""]}","[0]","survey-multi-select","0","12652","0.0-0.0","328gfk49","","","","","","","",""
"142488.755","","","instructions","1","155143","0.0-1.0","328gfk49","[{""page_index"":0,""viewing_time"":142488.6}]","","","","","","",""
"5719.404999999999","","","instructions","2","160863","0.0-2.0","328gfk49","[{""page_index"":0,""viewing_time"":1104.3499999999767},{""page_index"":1,""viewing_time"":2434.9500000000116},{""page_index"":2,""viewing_time"":2179.975000000006}]","","","","","","",""
"1273.8950000000186","","","instructions","3","162138","0.0-3.0","328gfk49","[{""page_index"":0,""viewing_time"":1273.7850000000035}]","","","","","","",""
"null","","","video-keyboard-response","4","165213","0.0-4.0","328gfk49","","","null","","","","",""
"10911.485000000015","","","instructions","5","176125","0.0-5.0","328gfk49","[{""page_index"":0,""viewing_time"":3523.0250000000233},{""page_index"":1,""viewing_time"":2213.9799999999814},{""page_index"":2,""viewing_time"":931.015000000014},{""page_index"":3,""viewing_time"":1499.125},{""page_index"":4,""viewing_time"":2744.204999999987}]","","","","","","",""
"7514.739999999991","","","instructions","6","183640","0.0-6.0","328gfk49","[{""page_index"":0,""viewing_time"":7514.609999999986}]","","","","","","",""
"","","","call-function","7","183641","0.0-7.0","328gfk49","","","","","","","",""
"null","","","html-keyboard-response","8","185143","0.0-8.0","328gfk49","","<span style=""color:Black; font-size:50px;"">Agent A","null","","","","",""
"null","","","video-keyboard-response","9","187810","0.0-9.0","328gfk49","","","null","","Agent A","scrambled","FOR_REV_BLOBBY_STIM/1592133.bmp_pp75_L1_V1.0_veridical_freeview_isoFalse_fps144_reversed_REAL.mp4",""
"null","","","html-keyboard-response","10","189314","0.0-10.0","328gfk49","","<span style=""color:Black; font-size:50px;"">Agent B","null","","","","",""
"null","","","video-keyboard-response","11","192070","0.0-11.0","328gfk49","","","null","","Agent B","veridical","FOR_REV_BLOBBY_STIM/1592133.bmp_pp75_L1_V1.0_veridical_freeview_isoFalse_fps144.mp4",""
"","","","call-function","12","192071","0.0-12.0","328gfk49","","","","","","","",""
"4229.6449999999895","{""judgement"":0}","[0]","survey-likert","13","196302","0.0-13.0","328gfk49","","","","","","","","1"
"1137.9549999999872","{""confidence"":1}","[0]","survey-likert","14","197441","0.0-14.0","328gfk49","","","","","","","",""
"","","","call-function","15","197442","0.0-15.0","328gfk49","","","","","","","",""
"null","","","html-keyboard-response","16","198944","0.0-16.0","328gfk49","","<span style=""color:Black; font-size:50px;"">Agent A","null","","","","",""
"null","","","video-keyboard-response","17","201628","0.0-17.0","328gfk49","","","null","","Agent A","veridical","FOR_REV_BLOBBY_STIM/285994.bmp_pp92_L3_V1.0_veridical_freeview_isoFalse_fps144.mp4",""
"null","","","html-keyboard-response","18","203132","0.0-18.0","328gfk49","","<span style=""color:Black; font-size:50px;"">Agent B","null","","","","",""
"null","","","video-keyboard-response","19","205843","0.0-19.0","328gfk49","","","null","","Agent B","scrambled","FOR_REV_BLOBBY_STIM/285994.bmp_pp92_L3_V1.0_veridical_freeview_isoFalse_fps144_reversed_REAL.mp4",""
"","","","call-function","20","205844","0.0-20.0","328gfk49","","","","","","","",""
"1922.1499999999942","{""judgement"":1}","[0]","survey-likert","21","207768","0.0-21.0","328gfk49","","","","","","","","0"
"2766.3000000000175","{""confidence"":2}","[0]","survey-likert","22","210535","0.0-22.0","328gfk49","","","","","","","",""
"","","","call-function","23","210536","0.0-23.0","328gfk49","","","","","","","",""
"null","","","html-keyboard-response","24","212039","0.0-24.0","328gfk49","","<span style=""color:Black; font-size:50px;"">Agent A","null","","","","",""
"null","","","video-keyboard-response","25","214846","0.0-25.0","328gfk49","","","null","","Agent A","scrambled","FOR_REV_BLOBBY_STIM/1591994.bmp_pp69_L3_V1.0_veridical_freeview_isoFalse_fps144_reversed_REAL.mp4",""
"null","","","html-keyboard-response","26","216350","0.0-26.0","328gfk49","","<span style=""color:Black; font-size:50px;"">Agent B","null","","","","",""
"null","","","video-keyboard-response","27","219120","0.0-27.0","328gfk49","","","null","","Agent B","veridical","FOR_REV_BLOBBY_STIM/1591994.bmp_pp69_L3_V1.0_veridical_freeview_isoFalse_fps144.mp4",""
"","","","call-function","28","219121","0.0-28.0","328gfk49","","","","","","","",""
"3144.899999999994","{""judgement"":0}","[0]","survey-likert","29","222267","0.0-29.0","328gfk49","","","","","","","","1"
"1781.2050000000163","{""confidence"":2}","[0]","survey-likert","30","224050","0.0-30.0","328gfk49","","","","","","","",""
"","","","call-function","31","224051","0.0-31.0","328gfk49","","","","","","","",""
"null","","","html-keyboard-response","32","225556","0.0-32.0","328gfk49","","<span style=""color:Black; font-size:50px;"">Agent A","null","","","","",""
"null","","","video-keyboard-response","33","228349","0.0-33.0","328gfk49","","","null","","Agent A","scrambled","FOR_REV_BLOBBY_STIM/1159855.bmp_pp99_L2_V1.0_veridical_freeview_isoFalse_fps144_reversed_REAL.mp4",""
"null","","","html-keyboard-response","34","229851","0.0-34.0","328gfk49","","<span style=""color:Black; font-size:50px;"">Agent B","null","","","","",""
"null","","","video-keyboard-response","35","232622","0.0-35.0","328gfk49","","","null","","Agent B","veridical","FOR_REV_BLOBBY_STIM/1159855.bmp_pp99_L2_V1.0_veridical_freeview_isoFalse_fps144.mp4",""
"","","","call-function","36","232623","0.0-36.0","328gfk49","","","","","","","",""
"2101.8649999999907","{""judgement"":0}","[0]","survey-likert","37","234726","0.0-37.0","328gfk49","","","","","","","","1"
"1547.5800000000163","{""confidence"":1}","[0]","survey-likert","38","236275","0.0-38.0","328gfk49","","","","","","","",""
"","","","call-function","39","236275","0.0-39.0","328gfk49","","","","","","","",""
"null","","","html-keyboard-response","40","237781","0.0-40.0","328gfk49","","<span style=""color:Black; font-size:50px;"">Agent A","null","","","","",""
"null","","","video-keyboard-response","41","240484","0.0-41.0","328gfk49","","","null","","Agent A","veridical","FOR_REV_BLOBBY_STIM/1592817.bmp_pp55_L3_V1.0_veridical_freeview_isoFalse_fps144.mp4",""
"null","","","html-keyboard-response","42","241987","0.0-42.0","328gfk49","","<span style=""color:Black; font-size:50px;"">Agent B","null","","","","",""
"null","","","video-keyboard-response","43","244721","0.0-43.0","328gfk49","","","null","","Agent B","scrambled","FOR_REV_BLOBBY_STIM/1592817.bmp_pp55_L3_V1.0_veridical_freeview_isoFalse_fps144_reversed_REAL.mp4",""
"","","","call-function","44","244722","0.0-44.0","328gfk49","","","","","","","",""
"3538.149999999994","{""judgement"":1}","[0]","survey-likert","45","248261","0.0-45.0","328gfk49","","","","","","","","0"
"1891.5199999999895","{""confidence"":1}","[0]","survey-likert","46","250153","0.0-46.0","328gfk49","","","","","","","",""
"","","","call-function","47","250154","0.0-47.0","328gfk49","","","","","","","",""
"null","","","html-keyboard-response","48","251660","0.0-48.0","328gfk49","","<span style=""color:Black; font-size:50px;"">Agent A","null","","","","",""
"null","","","video-keyboard-response","49","254349","0.0-49.0","328gfk49","","","null","","Agent A","scrambled","FOR_REV_BLOBBY_STIM/713211.bmp_pp100_L3_V1.0_veridical_freeview_isoFalse_fps144_reversed_REAL.mp4",""
"null","","","html-keyboard-response","50","255853","0.0-50.0","328gfk49","","<span style=""color:Black; font-size:50px;"">Agent B","null","","","","",""
"null","","","video-keyboard-response","51","258546","0.0-51.0","328gfk49","","","null","","Agent B","veridical","FOR_REV_BLOBBY_STIM/713211.bmp_pp100_L3_V1.0_veridical_freeview_isoFalse_fps144.mp4",""
"","","","call-function","52","258547","0.0-52.0","328gfk49","","","","","","","",""
"2033.2250000000058","{""judgement"":0}","[0]","survey-likert","53","260581","0.0-53.0","328gfk49","","","","","","","","1"
"1865.8849999999802","{""confidence"":1}","[0]","survey-likert","54","262448","0.0-54.0","328gfk49","","","","","","","",""
"","","","call-function","55","262448","0.0-55.0","328gfk49","","","","","","","",""
"null","","","html-keyboard-response","56","263950","0.0-56.0","328gfk49","","<span style=""color:Black; font-size:50px;"">Agent A","null","","","","",""
"null","","","video-keyboard-response","57","266711","0.0-57.0","328gfk49","","","null","","Agent A","veridical","FOR_REV_BLOBBY_STIM/1159446.bmp_pp60_L3_V1.0_veridical_freeview_isoFalse_fps144.mp4",""
"null","","","html-keyboard-response","58","268213","0.0-58.0","328gfk49","","<span style=""color:Black; font-size:50px;"">Agent B","null","","","","",""
"null","","","video-keyboard-response","59","270957","0.0-59.0","328gfk49","","","null","","Agent B","scrambled","FOR_REV_BLOBBY_STIM/1159446.bmp_pp60_L3_V1.0_veridical_freeview_isoFalse_fps144_reversed_REAL.mp4",""
"","","","call-function","60","270958","0.0-60.0","328gfk49","","","","","","","",""
"2533.2999999999884","{""judgement"":0}","[0]","survey-likert","61","273492","0.0-61.0","328gfk49","","","","","","","","0"
"1497.7949999999837","{""confidence"":1}","[0]","survey-likert","62","274991","0.0-62.0","328gfk49","","","","","","","",""
"","","","call-function","63","274992","0.0-63.0","328gfk49","","","","","","","",""
"null","","","html-keyboard-response","64","276498","0.0-64.0","328gfk49","","<span style=""color:Black; font-size:50px;"">Agent A","null","","","","",""
"null","","","video-keyboard-response","65","279320","0.0-65.0","328gfk49","","","null","","Agent A","scrambled","FOR_REV_BLOBBY_STIM/713681.bmp_pp86_L2_V1.0_veridical_freeview_isoFalse_fps144_reversed_REAL.mp4",""
"null","","","html-keyboard-response","66","280821","0.0-66.0","328gfk49","","<span style=""color:Black; font-size:50px;"">Agent B","null","","","","",""
"null","","","video-keyboard-response","67","283610","0.0-67.0","328gfk49","","","null","","Agent B","veridical","FOR_REV_BLOBBY_STIM/713681.bmp_pp86_L2_V1.0_veridical_freeview_isoFalse_fps144.mp4",""
"","","","call-function","68","283611","0.0-68.0","328gfk49","","","","","","","",""
"2190.0800000000163","{""judgement"":1}","[0]","survey-likert","69","285802","0.0-69.0","328gfk49","","","","","","","","1"
"1738.1199999999953","{""confidence"":1}","[0]","survey-likert","70","287541","0.0-70.0","328gfk49","","","","","","","",""
"","","","call-function","71","287542","0.0-71.0","328gfk49","","","","","","","",""
"null","","","html-keyboard-response","72","289046","0.0-72.0","328gfk49","","<span style=""color:Black; font-size:50px;"">Agent A","null","","","","",""
"null","","","video-keyboard-response","73","291797","0.0-73.0","328gfk49","","","null","","Agent A","scrambled","FOR_REV_BLOBBY_STIM/498155.bmp_pp61_L2_V1.0_veridical_freeview_isoFalse_fps144_reversed_REAL.mp4",""
"null","","","html-keyboard-response","74","293303","0.0-74.0","328gfk49","","<span style=""color:Black; font-size:50px;"">Agent B","null","","","","",""
"null","","","video-keyboard-response","75","296053","0.0-75.0","328gfk49","","","null","","Agent B","veridical","FOR_REV_BLOBBY_STIM/498155.bmp_pp61_L2_V1.0_veridical_freeview_isoFalse_fps144.mp4",""
"","","","call-function","76","296054","0.0-76.0","328gfk49","","","","","","","",""
"2149.3399999999674","{""judgement"":0}","[0]","survey-likert","77","298205","0.0-77.0","328gfk49","","","","","","","","1"
"1510.7050000000163","{""confidence"":0}","[0]","survey-likert","78","299717","0.0-78.0","328gfk49","","","","","","","",""
"","","","call-function","79","299717","0.0-79.0","328gfk49","","","","","","","",""
"null","","","html-keyboard-response","80","301223","0.0-80.0","328gfk49","","<span style=""color:Black; font-size:50px;"">Agent A","null","","","","",""
"null","","","video-keyboard-response","81","303949","0.0-81.0","328gfk49","","","null","","Agent A","veridical","FOR_REV_BLOBBY_STIM/285933.bmp_pp81_L1_V1.0_veridical_freeview_isoFalse_fps144.mp4",""
"null","","","html-keyboard-response","82","305453","0.0-82.0","328gfk49","","<span style=""color:Black; font-size:50px;"">Agent B","null","","","","",""
"null","","","video-keyboard-response","83","308205","0.0-83.0","328gfk49","","","null","","Agent B","scrambled","FOR_REV_BLOBBY_STIM/285933.bmp_pp81_L1_V1.0_veridical_freeview_isoFalse_fps144_reversed_REAL.mp4",""
"","","","call-function","84","308206","0.0-84.0","328gfk49","","","","","","","",""
"2592.5500000000466","{""judgement"":1}","[0]","survey-likert","85","310799","0.0-85.0","328gfk49","","","","","","","","0"
"1752.804999999993","{""confidence"":2}","[0]","survey-likert","86","312554","0.0-86.0","328gfk49","","","","","","","",""
"32593.774999999965","","","instructions","87","345148","0.0-87.0","328gfk49","[{""page_index"":0,""viewing_time"":2163.5750000000116},{""page_index"":1,""viewing_time"":29425.959999999963},{""page_index"":2,""viewing_time"":1003.960000000021}]","","","","","","",""
"5268.744999999995","","","instructions","88","350417","0.0-88.0","328gfk49","[{""page_index"":0,""viewing_time"":2099.3949999999604},{""page_index"":1,""viewing_time"":2804.0650000000023},{""page_index"":2,""viewing_time"":365.054999999993}]","","","","","","",""
"","","","call-function","89","350418","0.0-89.0","328gfk49","","","","","","","",""
"null","","","html-keyboard-response","90","351923","0.0-90.0","328gfk49","","<span style=""color:Black; font-size:50px;"">Agent A","null","","","","",""
"null","","","video-keyboard-response","91","354743","0.0-91.0","328gfk49","","","null","","Agent A","veridical","FOR_REV_BLOBBY_STIM/713593.bmp_pp64_L1_V1.0_veridical_freeview_isoFalse_fps144.mp4",""
"null","","","html-keyboard-response","92","356246","0.0-92.0","328gfk49","","<span style=""color:Black; font-size:50px;"">Agent B","null","","","","",""
"null","","","video-keyboard-response","93","359063","0.0-93.0","328gfk49","","","null","","Agent B","scrambled","FOR_REV_BLOBBY_STIM/713593.bmp_pp64_L1_V1.0_veridical_freeview_isoFalse_fps144_reversed_REAL.mp4",""
"","","","call-function","94","359063","0.0-94.0","328gfk49","","","","","","","",""
"3482.2350000000442","{""judgement"":1}","[0]","survey-likert","95","362546","0.0-95.0","328gfk49","","","","","","","","0"
"1634.6800000000512","{""confidence"":1}","[0]","survey-likert","96","364182","0.0-96.0","328gfk49","","","","","","","",""
"","","","call-function","97","364183","0.0-97.0","328gfk49","","","","","","","",""
"null","","","html-keyboard-response","98","365688","0.0-98.0","328gfk49","","<span style=""color:Black; font-size:50px;"">Agent A","null","","","","",""
"null","","","video-keyboard-response","99","368381","0.0-99.0","328gfk49","","","null","","Agent A","scrambled","FOR_REV_BLOBBY_STIM/1160168.bmp_pp53_L2_V1.0_veridical_freeview_isoFalse_fps144_reversed_REAL.mp4",""
"null","","","html-keyboard-response","100","369884","0.0-100.0","328gfk49","","<span style=""color:Black; font-size:50px;"">Agent B","null","","","","",""
"null","","","video-keyboard-response","101","372562","0.0-101.0","328gfk49","","","null","","Agent B","veridical","FOR_REV_BLOBBY_STIM/1160168.bmp_pp53_L2_V1.0_veridical_freeview_isoFalse_fps144.mp4",""
"","","","call-function","102","372564","0.0-102.0","328gfk49","","","","","","","",""
"3259.5950000000303","{""judgement"":0}","[0]","survey-likert","103","375825","0.0-103.0","328gfk49","","","","","","","","1"
"1919.890000000014","{""confidence"":1}","[0]","survey-likert","104","377747","0.0-104.0","328gfk49","","","","","","","",""
"","","","call-function","105","377748","0.0-105.0","328gfk49","","","","","","","",""
"null","","","html-keyboard-response","106","379254","0.0-106.0","328gfk49","","<span style=""color:Black; font-size:50px;"">Agent A","null","","","","",""
"null","","","video-keyboard-response","107","381789","0.0-107.0","328gfk49","","","null","","Agent A","veridical","FOR_REV_BLOBBY_STIM/1591876.bmp_pp63_L1_V1.0_veridical_freeview_isoFalse_fps144.mp4",""
"null","","","html-keyboard-response","108","383293","0.0-108.0","328gfk49","","<span style=""color:Black; font-size:50px;"">Agent B","null","","","","",""
"null","","","video-keyboard-response","109","385824","0.0-109.0","328gfk49","","","null","","Agent B","scrambled","FOR_REV_BLOBBY_STIM/1591876.bmp_pp63_L1_V1.0_veridical_freeview_isoFalse_fps144_reversed_REAL.mp4",""
"","","","call-function","110","385825","0.0-110.0","328gfk49","","","","","","","",""
"3778.0449999999837","{""judgement"":0}","[0]","survey-likert","111","389604","0.0-111.0","328gfk49","","","","","","","","0"
"1911.179999999993","{""confidence"":1}","[0]","survey-likert","112","391517","0.0-112.0","328gfk49","","","","","","","",""
"","","","call-function","113","391517","0.0-113.0","328gfk49","","","","","","","",""
"null","","","html-keyboard-response","114","393021","0.0-114.0","328gfk49","","<span style=""color:Black; font-size:50px;"">Agent A","null","","","","",""
"null","","","video-keyboard-response","115","395786","0.0-115.0","328gfk49","","","null","","Agent A","scrambled","FOR_REV_BLOBBY_STIM/1159621.bmp_pp92_L3_V1.0_veridical_freeview_isoFalse_fps144_reversed_REAL.mp4",""
"null","","","html-keyboard-response","116","397288","0.0-116.0","328gfk49","","<span style=""color:Black; font-size:50px;"">Agent B","null","","","","",""
"null","","","video-keyboard-response","117","400081","0.0-117.0","328gfk49","","","null","","Agent B","veridical","FOR_REV_BLOBBY_STIM/1159621.bmp_pp92_L3_V1.0_veridical_freeview_isoFalse_fps144.mp4",""
"","","","call-function","118","400082","0.0-118.0","328gfk49","","","","","","","",""
"1395.3199999999488","{""judgement"":1}","[0]","survey-likert","119","401478","0.0-119.0","328gfk49","","","","","","","","1"
"1885.734999999986","{""confidence"":2}","[0]","survey-likert","120","403366","0.0-120.0","328gfk49","","","","","","","",""
"","","","call-function","121","403366","0.0-121.0","328gfk49","","","","","","","",""
"null","","","html-keyboard-response","122","404872","0.0-122.0","328gfk49","","<span style=""color:Black; font-size:50px;"">Agent A","null","","","","",""
"null","","","video-keyboard-response","123","407736","0.0-123.0","328gfk49","","","null","","Agent A","veridical","FOR_REV_BLOBBY_STIM/498253.bmp_pp67_L2_V1.0_veridical_freeview_isoFalse_fps144.mp4",""
"null","","","html-keyboard-response","124","409238","0.0-124.0","328gfk49","","<span style=""color:Black; font-size:50px;"">Agent B","null","","","","",""
"null","","","video-keyboard-response","125","412099","0.0-125.0","328gfk49","","","null","","Agent B","scrambled","FOR_REV_BLOBBY_STIM/498253.bmp_pp67_L2_V1.0_veridical_freeview_isoFalse_fps144_reversed_REAL.mp4",""
"","","","call-function","126","412099","0.0-126.0","328gfk49","","","","","","","",""
"1915.4199999999837","{""judgement"":0}","[0]","survey-likert","127","414016","0.0-127.0","328gfk49","","","","","","","","0"
"1442.4749999999767","{""confidence"":1}","[0]","survey-likert","128","415459","0.0-128.0","328gfk49","","","","","","","",""
"","","","call-function","129","415460","0.0-129.0","328gfk49","","","","","","","",""
"null","","","html-keyboard-response","130","416962","0.0-130.0","328gfk49","","<span style=""color:Black; font-size:50px;"">Agent A","null","","","","",""
"null","","","video-keyboard-response","131","419592","0.0-131.0","328gfk49","","","null","","Agent A","veridical","FOR_REV_BLOBBY_STIM/1593146.bmp_pp93_L1_V1.0_veridical_freeview_isoFalse_fps144.mp4",""
"null","","","html-keyboard-response","132","421095","0.0-132.0","328gfk49","","<span style=""color:Black; font-size:50px;"">Agent B","null","","","","",""
"null","","","video-keyboard-response","133","423713","0.0-133.0","328gfk49","","","null","","Agent B","scrambled","FOR_REV_BLOBBY_STIM/1593146.bmp_pp93_L1_V1.0_veridical_freeview_isoFalse_fps144_reversed_REAL.mp4",""
"","","","call-function","134","423714","0.0-134.0","328gfk49","","","","","","","",""
"4217.229999999981","{""judgement"":1}","[0]","survey-likert","135","427932","0.0-135.0","328gfk49","","","","","","","","0"
"2050.694999999949","{""confidence"":1}","[0]","survey-likert","136","429984","0.0-136.0","328gfk49","","","","","","","",""
"","","","call-function","137","429985","0.0-137.0","328gfk49","","","","","","","",""
"null","","","html-keyboard-response","138","431491","0.0-138.0","328gfk49","","<span style=""color:Black; font-size:50px;"">Agent A","null","","","","",""
"null","","","video-keyboard-response","139","434315","0.0-139.0","328gfk49","","","null","","Agent A","veridical","FOR_REV_BLOBBY_STIM/498175.bmp_pp154_L1_V1.0_veridical_freeview_isoFalse_fps144.mp4",""
"null","","","html-keyboard-response","140","435822","0.0-140.0","328gfk49","","<span style=""color:Black; font-size:50px;"">Agent B","null","","","","",""
"null","","","video-keyboard-response","141","438626","0.0-141.0","328gfk49","","","null","","Agent B","scrambled","FOR_REV_BLOBBY_STIM/498175.bmp_pp154_L1_V1.0_veridical_freeview_isoFalse_fps144_reversed_REAL.mp4",""
"","","","call-function","142","438627","0.0-142.0","328gfk49","","","","","","","",""
"4082.109999999986","{""judgement"":0}","[0]","survey-likert","143","442710","0.0-143.0","328gfk49","","","","","","","","0"
"1600.9449999999488","{""confidence"":2}","[0]","survey-likert","144","444312","0.0-144.0","328gfk49","","","","","","","",""
"","","","call-function","145","444313","0.0-145.0","328gfk49","","","","","","","",""
"null","","","html-keyboard-response","146","445816","0.0-146.0","328gfk49","","<span style=""color:Black; font-size:50px;"">Agent A","null","","","","",""
"null","","","video-keyboard-response","147","448664","0.0-147.0","328gfk49","","","null","","Agent A","scrambled","FOR_REV_BLOBBY_STIM/1159572.bmp_pp71_L1_V1.0_veridical_freeview_isoFalse_fps144_reversed_REAL.mp4",""
"null","","","html-keyboard-response","148","450168","0.0-148.0","328gfk49","","<span style=""color:Black; font-size:50px;"">Agent B","null","","","","",""
"null","","","video-keyboard-response","149","453021","0.0-149.0","328gfk49","","","null","","Agent B","veridical","FOR_REV_BLOBBY_STIM/1159572.bmp_pp71_L1_V1.0_veridical_freeview_isoFalse_fps144.mp4",""
"","","","call-function","150","453022","0.0-150.0","328gfk49","","","","","","","",""
"3317.545000000042","{""judgement"":0}","[0]","survey-likert","151","456341","0.0-151.0","328gfk49","","","","","","","","1"
"1930.6199999999953","{""confidence"":0}","[0]","survey-likert","152","458272","0.0-152.0","328gfk49","","","","","","","",""
"","","","call-function","153","458273","0.0-153.0","328gfk49","","","","","","","",""
"null","","","html-keyboard-response","154","459779","0.0-154.0","328gfk49","","<span style=""color:Black; font-size:50px;"">Agent A","null","","","","",""
"null","","","video-keyboard-response","155","462595","0.0-155.0","328gfk49","","","null","","Agent A","scrambled","FOR_REV_BLOBBY_STIM/1159882.bmp_pp61_L2_V1.0_veridical_freeview_isoFalse_fps144_reversed_REAL.mp4",""
"null","","","html-keyboard-response","156","464098","0.0-156.0","328gfk49","","<span style=""color:Black; font-size:50px;"">Agent B","null","","","","",""
"null","","","video-keyboard-response","157","466941","0.0-157.0","328gfk49","","","null","","Agent B","veridical","FOR_REV_BLOBBY_STIM/1159882.bmp_pp61_L2_V1.0_veridical_freeview_isoFalse_fps144.mp4",""
"","","","call-function","158","466941","0.0-158.0","328gfk49","","","","","","","",""
"2804.6749999999884","{""judgement"":0}","[0]","survey-likert","159","469748","0.0-159.0","328gfk49","","","","","","","","1"
"1371.7149999999674","{""confidence"":2}","[0]","survey-likert","160","471121","0.0-160.0","328gfk49","","","","","","","",""
"","","","call-function","161","471121","0.0-161.0","328gfk49","","","","","","","",""
"null","","","html-keyboard-response","162","472623","0.0-162.0","328gfk49","","<span style=""color:Black; font-size:50px;"">Agent A","null","","","","",""
"null","","","video-keyboard-response","163","475405","0.0-163.0","328gfk49","","","null","","Agent A","scrambled","FOR_REV_BLOBBY_STIM/1593041.bmp_pp58_L1_V1.0_veridical_freeview_isoFalse_fps144_reversed_REAL.mp4",""
"null","","","html-keyboard-response","164","476909","0.0-164.0","328gfk49","","<span style=""color:Black; font-size:50px;"">Agent B","null","","","","",""
"null","","","video-keyboard-response","165","479686","0.0-165.0","328gfk49","","","null","","Agent B","veridical","FOR_REV_BLOBBY_STIM/1593041.bmp_pp58_L1_V1.0_veridical_freeview_isoFalse_fps144.mp4",""
"","","","call-function","166","479687","0.0-166.0","328gfk49","","","","","","","",""
"2632.1199999999953","{""judgement"":0}","[0]","survey-likert","167","482320","0.0-167.0","328gfk49","","","","","","","","1"
"1473.725000000035","{""confidence"":0}","[0]","survey-likert","168","483795","0.0-168.0","328gfk49","","","","","","","",""
"39646.185000000056","","","instructions","169","523441","0.0-169.0","328gfk49","[{""page_index"":0,""viewing_time"":30385.70000000001},{""page_index"":1,""viewing_time"":8707.23999999999},{""page_index"":2,""viewing_time"":553.085000000021}]","","","","","","",""
"877.0800000000163","","","instructions","170","524319","0.0-170.0","328gfk49","[{""page_index"":0,""viewing_time"":334.820000000007},{""page_index"":1,""viewing_time"":131.3849999999511},{""page_index"":2,""viewing_time"":410.7600000000675}]","","","","","","",""
"","","","call-function","171","524319","0.0-171.0","328gfk49","","","","","","","",""
"null","","","html-keyboard-response","172","525822","0.0-172.0","328gfk49","","<span style=""color:Black; font-size:50px;"">Agent A","null","","","","",""
"null","","","video-keyboard-response","173","528657","0.0-173.0","328gfk49","","","null","","Agent A","veridical","FOR_REV_BLOBBY_STIM/713017.bmp_pp152_L2_V1.0_veridical_freeview_isoFalse_fps144.mp4",""
"null","","","html-keyboard-response","174","530162","0.0-174.0","328gfk49","","<span style=""color:Black; font-size:50px;"">Agent B","null","","","","",""
"null","","","video-keyboard-response","175","532994","0.0-175.0","328gfk49","","","null","","Agent B","scrambled","FOR_REV_BLOBBY_STIM/713017.bmp_pp152_L2_V1.0_veridical_freeview_isoFalse_fps144_reversed_REAL.mp4",""
"","","","call-function","176","532995","0.0-176.0","328gfk49","","","","","","","",""
"1353.9599999999627","{""judgement"":0}","[0]","survey-likert","177","534350","0.0-177.0","328gfk49","","","","","","","","0"
"1174.7700000000186","{""confidence"":2}","[0]","survey-likert","178","535526","0.0-178.0","328gfk49","","","","","","","",""
"","","","call-function","179","535526","0.0-179.0","328gfk49","","","","","","","",""
"null","","","html-keyboard-response","180","537031","0.0-180.0","328gfk49","","<span style=""color:Black; font-size:50px;"">Agent A","null","","","","",""
"null","","","video-keyboard-response","181","539807","0.0-181.0","328gfk49","","","null","","Agent A","scrambled","FOR_REV_BLOBBY_STIM/713135.bmp_pp54_L2_V1.0_veridical_freeview_isoFalse_fps144_reversed_REAL.mp4",""
"null","","","html-keyboard-response","182","541310","0.0-182.0","328gfk49","","<span style=""color:Black; font-size:50px;"">Agent B","null","","","","",""
"null","","","video-keyboard-response","183","544082","0.0-183.0","328gfk49","","","null","","Agent B","veridical","FOR_REV_BLOBBY_STIM/713135.bmp_pp54_L2_V1.0_veridical_freeview_isoFalse_fps144.mp4",""
"","","","call-function","184","544083","0.0-184.0","328gfk49","","","","","","","",""
"2659.5950000000885","{""judgement"":1}","[0]","survey-likert","185","546743","0.0-185.0","328gfk49","","","","","","","","1"
"3489.5","{""confidence"":3}","[0]","survey-likert","186","550234","0.0-186.0","328gfk49","","","","","","","",""
"","","","call-function","187","550236","0.0-187.0","328gfk49","","","","","","","",""
"null","","","html-keyboard-response","188","551742","0.0-188.0","328gfk49","","<span style=""color:Black; font-size:50px;"">Agent A","null","","","","",""
"null","","","video-keyboard-response","189","554296","0.0-189.0","328gfk49","","","null","","Agent A","scrambled","FOR_REV_BLOBBY_STIM/713796.bmp_pp84_L3_V1.0_veridical_freeview_isoFalse_fps144_reversed_REAL.mp4",""
"null","","","html-keyboard-response","190","555801","0.0-190.0","328gfk49","","<span style=""color:Black; font-size:50px;"">Agent B","null","","","","",""
"null","","","video-keyboard-response","191","558323","0.0-191.0","328gfk49","","","null","","Agent B","veridical","FOR_REV_BLOBBY_STIM/713796.bmp_pp84_L3_V1.0_veridical_freeview_isoFalse_fps144.mp4",""
"","","","call-function","192","558323","0.0-192.0","328gfk49","","","","","","","",""
"4214.540000000037","{""judgement"":1}","[0]","survey-likert","193","562539","0.0-193.0","328gfk49","","","","","","","","1"
"2226.0899999999674","{""confidence"":1}","[0]","survey-likert","194","564767","0.0-194.0","328gfk49","","","","","","","",""
"","","","call-function","195","564767","0.0-195.0","328gfk49","","","","","","","",""
"null","","","html-keyboard-response","196","566272","0.0-196.0","328gfk49","","<span style=""color:Black; font-size:50px;"">Agent A","null","","","","",""
"null","","","video-keyboard-response","197","567859","0.0-197.0","328gfk49","","","null","","Agent A","scrambled","FOR_REV_BLOBBY_STIM/713684.bmp_pp85_L3_V1.0_veridical_freeview_isoFalse_fps144_reversed_REAL.mp4",""
"null","","","html-keyboard-response","198","569363","0.0-198.0","328gfk49","","<span style=""color:Black; font-size:50px;"">Agent B","null","","","","",""
"null","","","video-keyboard-response","199","570949","0.0-199.0","328gfk49","","","null","","Agent B","veridical","FOR_REV_BLOBBY_STIM/713684.bmp_pp85_L3_V1.0_veridical_freeview_isoFalse_fps144.mp4",""
"","","","call-function","200","570949","0.0-200.0","328gfk49","","","","","","","",""
"5524.780000000028","{""judgement"":0}","[0]","survey-likert","201","576475","0.0-201.0","328gfk49","","","","","","","","1"
"1259.780000000028","{""confidence"":0}","[0]","survey-likert","202","577736","0.0-202.0","328gfk49","","","","","","","",""
"","","","call-function","203","577737","0.0-203.0","328gfk49","","","","","","","",""
"null","","","html-keyboard-response","204","579241","0.0-204.0","328gfk49","","<span style=""color:Black; font-size:50px;"">Agent A","null","","","","",""
"null","","","video-keyboard-response","205","582060","0.0-205.0","328gfk49","","","null","","Agent A","veridical","FOR_REV_BLOBBY_STIM/1592807.bmp_pp68_L1_V1.0_veridical_freeview_isoFalse_fps144.mp4",""
"null","","","html-keyboard-response","206","583563","0.0-206.0","328gfk49","","<span style=""color:Black; font-size:50px;"">Agent B","null","","","","",""
"null","","","video-keyboard-response","207","586418","0.0-207.0","328gfk49","","","null","","Agent B","scrambled","FOR_REV_BLOBBY_STIM/1592807.bmp_pp68_L1_V1.0_veridical_freeview_isoFalse_fps144_reversed_REAL.mp4",""
"","","","call-function","208","586419","0.0-208.0","328gfk49","","","","","","","",""
"3387.4949999999953","{""judgement"":1}","[0]","survey-likert","209","589807","0.0-209.0","328gfk49","","","","","","","","0"
"1381.5600000000559","{""confidence"":0}","[0]","survey-likert","210","591190","0.0-210.0","328gfk49","","","","","","","",""
"","","","call-function","211","591190","0.0-211.0","328gfk49","","","","","","","",""
"null","","","html-keyboard-response","212","592696","0.0-212.0","328gfk49","","<span style=""color:Black; font-size:50px;"">Agent A","null","","","","",""
"null","","","video-keyboard-response","213","595416","0.0-213.0","328gfk49","","","null","","Agent A","veridical","FOR_REV_BLOBBY_STIM/1592372.bmp_pp76_L1_V1.0_veridical_freeview_isoFalse_fps144.mp4",""
"null","","","html-keyboard-response","214","596921","0.0-214.0","328gfk49","","<span style=""color:Black; font-size:50px;"">Agent B","null","","","","",""
"null","","","video-keyboard-response","215","599626","0.0-215.0","328gfk49","","","null","","Agent B","scrambled","FOR_REV_BLOBBY_STIM/1592372.bmp_pp76_L1_V1.0_veridical_freeview_isoFalse_fps144_reversed_REAL.mp4",""
"","","","call-function","216","599627","0.0-216.0","328gfk49","","","","","","","",""
"1537.2999999999302","{""judgement"":0}","[0]","survey-likert","217","601165","0.0-217.0","328gfk49","","","","","","","","0"
"1515.204999999958","{""confidence"":3}","[0]","survey-likert","218","602682","0.0-218.0","328gfk49","","","","","","","",""
"","","","call-function","219","602682","0.0-219.0","328gfk49","","","","","","","",""
"null","","","html-keyboard-response","220","604185","0.0-220.0","328gfk49","","<span style=""color:Black; font-size:50px;"">Agent A","null","","","","",""
"null","","","video-keyboard-response","221","606974","0.0-221.0","328gfk49","","","null","","Agent A","veridical","FOR_REV_BLOBBY_STIM/1592499.bmp_pp96_L2_V1.0_veridical_freeview_isoFalse_fps144.mp4",""
"null","","","html-keyboard-response","222","608478","0.0-222.0","328gfk49","","<span style=""color:Black; font-size:50px;"">Agent B","null","","","","",""
"null","","","video-keyboard-response","223","611273","0.0-223.0","328gfk49","","","null","","Agent B","scrambled","FOR_REV_BLOBBY_STIM/1592499.bmp_pp96_L2_V1.0_veridical_freeview_isoFalse_fps144_reversed_REAL.mp4",""
"","","","call-function","224","611273","0.0-224.0","328gfk49","","","","","","","",""
"2848.890000000014","{""judgement"":1}","[0]","survey-likert","225","614123","0.0-225.0","328gfk49","","","","","","","","0"
"1405.1949999999488","{""confidence"":1}","[0]","survey-likert","226","615530","0.0-226.0","328gfk49","","","","","","","",""
"","","","call-function","227","615530","0.0-227.0","328gfk49","","","","","","","",""
"null","","","html-keyboard-response","228","617033","0.0-228.0","328gfk49","","<span style=""color:Black; font-size:50px;"">Agent A","null","","","","",""
"null","","","video-keyboard-response","229","619863","0.0-229.0","328gfk49","","","null","","Agent A","scrambled","FOR_REV_BLOBBY_STIM/1592890.bmp_pp82_L2_V1.0_veridical_freeview_isoFalse_fps144_reversed_REAL.mp4",""
"null","","","html-keyboard-response","230","621369","0.0-230.0","328gfk49","","<span style=""color:Black; font-size:50px;"">Agent B","null","","","","",""
"null","","","video-keyboard-response","231","624144","0.0-231.0","328gfk49","","","null","","Agent B","veridical","FOR_REV_BLOBBY_STIM/1592890.bmp_pp82_L2_V1.0_veridical_freeview_isoFalse_fps144.mp4",""
"","","","call-function","232","624145","0.0-232.0","328gfk49","","","","","","","",""
"2887.0100000000093","{""judgement"":0}","[0]","survey-likert","233","627033","0.0-233.0","328gfk49","","","","","","","","1"
"1232.7700000000186","{""confidence"":1}","[0]","survey-likert","234","628267","0.0-234.0","328gfk49","","","","","","","",""
"","","","call-function","235","628268","0.0-235.0","328gfk49","","","","","","","",""
"null","","","html-keyboard-response","236","629774","0.0-236.0","328gfk49","","<span style=""color:Black; font-size:50px;"">Agent A","null","","","","",""
"null","","","video-keyboard-response","237","632605","0.0-237.0","328gfk49","","","null","","Agent A","veridical","FOR_REV_BLOBBY_STIM/1592286.bmp_pp52_L1_V1.0_veridical_freeview_isoFalse_fps144.mp4",""
"null","","","html-keyboard-response","238","634106","0.0-238.0","328gfk49","","<span style=""color:Black; font-size:50px;"">Agent B","null","","","","",""
"null","","","video-keyboard-response","239","636926","0.0-239.0","328gfk49","","","null","","Agent B","scrambled","FOR_REV_BLOBBY_STIM/1592286.bmp_pp52_L1_V1.0_veridical_freeview_isoFalse_fps144_reversed_REAL.mp4",""
"","","","call-function","240","636927","0.0-240.0","328gfk49","","","","","","","",""
"1581.0750000000698","{""judgement"":0}","[0]","survey-likert","241","638510","0.0-241.0","328gfk49","","","","","","","","0"
"1212.109999999986","{""confidence"":3}","[0]","survey-likert","242","639725","0.0-242.0","328gfk49","","","","","","","",""
"","","","call-function","243","639726","0.0-243.0","328gfk49","","","","","","","",""
"null","","","html-keyboard-response","244","641229","0.0-244.0","328gfk49","","<span style=""color:Black; font-size:50px;"">Agent A","null","","","","",""
"null","","","video-keyboard-response","245","644013","0.0-245.0","328gfk49","","","null","","Agent A","veridical","FOR_REV_BLOBBY_STIM/1159777.bmp_pp77_L3_V1.0_veridical_freeview_isoFalse_fps144.mp4",""
"null","","","html-keyboard-response","246","645518","0.0-246.0","328gfk49","","<span style=""color:Black; font-size:50px;"">Agent B","null","","","","",""
"null","","","video-keyboard-response","247","648306","0.0-247.0","328gfk49","","","null","","Agent B","scrambled","FOR_REV_BLOBBY_STIM/1159777.bmp_pp77_L3_V1.0_veridical_freeview_isoFalse_fps144_reversed_REAL.mp4",""
"","","","call-function","248","648307","0.0-248.0","328gfk49","","","","","","","",""
"3967.8799999998882","{""judgement"":0}","[0]","survey-likert","249","652276","0.0-249.0","328gfk49","","","","","","","","0"
"2322.9899999999907","{""confidence"":2}","[0]","survey-likert","250","654601","0.0-250.0","328gfk49","","","","","","","",""
"85691.65500000003","","","instructions","251","740293","0.0-251.0","328gfk49","[{""page_index"":0,""viewing_time"":20836.189999999944},{""page_index"":1,""viewing_time"":64711.78000000003},{""page_index"":2,""viewing_time"":143.52000000001863}]","","","","","","",""
"636.2449999999953","","","instructions","252","740930","0.0-252.0","328gfk49","[{""page_index"":0,""viewing_time"":125.3399999999674},{""page_index"":1,""viewing_time"":115.63000000000466},{""page_index"":2,""viewing_time"":395.16500000003725}]","","","","","","",""
"","","","call-function","253","740930","0.0-253.0","328gfk49","","","","","","","",""
"null","","","html-keyboard-response","254","742436","0.0-254.0","328gfk49","","<span style=""color:Black; font-size:50px;"">Agent A","null","","","","",""
"null","","","video-keyboard-response","255","745193","0.0-255.0","328gfk49","","","null","","Agent A","scrambled","FOR_REV_BLOBBY_STIM/1592804.bmp_pp91_L3_V1.0_veridical_freeview_isoFalse_fps144_reversed_REAL.mp4",""
"null","","","html-keyboard-response","256","746697","0.0-256.0","328gfk49","","<span style=""color:Black; font-size:50px;"">Agent B","null","","","","",""
"null","","","video-keyboard-response","257","749455","0.0-257.0","328gfk49","","","null","","Agent B","veridical","FOR_REV_BLOBBY_STIM/1592804.bmp_pp91_L3_V1.0_veridical_freeview_isoFalse_fps144.mp4",""
"","","","call-function","258","749455","0.0-258.0","328gfk49","","","","","","","",""
"2329.1149999999907","{""judgement"":0}","[0]","survey-likert","259","751785","0.0-259.0","328gfk49","","","","","","","","1"
"1518.6950000000652","{""confidence"":2}","[0]","survey-likert","260","753305","0.0-260.0","328gfk49","","","","","","","",""
"","","","call-function","261","753306","0.0-261.0","328gfk49","","","","","","","",""
"null","","","html-keyboard-response","262","754808","0.0-262.0","328gfk49","","<span style=""color:Black; font-size:50px;"">Agent A","null","","","","",""
"null","","","video-keyboard-response","263","757634","0.0-263.0","328gfk49","","","null","","Agent A","scrambled","FOR_REV_BLOBBY_STIM/713403.bmp_pp80_L3_V1.0_veridical_freeview_isoFalse_fps144_reversed_REAL.mp4",""
"null","","","html-keyboard-response","264","759140","0.0-264.0","328gfk49","","<span style=""color:Black; font-size:50px;"">Agent B","null","","","","",""
"null","","","video-keyboard-response","265","761955","0.0-265.0","328gfk49","","","null","","Agent B","veridical","FOR_REV_BLOBBY_STIM/713403.bmp_pp80_L3_V1.0_veridical_freeview_isoFalse_fps144.mp4",""
"","","","call-function","266","761956","0.0-266.0","328gfk49","","","","","","","",""
"3537.230000000098","{""judgement"":0}","[0]","survey-likert","267","765495","0.0-267.0","328gfk49","","","","","","","","1"
"2493.284999999916","{""confidence"":2}","[0]","survey-likert","268","767989","0.0-268.0","328gfk49","","","","","","","",""
"","","","call-function","269","767990","0.0-269.0","328gfk49","","","","","","","",""
"null","","","html-keyboard-response","270","769496","0.0-270.0","328gfk49","","<span style=""color:Black; font-size:50px;"">Agent A","null","","","","",""
"null","","","video-keyboard-response","271","772307","0.0-271.0","328gfk49","","","null","","Agent A","scrambled","FOR_REV_BLOBBY_STIM/1159768.bmp_pp89_L1_V1.0_veridical_freeview_isoFalse_fps144_reversed_REAL.mp4",""
"null","","","html-keyboard-response","272","773812","0.0-272.0","328gfk49","","<span style=""color:Black; font-size:50px;"">Agent B","null","","","","",""
"null","","","video-keyboard-response","273","776617","0.0-273.0","328gfk49","","","null","","Agent B","veridical","FOR_REV_BLOBBY_STIM/1159768.bmp_pp89_L1_V1.0_veridical_freeview_isoFalse_fps144.mp4",""
"","","","call-function","274","776618","0.0-274.0","328gfk49","","","","","","","",""
"2741.1300000000047","{""judgement"":0}","[0]","survey-likert","275","779360","0.0-275.0","328gfk49","","","","","","","","1"
"2697.945000000065","{""confidence"":2}","[0]","survey-likert","276","782059","0.0-276.0","328gfk49","","","","","","","",""
"","","","call-function","277","782060","0.0-277.0","328gfk49","","","","","","","",""
"null","","","html-keyboard-response","278","783561","0.0-278.0","328gfk49","","<span style=""color:Black; font-size:50px;"">Agent A","null","","","","",""
"null","","","video-keyboard-response","279","786259","0.0-279.0","328gfk49","","","null","","Agent A","scrambled","FOR_REV_BLOBBY_STIM/1592727.bmp_pp59_L3_V1.0_veridical_freeview_isoFalse_fps144_reversed_REAL.mp4",""
"null","","","html-keyboard-response","280","787763","0.0-280.0","328gfk49","","<span style=""color:Black; font-size:50px;"">Agent B","null","","","","",""
"null","","","video-keyboard-response","281","790466","0.0-281.0","328gfk49","","","null","","Agent B","veridical","FOR_REV_BLOBBY_STIM/1592727.bmp_pp59_L3_V1.0_veridical_freeview_isoFalse_fps144.mp4",""
"","","","call-function","282","790467","0.0-282.0","328gfk49","","","","","","","",""
"4768.295000000042","{""judgement"":1}","[0]","survey-likert","283","795236","0.0-283.0","328gfk49","","","","","","","","1"
"2069.670000000042","{""confidence"":2}","[0]","survey-likert","284","797307","0.0-284.0","328gfk49","","","","","","","",""
"","","","call-function","285","797308","0.0-285.0","328gfk49","","","","","","","",""
"null","","","html-keyboard-response","286","798814","0.0-286.0","328gfk49","","<span style=""color:Black; font-size:50px;"">Agent A","null","","","","",""
"null","","","video-keyboard-response","287","801449","0.0-287.0","328gfk49","","","null","","Agent A","veridical","FOR_REV_BLOBBY_STIM/61537.bmp_pp73_L3_V1.0_veridical_freeview_isoFalse_fps144.mp4",""
"null","","","html-keyboard-response","288","802951","0.0-288.0","328gfk49","","<span style=""color:Black; font-size:50px;"">Agent B","null","","","","",""
"null","","","video-keyboard-response","289","805588","0.0-289.0","328gfk49","","","null","","Agent B","scrambled","FOR_REV_BLOBBY_STIM/61537.bmp_pp73_L3_V1.0_veridical_freeview_isoFalse_fps144_reversed_REAL.mp4",""
"","","","call-function","290","805589","0.0-290.0","328gfk49","","","","","","","",""
"2413.2799999999115","{""judgement"":0}","[0]","survey-likert","291","808004","0.0-291.0","328gfk49","","","","","","","","0"
"2520.8399999999674","{""confidence"":2}","[0]","survey-likert","292","810526","0.0-292.0","328gfk49","","","","","","","",""
"","","","call-function","293","810527","0.0-293.0","328gfk49","","","","","","","",""
"null","","","html-keyboard-response","294","812030","0.0-294.0","328gfk49","","<span style=""color:Black; font-size:50px;"">Agent A","null","","","","",""
"null","","","video-keyboard-response","295","814862","0.0-295.0","328gfk49","","","null","","Agent A","scrambled","FOR_REV_BLOBBY_STIM/1159675.bmp_pp77_L3_V1.0_veridical_freeview_isoFalse_fps144_reversed_REAL.mp4",""
"null","","","html-keyboard-response","296","816365","0.0-296.0","328gfk49","","<span style=""color:Black; font-size:50px;"">Agent B","null","","","","",""
"null","","","video-keyboard-response","297","819193","0.0-297.0","328gfk49","","","null","","Agent B","veridical","FOR_REV_BLOBBY_STIM/1159675.bmp_pp77_L3_V1.0_veridical_freeview_isoFalse_fps144.mp4",""
"","","","call-function","298","819194","0.0-298.0","328gfk49","","","","","","","",""
"3517.784999999916","{""judgement"":1}","[0]","survey-likert","299","822713","0.0-299.0","328gfk49","","","","","","","","1"
"1931.5749999999534","{""confidence"":1}","[0]","survey-likert","300","824646","0.0-300.0","328gfk49","","","","","","","",""
"","","","call-function","301","824646","0.0-301.0","328gfk49","","","","","","","",""
"null","","","html-keyboard-response","302","826148","0.0-302.0","328gfk49","","<span style=""color:Black; font-size:50px;"">Agent A","null","","","","",""
"null","","","video-keyboard-response","303","828866","0.0-303.0","328gfk49","","","null","","Agent A","scrambled","FOR_REV_BLOBBY_STIM/498170.bmp_pp153_L3_V1.0_veridical_freeview_isoFalse_fps144_reversed_REAL.mp4",""
"null","","","html-keyboard-response","304","830369","0.0-304.0","328gfk49","","<span style=""color:Black; font-size:50px;"">Agent B","null","","","","",""
"null","","","video-keyboard-response","305","833086","0.0-305.0","328gfk49","","","null","","Agent B","veridical","FOR_REV_BLOBBY_STIM/498170.bmp_pp153_L3_V1.0_veridical_freeview_isoFalse_fps144.mp4",""
"","","","call-function","306","833087","0.0-306.0","328gfk49","","","","","","","",""
"2905.109999999986","{""judgement"":1}","[0]","survey-likert","307","835993","0.0-307.0","328gfk49","","","","","","","","1"
"1002.7750000000233","{""confidence"":2}","[0]","survey-likert","308","836997","0.0-308.0","328gfk49","","","","","","","",""
"","","","call-function","309","836997","0.0-309.0","328gfk49","","","","","","","",""
"null","","","html-keyboard-response","310","838503","0.0-310.0","328gfk49","","<span style=""color:Black; font-size:50px;"">Agent A","null","","","","",""
"null","","","video-keyboard-response","311","841149","0.0-311.0","328gfk49","","","null","","Agent A","veridical","FOR_REV_BLOBBY_STIM/713779.bmp_pp152_L2_V1.0_veridical_freeview_isoFalse_fps144.mp4",""
"null","","","html-keyboard-response","312","842652","0.0-312.0","328gfk49","","<span style=""color:Black; font-size:50px;"">Agent B","null","","","","",""
"null","","","video-keyboard-response","313","845298","0.0-313.0","328gfk49","","","null","","Agent B","scrambled","FOR_REV_BLOBBY_STIM/713779.bmp_pp152_L2_V1.0_veridical_freeview_isoFalse_fps144_reversed_REAL.mp4",""
"","","","call-function","314","845299","0.0-314.0","328gfk49","","","","","","","",""
"3960.695000000065","{""judgement"":0}","[0]","survey-likert","315","849260","0.0-315.0","328gfk49","","","","","","","","0"
"1253.170000000042","{""confidence"":2}","[0]","survey-likert","316","850515","0.0-316.0","328gfk49","","","","","","","",""
"","","","call-function","317","850515","0.0-317.0","328gfk49","","","","","","","",""
"null","","","html-keyboard-response","318","852019","0.0-318.0","328gfk49","","<span style=""color:Black; font-size:50px;"">Agent A","null","","","","",""
"null","","","video-keyboard-response","319","854883","0.0-319.0","328gfk49","","","null","","Agent A","veridical","FOR_REV_BLOBBY_STIM/1160127.bmp_pp90_L2_V1.0_veridical_freeview_isoFalse_fps144.mp4",""
"null","","","html-keyboard-response","320","856388","0.0-320.0","328gfk49","","<span style=""color:Black; font-size:50px;"">Agent B","null","","","","",""
"null","","","video-keyboard-response","321","859253","0.0-321.0","328gfk49","","","null","","Agent B","scrambled","FOR_REV_BLOBBY_STIM/1160127.bmp_pp90_L2_V1.0_veridical_freeview_isoFalse_fps144_reversed_REAL.mp4",""
"","","","call-function","322","859253","0.0-322.0","328gfk49","","","","","","","",""
"1747.545000000042","{""judgement"":1}","[0]","survey-likert","323","861002","0.0-323.0","328gfk49","","","","","","","","0"
"1773.4499999999534","{""confidence"":1}","[0]","survey-likert","324","862777","0.0-324.0","328gfk49","","","","","","","",""
"","","","call-function","325","862778","0.0-325.0","328gfk49","","","","","","","",""
"null","","","html-keyboard-response","326","864281","0.0-326.0","328gfk49","","<span style=""color:Black; font-size:50px;"">Agent A","null","","","","",""
"null","","","video-keyboard-response","327","867170","0.0-327.0","328gfk49","","","null","","Agent A","scrambled","FOR_REV_BLOBBY_STIM/1592657.bmp_pp98_L1_V1.0_veridical_freeview_isoFalse_fps144_reversed_REAL.mp4",""
"null","","","html-keyboard-response","328","868672","0.0-328.0","328gfk49","","<span style=""color:Black; font-size:50px;"">Agent B","null","","","","",""
"null","","","video-keyboard-response","329","871518","0.0-329.0","328gfk49","","","null","","Agent B","veridical","FOR_REV_BLOBBY_STIM/1592657.bmp_pp98_L1_V1.0_veridical_freeview_isoFalse_fps144.mp4",""
"","","","call-function","330","871518","0.0-330.0","328gfk49","","","","","","","",""
"2132.0449999999255","{""judgement"":1}","[0]","survey-likert","331","873652","0.0-331.0","328gfk49","","","","","","","","1"
"2048.1999999999534","{""confidence"":0}","[0]","survey-likert","332","875701","0.0-332.0","328gfk49","","","","","","","",""
"32063.140000000014","","","instructions","333","907766","0.0-333.0","328gfk49","[{""page_index"":0,""viewing_time"":31104.909999999916},{""page_index"":1,""viewing_time"":530.0600000000559},{""page_index"":2,""viewing_time"":427.9799999999814}]","","","","","","",""
"864.8200000000652","","","instructions","334","908632","0.0-334.0","328gfk49","[{""page_index"":0,""viewing_time"":593.4000000000233},{""page_index"":1,""viewing_time"":161.94000000006054},{""page_index"":2,""viewing_time"":109.35999999998603}]","","","","","","",""
"","","","call-function","335","908633","0.0-335.0","328gfk49","","","","","","","",""
"null","","","html-keyboard-response","336","910136","0.0-336.0","328gfk49","","<span style=""color:Black; font-size:50px;"">Agent A","null","","","","",""
"null","","","video-keyboard-response","337","913004","0.0-337.0","328gfk49","","","null","","Agent A","scrambled","FOR_REV_BLOBBY_STIM/285905.bmp_pp57_L1_V1.0_veridical_freeview_isoFalse_fps144_reversed_REAL.mp4",""
"null","","","html-keyboard-response","338","914511","0.0-338.0","328gfk49","","<span style=""color:Black; font-size:50px;"">Agent B","null","","","","",""
"null","","","video-keyboard-response","339","917379","0.0-339.0","328gfk49","","","null","","Agent B","veridical","FOR_REV_BLOBBY_STIM/285905.bmp_pp57_L1_V1.0_veridical_freeview_isoFalse_fps144.mp4",""
"","","","call-function","340","917379","0.0-340.0","328gfk49","","","","","","","",""
"1838.079999999958","{""judgement"":0}","[0]","survey-likert","341","919219","0.0-341.0","328gfk49","","","","","","","","1"
"2113.945000000065","{""confidence"":1}","[0]","survey-likert","342","921334","0.0-342.0","328gfk49","","","","","","","",""
"","","","call-function","343","921335","0.0-343.0","328gfk49","","","","","","","",""
"null","","","html-keyboard-response","344","922836","0.0-344.0","328gfk49","","<span style=""color:Black; font-size:50px;"">Agent A","null","","","","",""
"null","","","video-keyboard-response","345","925640","0.0-345.0","328gfk49","","","null","","Agent A","veridical","FOR_REV_BLOBBY_STIM/1592362.bmp_pp95_L2_V1.0_veridical_freeview_isoFalse_fps144.mp4",""
"null","","","html-keyboard-response","346","927142","0.0-346.0","328gfk49","","<span style=""color:Black; font-size:50px;"">Agent B","null","","","","",""
"null","","","video-keyboard-response","347","929941","0.0-347.0","328gfk49","","","null","","Agent B","scrambled","FOR_REV_BLOBBY_STIM/1592362.bmp_pp95_L2_V1.0_veridical_freeview_isoFalse_fps144_reversed_REAL.mp4",""
"","","","call-function","348","929941","0.0-348.0","328gfk49","","","","","","","",""
"2609.5800000000745","{""judgement"":0}","[0]","survey-likert","349","932552","0.0-349.0","328gfk49","","","","","","","","0"
"3910.795000000042","{""confidence"":3}","[0]","survey-likert","350","936465","0.0-350.0","328gfk49","","","","","","","",""
"","","","call-function","351","936465","0.0-351.0","328gfk49","","","","","","","",""
"null","","","html-keyboard-response","352","937967","0.0-352.0","328gfk49","","<span style=""color:Black; font-size:50px;"">Agent A","null","","","","",""
"null","","","video-keyboard-response","353","940852","0.0-353.0","328gfk49","","","null","","Agent A","veridical","FOR_REV_BLOBBY_STIM/1159447.bmp_pp70_L2_V1.0_veridical_freeview_isoFalse_fps144.mp4",""
"null","","","html-keyboard-response","354","942355","0.0-354.0","328gfk49","","<span style=""color:Black; font-size:50px;"">Agent B","null","","","","",""
"null","","","video-keyboard-response","355","945245","0.0-355.0","328gfk49","","","null","","Agent B","scrambled","FOR_REV_BLOBBY_STIM/1159447.bmp_pp70_L2_V1.0_veridical_freeview_isoFalse_fps144_reversed_REAL.mp4",""
"","","","call-function","356","945246","0.0-356.0","328gfk49","","","","","","","",""
"1677.655000000028","{""judgement"":1}","[0]","survey-likert","357","946925","0.0-357.0","328gfk49","","","","","","","","0"
"1802.8950000000186","{""confidence"":2}","[0]","survey-likert","358","948729","0.0-358.0","328gfk49","","","","","","","",""
"","","","call-function","359","948729","0.0-359.0","328gfk49","","","","","","","",""
"null","","","html-keyboard-response","360","950233","0.0-360.0","328gfk49","","<span style=""color:Black; font-size:50px;"">Agent A","null","","","","",""
"null","","","video-keyboard-response","361","952891","0.0-361.0","328gfk49","","","null","","Agent A","veridical","FOR_REV_BLOBBY_STIM/713707.bmp_pp154_L1_V1.0_veridical_freeview_isoFalse_fps144.mp4",""
"null","","","html-keyboard-response","362","954397","0.0-362.0","328gfk49","","<span style=""color:Black; font-size:50px;"">Agent B","null","","","","",""
"null","","","video-keyboard-response","363","957054","0.0-363.0","328gfk49","","","null","","Agent B","scrambled","FOR_REV_BLOBBY_STIM/713707.bmp_pp154_L1_V1.0_veridical_freeview_isoFalse_fps144_reversed_REAL.mp4",""
"","","","call-function","364","957054","0.0-364.0","328gfk49","","","","","","","",""
"3735.4700000000885","{""judgement"":0}","[0]","survey-likert","365","960791","0.0-365.0","328gfk49","","","","","","","","0"
"1581.1599999999162","{""confidence"":2}","[0]","survey-likert","366","962373","0.0-366.0","328gfk49","","","","","","","",""
"","","","call-function","367","962374","0.0-367.0","328gfk49","","","","","","","",""
"null","","","html-keyboard-response","368","963876","0.0-368.0","328gfk49","","<span style=""color:Black; font-size:50px;"">Agent A","null","","","","",""
"null","","","video-keyboard-response","369","966633","0.0-369.0","328gfk49","","","null","","Agent A","scrambled","FOR_REV_BLOBBY_STIM/1591954.bmp_pp62_L2_V1.0_veridical_freeview_isoFalse_fps144_reversed_REAL.mp4",""
"null","","","html-keyboard-response","370","968135","0.0-370.0","328gfk49","","<span style=""color:Black; font-size:50px;"">Agent B","null","","","","",""
"null","","","video-keyboard-response","371","970909","0.0-371.0","328gfk49","","","null","","Agent B","veridical","FOR_REV_BLOBBY_STIM/1591954.bmp_pp62_L2_V1.0_veridical_freeview_isoFalse_fps144.mp4",""
"","","","call-function","372","970910","0.0-372.0","328gfk49","","","","","","","",""
"1754.8249999999534","{""judgement"":1}","[0]","survey-likert","373","972666","0.0-373.0","328gfk49","","","","","","","","1"
"2407.4899999999907","{""confidence"":2}","[0]","survey-likert","374","975075","0.0-374.0","328gfk49","","","","","","","",""
"","","","call-function","375","975077","0.0-375.0","328gfk49","","","","","","","",""
"null","","","html-keyboard-response","376","976582","0.0-376.0","328gfk49","","<span style=""color:Black; font-size:50px;"">Agent A","null","","","","",""
"null","","","video-keyboard-response","377","979312","0.0-377.0","328gfk49","","","null","","Agent A","veridical","FOR_REV_BLOBBY_STIM/713749.bmp_pp88_L2_V1.0_veridical_freeview_isoFalse_fps144.mp4",""
"null","","","html-keyboard-response","378","980813","0.0-378.0","328gfk49","","<span style=""color:Black; font-size:50px;"">Agent B","null","","","","",""
"null","","","video-keyboard-response","379","983545","0.0-379.0","328gfk49","","","null","","Agent B","scrambled","FOR_REV_BLOBBY_STIM/713749.bmp_pp88_L2_V1.0_veridical_freeview_isoFalse_fps144_reversed_REAL.mp4",""
"","","","call-function","380","983546","0.0-380.0","328gfk49","","","","","","","",""
"2899.6849999999395","{""judgement"":0}","[0]","survey-likert","381","986447","0.0-381.0","328gfk49","","","","","","","","0"
"2882.609999999986","{""confidence"":1}","[0]","survey-likert","382","989331","0.0-382.0","328gfk49","","","","","","","",""
"","","","call-function","383","989331","0.0-383.0","328gfk49","","","","","","","",""
"null","","","html-keyboard-response","384","990836","0.0-384.0","328gfk49","","<span style=""color:Black; font-size:50px;"">Agent A","null","","","","",""
"null","","","video-keyboard-response","385","993422","0.0-385.0","328gfk49","","","null","","Agent A","veridical","FOR_REV_BLOBBY_STIM/286001.bmp_pp54_L2_V1.0_veridical_freeview_isoFalse_fps144.mp4",""
"null","","","html-keyboard-response","386","994923","0.0-386.0","328gfk49","","<span style=""color:Black; font-size:50px;"">Agent B","null","","","","",""
"null","","","video-keyboard-response","387","997508","0.0-387.0","328gfk49","","","null","","Agent B","scrambled","FOR_REV_BLOBBY_STIM/286001.bmp_pp54_L2_V1.0_veridical_freeview_isoFalse_fps144_reversed_REAL.mp4",""
"","","","call-function","388","997509","0.0-388.0","328gfk49","","","","","","","",""
"2028.125","{""judgement"":1}","[0]","survey-likert","389","999538","0.0-389.0","328gfk49","","","","","","","","0"
"2440.9599999999627","{""confidence"":0}","[0]","survey-likert","390","1001980","0.0-390.0","328gfk49","","","","","","","",""
"","","","call-function","391","1001981","0.0-391.0","328gfk49","","","","","","","",""
"null","","","html-keyboard-response","392","1003487","0.0-392.0","328gfk49","","<span style=""color:Black; font-size:50px;"">Agent A","null","","","","",""
"null","","","video-keyboard-response","393","1006329","0.0-393.0","328gfk49","","","null","","Agent A","veridical","FOR_REV_BLOBBY_STIM/713371.bmp_pp68_L1_V1.0_veridical_freeview_isoFalse_fps144.mp4",""
"null","","","html-keyboard-response","394","1007831","0.0-394.0","328gfk49","","<span style=""color:Black; font-size:50px;"">Agent B","null","","","","",""
"null","","","video-keyboard-response","395","1010671","0.0-395.0","328gfk49","","","null","","Agent B","scrambled","FOR_REV_BLOBBY_STIM/713371.bmp_pp68_L1_V1.0_veridical_freeview_isoFalse_fps144_reversed_REAL.mp4",""
"","","","call-function","396","1010672","0.0-396.0","328gfk49","","","","","","","",""
"2657.625","{""judgement"":1}","[0]","survey-likert","397","1013330","0.0-397.0","328gfk49","","","","","","","","0"
"2013.1799999999348","{""confidence"":1}","[0]","survey-likert","398","1015345","0.0-398.0","328gfk49","","","","","","","",""
"","","","call-function","399","1015345","0.0-399.0","328gfk49","","","","","","","",""
"null","","","html-keyboard-response","400","1016847","0.0-400.0","328gfk49","","<span style=""color:Black; font-size:50px;"">Agent A","null","","","","",""
"null","","","video-keyboard-response","401","1019604","0.0-401.0","328gfk49","","","null","","Agent A","scrambled","FOR_REV_BLOBBY_STIM/1592619.bmp_pp56_L3_V1.0_veridical_freeview_isoFalse_fps144_reversed_REAL.mp4",""
"null","","","html-keyboard-response","402","1021109","0.0-402.0","328gfk49","","<span style=""color:Black; font-size:50px;"">Agent B","null","","","","",""
"null","","","video-keyboard-response","403","1023847","0.0-403.0","328gfk49","","","null","","Agent B","veridical","FOR_REV_BLOBBY_STIM/1592619.bmp_pp56_L3_V1.0_veridical_freeview_isoFalse_fps144.mp4",""
"","","","call-function","404","1023848","0.0-404.0","328gfk49","","","","","","","",""
"6220.140000000014","{""judgement"":1}","[0]","survey-likert","405","1030069","0.0-405.0","328gfk49","","","","","","","","1"
"1533.2050000000745","{""confidence"":1}","[0]","survey-likert","406","1031604","0.0-406.0","328gfk49","","","","","","","",""
"","","","call-function","407","1031605","0.0-407.0","328gfk49","","","","","","","",""
"null","","","html-keyboard-response","408","1033108","0.0-408.0","328gfk49","","<span style=""color:Black; font-size:50px;"">Agent A","null","","","","",""
"null","","","video-keyboard-response","409","1035816","0.0-409.0","328gfk49","","","null","","Agent A","veridical","FOR_REV_BLOBBY_STIM/1592934.bmp_pp63_L1_V1.0_veridical_freeview_isoFalse_fps144.mp4",""
"null","","","html-keyboard-response","410","1037322","0.0-410.0","328gfk49","","<span style=""color:Black; font-size:50px;"">Agent B","null","","","","",""
"null","","","video-keyboard-response","411","1040018","0.0-411.0","328gfk49","","","null","","Agent B","scrambled","FOR_REV_BLOBBY_STIM/1592934.bmp_pp63_L1_V1.0_veridical_freeview_isoFalse_fps144_reversed_REAL.mp4",""
"","","","call-function","412","1040019","0.0-412.0","328gfk49","","","","","","","",""
"1517.1899999999441","{""judgement"":0}","[0]","survey-likert","413","1041537","0.0-413.0","328gfk49","","","","","","","","0"
"1929.5","{""confidence"":3}","[0]","survey-likert","414","1043468","0.0-414.0","328gfk49","","","","","","","",""
"40231.465000000084","","","instructions","415","1083700","0.0-415.0","328gfk49","[{""page_index"":0,""viewing_time"":35628.71999999997},{""page_index"":1,""viewing_time"":2542.8300000000745},{""page_index"":2,""viewing_time"":2059.7549999998882}]","","","","","","",""
"2240.380000000121","","","instructions","416","1085941","0.0-416.0","328gfk49","[{""page_index"":0,""viewing_time"":1361.4399999999441},{""page_index"":1,""viewing_time"":471.9200000001583},{""page_index"":2,""viewing_time"":406.8850000000093}]","","","","","","",""
"","","","call-function","417","1085942","0.0-417.0","328gfk49","","","","","","","",""
"null","","","html-keyboard-response","418","1087447","0.0-418.0","328gfk49","","<span style=""color:Black; font-size:50px;"">Agent A","null","","","","",""
"null","","","video-keyboard-response","419","1089954","0.0-419.0","328gfk49","","","null","","Agent A","scrambled","FOR_REV_BLOBBY_STIM/713513.bmp_pp62_L2_V1.0_veridical_freeview_isoFalse_fps144_reversed_REAL.mp4",""
"null","","","html-keyboard-response","420","1091460","0.0-420.0","328gfk49","","<span style=""color:Black; font-size:50px;"">Agent B","null","","","","",""
"null","","","video-keyboard-response","421","1093967","0.0-421.0","328gfk49","","","null","","Agent B","veridical","FOR_REV_BLOBBY_STIM/713513.bmp_pp62_L2_V1.0_veridical_freeview_isoFalse_fps144.mp4",""
"","","","call-function","422","1093967","0.0-422.0","328gfk49","","","","","","","",""
"3140.75","{""judgement"":0}","[0]","survey-likert","423","1097109","0.0-423.0","328gfk49","","","","","","","","1"
"1176.8000000000466","{""confidence"":0}","[0]","survey-likert","424","1098287","0.0-424.0","328gfk49","","","","","","","",""
"","","","call-function","425","1098288","0.0-425.0","328gfk49","","","","","","","",""
"null","","","html-keyboard-response","426","1099791","0.0-426.0","328gfk49","","<span style=""color:Black; font-size:50px;"">Agent A","null","","","","",""
"null","","","video-keyboard-response","427","1102567","0.0-427.0","328gfk49","","","null","","Agent A","veridical","FOR_REV_BLOBBY_STIM/713620.bmp_pp65_L3_V1.0_veridical_freeview_isoFalse_fps144.mp4",""
"null","","","html-keyboard-response","428","1104070","0.0-428.0","328gfk49","","<span style=""color:Black; font-size:50px;"">Agent B","null","","","","",""
"null","","","video-keyboard-response","429","1106852","0.0-429.0","328gfk49","","","null","","Agent B","scrambled","FOR_REV_BLOBBY_STIM/713620.bmp_pp65_L3_V1.0_veridical_freeview_isoFalse_fps144_reversed_REAL.mp4",""
"","","","call-function","430","1106853","0.0-430.0","328gfk49","","","","","","","",""
"3352.679999999935","{""judgement"":0}","[0]","survey-likert","431","1110207","0.0-431.0","328gfk49","","","","","","","","0"
"1668.9000000001397","{""confidence"":2}","[0]","survey-likert","432","1111877","0.0-432.0","328gfk49","","","","","","","",""
"","","","call-function","433","1111878","0.0-433.0","328gfk49","","","","","","","",""
"null","","","html-keyboard-response","434","1113380","0.0-434.0","328gfk49","","<span style=""color:Black; font-size:50px;"">Agent A","null","","","","",""
"null","","","video-keyboard-response","435","1116180","0.0-435.0","328gfk49","","","null","","Agent A","scrambled","FOR_REV_BLOBBY_STIM/285751.bmp_pp55_L3_V1.0_veridical_freeview_isoFalse_fps144_reversed_REAL.mp4",""
"null","","","html-keyboard-response","436","1117684","0.0-436.0","328gfk49","","<span style=""color:Black; font-size:50px;"">Agent B","null","","","","",""
"null","","","video-keyboard-response","437","1120500","0.0-437.0","328gfk49","","","null","","Agent B","veridical","FOR_REV_BLOBBY_STIM/285751.bmp_pp55_L3_V1.0_veridical_freeview_isoFalse_fps144.mp4",""
"","","","call-function","438","1120501","0.0-438.0","328gfk49","","","","","","","",""
"2407.659999999916","{""judgement"":1}","[0]","survey-likert","439","1122910","0.0-439.0","328gfk49","","","","","","","","1"
"2551.4550000000745","{""confidence"":1}","[0]","survey-likert","440","1125463","0.0-440.0","328gfk49","","","","","","","",""
"","","","call-function","441","1125463","0.0-441.0","328gfk49","","","","","","","",""
"null","","","html-keyboard-response","442","1126970","0.0-442.0","328gfk49","","<span style=""color:Black; font-size:50px;"">Agent A","null","","","","",""
"null","","","video-keyboard-response","443","1129785","0.0-443.0","328gfk49","","","null","","Agent A","veridical","FOR_REV_BLOBBY_STIM/1591961.bmp_pp67_L2_V1.0_veridical_freeview_isoFalse_fps144.mp4",""
"null","","","html-keyboard-response","444","1131290","0.0-444.0","328gfk49","","<span style=""color:Black; font-size:50px;"">Agent B","null","","","","",""
"null","","","video-keyboard-response","445","1134138","0.0-445.0","328gfk49","","","null","","Agent B","scrambled","FOR_REV_BLOBBY_STIM/1591961.bmp_pp67_L2_V1.0_veridical_freeview_isoFalse_fps144_reversed_REAL.mp4",""
"","","","call-function","446","1134139","0.0-446.0","328gfk49","","","","","","","",""
"2798.3549999999814","{""judgement"":1}","[0]","survey-likert","447","1136938","0.0-447.0","328gfk49","","","","","","","","0"
"1717.2299999999814","{""confidence"":2}","[0]","survey-likert","448","1138657","0.0-448.0","328gfk49","","","","","","","",""
"","","","call-function","449","1138657","0.0-449.0","328gfk49","","","","","","","",""
"null","","","html-keyboard-response","450","1140164","0.0-450.0","328gfk49","","<span style=""color:Black; font-size:50px;"">Agent A","null","","","","",""
"null","","","video-keyboard-response","451","1143001","0.0-451.0","328gfk49","","","null","","Agent A","scrambled","FOR_REV_BLOBBY_STIM/1592351.bmp_pp51_L1_V1.0_veridical_freeview_isoFalse_fps144_reversed_REAL.mp4",""
"null","","","html-keyboard-response","452","1144506","0.0-452.0","328gfk49","","<span style=""color:Black; font-size:50px;"">Agent B","null","","","","",""
"null","","","video-keyboard-response","453","1147323","0.0-453.0","328gfk49","","","null","","Agent B","veridical","FOR_REV_BLOBBY_STIM/1592351.bmp_pp51_L1_V1.0_veridical_freeview_isoFalse_fps144.mp4",""
"","","","call-function","454","1147324","0.0-454.0","328gfk49","","","","","","","",""
"3362.179999999935","{""judgement"":0}","[0]","survey-likert","455","1150687","0.0-455.0","328gfk49","","","","","","","","1"
"2799.060000000056","{""confidence"":1}","[0]","survey-likert","456","1153487","0.0-456.0","328gfk49","","","","","","","",""
"","","","call-function","457","1153488","0.0-457.0","328gfk49","","","","","","","",""
"null","","","html-keyboard-response","458","1154991","0.0-458.0","328gfk49","","<span style=""color:Black; font-size:50px;"">Agent A","null","","","","",""
"null","","","video-keyboard-response","459","1157808","0.0-459.0","328gfk49","","","null","","Agent A","veridical","FOR_REV_BLOBBY_STIM/1159784.bmp_pp73_L3_V1.0_veridical_freeview_isoFalse_fps144.mp4",""
"null","","","html-keyboard-response","460","1159315","0.0-460.0","328gfk49","","<span style=""color:Black; font-size:50px;"">Agent B","null","","","","",""
"null","","","video-keyboard-response","461","1162106","0.0-461.0","328gfk49","","","null","","Agent B","scrambled","FOR_REV_BLOBBY_STIM/1159784.bmp_pp73_L3_V1.0_veridical_freeview_isoFalse_fps144_reversed_REAL.mp4",""
"","","","call-function","462","1162107","0.0-462.0","328gfk49","","","","","","","",""
"1438.8049999999348","{""judgement"":1}","[0]","survey-likert","463","1163547","0.0-463.0","328gfk49","","","","","","","","0"
"991.3800000001211","{""confidence"":2}","[0]","survey-likert","464","1164540","0.0-464.0","328gfk49","","","","","","","",""
"","","","call-function","465","1164541","0.0-465.0","328gfk49","","","","","","","",""
"null","","","html-keyboard-response","466","1166046","0.0-466.0","328gfk49","","<span style=""color:Black; font-size:50px;"">Agent A","null","","","","",""
"null","","","video-keyboard-response","467","1168833","0.0-467.0","328gfk49","","","null","","Agent A","veridical","FOR_REV_BLOBBY_STIM/1159829.bmp_pp91_L3_V1.0_veridical_freeview_isoFalse_fps144.mp4",""
"null","","","html-keyboard-response","468","1170335","0.0-468.0","328gfk49","","<span style=""color:Black; font-size:50px;"">Agent B","null","","","","",""
"null","","","video-keyboard-response","469","1173121","0.0-469.0","328gfk49","","","null","","Agent B","scrambled","FOR_REV_BLOBBY_STIM/1159829.bmp_pp91_L3_V1.0_veridical_freeview_isoFalse_fps144_reversed_REAL.mp4",""
"","","","call-function","470","1173123","0.0-470.0","328gfk49","","","","","","","",""
"2836.5799999998417","{""judgement"":1}","[0]","survey-likert","471","1175960","0.0-471.0","328gfk49","","","","","","","","0"
"1430.2749999999069","{""confidence"":0}","[0]","survey-likert","472","1177392","0.0-472.0","328gfk49","","","","","","","",""
"","","","call-function","473","1177393","0.0-473.0","328gfk49","","","","","","","",""
"null","","","html-keyboard-response","474","1178895","0.0-474.0","328gfk49","","<span style=""color:Black; font-size:50px;"">Agent A","null","","","","",""
"null","","","video-keyboard-response","475","1181779","0.0-475.0","328gfk49","","","null","","Agent A","veridical","FOR_REV_BLOBBY_STIM/1593035.bmp_pp94_L2_V1.0_veridical_freeview_isoFalse_fps144.mp4",""
"null","","","html-keyboard-response","476","1183284","0.0-476.0","328gfk49","","<span style=""color:Black; font-size:50px;"">Agent B","null","","","","",""
"null","","","video-keyboard-response","477","1186191","0.0-477.0","328gfk49","","","null","","Agent B","scrambled","FOR_REV_BLOBBY_STIM/1593035.bmp_pp94_L2_V1.0_veridical_freeview_isoFalse_fps144_reversed_REAL.mp4",""
"","","","call-function","478","1186192","0.0-478.0","328gfk49","","","","","","","",""
"1491.2649999998976","{""judgement"":0}","[0]","survey-likert","479","1187684","0.0-479.0","328gfk49","","","","","","","","0"
"1698.9799999999814","{""confidence"":2}","[0]","survey-likert","480","1189384","0.0-480.0","328gfk49","","","","","","","",""
"","","","call-function","481","1189385","0.0-481.0","328gfk49","","","","","","","",""
"null","","","html-keyboard-response","482","1190891","0.0-482.0","328gfk49","","<span style=""color:Black; font-size:50px;"">Agent A","null","","","","",""
"null","","","video-keyboard-response","483","1193780","0.0-483.0","328gfk49","","","null","","Agent A","scrambled","FOR_REV_BLOBBY_STIM/713089.bmp_pp60_L3_V1.0_veridical_freeview_isoFalse_fps144_reversed_REAL.mp4",""
"null","","","html-keyboard-response","484","1195285","0.0-484.0","328gfk49","","<span style=""color:Black; font-size:50px;"">Agent B","null","","","","",""
"null","","","video-keyboard-response","485","1198175","0.0-485.0","328gfk49","","","null","","Agent B","veridical","FOR_REV_BLOBBY_STIM/713089.bmp_pp60_L3_V1.0_veridical_freeview_isoFalse_fps144.mp4",""
"","","","call-function","486","1198176","0.0-486.0","328gfk49","","","","","","","",""
"3064.4850000001024","{""judgement"":1}","[0]","survey-likert","487","1201241","0.0-487.0","328gfk49","","","","","","","","1"
"1754.7050000000745","{""confidence"":1}","[0]","survey-likert","488","1202997","0.0-488.0","328gfk49","","","","","","","",""
"","","","call-function","489","1202998","0.0-489.0","328gfk49","","","","","","","",""
"null","","","html-keyboard-response","490","1204501","0.0-490.0","328gfk49","","<span style=""color:Black; font-size:50px;"">Agent A","null","","","","",""
"null","","","video-keyboard-response","491","1207336","0.0-491.0","328gfk49","","","null","","Agent A","veridical","FOR_REV_BLOBBY_STIM/713666.bmp_pp97_L3_V1.0_veridical_freeview_isoFalse_fps144.mp4",""
"null","","","html-keyboard-response","492","1208842","0.0-492.0","328gfk49","","<span style=""color:Black; font-size:50px;"">Agent B","null","","","","",""
"null","","","video-keyboard-response","493","1211674","0.0-493.0","328gfk49","","","null","","Agent B","scrambled","FOR_REV_BLOBBY_STIM/713666.bmp_pp97_L3_V1.0_veridical_freeview_isoFalse_fps144_reversed_REAL.mp4",""
"","","","call-function","494","1211674","0.0-494.0","328gfk49","","","","","","","",""
"3910.090000000084","{""judgement"":1}","[0]","survey-likert","495","1215585","0.0-495.0","328gfk49","","","","","","","","0"
"1376.1500000001397","{""confidence"":1}","[0]","survey-likert","496","1216963","0.0-496.0","328gfk49","","","","","","","",""
"47169.96999999997","","","instructions","497","1264134","0.0-497.0","328gfk49","[{""page_index"":0,""viewing_time"":45787.29000000004},{""page_index"":1,""viewing_time"":838.4599999999627},{""page_index"":2,""viewing_time"":544.0600000000559}]","","","","","","",""
"3106.469999999972","","","instructions","498","1267241","0.0-498.0","328gfk49","[{""page_index"":0,""viewing_time"":716.2199999999721},{""page_index"":1,""viewing_time"":1900.2650000001304},{""page_index"":2,""viewing_time"":489.7849999999162}]","","","","","","",""
"","","","call-function","499","1267241","0.0-499.0","328gfk49","","","","","","","",""
"null","","","html-keyboard-response","500","1268746","0.0-500.0","328gfk49","","<span style=""color:Black; font-size:50px;"">Agent A","null","","","","",""
"null","","","video-keyboard-response","501","1271471","0.0-501.0","328gfk49","","","null","","Agent A","veridical","FOR_REV_BLOBBY_STIM/498111.bmp_pp88_L2_V1.0_veridical_freeview_isoFalse_fps144.mp4",""
"null","","","html-keyboard-response","502","1272976","0.0-502.0","328gfk49","","<span style=""color:Black; font-size:50px;"">Agent B","null","","","","",""
"null","","","video-keyboard-response","503","1275699","0.0-503.0","328gfk49","","","null","","Agent B","scrambled","FOR_REV_BLOBBY_STIM/498111.bmp_pp88_L2_V1.0_veridical_freeview_isoFalse_fps144_reversed_REAL.mp4",""
"","","","call-function","504","1275700","0.0-504.0","328gfk49","","","","","","","",""
"3477.689999999944","{""judgement"":0}","[0]","survey-likert","505","1279179","0.0-505.0","328gfk49","","","","","","","","0"
"987.0850000001956","{""confidence"":1}","[0]","survey-likert","506","1280167","0.0-506.0","328gfk49","","","","","","","",""
"","","","call-function","507","1280168","0.0-507.0","328gfk49","","","","","","","",""
"null","","","html-keyboard-response","508","1281673","0.0-508.0","328gfk49","","<span style=""color:Black; font-size:50px;"">Agent A","null","","","","",""
"null","","","video-keyboard-response","509","1284200","0.0-509.0","328gfk49","","","null","","Agent A","scrambled","FOR_REV_BLOBBY_STIM/1159515.bmp_pp84_L3_V1.0_veridical_freeview_isoFalse_fps144_reversed_REAL.mp4",""
"null","","","html-keyboard-response","510","1285707","0.0-510.0","328gfk49","","<span style=""color:Black; font-size:50px;"">Agent B","null","","","","",""
"null","","","video-keyboard-response","511","1288239","0.0-511.0","328gfk49","","","null","","Agent B","veridical","FOR_REV_BLOBBY_STIM/1159515.bmp_pp84_L3_V1.0_veridical_freeview_isoFalse_fps144.mp4",""
"","","","call-function","512","1288241","0.0-512.0","328gfk49","","","","","","","",""
"2850.6450000000186","{""judgement"":1}","[0]","survey-likert","513","1291093","0.0-513.0","328gfk49","","","","","","","","1"
"2386.6100000001024","{""confidence"":2}","[0]","survey-likert","514","1293481","0.0-514.0","328gfk49","","","","","","","",""
"","","","call-function","515","1293483","0.0-515.0","328gfk49","","","","","","","",""
"null","","","html-keyboard-response","516","1294985","0.0-516.0","328gfk49","","<span style=""color:Black; font-size:50px;"">Agent A","null","","","","",""
"null","","","video-keyboard-response","517","1297823","0.0-517.0","328gfk49","","","null","","Agent A","veridical","FOR_REV_BLOBBY_STIM/497950.bmp_pp151_L1_V1.0_veridical_freeview_isoFalse_fps144.mp4",""
"null","","","html-keyboard-response","518","1299327","0.0-518.0","328gfk49","","<span style=""color:Black; font-size:50px;"">Agent B","null","","","","",""
"null","","","video-keyboard-response","519","1302162","0.0-519.0","328gfk49","","","null","","Agent B","scrambled","FOR_REV_BLOBBY_STIM/497950.bmp_pp151_L1_V1.0_veridical_freeview_isoFalse_fps144_reversed_REAL.mp4",""
"","","","call-function","520","1302163","0.0-520.0","328gfk49","","","","","","","",""
"1516.565000000177","{""judgement"":1}","[0]","survey-likert","521","1303681","0.0-521.0","328gfk49","","","","","","","","0"
"1656.5200000000186","{""confidence"":1}","[0]","survey-likert","522","1305339","0.0-522.0","328gfk49","","","","","","","",""
"","","","call-function","523","1305339","0.0-523.0","328gfk49","","","","","","","",""
"null","","","html-keyboard-response","524","1306842","0.0-524.0","328gfk49","","<span style=""color:Black; font-size:50px;"">Agent A","null","","","","",""
"null","","","video-keyboard-response","525","1309582","0.0-525.0","328gfk49","","","null","","Agent A","scrambled","FOR_REV_BLOBBY_STIM/1592581.bmp_pp100_L3_V1.0_veridical_freeview_isoFalse_fps144_reversed_REAL.mp4",""
"null","","","html-keyboard-response","526","1311088","0.0-526.0","328gfk49","","<span style=""color:Black; font-size:50px;"">Agent B","null","","","","",""
"null","","","video-keyboard-response","527","1313827","0.0-527.0","328gfk49","","","null","","Agent B","veridical","FOR_REV_BLOBBY_STIM/1592581.bmp_pp100_L3_V1.0_veridical_freeview_isoFalse_fps144.mp4",""
"","","","call-function","528","1313828","0.0-528.0","328gfk49","","","","","","","",""
"3671.2549999998882","{""judgement"":0}","[0]","survey-likert","529","1317500","0.0-529.0","328gfk49","","","","","","","","1"
"1254.0500000000466","{""confidence"":2}","[0]","survey-likert","530","1318756","0.0-530.0","328gfk49","","","","","","","",""
"","","","call-function","531","1318756","0.0-531.0","328gfk49","","","","","","","",""
"null","","","html-keyboard-response","532","1320260","0.0-532.0","328gfk49","","<span style=""color:Black; font-size:50px;"">Agent A","null","","","","",""
"null","","","video-keyboard-response","533","1322921","0.0-533.0","328gfk49","","","null","","Agent A","scrambled","FOR_REV_BLOBBY_STIM/498149.bmp_pp99_L2_V1.0_veridical_freeview_isoFalse_fps144_reversed_REAL.mp4",""
"null","","","html-keyboard-response","534","1324423","0.0-534.0","328gfk49","","<span style=""color:Black; font-size:50px;"">Agent B","null","","","","",""
"null","","","video-keyboard-response","535","1327082","0.0-535.0","328gfk49","","","null","","Agent B","veridical","FOR_REV_BLOBBY_STIM/498149.bmp_pp99_L2_V1.0_veridical_freeview_isoFalse_fps144.mp4",""
"","","","call-function","536","1327082","0.0-536.0","328gfk49","","","","","","","",""
"3260.8249999999534","{""judgement"":1}","[0]","survey-likert","537","1330344","0.0-537.0","328gfk49","","","","","","","","1"
"1260.2099999999627","{""confidence"":2}","[0]","survey-likert","538","1331606","0.0-538.0","328gfk49","","","","","","","",""
"","","","call-function","539","1331606","0.0-539.0","328gfk49","","","","","","","",""
"null","","","html-keyboard-response","540","1333109","0.0-540.0","328gfk49","","<span style=""color:Black; font-size:50px;"">Agent A","null","","","","",""
"null","","","video-keyboard-response","541","1335946","0.0-541.0","328gfk49","","","null","","Agent A","scrambled","FOR_REV_BLOBBY_STIM/1159440.bmp_pp98_L1_V1.0_veridical_freeview_isoFalse_fps144_reversed_REAL.mp4",""
"null","","","html-keyboard-response","542","1337450","0.0-542.0","328gfk49","","<span style=""color:Black; font-size:50px;"">Agent B","null","","","","",""
"null","","","video-keyboard-response","543","1340271","0.0-543.0","328gfk49","","","null","","Agent B","veridical","FOR_REV_BLOBBY_STIM/1159440.bmp_pp98_L1_V1.0_veridical_freeview_isoFalse_fps144.mp4",""
"","","","call-function","544","1340272","0.0-544.0","328gfk49","","","","","","","",""
"3830.7299999999814","{""judgement"":0}","[0]","survey-likert","545","1344104","0.0-545.0","328gfk49","","","","","","","","1"
"2060.4250000000466","{""confidence"":0}","[0]","survey-likert","546","1346166","0.0-546.0","328gfk49","","","","","","","",""
"","","","call-function","547","1346167","0.0-547.0","328gfk49","","","","","","","",""
"null","","","html-keyboard-response","548","1347674","0.0-548.0","328gfk49","","<span style=""color:Black; font-size:50px;"">Agent A","null","","","","",""
"null","","","video-keyboard-response","549","1350228","0.0-549.0","328gfk49","","","null","","Agent A","scrambled","FOR_REV_BLOBBY_STIM/1159813.bmp_pp79_L2_V1.0_veridical_freeview_isoFalse_fps144_reversed_REAL.mp4",""
"null","","","html-keyboard-response","550","1351733","0.0-550.0","328gfk49","","<span style=""color:Black; font-size:50px;"">Agent B","null","","","","",""
"null","","","video-keyboard-response","551","1354289","0.0-551.0","328gfk49","","","null","","Agent B","veridical","FOR_REV_BLOBBY_STIM/1159813.bmp_pp79_L2_V1.0_veridical_freeview_isoFalse_fps144.mp4",""
"","","","call-function","552","1354290","0.0-552.0","328gfk49","","","","","","","",""
"2730.6049999999814","{""judgement"":1}","[0]","survey-likert","553","1357021","0.0-553.0","328gfk49","","","","","","","","1"
"2179.814999999944","{""confidence"":1}","[0]","survey-likert","554","1359202","0.0-554.0","328gfk49","","","","","","","",""
"","","","call-function","555","1359203","0.0-555.0","328gfk49","","","","","","","",""
"null","","","html-keyboard-response","556","1360709","0.0-556.0","328gfk49","","<span style=""color:Black; font-size:50px;"">Agent A","null","","","","",""
"null","","","video-keyboard-response","557","1363274","0.0-557.0","328gfk49","","","null","","Agent A","veridical","FOR_REV_BLOBBY_STIM/1592397.bmp_pp85_L3_V1.0_veridical_freeview_isoFalse_fps144.mp4",""
"null","","","html-keyboard-response","558","1364778","0.0-558.0","328gfk49","","<span style=""color:Black; font-size:50px;"">Agent B","null","","","","",""
"null","","","video-keyboard-response","559","1367343","0.0-559.0","328gfk49","","","null","","Agent B","scrambled","FOR_REV_BLOBBY_STIM/1592397.bmp_pp85_L3_V1.0_veridical_freeview_isoFalse_fps144_reversed_REAL.mp4",""
"","","","call-function","560","1367344","0.0-560.0","328gfk49","","","","","","","",""
"3396.929999999935","{""judgement"":0}","[0]","survey-likert","561","1370742","0.0-561.0","328gfk49","","","","","","","","0"
"1660.2849999999162","{""confidence"":2}","[0]","survey-likert","562","1372403","0.0-562.0","328gfk49","","","","","","","",""
"","","","call-function","563","1372404","0.0-563.0","328gfk49","","","","","","","",""
"null","","","html-keyboard-response","564","1373909","0.0-564.0","328gfk49","","<span style=""color:Black; font-size:50px;"">Agent A","null","","","","",""
"null","","","video-keyboard-response","565","1376740","0.0-565.0","328gfk49","","","null","","Agent A","scrambled","FOR_REV_BLOBBY_STIM/712977.bmp_pp51_L1_V1.0_veridical_freeview_isoFalse_fps144_reversed_REAL.mp4",""
"null","","","html-keyboard-response","566","1378245","0.0-566.0","328gfk49","","<span style=""color:Black; font-size:50px;"">Agent B","null","","","","",""
"null","","","video-keyboard-response","567","1381060","0.0-567.0","328gfk49","","","null","","Agent B","veridical","FOR_REV_BLOBBY_STIM/712977.bmp_pp51_L1_V1.0_veridical_freeview_isoFalse_fps144.mp4",""
"","","","call-function","568","1381062","0.0-568.0","328gfk49","","","","","","","",""
"1786.5999999998603","{""judgement"":1}","[0]","survey-likert","569","1382849","0.0-569.0","328gfk49","","","","","","","","1"
"3132.0800000000745","{""confidence"":2}","[0]","survey-likert","570","1385983","0.0-570.0","328gfk49","","","","","","","",""
"","","","call-function","571","1385985","0.0-571.0","328gfk49","","","","","","","",""
"null","","","html-keyboard-response","572","1387488","0.0-572.0","328gfk49","","<span style=""color:Black; font-size:50px;"">Agent A","null","","","","",""
"null","","","video-keyboard-response","573","1390030","0.0-573.0","328gfk49","","","null","","Agent A","scrambled","FOR_REV_BLOBBY_STIM/713760.bmp_pp81_L1_V1.0_veridical_freeview_isoFalse_fps144_reversed_REAL.mp4",""
"null","","","html-keyboard-response","574","1391536","0.0-574.0","328gfk49","","<span style=""color:Black; font-size:50px;"">Agent B","null","","","","",""
"null","","","video-keyboard-response","575","1394079","0.0-575.0","328gfk49","","","null","","Agent B","veridical","FOR_REV_BLOBBY_STIM/713760.bmp_pp81_L1_V1.0_veridical_freeview_isoFalse_fps144.mp4",""
"","","","call-function","576","1394080","0.0-576.0","328gfk49","","","","","","","",""
"1960.2299999999814","{""judgement"":0}","[0]","survey-likert","577","1396041","0.0-577.0","328gfk49","","","","","","","","1"
"1782.405000000028","{""confidence"":2}","[0]","survey-likert","578","1397825","0.0-578.0","328gfk49","","","","","","","",""
"1329.2649999998976","","","instructions","579","1399155","0.0-579.0","328gfk49","[{""page_index"":0,""viewing_time"":1329.125}]","","","","","","",""
"834.2349999998696","","","instructions","580","1399990","0.0-580.0","328gfk49","[{""page_index"":0,""viewing_time"":834.1299999998882}]","","","","","","",""
"5429.65000000014","{""post-1"":2}","[0]","survey-likert","581","1405422","0.0-581.0","328gfk49","","","","","","","",""
"2946.155000000028","{""post-1"":1}","[0]","survey-likert","582","1408369","0.0-582.0","328gfk49","","","","","","","",""
"7870.854999999981","{""post-2"":2}","[0]","survey-likert","583","1416242","0.0-583.0","328gfk49","","","","","","","",""
"5672.804999999935","{""post-2"":0}","[0]","survey-likert","584","1421916","0.0-584.0","328gfk49","","","","","","","",""
"5317.075000000186","{""post-3"":1}","[0]","survey-likert","585","1427234","0.0-585.0","328gfk49","","","","","","","",""
"1624.630000000121","{""post-3"":0}","[0]","survey-likert","586","1428860","0.0-586.0","328gfk49","","","","","","","",""
"4400.760000000009","{""post-4"":1}","[0]","survey-likert","587","1433264","0.0-587.0","328gfk49","","","","","","","",""
"2530.4150000000373","{""post-4"":0}","[0]","survey-likert","588","1435796","0.0-588.0","328gfk49","","","","","","","",""
"6294.679999999935","{""post-5"":2}","[0]","survey-likert","589","1442093","0.0-589.0","328gfk49","","","","","","","",""
"1680.630000000121","{""post-5"":2}","[0]","survey-likert","590","1443775","0.0-590.0","328gfk49","","","","","","","",""
"10887.814999999944","{""Q0"":""ADHD inattentive type""}","","survey-text","591","1454669","0.0-591.0","328gfk49","","","","","","","",""
"31180.955000000075","{""Q0"":""I found it easier to stay engaged with a variety of pictures""}","","survey-text","592","1485853","0.0-592.0","328gfk49","","","","","","","",""
"15222.434999999823","{""Q0"":""I found it hard to keep my attention going""}","","survey-text","593","1501079","0.0-593.0","328gfk49","","","","","","","",""
"1500.9799999999814","","","instructions","594","1502580","0.0-594.0","328gfk49","[{""page_index"":0,""viewing_time"":1500.7050000000745}]","","","","","","",""
"43854.554999999935","{""Experimenter_end"":[""Printed ID# 328gfk49 on consent form"",""Given subject SONA credit or payment"",""Given the subject debrief form""]}","[0]","survey-multi-select","595","1546439","0.0-595.0","328gfk49","","","","","","","",""
