"rt","responses","question_order","trial_type","trial_index","time_elapsed","internal_node_id","ID","view_history","stimulus","key_press","value","agent","condition","image","correct_answer"
"153721.725","{""Experimenter"":[""Confirmed subject's identity (ID card)"",""Confirmed normal or corrected-to-normal vision"",""Obtained consent (signature and date)"",""Checked the test room lighting"",""Checked computer screen lighting"",""Checked distance from screen to chin rest (50cm)"",""Cleaned and adjusted chin rest"",""Counterbalanced the order of the tasks"",""Opened the experiment in Firefox"",""Made the experiment full screen"",""Encouraged subject to silence phone, put away distractors, etc.""]}","[0]","survey-multi-select","0","153730","0.0-0.0","37gvne9f","","","","","","","",""
"46066.234999999986","","","instructions","1","199798","0.0-1.0","37gvne9f","[{""page_index"":0,""viewing_time"":46066.09}]","","","","","","",""
"34793.75","","","instructions","2","234593","0.0-2.0","37gvne9f","[{""page_index"":0,""viewing_time"":6645.755000000005},{""page_index"":1,""viewing_time"":8813.994999999995},{""page_index"":2,""viewing_time"":19333.880000000005}]","","","","","","",""
"6145.625","","","instructions","3","240739","0.0-3.0","37gvne9f","[{""page_index"":0,""viewing_time"":6145.524999999994}]","","","","","","",""
"null","","","video-keyboard-response","4","243813","0.0-4.0","37gvne9f","","","null","","","","",""
"31927.304999999993","","","instructions","5","275741","0.0-5.0","37gvne9f","[{""page_index"":0,""viewing_time"":9687.080000000016},{""page_index"":1,""viewing_time"":5706.225000000006},{""page_index"":2,""viewing_time"":1487.9599999999919},{""page_index"":3,""viewing_time"":6975.849999999977},{""page_index"":4,""viewing_time"":8070.065000000002}]","","","","","","",""
"3676.445000000007","","","instructions","6","279418","0.0-6.0","37gvne9f","[{""page_index"":0,""viewing_time"":3676.320000000007}]","","","","","","",""
"","","","call-function","7","279419","0.0-7.0","37gvne9f","","","","","","","",""
"null","","","html-keyboard-response","8","280921","0.0-8.0","37gvne9f","","<span style=""color:Black; font-size:50px;"">Agent A","null","","","","",""
"null","","","video-keyboard-response","9","284005","0.0-9.0","37gvne9f","","","null","","Agent A","veridical","STIM_SET_1/1591994.bmp_pp69_L3_V1.0_veridical_freeview_isoFalse.mp4",""
"null","","","html-keyboard-response","10","285509","0.0-10.0","37gvne9f","","<span style=""color:Black; font-size:50px;"">Agent B","null","","","","",""
"null","","","video-keyboard-response","11","288595","0.0-11.0","37gvne9f","","","null","","Agent B","scrambled","STIM_SET_1/1591994.bmp_pp69_L3_V1.0_scrambled_freeview_isoFalse.mp4",""
"","","","call-function","12","288596","0.0-12.0","37gvne9f","","","","","","","",""
"17464.275000000023","{""judgement"":1}","[0]","survey-likert","13","306061","0.0-13.0","37gvne9f","","","","","","","","0"
"2609.6399999999558","{""confidence"":0}","[0]","survey-likert","14","308672","0.0-14.0","37gvne9f","","","","","","","",""
"","","","call-function","15","308673","0.0-15.0","37gvne9f","","","","","","","",""
"null","","","html-keyboard-response","16","310174","0.0-16.0","37gvne9f","","<span style=""color:Black; font-size:50px;"">Agent A","null","","","","",""
"null","","","video-keyboard-response","17","313245","0.0-17.0","37gvne9f","","","null","","Agent A","scrambled","STIM_SET_1/1159813.bmp_pp79_L2_V1.0_scrambled_freeview_isoFalse.mp4",""
"null","","","html-keyboard-response","18","314747","0.0-18.0","37gvne9f","","<span style=""color:Black; font-size:50px;"">Agent B","null","","","","",""
"null","","","video-keyboard-response","19","317822","0.0-19.0","37gvne9f","","","null","","Agent B","veridical","STIM_SET_1/1159813.bmp_pp79_L2_V1.0_veridical_freeview_isoFalse.mp4",""
"","","","call-function","20","317822","0.0-20.0","37gvne9f","","","","","","","",""
"1716.2300000000396","{""judgement"":0}","[0]","survey-likert","21","319540","0.0-21.0","37gvne9f","","","","","","","","1"
"2119.4199999999837","{""confidence"":2}","[0]","survey-likert","22","321661","0.0-22.0","37gvne9f","","","","","","","",""
"","","","call-function","23","321661","0.0-23.0","37gvne9f","","","","","","","",""
"null","","","html-keyboard-response","24","323167","0.0-24.0","37gvne9f","","<span style=""color:Black; font-size:50px;"">Agent A","null","","","","",""
"null","","","video-keyboard-response","25","326281","0.0-25.0","37gvne9f","","","null","","Agent A","veridical","STIM_SET_1/1593035.bmp_pp94_L2_V1.0_veridical_freeview_isoFalse.mp4",""
"null","","","html-keyboard-response","26","327784","0.0-26.0","37gvne9f","","<span style=""color:Black; font-size:50px;"">Agent B","null","","","","",""
"null","","","video-keyboard-response","27","330857","0.0-27.0","37gvne9f","","","null","","Agent B","scrambled","STIM_SET_1/1593035.bmp_pp94_L2_V1.0_scrambled_freeview_isoFalse.mp4",""
"","","","call-function","28","330857","0.0-28.0","37gvne9f","","","","","","","",""
"2376.899999999965","{""judgement"":0}","[0]","survey-likert","29","333236","0.0-29.0","37gvne9f","","","","","","","","0"
"1942.045000000042","{""confidence"":2}","[0]","survey-likert","30","335180","0.0-30.0","37gvne9f","","","","","","","",""
"","","","call-function","31","335181","0.0-31.0","37gvne9f","","","","","","","",""
"null","","","html-keyboard-response","32","336685","0.0-32.0","37gvne9f","","<span style=""color:Black; font-size:50px;"">Agent A","null","","","","",""
"null","","","video-keyboard-response","33","339753","0.0-33.0","37gvne9f","","","null","","Agent A","veridical","STIM_SET_1/713135.bmp_pp54_L2_V1.0_veridical_freeview_isoFalse.mp4",""
"null","","","html-keyboard-response","34","341259","0.0-34.0","37gvne9f","","<span style=""color:Black; font-size:50px;"">Agent B","null","","","","",""
"null","","","video-keyboard-response","35","344328","0.0-35.0","37gvne9f","","","null","","Agent B","scrambled","STIM_SET_1/713135.bmp_pp54_L2_V1.0_scrambled_freeview_isoFalse.mp4",""
"","","","call-function","36","344330","0.0-36.0","37gvne9f","","","","","","","",""
"1635.359999999986","{""judgement"":0}","[0]","survey-likert","37","345966","0.0-37.0","37gvne9f","","","","","","","","0"
"1272.030000000028","{""confidence"":2}","[0]","survey-likert","38","347239","0.0-38.0","37gvne9f","","","","","","","",""
"","","","call-function","39","347240","0.0-39.0","37gvne9f","","","","","","","",""
"null","","","html-keyboard-response","40","348745","0.0-40.0","37gvne9f","","<span style=""color:Black; font-size:50px;"">Agent A","null","","","","",""
"null","","","video-keyboard-response","41","351826","0.0-41.0","37gvne9f","","","null","","Agent A","veridical","STIM_SET_1/1592372.bmp_pp76_L1_V1.0_veridical_freeview_isoFalse.mp4",""
"null","","","html-keyboard-response","42","353327","0.0-42.0","37gvne9f","","<span style=""color:Black; font-size:50px;"">Agent B","null","","","","",""
"null","","","video-keyboard-response","43","356411","0.0-43.0","37gvne9f","","","null","","Agent B","scrambled","STIM_SET_1/1592372.bmp_pp76_L1_V1.0_scrambled_freeview_isoFalse.mp4",""
"","","","call-function","44","356412","0.0-44.0","37gvne9f","","","","","","","",""
"10529.679999999993","{""judgement"":1}","[0]","survey-likert","45","366942","0.0-45.0","37gvne9f","","","","","","","","0"
"2109.2949999999837","{""confidence"":1}","[0]","survey-likert","46","369052","0.0-46.0","37gvne9f","","","","","","","",""
"","","","call-function","47","369053","0.0-47.0","37gvne9f","","","","","","","",""
"null","","","html-keyboard-response","48","370556","0.0-48.0","37gvne9f","","<span style=""color:Black; font-size:50px;"">Agent A","null","","","","",""
"null","","","video-keyboard-response","49","373667","0.0-49.0","37gvne9f","","","null","","Agent A","veridical","STIM_SET_1/285933.bmp_pp81_L1_V1.0_veridical_freeview_isoFalse.mp4",""
"null","","","html-keyboard-response","50","375174","0.0-50.0","37gvne9f","","<span style=""color:Black; font-size:50px;"">Agent B","null","","","","",""
"null","","","video-keyboard-response","51","378288","0.0-51.0","37gvne9f","","","null","","Agent B","scrambled","STIM_SET_1/285933.bmp_pp81_L1_V1.0_scrambled_freeview_isoFalse.mp4",""
"","","","call-function","52","378289","0.0-52.0","37gvne9f","","","","","","","",""
"2694.875","{""judgement"":0}","[0]","survey-likert","53","380984","0.0-53.0","37gvne9f","","","","","","","","0"
"1169.789999999979","{""confidence"":2}","[0]","survey-likert","54","382155","0.0-54.0","37gvne9f","","","","","","","",""
"","","","call-function","55","382156","0.0-55.0","37gvne9f","","","","","","","",""
"null","","","html-keyboard-response","56","383657","0.0-56.0","37gvne9f","","<span style=""color:Black; font-size:50px;"">Agent A","null","","","","",""
"null","","","video-keyboard-response","57","386770","0.0-57.0","37gvne9f","","","null","","Agent A","veridical","STIM_SET_1/1592286.bmp_pp52_L1_V1.0_veridical_freeview_isoFalse.mp4",""
"null","","","html-keyboard-response","58","388273","0.0-58.0","37gvne9f","","<span style=""color:Black; font-size:50px;"">Agent B","null","","","","",""
"null","","","video-keyboard-response","59","391391","0.0-59.0","37gvne9f","","","null","","Agent B","scrambled","STIM_SET_1/1592286.bmp_pp52_L1_V1.0_scrambled_freeview_isoFalse.mp4",""
"","","","call-function","60","391392","0.0-60.0","37gvne9f","","","","","","","",""
"2210.8250000000116","{""judgement"":0}","[0]","survey-likert","61","393603","0.0-61.0","37gvne9f","","","","","","","","0"
"2061.945000000007","{""confidence"":1}","[0]","survey-likert","62","395666","0.0-62.0","37gvne9f","","","","","","","",""
"","","","call-function","63","395667","0.0-63.0","37gvne9f","","","","","","","",""
"null","","","html-keyboard-response","64","397170","0.0-64.0","37gvne9f","","<span style=""color:Black; font-size:50px;"">Agent A","null","","","","",""
"null","","","video-keyboard-response","65","400275","0.0-65.0","37gvne9f","","","null","","Agent A","scrambled","STIM_SET_1/498149.bmp_pp99_L2_V1.0_scrambled_freeview_isoFalse.mp4",""
"null","","","html-keyboard-response","66","401777","0.0-66.0","37gvne9f","","<span style=""color:Black; font-size:50px;"">Agent B","null","","","","",""
"null","","","video-keyboard-response","67","404844","0.0-67.0","37gvne9f","","","null","","Agent B","veridical","STIM_SET_1/498149.bmp_pp99_L2_V1.0_veridical_freeview_isoFalse.mp4",""
"","","","call-function","68","404844","0.0-68.0","37gvne9f","","","","","","","",""
"6527","{""judgement"":0}","[0]","survey-likert","69","411372","0.0-69.0","37gvne9f","","","","","","","","1"
"2328.9099999999744","{""confidence"":0}","[0]","survey-likert","70","413702","0.0-70.0","37gvne9f","","","","","","","",""
"","","","call-function","71","413702","0.0-71.0","37gvne9f","","","","","","","",""
"null","","","html-keyboard-response","72","415204","0.0-72.0","37gvne9f","","<span style=""color:Black; font-size:50px;"">Agent A","null","","","","",""
"null","","","video-keyboard-response","73","418283","0.0-73.0","37gvne9f","","","null","","Agent A","scrambled","STIM_SET_1/61537.bmp_pp73_L3_V1.0_scrambled_freeview_isoFalse.mp4",""
"null","","","html-keyboard-response","74","419787","0.0-74.0","37gvne9f","","<span style=""color:Black; font-size:50px;"">Agent B","null","","","","",""
"null","","","video-keyboard-response","75","422867","0.0-75.0","37gvne9f","","","null","","Agent B","veridical","STIM_SET_1/61537.bmp_pp73_L3_V1.0_veridical_freeview_isoFalse.mp4",""
"","","","call-function","76","422868","0.0-76.0","37gvne9f","","","","","","","",""
"2397.219999999972","{""judgement"":1}","[0]","survey-likert","77","425267","0.0-77.0","37gvne9f","","","","","","","","1"
"1070.9500000000116","{""confidence"":2}","[0]","survey-likert","78","426340","0.0-78.0","37gvne9f","","","","","","","",""
"","","","call-function","79","426341","0.0-79.0","37gvne9f","","","","","","","",""
"null","","","html-keyboard-response","80","427845","0.0-80.0","37gvne9f","","<span style=""color:Black; font-size:50px;"">Agent A","null","","","","",""
"null","","","video-keyboard-response","81","430916","0.0-81.0","37gvne9f","","","null","","Agent A","veridical","STIM_SET_1/713796.bmp_pp84_L3_V1.0_veridical_freeview_isoFalse.mp4",""
"null","","","html-keyboard-response","82","432421","0.0-82.0","37gvne9f","","<span style=""color:Black; font-size:50px;"">Agent B","null","","","","",""
"null","","","video-keyboard-response","83","435497","0.0-83.0","37gvne9f","","","null","","Agent B","scrambled","STIM_SET_1/713796.bmp_pp84_L3_V1.0_scrambled_freeview_isoFalse.mp4",""
"","","","call-function","84","435498","0.0-84.0","37gvne9f","","","","","","","",""
"8673.950000000012","{""judgement"":0}","[0]","survey-likert","85","444173","0.0-85.0","37gvne9f","","","","","","","","0"
"1796.6849999999977","{""confidence"":0}","[0]","survey-likert","86","445971","0.0-86.0","37gvne9f","","","","","","","",""
"3407.045000000042","","","instructions","87","449378","0.0-87.0","37gvne9f","[{""page_index"":0,""viewing_time"":1554.2350000000442},{""page_index"":1,""viewing_time"":1089.539999999979},{""page_index"":2,""viewing_time"":763.109999999986}]","","","","","","",""
"5820.295000000042","","","instructions","88","455199","0.0-88.0","37gvne9f","[{""page_index"":0,""viewing_time"":732.2950000000419},{""page_index"":1,""viewing_time"":4359.914999999979},{""page_index"":2,""viewing_time"":727.9799999999814}]","","","","","","",""
"","","","call-function","89","455200","0.0-89.0","37gvne9f","","","","","","","",""
"null","","","html-keyboard-response","90","456702","0.0-90.0","37gvne9f","","<span style=""color:Black; font-size:50px;"">Agent A","null","","","","",""
"null","","","video-keyboard-response","91","459773","0.0-91.0","37gvne9f","","","null","","Agent A","scrambled","STIM_SET_1/1159447.bmp_pp70_L2_V1.0_scrambled_freeview_isoFalse.mp4",""
"null","","","html-keyboard-response","92","461274","0.0-92.0","37gvne9f","","<span style=""color:Black; font-size:50px;"">Agent B","null","","","","",""
"null","","","video-keyboard-response","93","464343","0.0-93.0","37gvne9f","","","null","","Agent B","veridical","STIM_SET_1/1159447.bmp_pp70_L2_V1.0_veridical_freeview_isoFalse.mp4",""
"","","","call-function","94","464343","0.0-94.0","37gvne9f","","","","","","","",""
"6259.155000000028","{""judgement"":0}","[0]","survey-likert","95","470603","0.0-95.0","37gvne9f","","","","","","","","1"
"1460.25","{""confidence"":1}","[0]","survey-likert","96","472065","0.0-96.0","37gvne9f","","","","","","","",""
"","","","call-function","97","472065","0.0-97.0","37gvne9f","","","","","","","",""
"null","","","html-keyboard-response","98","473567","0.0-98.0","37gvne9f","","<span style=""color:Black; font-size:50px;"">Agent A","null","","","","",""
"null","","","video-keyboard-response","99","476678","0.0-99.0","37gvne9f","","","null","","Agent A","scrambled","STIM_SET_1/1592499.bmp_pp96_L2_V1.0_scrambled_freeview_isoFalse.mp4",""
"null","","","html-keyboard-response","100","478183","0.0-100.0","37gvne9f","","<span style=""color:Black; font-size:50px;"">Agent B","null","","","","",""
"null","","","video-keyboard-response","101","481299","0.0-101.0","37gvne9f","","","null","","Agent B","veridical","STIM_SET_1/1592499.bmp_pp96_L2_V1.0_veridical_freeview_isoFalse.mp4",""
"","","","call-function","102","481300","0.0-102.0","37gvne9f","","","","","","","",""
"9648.664999999979","{""judgement"":1}","[0]","survey-likert","103","490949","0.0-103.0","37gvne9f","","","","","","","","1"
"1291.0650000000023","{""confidence"":0}","[0]","survey-likert","104","492242","0.0-104.0","37gvne9f","","","","","","","",""
"","","","call-function","105","492242","0.0-105.0","37gvne9f","","","","","","","",""
"null","","","html-keyboard-response","106","493743","0.0-106.0","37gvne9f","","<span style=""color:Black; font-size:50px;"">Agent A","null","","","","",""
"null","","","video-keyboard-response","107","496819","0.0-107.0","37gvne9f","","","null","","Agent A","scrambled","STIM_SET_1/713593.bmp_pp64_L1_V1.0_scrambled_freeview_isoFalse.mp4",""
"null","","","html-keyboard-response","108","498324","0.0-108.0","37gvne9f","","<span style=""color:Black; font-size:50px;"">Agent B","null","","","","",""
"null","","","video-keyboard-response","109","501405","0.0-109.0","37gvne9f","","","null","","Agent B","veridical","STIM_SET_1/713593.bmp_pp64_L1_V1.0_veridical_freeview_isoFalse.mp4",""
"","","","call-function","110","501405","0.0-110.0","37gvne9f","","","","","","","",""
"4250.299999999988","{""judgement"":0}","[0]","survey-likert","111","505656","0.0-111.0","37gvne9f","","","","","","","","1"
"1127.6500000000233","{""confidence"":0}","[0]","survey-likert","112","506785","0.0-112.0","37gvne9f","","","","","","","",""
"","","","call-function","113","506785","0.0-113.0","37gvne9f","","","","","","","",""
"null","","","html-keyboard-response","114","508292","0.0-114.0","37gvne9f","","<span style=""color:Black; font-size:50px;"">Agent A","null","","","","",""
"null","","","video-keyboard-response","115","511419","0.0-115.0","37gvne9f","","","null","","Agent A","veridical","STIM_SET_1/1159440.bmp_pp98_L1_V1.0_veridical_freeview_isoFalse.mp4",""
"null","","","html-keyboard-response","116","512924","0.0-116.0","37gvne9f","","<span style=""color:Black; font-size:50px;"">Agent B","null","","","","",""
"null","","","video-keyboard-response","117","516048","0.0-117.0","37gvne9f","","","null","","Agent B","scrambled","STIM_SET_1/1159440.bmp_pp98_L1_V1.0_scrambled_freeview_isoFalse.mp4",""
"","","","call-function","118","516048","0.0-118.0","37gvne9f","","","","","","","",""
"1733.2300000000396","{""judgement"":0}","[0]","survey-likert","119","517782","0.0-119.0","37gvne9f","","","","","","","","0"
"2801.375","{""confidence"":2}","[0]","survey-likert","120","520585","0.0-120.0","37gvne9f","","","","","","","",""
"","","","call-function","121","520585","0.0-121.0","37gvne9f","","","","","","","",""
"null","","","html-keyboard-response","122","522088","0.0-122.0","37gvne9f","","<span style=""color:Black; font-size:50px;"">Agent A","null","","","","",""
"null","","","video-keyboard-response","123","525156","0.0-123.0","37gvne9f","","","null","","Agent A","veridical","STIM_SET_1/1592619.bmp_pp56_L3_V1.0_veridical_freeview_isoFalse.mp4",""
"null","","","html-keyboard-response","124","526659","0.0-124.0","37gvne9f","","<span style=""color:Black; font-size:50px;"">Agent B","null","","","","",""
"null","","","video-keyboard-response","125","529728","0.0-125.0","37gvne9f","","","null","","Agent B","scrambled","STIM_SET_1/1592619.bmp_pp56_L3_V1.0_scrambled_freeview_isoFalse.mp4",""
"","","","call-function","126","529729","0.0-126.0","37gvne9f","","","","","","","",""
"1539.7449999999953","{""judgement"":0}","[0]","survey-likert","127","531271","0.0-127.0","37gvne9f","","","","","","","","0"
"1129.3350000000792","{""confidence"":2}","[0]","survey-likert","128","532401","0.0-128.0","37gvne9f","","","","","","","",""
"","","","call-function","129","532402","0.0-129.0","37gvne9f","","","","","","","",""
"null","","","html-keyboard-response","130","533908","0.0-130.0","37gvne9f","","<span style=""color:Black; font-size:50px;"">Agent A","null","","","","",""
"null","","","video-keyboard-response","131","536980","0.0-131.0","37gvne9f","","","null","","Agent A","scrambled","STIM_SET_1/1160168.bmp_pp53_L2_V1.0_scrambled_freeview_isoFalse.mp4",""
"null","","","html-keyboard-response","132","538484","0.0-132.0","37gvne9f","","<span style=""color:Black; font-size:50px;"">Agent B","null","","","","",""
"null","","","video-keyboard-response","133","541560","0.0-133.0","37gvne9f","","","null","","Agent B","veridical","STIM_SET_1/1160168.bmp_pp53_L2_V1.0_veridical_freeview_isoFalse.mp4",""
"","","","call-function","134","541561","0.0-134.0","37gvne9f","","","","","","","",""
"1875.8400000000838","{""judgement"":1}","[0]","survey-likert","135","543438","0.0-135.0","37gvne9f","","","","","","","","1"
"4255.505000000005","{""confidence"":1}","[0]","survey-likert","136","547695","0.0-136.0","37gvne9f","","","","","","","",""
"","","","call-function","137","547695","0.0-137.0","37gvne9f","","","","","","","",""
"null","","","html-keyboard-response","138","549200","0.0-138.0","37gvne9f","","<span style=""color:Black; font-size:50px;"">Agent A","null","","","","",""
"null","","","video-keyboard-response","139","552283","0.0-139.0","37gvne9f","","","null","","Agent A","veridical","STIM_SET_1/1591876.bmp_pp63_L1_V1.0_veridical_freeview_isoFalse.mp4",""
"null","","","html-keyboard-response","140","553785","0.0-140.0","37gvne9f","","<span style=""color:Black; font-size:50px;"">Agent B","null","","","","",""
"null","","","video-keyboard-response","141","556865","0.0-141.0","37gvne9f","","","null","","Agent B","scrambled","STIM_SET_1/1591876.bmp_pp63_L1_V1.0_scrambled_freeview_isoFalse.mp4",""
"","","","call-function","142","556866","0.0-142.0","37gvne9f","","","","","","","",""
"1542.1900000000605","{""judgement"":0}","[0]","survey-likert","143","558409","0.0-143.0","37gvne9f","","","","","","","","0"
"2345.9899999999907","{""confidence"":2}","[0]","survey-likert","144","560756","0.0-144.0","37gvne9f","","","","","","","",""
"","","","call-function","145","560757","0.0-145.0","37gvne9f","","","","","","","",""
"null","","","html-keyboard-response","146","562259","0.0-146.0","37gvne9f","","<span style=""color:Black; font-size:50px;"">Agent A","null","","","","",""
"null","","","video-keyboard-response","147","565332","0.0-147.0","37gvne9f","","","null","","Agent A","veridical","STIM_SET_1/285905.bmp_pp57_L1_V1.0_veridical_freeview_isoFalse.mp4",""
"null","","","html-keyboard-response","148","566835","0.0-148.0","37gvne9f","","<span style=""color:Black; font-size:50px;"">Agent B","null","","","","",""
"null","","","video-keyboard-response","149","569953","0.0-149.0","37gvne9f","","","null","","Agent B","scrambled","STIM_SET_1/285905.bmp_pp57_L1_V1.0_scrambled_freeview_isoFalse.mp4",""
"","","","call-function","150","569953","0.0-150.0","37gvne9f","","","","","","","",""
"1617.6899999999441","{""judgement"":0}","[0]","survey-likert","151","571572","0.0-151.0","37gvne9f","","","","","","","","0"
"1152.625","{""confidence"":3}","[0]","survey-likert","152","572727","0.0-152.0","37gvne9f","","","","","","","",""
"","","","call-function","153","572727","0.0-153.0","37gvne9f","","","","","","","",""
"null","","","html-keyboard-response","154","574229","0.0-154.0","37gvne9f","","<span style=""color:Black; font-size:50px;"">Agent A","null","","","","",""
"null","","","video-keyboard-response","155","577345","0.0-155.0","37gvne9f","","","null","","Agent A","veridical","STIM_SET_1/285751.bmp_pp55_L3_V1.0_veridical_freeview_isoFalse.mp4",""
"null","","","html-keyboard-response","156","578848","0.0-156.0","37gvne9f","","<span style=""color:Black; font-size:50px;"">Agent B","null","","","","",""
"null","","","video-keyboard-response","157","581962","0.0-157.0","37gvne9f","","","null","","Agent B","scrambled","STIM_SET_1/285751.bmp_pp55_L3_V1.0_scrambled_freeview_isoFalse.mp4",""
"","","","call-function","158","581962","0.0-158.0","37gvne9f","","","","","","","",""
"1326.484999999986","{""judgement"":0}","[0]","survey-likert","159","583290","0.0-159.0","37gvne9f","","","","","","","","0"
"1012.4500000000698","{""confidence"":1}","[0]","survey-likert","160","584303","0.0-160.0","37gvne9f","","","","","","","",""
"","","","call-function","161","584304","0.0-161.0","37gvne9f","","","","","","","",""
"null","","","html-keyboard-response","162","585804","0.0-162.0","37gvne9f","","<span style=""color:Black; font-size:50px;"">Agent A","null","","","","",""
"null","","","video-keyboard-response","163","588919","0.0-163.0","37gvne9f","","","null","","Agent A","veridical","STIM_SET_1/713513.bmp_pp62_L2_V1.0_veridical_freeview_isoFalse.mp4",""
"null","","","html-keyboard-response","164","590426","0.0-164.0","37gvne9f","","<span style=""color:Black; font-size:50px;"">Agent B","null","","","","",""
"null","","","video-keyboard-response","165","593540","0.0-165.0","37gvne9f","","","null","","Agent B","scrambled","STIM_SET_1/713513.bmp_pp62_L2_V1.0_scrambled_freeview_isoFalse.mp4",""
"","","","call-function","166","593540","0.0-166.0","37gvne9f","","","","","","","",""
"2109.2700000000186","{""judgement"":0}","[0]","survey-likert","167","595650","0.0-167.0","37gvne9f","","","","","","","","0"
"1183.8399999999674","{""confidence"":0}","[0]","survey-likert","168","596836","0.0-168.0","37gvne9f","","","","","","","",""
"3008.890000000014","","","instructions","169","599845","0.0-169.0","37gvne9f","[{""page_index"":0,""viewing_time"":1769.905000000028},{""page_index"":1,""viewing_time"":627.0199999999022},{""page_index"":2,""viewing_time"":611.8050000000512}]","","","","","","",""
"2096.6549999999115","","","instructions","170","601943","0.0-170.0","37gvne9f","[{""page_index"":0,""viewing_time"":450.4549999999581},{""page_index"":1,""viewing_time"":1160.045000000042},{""page_index"":2,""viewing_time"":485.9449999999488}]","","","","","","",""
"","","","call-function","171","601943","0.0-171.0","37gvne9f","","","","","","","",""
"null","","","html-keyboard-response","172","603447","0.0-172.0","37gvne9f","","<span style=""color:Black; font-size:50px;"">Agent A","null","","","","",""
"null","","","video-keyboard-response","173","606515","0.0-173.0","37gvne9f","","","null","","Agent A","veridical","STIM_SET_1/498170.bmp_pp153_L3_V1.0_veridical_freeview_isoFalse.mp4",""
"null","","","html-keyboard-response","174","608021","0.0-174.0","37gvne9f","","<span style=""color:Black; font-size:50px;"">Agent B","null","","","","",""
"null","","","video-keyboard-response","175","611091","0.0-175.0","37gvne9f","","","null","","Agent B","scrambled","STIM_SET_1/498170.bmp_pp153_L3_V1.0_scrambled_freeview_isoFalse.mp4",""
"","","","call-function","176","611091","0.0-176.0","37gvne9f","","","","","","","",""
"2316.0050000000047","{""judgement"":0}","[0]","survey-likert","177","613408","0.0-177.0","37gvne9f","","","","","","","","0"
"3527.2549999998882","{""confidence"":2}","[0]","survey-likert","178","616937","0.0-178.0","37gvne9f","","","","","","","",""
"","","","call-function","179","616937","0.0-179.0","37gvne9f","","","","","","","",""
"null","","","html-keyboard-response","180","618439","0.0-180.0","37gvne9f","","<span style=""color:Black; font-size:50px;"">Agent A","null","","","","",""
"null","","","video-keyboard-response","181","621521","0.0-181.0","37gvne9f","","","null","","Agent A","scrambled","STIM_SET_1/713707.bmp_pp154_L1_V1.0_scrambled_freeview_isoFalse.mp4",""
"null","","","html-keyboard-response","182","623026","0.0-182.0","37gvne9f","","<span style=""color:Black; font-size:50px;"">Agent B","null","","","","",""
"null","","","video-keyboard-response","183","626105","0.0-183.0","37gvne9f","","","null","","Agent B","veridical","STIM_SET_1/713707.bmp_pp154_L1_V1.0_veridical_freeview_isoFalse.mp4",""
"","","","call-function","184","626106","0.0-184.0","37gvne9f","","","","","","","",""
"3832.060000000056","{""judgement"":0}","[0]","survey-likert","185","629939","0.0-185.0","37gvne9f","","","","","","","","1"
"1237.765000000014","{""confidence"":0}","[0]","survey-likert","186","631178","0.0-186.0","37gvne9f","","","","","","","",""
"","","","call-function","187","631179","0.0-187.0","37gvne9f","","","","","","","",""
"null","","","html-keyboard-response","188","632681","0.0-188.0","37gvne9f","","<span style=""color:Black; font-size:50px;"">Agent A","null","","","","",""
"null","","","video-keyboard-response","189","635751","0.0-189.0","37gvne9f","","","null","","Agent A","veridical","STIM_SET_1/713089.bmp_pp60_L3_V1.0_veridical_freeview_isoFalse.mp4",""
"null","","","html-keyboard-response","190","637257","0.0-190.0","37gvne9f","","<span style=""color:Black; font-size:50px;"">Agent B","null","","","","",""
"null","","","video-keyboard-response","191","640367","0.0-191.0","37gvne9f","","","null","","Agent B","scrambled","STIM_SET_1/713089.bmp_pp60_L3_V1.0_scrambled_freeview_isoFalse.mp4",""
"","","","call-function","192","640369","0.0-192.0","37gvne9f","","","","","","","",""
"1327.1300000000047","{""judgement"":0}","[0]","survey-likert","193","641697","0.0-193.0","37gvne9f","","","","","","","","0"
"1515.6149999999907","{""confidence"":2}","[0]","survey-likert","194","643214","0.0-194.0","37gvne9f","","","","","","","",""
"","","","call-function","195","643215","0.0-195.0","37gvne9f","","","","","","","",""
"null","","","html-keyboard-response","196","644717","0.0-196.0","37gvne9f","","<span style=""color:Black; font-size:50px;"">Agent A","null","","","","",""
"null","","","video-keyboard-response","197","647798","0.0-197.0","37gvne9f","","","null","","Agent A","scrambled","STIM_SET_1/713666.bmp_pp97_L3_V1.0_scrambled_freeview_isoFalse.mp4",""
"null","","","html-keyboard-response","198","649305","0.0-198.0","37gvne9f","","<span style=""color:Black; font-size:50px;"">Agent B","null","","","","",""
"null","","","video-keyboard-response","199","652389","0.0-199.0","37gvne9f","","","null","","Agent B","veridical","STIM_SET_1/713666.bmp_pp97_L3_V1.0_veridical_freeview_isoFalse.mp4",""
"","","","call-function","200","652390","0.0-200.0","37gvne9f","","","","","","","",""
"2378.5200000000186","{""judgement"":0}","[0]","survey-likert","201","654770","0.0-201.0","37gvne9f","","","","","","","","1"
"1636.9150000000373","{""confidence"":1}","[0]","survey-likert","202","656408","0.0-202.0","37gvne9f","","","","","","","",""
"","","","call-function","203","656409","0.0-203.0","37gvne9f","","","","","","","",""
"null","","","html-keyboard-response","204","657913","0.0-204.0","37gvne9f","","<span style=""color:Black; font-size:50px;"">Agent A","null","","","","",""
"null","","","video-keyboard-response","205","660987","0.0-205.0","37gvne9f","","","null","","Agent A","veridical","STIM_SET_1/1591961.bmp_pp67_L2_V1.0_veridical_freeview_isoFalse.mp4",""
"null","","","html-keyboard-response","206","662493","0.0-206.0","37gvne9f","","<span style=""color:Black; font-size:50px;"">Agent B","null","","","","",""
"null","","","video-keyboard-response","207","665565","0.0-207.0","37gvne9f","","","null","","Agent B","scrambled","STIM_SET_1/1591961.bmp_pp67_L2_V1.0_scrambled_freeview_isoFalse.mp4",""
"","","","call-function","208","665566","0.0-208.0","37gvne9f","","","","","","","",""
"1338.359999999986","{""judgement"":0}","[0]","survey-likert","209","666905","0.0-209.0","37gvne9f","","","","","","","","0"
"2595.030000000028","{""confidence"":2}","[0]","survey-likert","210","669501","0.0-210.0","37gvne9f","","","","","","","",""
"","","","call-function","211","669502","0.0-211.0","37gvne9f","","","","","","","",""
"null","","","html-keyboard-response","212","671006","0.0-212.0","37gvne9f","","<span style=""color:Black; font-size:50px;"">Agent A","null","","","","",""
"null","","","video-keyboard-response","213","674082","0.0-213.0","37gvne9f","","","null","","Agent A","veridical","STIM_SET_1/1159784.bmp_pp73_L3_V1.0_veridical_freeview_isoFalse.mp4",""
"null","","","html-keyboard-response","214","675584","0.0-214.0","37gvne9f","","<span style=""color:Black; font-size:50px;"">Agent B","null","","","","",""
"null","","","video-keyboard-response","215","678697","0.0-215.0","37gvne9f","","","null","","Agent B","scrambled","STIM_SET_1/1159784.bmp_pp73_L3_V1.0_scrambled_freeview_isoFalse.mp4",""
"","","","call-function","216","678698","0.0-216.0","37gvne9f","","","","","","","",""
"1546.3250000000698","{""judgement"":0}","[0]","survey-likert","217","680245","0.0-217.0","37gvne9f","","","","","","","","0"
"1579.1600000000326","{""confidence"":2}","[0]","survey-likert","218","681825","0.0-218.0","37gvne9f","","","","","","","",""
"","","","call-function","219","681827","0.0-219.0","37gvne9f","","","","","","","",""
"null","","","html-keyboard-response","220","683332","0.0-220.0","37gvne9f","","<span style=""color:Black; font-size:50px;"">Agent A","null","","","","",""
"null","","","video-keyboard-response","221","686448","0.0-221.0","37gvne9f","","","null","","Agent A","scrambled","STIM_SET_1/1592397.bmp_pp85_L3_V1.0_scrambled_freeview_isoFalse.mp4",""
"null","","","html-keyboard-response","222","687953","0.0-222.0","37gvne9f","","<span style=""color:Black; font-size:50px;"">Agent B","null","","","","",""
"null","","","video-keyboard-response","223","691067","0.0-223.0","37gvne9f","","","null","","Agent B","veridical","STIM_SET_1/1592397.bmp_pp85_L3_V1.0_veridical_freeview_isoFalse.mp4",""
"","","","call-function","224","691068","0.0-224.0","37gvne9f","","","","","","","",""
"2074.2149999999674","{""judgement"":1}","[0]","survey-likert","225","693143","0.0-225.0","37gvne9f","","","","","","","","1"
"3726.6300000000047","{""confidence"":1}","[0]","survey-likert","226","696871","0.0-226.0","37gvne9f","","","","","","","",""
"","","","call-function","227","696871","0.0-227.0","37gvne9f","","","","","","","",""
"null","","","html-keyboard-response","228","698373","0.0-228.0","37gvne9f","","<span style=""color:Black; font-size:50px;"">Agent A","null","","","","",""
"null","","","video-keyboard-response","229","701482","0.0-229.0","37gvne9f","","","null","","Agent A","veridical","STIM_SET_1/713760.bmp_pp81_L1_V1.0_veridical_freeview_isoFalse.mp4",""
"null","","","html-keyboard-response","230","702984","0.0-230.0","37gvne9f","","<span style=""color:Black; font-size:50px;"">Agent B","null","","","","",""
"null","","","video-keyboard-response","231","706094","0.0-231.0","37gvne9f","","","null","","Agent B","scrambled","STIM_SET_1/713760.bmp_pp81_L1_V1.0_scrambled_freeview_isoFalse.mp4",""
"","","","call-function","232","706095","0.0-232.0","37gvne9f","","","","","","","",""
"3815.2299999999814","{""judgement"":1}","[0]","survey-likert","233","709911","0.0-233.0","37gvne9f","","","","","","","","0"
"1255.3249999999534","{""confidence"":0}","[0]","survey-likert","234","711167","0.0-234.0","37gvne9f","","","","","","","",""
"","","","call-function","235","711168","0.0-235.0","37gvne9f","","","","","","","",""
"null","","","html-keyboard-response","236","712671","0.0-236.0","37gvne9f","","<span style=""color:Black; font-size:50px;"">Agent A","null","","","","",""
"null","","","video-keyboard-response","237","715741","0.0-237.0","37gvne9f","","","null","","Agent A","scrambled","STIM_SET_1/1592727.bmp_pp59_L3_V1.0_scrambled_freeview_isoFalse.mp4",""
"null","","","html-keyboard-response","238","717244","0.0-238.0","37gvne9f","","<span style=""color:Black; font-size:50px;"">Agent B","null","","","","",""
"null","","","video-keyboard-response","239","720339","0.0-239.0","37gvne9f","","","null","","Agent B","veridical","STIM_SET_1/1592727.bmp_pp59_L3_V1.0_veridical_freeview_isoFalse.mp4",""
"","","","call-function","240","720340","0.0-240.0","37gvne9f","","","","","","","",""
"1430.515000000014","{""judgement"":0}","[0]","survey-likert","241","721771","0.0-241.0","37gvne9f","","","","","","","","1"
"2668.914999999921","{""confidence"":1}","[0]","survey-likert","242","724441","0.0-242.0","37gvne9f","","","","","","","",""
"","","","call-function","243","724442","0.0-243.0","37gvne9f","","","","","","","",""
"null","","","html-keyboard-response","244","725946","0.0-244.0","37gvne9f","","<span style=""color:Black; font-size:50px;"">Agent A","null","","","","",""
"null","","","video-keyboard-response","245","729015","0.0-245.0","37gvne9f","","","null","","Agent A","veridical","STIM_SET_1/1159882.bmp_pp61_L2_V1.0_veridical_freeview_isoFalse.mp4",""
"null","","","html-keyboard-response","246","730517","0.0-246.0","37gvne9f","","<span style=""color:Black; font-size:50px;"">Agent B","null","","","","",""
"null","","","video-keyboard-response","247","733585","0.0-247.0","37gvne9f","","","null","","Agent B","scrambled","STIM_SET_1/1159882.bmp_pp61_L2_V1.0_scrambled_freeview_isoFalse.mp4",""
"","","","call-function","248","733586","0.0-248.0","37gvne9f","","","","","","","",""
"5958.400000000023","{""judgement"":1}","[0]","survey-likert","249","739545","0.0-249.0","37gvne9f","","","","","","","","0"
"2490.54999999993","{""confidence"":1}","[0]","survey-likert","250","742037","0.0-250.0","37gvne9f","","","","","","","",""
"1975.5","","","instructions","251","744013","0.0-251.0","37gvne9f","[{""page_index"":0,""viewing_time"":925.3099999999395},{""page_index"":1,""viewing_time"":565.1700000000419},{""page_index"":2,""viewing_time"":484.8649999999907}]","","","","","","",""
"2819.430000000051","","","instructions","252","746833","0.0-252.0","37gvne9f","[{""page_index"":0,""viewing_time"":738.2700000000186},{""page_index"":1,""viewing_time"":1508.9250000000466},{""page_index"":2,""viewing_time"":572.1350000000093}]","","","","","","",""
"","","","call-function","253","746833","0.0-253.0","37gvne9f","","","","","","","",""
"null","","","html-keyboard-response","254","748335","0.0-254.0","37gvne9f","","<span style=""color:Black; font-size:50px;"">Agent A","null","","","","",""
"null","","","video-keyboard-response","255","754185","0.0-255.0","37gvne9f","","","null","","Agent A","veridical","STIM_SET_1/1592133.bmp_pp75_L1_V1.0_veridical_freeview_isoFalse.mp4",""
"null","","","html-keyboard-response","256","755690","0.0-256.0","37gvne9f","","<span style=""color:Black; font-size:50px;"">Agent B","null","","","","",""
"null","","","video-keyboard-response","257","758758","0.0-257.0","37gvne9f","","","null","","Agent B","scrambled","STIM_SET_1/1592133.bmp_pp75_L1_V1.0_scrambled_freeview_isoFalse.mp4",""
"","","","call-function","258","758759","0.0-258.0","37gvne9f","","","","","","","",""
"9282.109999999986","{""judgement"":0}","[0]","survey-likert","259","768042","0.0-259.0","37gvne9f","","","","","","","","0"
"1479.015000000014","{""confidence"":0}","[0]","survey-likert","260","769522","0.0-260.0","37gvne9f","","","","","","","",""
"","","","call-function","261","769523","0.0-261.0","37gvne9f","","","","","","","",""
"null","","","html-keyboard-response","262","771029","0.0-262.0","37gvne9f","","<span style=""color:Black; font-size:50px;"">Agent A","null","","","","",""
"null","","","video-keyboard-response","263","774098","0.0-263.0","37gvne9f","","","null","","Agent A","scrambled","STIM_SET_1/286001.bmp_pp54_L2_V1.0_scrambled_freeview_isoFalse.mp4",""
"null","","","html-keyboard-response","264","775600","0.0-264.0","37gvne9f","","<span style=""color:Black; font-size:50px;"">Agent B","null","","","","",""
"null","","","video-keyboard-response","265","778667","0.0-265.0","37gvne9f","","","null","","Agent B","veridical","STIM_SET_1/286001.bmp_pp54_L2_V1.0_veridical_freeview_isoFalse.mp4",""
"","","","call-function","266","778668","0.0-266.0","37gvne9f","","","","","","","",""
"2592.79999999993","{""judgement"":0}","[0]","survey-likert","267","781262","0.0-267.0","37gvne9f","","","","","","","","1"
"1991.875","{""confidence"":0}","[0]","survey-likert","268","783255","0.0-268.0","37gvne9f","","","","","","","",""
"","","","call-function","269","783256","0.0-269.0","37gvne9f","","","","","","","",""
"null","","","html-keyboard-response","270","784757","0.0-270.0","37gvne9f","","<span style=""color:Black; font-size:50px;"">Agent A","null","","","","",""
"null","","","video-keyboard-response","271","787875","0.0-271.0","37gvne9f","","","null","","Agent A","scrambled","STIM_SET_1/1592362.bmp_pp95_L2_V1.0_scrambled_freeview_isoFalse.mp4",""
"null","","","html-keyboard-response","272","789378","0.0-272.0","37gvne9f","","<span style=""color:Black; font-size:50px;"">Agent B","null","","","","",""
"null","","","video-keyboard-response","273","792493","0.0-273.0","37gvne9f","","","null","","Agent B","veridical","STIM_SET_1/1592362.bmp_pp95_L2_V1.0_veridical_freeview_isoFalse.mp4",""
"","","","call-function","274","792493","0.0-274.0","37gvne9f","","","","","","","",""
"7405.180000000051","{""judgement"":1}","[0]","survey-likert","275","799899","0.0-275.0","37gvne9f","","","","","","","","1"
"2814.0200000000186","{""confidence"":1}","[0]","survey-likert","276","802714","0.0-276.0","37gvne9f","","","","","","","",""
"","","","call-function","277","802715","0.0-277.0","37gvne9f","","","","","","","",""
"null","","","html-keyboard-response","278","804221","0.0-278.0","37gvne9f","","<span style=""color:Black; font-size:50px;"">Agent A","null","","","","",""
"null","","","video-keyboard-response","279","807341","0.0-279.0","37gvne9f","","","null","","Agent A","scrambled","STIM_SET_1/498253.bmp_pp67_L2_V1.0_scrambled_freeview_isoFalse.mp4",""
"null","","","html-keyboard-response","280","808844","0.0-280.0","37gvne9f","","<span style=""color:Black; font-size:50px;"">Agent B","null","","","","",""
"null","","","video-keyboard-response","281","811959","0.0-281.0","37gvne9f","","","null","","Agent B","veridical","STIM_SET_1/498253.bmp_pp67_L2_V1.0_veridical_freeview_isoFalse.mp4",""
"","","","call-function","282","811959","0.0-282.0","37gvne9f","","","","","","","",""
"1815.4749999999767","{""judgement"":1}","[0]","survey-likert","283","813775","0.0-283.0","37gvne9f","","","","","","","","1"
"1119.509999999893","{""confidence"":0}","[0]","survey-likert","284","814896","0.0-284.0","37gvne9f","","","","","","","",""
"","","","call-function","285","814897","0.0-285.0","37gvne9f","","","","","","","",""
"null","","","html-keyboard-response","286","816400","0.0-286.0","37gvne9f","","<span style=""color:Black; font-size:50px;"">Agent A","null","","","","",""
"null","","","video-keyboard-response","287","819477","0.0-287.0","37gvne9f","","","null","","Agent A","scrambled","STIM_SET_1/1159675.bmp_pp77_L3_V1.0_scrambled_freeview_isoFalse.mp4",""
"null","","","html-keyboard-response","288","820982","0.0-288.0","37gvne9f","","<span style=""color:Black; font-size:50px;"">Agent B","null","","","","",""
"null","","","video-keyboard-response","289","824060","0.0-289.0","37gvne9f","","","null","","Agent B","veridical","STIM_SET_1/1159675.bmp_pp77_L3_V1.0_veridical_freeview_isoFalse.mp4",""
"","","","call-function","290","824061","0.0-290.0","37gvne9f","","","","","","","",""
"2028.3399999999674","{""judgement"":0}","[0]","survey-likert","291","826090","0.0-291.0","37gvne9f","","","","","","","","1"
"2401.7050000000745","{""confidence"":0}","[0]","survey-likert","292","828493","0.0-292.0","37gvne9f","","","","","","","",""
"","","","call-function","293","828494","0.0-293.0","37gvne9f","","","","","","","",""
"null","","","html-keyboard-response","294","829996","0.0-294.0","37gvne9f","","<span style=""color:Black; font-size:50px;"">Agent A","null","","","","",""
"null","","","video-keyboard-response","295","833102","0.0-295.0","37gvne9f","","","null","","Agent A","scrambled","STIM_SET_1/713403.bmp_pp80_L3_V1.0_scrambled_freeview_isoFalse.mp4",""
"null","","","html-keyboard-response","296","834605","0.0-296.0","37gvne9f","","<span style=""color:Black; font-size:50px;"">Agent B","null","","","","",""
"null","","","video-keyboard-response","297","837674","0.0-297.0","37gvne9f","","","null","","Agent B","veridical","STIM_SET_1/713403.bmp_pp80_L3_V1.0_veridical_freeview_isoFalse.mp4",""
"","","","call-function","298","837674","0.0-298.0","37gvne9f","","","","","","","",""
"4787.835000000079","{""judgement"":1}","[0]","survey-likert","299","842463","0.0-299.0","37gvne9f","","","","","","","","1"
"1156.8050000000512","{""confidence"":0}","[0]","survey-likert","300","843621","0.0-300.0","37gvne9f","","","","","","","",""
"","","","call-function","301","843622","0.0-301.0","37gvne9f","","","","","","","",""
"null","","","html-keyboard-response","302","845125","0.0-302.0","37gvne9f","","<span style=""color:Black; font-size:50px;"">Agent A","null","","","","",""
"null","","","video-keyboard-response","303","848183","0.0-303.0","37gvne9f","","","null","","Agent A","scrambled","STIM_SET_1/713684.bmp_pp85_L3_V1.0_scrambled_freeview_isoFalse.mp4",""
"null","","","html-keyboard-response","304","849689","0.0-304.0","37gvne9f","","<span style=""color:Black; font-size:50px;"">Agent B","null","","","","",""
"null","","","video-keyboard-response","305","852781","0.0-305.0","37gvne9f","","","null","","Agent B","veridical","STIM_SET_1/713684.bmp_pp85_L3_V1.0_veridical_freeview_isoFalse.mp4",""
"","","","call-function","306","852782","0.0-306.0","37gvne9f","","","","","","","",""
"1940.704999999958","{""judgement"":0}","[0]","survey-likert","307","854723","0.0-307.0","37gvne9f","","","","","","","","1"
"1119.2149999999674","{""confidence"":2}","[0]","survey-likert","308","855844","0.0-308.0","37gvne9f","","","","","","","",""
"","","","call-function","309","855844","0.0-309.0","37gvne9f","","","","","","","",""
"null","","","html-keyboard-response","310","857349","0.0-310.0","37gvne9f","","<span style=""color:Black; font-size:50px;"">Agent A","null","","","","",""
"null","","","video-keyboard-response","311","860473","0.0-311.0","37gvne9f","","","null","","Agent A","scrambled","STIM_SET_1/498155.bmp_pp61_L2_V1.0_scrambled_freeview_isoFalse.mp4",""
"null","","","html-keyboard-response","312","861976","0.0-312.0","37gvne9f","","<span style=""color:Black; font-size:50px;"">Agent B","null","","","","",""
"null","","","video-keyboard-response","313","865077","0.0-313.0","37gvne9f","","","null","","Agent B","veridical","STIM_SET_1/498155.bmp_pp61_L2_V1.0_veridical_freeview_isoFalse.mp4",""
"","","","call-function","314","865077","0.0-314.0","37gvne9f","","","","","","","",""
"15216.125","{""judgement"":0}","[0]","survey-likert","315","880295","0.0-315.0","37gvne9f","","","","","","","","1"
"1500.9100000000326","{""confidence"":0}","[0]","survey-likert","316","881798","0.0-316.0","37gvne9f","","","","","","","",""
"","","","call-function","317","881799","0.0-317.0","37gvne9f","","","","","","","",""
"null","","","html-keyboard-response","318","883300","0.0-318.0","37gvne9f","","<span style=""color:Black; font-size:50px;"">Agent A","null","","","","",""
"null","","","video-keyboard-response","319","886365","0.0-319.0","37gvne9f","","","null","","Agent A","veridical","STIM_SET_1/1592351.bmp_pp51_L1_V1.0_veridical_freeview_isoFalse.mp4",""
"null","","","html-keyboard-response","320","887868","0.0-320.0","37gvne9f","","<span style=""color:Black; font-size:50px;"">Agent B","null","","","","",""
"null","","","video-keyboard-response","321","890936","0.0-321.0","37gvne9f","","","null","","Agent B","scrambled","STIM_SET_1/1592351.bmp_pp51_L1_V1.0_scrambled_freeview_isoFalse.mp4",""
"","","","call-function","322","890936","0.0-322.0","37gvne9f","","","","","","","",""
"2937.0500000000466","{""judgement"":1}","[0]","survey-likert","323","893874","0.0-323.0","37gvne9f","","","","","","","","0"
"1493.0599999999395","{""confidence"":0}","[0]","survey-likert","324","895368","0.0-324.0","37gvne9f","","","","","","","",""
"","","","call-function","325","895369","0.0-325.0","37gvne9f","","","","","","","",""
"null","","","html-keyboard-response","326","896872","0.0-326.0","37gvne9f","","<span style=""color:Black; font-size:50px;"">Agent A","null","","","","",""
"null","","","video-keyboard-response","327","899954","0.0-327.0","37gvne9f","","","null","","Agent A","scrambled","STIM_SET_1/713017.bmp_pp152_L2_V1.0_scrambled_freeview_isoFalse.mp4",""
"null","","","html-keyboard-response","328","901456","0.0-328.0","37gvne9f","","<span style=""color:Black; font-size:50px;"">Agent B","null","","","","",""
"null","","","video-keyboard-response","329","904531","0.0-329.0","37gvne9f","","","null","","Agent B","veridical","STIM_SET_1/713017.bmp_pp152_L2_V1.0_veridical_freeview_isoFalse.mp4",""
"","","","call-function","330","904531","0.0-330.0","37gvne9f","","","","","","","",""
"1939.5299999999115","{""judgement"":1}","[0]","survey-likert","331","906472","0.0-331.0","37gvne9f","","","","","","","","1"
"1837.8300000000745","{""confidence"":1}","[0]","survey-likert","332","908311","0.0-332.0","37gvne9f","","","","","","","",""
"1778.1500000000233","","","instructions","333","910089","0.0-333.0","37gvne9f","[{""page_index"":0,""viewing_time"":782.0349999999162},{""page_index"":1,""viewing_time"":510.90500000002794},{""page_index"":2,""viewing_time"":485.0550000000512}]","","","","","","",""
"3227.524999999907","","","instructions","334","913317","0.0-334.0","37gvne9f","[{""page_index"":0,""viewing_time"":485.26500000001397},{""page_index"":1,""viewing_time"":2258.914999999921},{""page_index"":2,""viewing_time"":483.11999999999534}]","","","","","","",""
"","","","call-function","335","913318","0.0-335.0","37gvne9f","","","","","","","",""
"null","","","html-keyboard-response","336","914820","0.0-336.0","37gvne9f","","<span style=""color:Black; font-size:50px;"">Agent A","null","","","","",""
"null","","","video-keyboard-response","337","917928","0.0-337.0","37gvne9f","","","null","","Agent A","veridical","STIM_SET_1/1160127.bmp_pp90_L2_V1.0_veridical_freeview_isoFalse.mp4",""
"null","","","html-keyboard-response","338","919430","0.0-338.0","37gvne9f","","<span style=""color:Black; font-size:50px;"">Agent B","null","","","","",""
"null","","","video-keyboard-response","339","922537","0.0-339.0","37gvne9f","","","null","","Agent B","scrambled","STIM_SET_1/1160127.bmp_pp90_L2_V1.0_scrambled_freeview_isoFalse.mp4",""
"","","","call-function","340","922537","0.0-340.0","37gvne9f","","","","","","","",""
"2561.0999999999767","{""judgement"":0}","[0]","survey-likert","341","925099","0.0-341.0","37gvne9f","","","","","","","","0"
"2101.965000000084","{""confidence"":0}","[0]","survey-likert","342","927202","0.0-342.0","37gvne9f","","","","","","","",""
"","","","call-function","343","927203","0.0-343.0","37gvne9f","","","","","","","",""
"null","","","html-keyboard-response","344","928708","0.0-344.0","37gvne9f","","<span style=""color:Black; font-size:50px;"">Agent A","null","","","","",""
"null","","","video-keyboard-response","345","931822","0.0-345.0","37gvne9f","","","null","","Agent A","scrambled","STIM_SET_1/1159621.bmp_pp92_L3_V1.0_scrambled_freeview_isoFalse.mp4",""
"null","","","html-keyboard-response","346","933325","0.0-346.0","37gvne9f","","<span style=""color:Black; font-size:50px;"">Agent B","null","","","","",""
"null","","","video-keyboard-response","347","936439","0.0-347.0","37gvne9f","","","null","","Agent B","veridical","STIM_SET_1/1159621.bmp_pp92_L3_V1.0_veridical_freeview_isoFalse.mp4",""
"","","","call-function","348","936440","0.0-348.0","37gvne9f","","","","","","","",""
"4348.030000000028","{""judgement"":1}","[0]","survey-likert","349","940789","0.0-349.0","37gvne9f","","","","","","","","1"
"1675.1950000000652","{""confidence"":0}","[0]","survey-likert","350","942465","0.0-350.0","37gvne9f","","","","","","","",""
"","","","call-function","351","942465","0.0-351.0","37gvne9f","","","","","","","",""
"null","","","html-keyboard-response","352","943967","0.0-352.0","37gvne9f","","<span style=""color:Black; font-size:50px;"">Agent A","null","","","","",""
"null","","","video-keyboard-response","353","947074","0.0-353.0","37gvne9f","","","null","","Agent A","scrambled","STIM_SET_1/1159572.bmp_pp71_L1_V1.0_scrambled_freeview_isoFalse.mp4",""
"null","","","html-keyboard-response","354","948579","0.0-354.0","37gvne9f","","<span style=""color:Black; font-size:50px;"">Agent B","null","","","","",""
"null","","","video-keyboard-response","355","951648","0.0-355.0","37gvne9f","","","null","","Agent B","veridical","STIM_SET_1/1159572.bmp_pp71_L1_V1.0_veridical_freeview_isoFalse.mp4",""
"","","","call-function","356","951649","0.0-356.0","37gvne9f","","","","","","","",""
"1931.0850000000792","{""judgement"":1}","[0]","survey-likert","357","953582","0.0-357.0","37gvne9f","","","","","","","","1"
"1396.0550000000512","{""confidence"":0}","[0]","survey-likert","358","954980","0.0-358.0","37gvne9f","","","","","","","",""
"","","","call-function","359","954980","0.0-359.0","37gvne9f","","","","","","","",""
"null","","","html-keyboard-response","360","956483","0.0-360.0","37gvne9f","","<span style=""color:Black; font-size:50px;"">Agent A","null","","","","",""
"null","","","video-keyboard-response","361","959564","0.0-361.0","37gvne9f","","","null","","Agent A","veridical","STIM_SET_1/713211.bmp_pp100_L3_V1.0_veridical_freeview_isoFalse.mp4",""
"null","","","html-keyboard-response","362","961065","0.0-362.0","37gvne9f","","<span style=""color:Black; font-size:50px;"">Agent B","null","","","","",""
"null","","","video-keyboard-response","363","964142","0.0-363.0","37gvne9f","","","null","","Agent B","scrambled","STIM_SET_1/713211.bmp_pp100_L3_V1.0_scrambled_freeview_isoFalse.mp4",""
"","","","call-function","364","964143","0.0-364.0","37gvne9f","","","","","","","",""
"2351.8899999998976","{""judgement"":0}","[0]","survey-likert","365","966496","0.0-365.0","37gvne9f","","","","","","","","0"
"1293.030000000028","{""confidence"":2}","[0]","survey-likert","366","967790","0.0-366.0","37gvne9f","","","","","","","",""
"","","","call-function","367","967790","0.0-367.0","37gvne9f","","","","","","","",""
"null","","","html-keyboard-response","368","969296","0.0-368.0","37gvne9f","","<span style=""color:Black; font-size:50px;"">Agent A","null","","","","",""
"null","","","video-keyboard-response","369","972378","0.0-369.0","37gvne9f","","","null","","Agent A","veridical","STIM_SET_1/1591954.bmp_pp62_L2_V1.0_veridical_freeview_isoFalse.mp4",""
"null","","","html-keyboard-response","370","973886","0.0-370.0","37gvne9f","","<span style=""color:Black; font-size:50px;"">Agent B","null","","","","",""
"null","","","video-keyboard-response","371","976969","0.0-371.0","37gvne9f","","","null","","Agent B","scrambled","STIM_SET_1/1591954.bmp_pp62_L2_V1.0_scrambled_freeview_isoFalse.mp4",""
"","","","call-function","372","976970","0.0-372.0","37gvne9f","","","","","","","",""
"1379.8100000000559","{""judgement"":0}","[0]","survey-likert","373","978350","0.0-373.0","37gvne9f","","","","","","","","0"
"1387.0650000000605","{""confidence"":2}","[0]","survey-likert","374","979739","0.0-374.0","37gvne9f","","","","","","","",""
"","","","call-function","375","979739","0.0-375.0","37gvne9f","","","","","","","",""
"null","","","html-keyboard-response","376","981241","0.0-376.0","37gvne9f","","<span style=""color:Black; font-size:50px;"">Agent A","null","","","","",""
"null","","","video-keyboard-response","377","984357","0.0-377.0","37gvne9f","","","null","","Agent A","veridical","STIM_SET_1/1592804.bmp_pp91_L3_V1.0_veridical_freeview_isoFalse.mp4",""
"null","","","html-keyboard-response","378","985859","0.0-378.0","37gvne9f","","<span style=""color:Black; font-size:50px;"">Agent B","null","","","","",""
"null","","","video-keyboard-response","379","988976","0.0-379.0","37gvne9f","","","null","","Agent B","scrambled","STIM_SET_1/1592804.bmp_pp91_L3_V1.0_scrambled_freeview_isoFalse.mp4",""
"","","","call-function","380","988976","0.0-380.0","37gvne9f","","","","","","","",""
"1370.719999999972","{""judgement"":0}","[0]","survey-likert","381","990348","0.0-381.0","37gvne9f","","","","","","","","0"
"1483.015000000014","{""confidence"":2}","[0]","survey-likert","382","991832","0.0-382.0","37gvne9f","","","","","","","",""
"","","","call-function","383","991832","0.0-383.0","37gvne9f","","","","","","","",""
"null","","","html-keyboard-response","384","993337","0.0-384.0","37gvne9f","","<span style=""color:Black; font-size:50px;"">Agent A","null","","","","",""
"null","","","video-keyboard-response","385","996450","0.0-385.0","37gvne9f","","","null","","Agent A","scrambled","STIM_SET_1/1159829.bmp_pp91_L3_V1.0_scrambled_freeview_isoFalse.mp4",""
"null","","","html-keyboard-response","386","997955","0.0-386.0","37gvne9f","","<span style=""color:Black; font-size:50px;"">Agent B","null","","","","",""
"null","","","video-keyboard-response","387","1001065","0.0-387.0","37gvne9f","","","null","","Agent B","veridical","STIM_SET_1/1159829.bmp_pp91_L3_V1.0_veridical_freeview_isoFalse.mp4",""
"","","","call-function","388","1001066","0.0-388.0","37gvne9f","","","","","","","",""
"1702.9649999999674","{""judgement"":0}","[0]","survey-likert","389","1002769","0.0-389.0","37gvne9f","","","","","","","","1"
"2340.8150000000605","{""confidence"":2}","[0]","survey-likert","390","1005111","0.0-390.0","37gvne9f","","","","","","","",""
"","","","call-function","391","1005112","0.0-391.0","37gvne9f","","","","","","","",""
"null","","","html-keyboard-response","392","1006614","0.0-392.0","37gvne9f","","<span style=""color:Black; font-size:50px;"">Agent A","null","","","","",""
"null","","","video-keyboard-response","393","1009686","0.0-393.0","37gvne9f","","","null","","Agent A","veridical","STIM_SET_1/713681.bmp_pp86_L2_V1.0_veridical_freeview_isoFalse.mp4",""
"null","","","html-keyboard-response","394","1011190","0.0-394.0","37gvne9f","","<span style=""color:Black; font-size:50px;"">Agent B","null","","","","",""
"null","","","video-keyboard-response","395","1014306","0.0-395.0","37gvne9f","","","null","","Agent B","scrambled","STIM_SET_1/713681.bmp_pp86_L2_V1.0_scrambled_freeview_isoFalse.mp4",""
"","","","call-function","396","1014307","0.0-396.0","37gvne9f","","","","","","","",""
"1508.1149999999907","{""judgement"":0}","[0]","survey-likert","397","1015816","0.0-397.0","37gvne9f","","","","","","","","0"
"1462.6049999999814","{""confidence"":0}","[0]","survey-likert","398","1017280","0.0-398.0","37gvne9f","","","","","","","",""
"","","","call-function","399","1017280","0.0-399.0","37gvne9f","","","","","","","",""
"null","","","html-keyboard-response","400","1018784","0.0-400.0","37gvne9f","","<span style=""color:Black; font-size:50px;"">Agent A","null","","","","",""
"null","","","video-keyboard-response","401","1021884","0.0-401.0","37gvne9f","","","null","","Agent A","scrambled","STIM_SET_1/1159446.bmp_pp60_L3_V1.0_scrambled_freeview_isoFalse.mp4",""
"null","","","html-keyboard-response","402","1023389","0.0-402.0","37gvne9f","","<span style=""color:Black; font-size:50px;"">Agent B","null","","","","",""
"null","","","video-keyboard-response","403","1026453","0.0-403.0","37gvne9f","","","null","","Agent B","veridical","STIM_SET_1/1159446.bmp_pp60_L3_V1.0_veridical_freeview_isoFalse.mp4",""
"","","","call-function","404","1026453","0.0-404.0","37gvne9f","","","","","","","",""
"3514.170000000042","{""judgement"":0}","[0]","survey-likert","405","1029968","0.0-405.0","37gvne9f","","","","","","","","1"
"1073.5750000000698","{""confidence"":0}","[0]","survey-likert","406","1031043","0.0-406.0","37gvne9f","","","","","","","",""
"","","","call-function","407","1031044","0.0-407.0","37gvne9f","","","","","","","",""
"null","","","html-keyboard-response","408","1032547","0.0-408.0","37gvne9f","","<span style=""color:Black; font-size:50px;"">Agent A","null","","","","",""
"null","","","video-keyboard-response","409","1035615","0.0-409.0","37gvne9f","","","null","","Agent A","scrambled","STIM_SET_1/285994.bmp_pp92_L3_V1.0_scrambled_freeview_isoFalse.mp4",""
"null","","","html-keyboard-response","410","1037119","0.0-410.0","37gvne9f","","<span style=""color:Black; font-size:50px;"">Agent B","null","","","","",""
"null","","","video-keyboard-response","411","1040188","0.0-411.0","37gvne9f","","","null","","Agent B","veridical","STIM_SET_1/285994.bmp_pp92_L3_V1.0_veridical_freeview_isoFalse.mp4",""
"","","","call-function","412","1040189","0.0-412.0","37gvne9f","","","","","","","",""
"1775.3500000000931","{""judgement"":1}","[0]","survey-likert","413","1041965","0.0-413.0","37gvne9f","","","","","","","","1"
"1604.7299999999814","{""confidence"":0}","[0]","survey-likert","414","1043571","0.0-414.0","37gvne9f","","","","","","","",""
"1837.75","","","instructions","415","1045409","0.0-415.0","37gvne9f","[{""page_index"":0,""viewing_time"":891.734999999986},{""page_index"":1,""viewing_time"":441.9899999999907},{""page_index"":2,""viewing_time"":503.86999999999534}]","","","","","","",""
"2136.6300000000047","","","instructions","416","1047546","0.0-416.0","37gvne9f","[{""page_index"":0,""viewing_time"":468.49499999999534},{""page_index"":1,""viewing_time"":1091.9300000000512},{""page_index"":2,""viewing_time"":576.0949999999721}]","","","","","","",""
"","","","call-function","417","1047547","0.0-417.0","37gvne9f","","","","","","","",""
"null","","","html-keyboard-response","418","1049049","0.0-418.0","37gvne9f","","<span style=""color:Black; font-size:50px;"">Agent A","null","","","","",""
"null","","","video-keyboard-response","419","1052112","0.0-419.0","37gvne9f","","","null","","Agent A","veridical","STIM_SET_1/713779.bmp_pp152_L2_V1.0_veridical_freeview_isoFalse.mp4",""
"null","","","html-keyboard-response","420","1053616","0.0-420.0","37gvne9f","","<span style=""color:Black; font-size:50px;"">Agent B","null","","","","",""
"null","","","video-keyboard-response","421","1056707","0.0-421.0","37gvne9f","","","null","","Agent B","scrambled","STIM_SET_1/713779.bmp_pp152_L2_V1.0_scrambled_freeview_isoFalse.mp4",""
"","","","call-function","422","1056708","0.0-422.0","37gvne9f","","","","","","","",""
"2137.0200000000186","{""judgement"":0}","[0]","survey-likert","423","1058845","0.0-423.0","37gvne9f","","","","","","","","0"
"2993","{""confidence"":1}","[0]","survey-likert","424","1061840","0.0-424.0","37gvne9f","","","","","","","",""
"","","","call-function","425","1061840","0.0-425.0","37gvne9f","","","","","","","",""
"null","","","html-keyboard-response","426","1063344","0.0-426.0","37gvne9f","","<span style=""color:Black; font-size:50px;"">Agent A","null","","","","",""
"null","","","video-keyboard-response","427","1066458","0.0-427.0","37gvne9f","","","null","","Agent A","veridical","STIM_SET_1/1159515.bmp_pp84_L3_V1.0_veridical_freeview_isoFalse.mp4",""
"null","","","html-keyboard-response","428","1067962","0.0-428.0","37gvne9f","","<span style=""color:Black; font-size:50px;"">Agent B","null","","","","",""
"null","","","video-keyboard-response","429","1071072","0.0-429.0","37gvne9f","","","null","","Agent B","scrambled","STIM_SET_1/1159515.bmp_pp84_L3_V1.0_scrambled_freeview_isoFalse.mp4",""
"","","","call-function","430","1071073","0.0-430.0","37gvne9f","","","","","","","",""
"1623.3549999999814","{""judgement"":0}","[0]","survey-likert","431","1072697","0.0-431.0","37gvne9f","","","","","","","","0"
"1595.5349999999162","{""confidence"":2}","[0]","survey-likert","432","1074294","0.0-432.0","37gvne9f","","","","","","","",""
"","","","call-function","433","1074294","0.0-433.0","37gvne9f","","","","","","","",""
"null","","","html-keyboard-response","434","1075796","0.0-434.0","37gvne9f","","<span style=""color:Black; font-size:50px;"">Agent A","null","","","","",""
"null","","","video-keyboard-response","435","1078920","0.0-435.0","37gvne9f","","","null","","Agent A","veridical","STIM_SET_1/1592807.bmp_pp68_L1_V1.0_veridical_freeview_isoFalse.mp4",""
"null","","","html-keyboard-response","436","1080423","0.0-436.0","37gvne9f","","<span style=""color:Black; font-size:50px;"">Agent B","null","","","","",""
"null","","","video-keyboard-response","437","1083499","0.0-437.0","37gvne9f","","","null","","Agent B","scrambled","STIM_SET_1/1592807.bmp_pp68_L1_V1.0_scrambled_freeview_isoFalse.mp4",""
"","","","call-function","438","1083500","0.0-438.0","37gvne9f","","","","","","","",""
"3177.155000000028","{""judgement"":0}","[0]","survey-likert","439","1086678","0.0-439.0","37gvne9f","","","","","","","","0"
"1520.7399999999907","{""confidence"":0}","[0]","survey-likert","440","1088201","0.0-440.0","37gvne9f","","","","","","","",""
"","","","call-function","441","1088202","0.0-441.0","37gvne9f","","","","","","","",""
"null","","","html-keyboard-response","442","1089707","0.0-442.0","37gvne9f","","<span style=""color:Black; font-size:50px;"">Agent A","null","","","","",""
"null","","","video-keyboard-response","443","1092782","0.0-443.0","37gvne9f","","","null","","Agent A","veridical","STIM_SET_1/1592581.bmp_pp100_L3_V1.0_veridical_freeview_isoFalse.mp4",""
"null","","","html-keyboard-response","444","1094286","0.0-444.0","37gvne9f","","<span style=""color:Black; font-size:50px;"">Agent B","null","","","","",""
"null","","","video-keyboard-response","445","1097362","0.0-445.0","37gvne9f","","","null","","Agent B","scrambled","STIM_SET_1/1592581.bmp_pp100_L3_V1.0_scrambled_freeview_isoFalse.mp4",""
"","","","call-function","446","1097362","0.0-446.0","37gvne9f","","","","","","","",""
"1643.9450000000652","{""judgement"":0}","[0]","survey-likert","447","1099007","0.0-447.0","37gvne9f","","","","","","","","0"
"1188.7100000001956","{""confidence"":0}","[0]","survey-likert","448","1100197","0.0-448.0","37gvne9f","","","","","","","",""
"","","","call-function","449","1100198","0.0-449.0","37gvne9f","","","","","","","",""
"null","","","html-keyboard-response","450","1101700","0.0-450.0","37gvne9f","","<span style=""color:Black; font-size:50px;"">Agent A","null","","","","",""
"null","","","video-keyboard-response","451","1104778","0.0-451.0","37gvne9f","","","null","","Agent A","veridical","STIM_SET_1/713749.bmp_pp88_L2_V1.0_veridical_freeview_isoFalse.mp4",""
"null","","","html-keyboard-response","452","1106282","0.0-452.0","37gvne9f","","<span style=""color:Black; font-size:50px;"">Agent B","null","","","","",""
"null","","","video-keyboard-response","453","1109360","0.0-453.0","37gvne9f","","","null","","Agent B","scrambled","STIM_SET_1/713749.bmp_pp88_L2_V1.0_scrambled_freeview_isoFalse.mp4",""
"","","","call-function","454","1109361","0.0-454.0","37gvne9f","","","","","","","",""
"3473","{""judgement"":0}","[0]","survey-likert","455","1112835","0.0-455.0","37gvne9f","","","","","","","","0"
"1158.9950000001118","{""confidence"":0}","[0]","survey-likert","456","1113995","0.0-456.0","37gvne9f","","","","","","","",""
"","","","call-function","457","1113995","0.0-457.0","37gvne9f","","","","","","","",""
"null","","","html-keyboard-response","458","1115499","0.0-458.0","37gvne9f","","<span style=""color:Black; font-size:50px;"">Agent A","null","","","","",""
"null","","","video-keyboard-response","459","1118610","0.0-459.0","37gvne9f","","","null","","Agent A","scrambled","STIM_SET_1/1159768.bmp_pp89_L1_V1.0_scrambled_freeview_isoFalse.mp4",""
"null","","","html-keyboard-response","460","1120115","0.0-460.0","37gvne9f","","<span style=""color:Black; font-size:50px;"">Agent B","null","","","","",""
"null","","","video-keyboard-response","461","1123230","0.0-461.0","37gvne9f","","","null","","Agent B","veridical","STIM_SET_1/1159768.bmp_pp89_L1_V1.0_veridical_freeview_isoFalse.mp4",""
"","","","call-function","462","1123231","0.0-462.0","37gvne9f","","","","","","","",""
"1680.1699999999255","{""judgement"":0}","[0]","survey-likert","463","1124912","0.0-463.0","37gvne9f","","","","","","","","1"
"1931.2399999999907","{""confidence"":1}","[0]","survey-likert","464","1126844","0.0-464.0","37gvne9f","","","","","","","",""
"","","","call-function","465","1126845","0.0-465.0","37gvne9f","","","","","","","",""
"null","","","html-keyboard-response","466","1128351","0.0-466.0","37gvne9f","","<span style=""color:Black; font-size:50px;"">Agent A","null","","","","",""
"null","","","video-keyboard-response","467","1131467","0.0-467.0","37gvne9f","","","null","","Agent A","veridical","STIM_SET_1/1593146.bmp_pp93_L1_V1.0_veridical_freeview_isoFalse.mp4",""
"null","","","html-keyboard-response","468","1132971","0.0-468.0","37gvne9f","","<span style=""color:Black; font-size:50px;"">Agent B","null","","","","",""
"null","","","video-keyboard-response","469","1136085","0.0-469.0","37gvne9f","","","null","","Agent B","scrambled","STIM_SET_1/1593146.bmp_pp93_L1_V1.0_scrambled_freeview_isoFalse.mp4",""
"","","","call-function","470","1136086","0.0-470.0","37gvne9f","","","","","","","",""
"3862.0849999999627","{""judgement"":1}","[0]","survey-likert","471","1139949","0.0-471.0","37gvne9f","","","","","","","","0"
"1456.779999999795","{""confidence"":0}","[0]","survey-likert","472","1141407","0.0-472.0","37gvne9f","","","","","","","",""
"","","","call-function","473","1141407","0.0-473.0","37gvne9f","","","","","","","",""
"null","","","html-keyboard-response","474","1142910","0.0-474.0","37gvne9f","","<span style=""color:Black; font-size:50px;"">Agent A","null","","","","",""
"null","","","video-keyboard-response","475","1146028","0.0-475.0","37gvne9f","","","null","","Agent A","veridical","STIM_SET_1/1592657.bmp_pp98_L1_V1.0_veridical_freeview_isoFalse.mp4",""
"null","","","html-keyboard-response","476","1147530","0.0-476.0","37gvne9f","","<span style=""color:Black; font-size:50px;"">Agent B","null","","","","",""
"null","","","video-keyboard-response","477","1150650","0.0-477.0","37gvne9f","","","null","","Agent B","scrambled","STIM_SET_1/1592657.bmp_pp98_L1_V1.0_scrambled_freeview_isoFalse.mp4",""
"","","","call-function","478","1150651","0.0-478.0","37gvne9f","","","","","","","",""
"1546.4150000000373","{""judgement"":0}","[0]","survey-likert","479","1152199","0.0-479.0","37gvne9f","","","","","","","","0"
"1853.1899999999441","{""confidence"":1}","[0]","survey-likert","480","1154053","0.0-480.0","37gvne9f","","","","","","","",""
"","","","call-function","481","1154053","0.0-481.0","37gvne9f","","","","","","","",""
"null","","","html-keyboard-response","482","1155558","0.0-482.0","37gvne9f","","<span style=""color:Black; font-size:50px;"">Agent A","null","","","","",""
"null","","","video-keyboard-response","483","1158634","0.0-483.0","37gvne9f","","","null","","Agent A","veridical","STIM_SET_1/713620.bmp_pp65_L3_V1.0_veridical_freeview_isoFalse.mp4",""
"null","","","html-keyboard-response","484","1160139","0.0-484.0","37gvne9f","","<span style=""color:Black; font-size:50px;"">Agent B","null","","","","",""
"null","","","video-keyboard-response","485","1163218","0.0-485.0","37gvne9f","","","null","","Agent B","scrambled","STIM_SET_1/713620.bmp_pp65_L3_V1.0_scrambled_freeview_isoFalse.mp4",""
"","","","call-function","486","1163219","0.0-486.0","37gvne9f","","","","","","","",""
"1962.9499999999534","{""judgement"":0}","[0]","survey-likert","487","1165183","0.0-487.0","37gvne9f","","","","","","","","0"
"1152.0849999999627","{""confidence"":0}","[0]","survey-likert","488","1166336","0.0-488.0","37gvne9f","","","","","","","",""
"","","","call-function","489","1166336","0.0-489.0","37gvne9f","","","","","","","",""
"null","","","html-keyboard-response","490","1167838","0.0-490.0","37gvne9f","","<span style=""color:Black; font-size:50px;"">Agent A","null","","","","",""
"null","","","video-keyboard-response","491","1170913","0.0-491.0","37gvne9f","","","null","","Agent A","scrambled","STIM_SET_1/498111.bmp_pp88_L2_V1.0_scrambled_freeview_isoFalse.mp4",""
"null","","","html-keyboard-response","492","1172416","0.0-492.0","37gvne9f","","<span style=""color:Black; font-size:50px;"">Agent B","null","","","","",""
"null","","","video-keyboard-response","493","1175497","0.0-493.0","37gvne9f","","","null","","Agent B","veridical","STIM_SET_1/498111.bmp_pp88_L2_V1.0_veridical_freeview_isoFalse.mp4",""
"","","","call-function","494","1175497","0.0-494.0","37gvne9f","","","","","","","",""
"2448.6450000000186","{""judgement"":1}","[0]","survey-likert","495","1177947","0.0-495.0","37gvne9f","","","","","","","","1"
"1139.844999999972","{""confidence"":0}","[0]","survey-likert","496","1179088","0.0-496.0","37gvne9f","","","","","","","",""
"2151.064999999944","","","instructions","497","1181240","0.0-497.0","37gvne9f","[{""page_index"":0,""viewing_time"":985.2350000001024},{""page_index"":1,""viewing_time"":525.6550000000279},{""page_index"":2,""viewing_time"":640.0249999999069}]","","","","","","",""
"2596.570000000065","","","instructions","498","1183837","0.0-498.0","37gvne9f","[{""page_index"":0,""viewing_time"":580.2150000000838},{""page_index"":1,""viewing_time"":1430.344999999972},{""page_index"":2,""viewing_time"":585.9050000000279}]","","","","","","",""
"","","","call-function","499","1183837","0.0-499.0","37gvne9f","","","","","","","",""
"null","","","html-keyboard-response","500","1185344","0.0-500.0","37gvne9f","","<span style=""color:Black; font-size:50px;"">Agent A","null","","","","",""
"null","","","video-keyboard-response","501","1188427","0.0-501.0","37gvne9f","","","null","","Agent A","scrambled","STIM_SET_1/713371.bmp_pp68_L1_V1.0_scrambled_freeview_isoFalse.mp4",""
"null","","","html-keyboard-response","502","1189934","0.0-502.0","37gvne9f","","<span style=""color:Black; font-size:50px;"">Agent B","null","","","","",""
"null","","","video-keyboard-response","503","1193018","0.0-503.0","37gvne9f","","","null","","Agent B","veridical","STIM_SET_1/713371.bmp_pp68_L1_V1.0_veridical_freeview_isoFalse.mp4",""
"","","","call-function","504","1193019","0.0-504.0","37gvne9f","","","","","","","",""
"4558.445000000065","{""judgement"":1}","[0]","survey-likert","505","1197578","0.0-505.0","37gvne9f","","","","","","","","1"
"1366.7549999998882","{""confidence"":0}","[0]","survey-likert","506","1198946","0.0-506.0","37gvne9f","","","","","","","",""
"","","","call-function","507","1198946","0.0-507.0","37gvne9f","","","","","","","",""
"null","","","html-keyboard-response","508","1200451","0.0-508.0","37gvne9f","","<span style=""color:Black; font-size:50px;"">Agent A","null","","","","",""
"null","","","video-keyboard-response","509","1203533","0.0-509.0","37gvne9f","","","null","","Agent A","scrambled","STIM_SET_1/1159777.bmp_pp77_L3_V1.0_scrambled_freeview_isoFalse.mp4",""
"null","","","html-keyboard-response","510","1205037","0.0-510.0","37gvne9f","","<span style=""color:Black; font-size:50px;"">Agent B","null","","","","",""
"null","","","video-keyboard-response","511","1208117","0.0-511.0","37gvne9f","","","null","","Agent B","veridical","STIM_SET_1/1159777.bmp_pp77_L3_V1.0_veridical_freeview_isoFalse.mp4",""
"","","","call-function","512","1208118","0.0-512.0","37gvne9f","","","","","","","",""
"4663.024999999907","{""judgement"":1}","[0]","survey-likert","513","1212783","0.0-513.0","37gvne9f","","","","","","","","1"
"1232.3600000001024","{""confidence"":0}","[0]","survey-likert","514","1214016","0.0-514.0","37gvne9f","","","","","","","",""
"","","","call-function","515","1214017","0.0-515.0","37gvne9f","","","","","","","",""
"null","","","html-keyboard-response","516","1215518","0.0-516.0","37gvne9f","","<span style=""color:Black; font-size:50px;"">Agent A","null","","","","",""
"null","","","video-keyboard-response","517","1218596","0.0-517.0","37gvne9f","","","null","","Agent A","veridical","STIM_SET_1/498175.bmp_pp154_L1_V1.0_veridical_freeview_isoFalse.mp4",""
"null","","","html-keyboard-response","518","1220100","0.0-518.0","37gvne9f","","<span style=""color:Black; font-size:50px;"">Agent B","null","","","","",""
"null","","","video-keyboard-response","519","1223179","0.0-519.0","37gvne9f","","","null","","Agent B","scrambled","STIM_SET_1/498175.bmp_pp154_L1_V1.0_scrambled_freeview_isoFalse.mp4",""
"","","","call-function","520","1223179","0.0-520.0","37gvne9f","","","","","","","",""
"1687.8249999999534","{""judgement"":0}","[0]","survey-likert","521","1224868","0.0-521.0","37gvne9f","","","","","","","","0"
"1113.9150000000373","{""confidence"":0}","[0]","survey-likert","522","1225983","0.0-522.0","37gvne9f","","","","","","","",""
"","","","call-function","523","1225984","0.0-523.0","37gvne9f","","","","","","","",""
"null","","","html-keyboard-response","524","1227487","0.0-524.0","37gvne9f","","<span style=""color:Black; font-size:50px;"">Agent A","null","","","","",""
"null","","","video-keyboard-response","525","1230567","0.0-525.0","37gvne9f","","","null","","Agent A","veridical","STIM_SET_1/1159855.bmp_pp99_L2_V1.0_veridical_freeview_isoFalse.mp4",""
"null","","","html-keyboard-response","526","1232069","0.0-526.0","37gvne9f","","<span style=""color:Black; font-size:50px;"">Agent B","null","","","","",""
"null","","","video-keyboard-response","527","1235149","0.0-527.0","37gvne9f","","","null","","Agent B","scrambled","STIM_SET_1/1159855.bmp_pp99_L2_V1.0_scrambled_freeview_isoFalse.mp4",""
"","","","call-function","528","1235150","0.0-528.0","37gvne9f","","","","","","","",""
"7126.050000000047","{""judgement"":0}","[0]","survey-likert","529","1242277","0.0-529.0","37gvne9f","","","","","","","","0"
"2510.839999999851","{""confidence"":1}","[0]","survey-likert","530","1244789","0.0-530.0","37gvne9f","","","","","","","",""
"","","","call-function","531","1244789","0.0-531.0","37gvne9f","","","","","","","",""
"null","","","html-keyboard-response","532","1246292","0.0-532.0","37gvne9f","","<span style=""color:Black; font-size:50px;"">Agent A","null","","","","",""
"null","","","video-keyboard-response","533","1249405","0.0-533.0","37gvne9f","","","null","","Agent A","veridical","STIM_SET_1/1592934.bmp_pp63_L1_V1.0_veridical_freeview_isoFalse.mp4",""
"null","","","html-keyboard-response","534","1250909","0.0-534.0","37gvne9f","","<span style=""color:Black; font-size:50px;"">Agent B","null","","","","",""
"null","","","video-keyboard-response","535","1254024","0.0-535.0","37gvne9f","","","null","","Agent B","scrambled","STIM_SET_1/1592934.bmp_pp63_L1_V1.0_scrambled_freeview_isoFalse.mp4",""
"","","","call-function","536","1254024","0.0-536.0","37gvne9f","","","","","","","",""
"1712.6850000000559","{""judgement"":0}","[0]","survey-likert","537","1255738","0.0-537.0","37gvne9f","","","","","","","","0"
"3550.024999999907","{""confidence"":2}","[0]","survey-likert","538","1259289","0.0-538.0","37gvne9f","","","","","","","",""
"","","","call-function","539","1259290","0.0-539.0","37gvne9f","","","","","","","",""
"null","","","html-keyboard-response","540","1260793","0.0-540.0","37gvne9f","","<span style=""color:Black; font-size:50px;"">Agent A","null","","","","",""
"null","","","video-keyboard-response","541","1263879","0.0-541.0","37gvne9f","","","null","","Agent A","scrambled","STIM_SET_1/1593041.bmp_pp58_L1_V1.0_scrambled_freeview_isoFalse.mp4",""
"null","","","html-keyboard-response","542","1265385","0.0-542.0","37gvne9f","","<span style=""color:Black; font-size:50px;"">Agent B","null","","","","",""
"null","","","video-keyboard-response","543","1268471","0.0-543.0","37gvne9f","","","null","","Agent B","veridical","STIM_SET_1/1593041.bmp_pp58_L1_V1.0_veridical_freeview_isoFalse.mp4",""
"","","","call-function","544","1268471","0.0-544.0","37gvne9f","","","","","","","",""
"2139.2600000000093","{""judgement"":0}","[0]","survey-likert","545","1270611","0.0-545.0","37gvne9f","","","","","","","","1"
"2902.8349999999627","{""confidence"":1}","[0]","survey-likert","546","1273516","0.0-546.0","37gvne9f","","","","","","","",""
"","","","call-function","547","1273516","0.0-547.0","37gvne9f","","","","","","","",""
"null","","","html-keyboard-response","548","1275022","0.0-548.0","37gvne9f","","<span style=""color:Black; font-size:50px;"">Agent A","null","","","","",""
"null","","","video-keyboard-response","549","1278127","0.0-549.0","37gvne9f","","","null","","Agent A","veridical","STIM_SET_1/1592817.bmp_pp55_L3_V1.0_veridical_freeview_isoFalse.mp4",""
"null","","","html-keyboard-response","550","1279631","0.0-550.0","37gvne9f","","<span style=""color:Black; font-size:50px;"">Agent B","null","","","","",""
"null","","","video-keyboard-response","551","1282696","0.0-551.0","37gvne9f","","","null","","Agent B","scrambled","STIM_SET_1/1592817.bmp_pp55_L3_V1.0_scrambled_freeview_isoFalse.mp4",""
"","","","call-function","552","1282696","0.0-552.0","37gvne9f","","","","","","","",""
"2774.4150000000373","{""judgement"":1}","[0]","survey-likert","553","1285471","0.0-553.0","37gvne9f","","","","","","","","0"
"1234.7700000000186","{""confidence"":0}","[0]","survey-likert","554","1286707","0.0-554.0","37gvne9f","","","","","","","",""
"","","","call-function","555","1286708","0.0-555.0","37gvne9f","","","","","","","",""
"null","","","html-keyboard-response","556","1288212","0.0-556.0","37gvne9f","","<span style=""color:Black; font-size:50px;"">Agent A","null","","","","",""
"null","","","video-keyboard-response","557","1291285","0.0-557.0","37gvne9f","","","null","","Agent A","veridical","STIM_SET_1/497950.bmp_pp151_L1_V1.0_veridical_freeview_isoFalse.mp4",""
"null","","","html-keyboard-response","558","1292787","0.0-558.0","37gvne9f","","<span style=""color:Black; font-size:50px;"">Agent B","null","","","","",""
"null","","","video-keyboard-response","559","1295858","0.0-559.0","37gvne9f","","","null","","Agent B","scrambled","STIM_SET_1/497950.bmp_pp151_L1_V1.0_scrambled_freeview_isoFalse.mp4",""
"","","","call-function","560","1295859","0.0-560.0","37gvne9f","","","","","","","",""
"6004.97499999986","{""judgement"":1}","[0]","survey-likert","561","1301865","0.0-561.0","37gvne9f","","","","","","","","0"
"2064.1399999998976","{""confidence"":0}","[0]","survey-likert","562","1303930","0.0-562.0","37gvne9f","","","","","","","",""
"","","","call-function","563","1303931","0.0-563.0","37gvne9f","","","","","","","",""
"null","","","html-keyboard-response","564","1305437","0.0-564.0","37gvne9f","","<span style=""color:Black; font-size:50px;"">Agent A","null","","","","",""
"null","","","video-keyboard-response","565","1308508","0.0-565.0","37gvne9f","","","null","","Agent A","veridical","STIM_SET_1/1592890.bmp_pp82_L2_V1.0_veridical_freeview_isoFalse.mp4",""
"null","","","html-keyboard-response","566","1310014","0.0-566.0","37gvne9f","","<span style=""color:Black; font-size:50px;"">Agent B","null","","","","",""
"null","","","video-keyboard-response","567","1313092","0.0-567.0","37gvne9f","","","null","","Agent B","scrambled","STIM_SET_1/1592890.bmp_pp82_L2_V1.0_scrambled_freeview_isoFalse.mp4",""
"","","","call-function","568","1313092","0.0-568.0","37gvne9f","","","","","","","",""
"4328.834999999963","{""judgement"":0}","[0]","survey-likert","569","1317422","0.0-569.0","37gvne9f","","","","","","","","0"
"3275.255000000121","{""confidence"":0}","[0]","survey-likert","570","1320699","0.0-570.0","37gvne9f","","","","","","","",""
"","","","call-function","571","1320699","0.0-571.0","37gvne9f","","","","","","","",""
"null","","","html-keyboard-response","572","1322202","0.0-572.0","37gvne9f","","<span style=""color:Black; font-size:50px;"">Agent A","null","","","","",""
"null","","","video-keyboard-response","573","1325317","0.0-573.0","37gvne9f","","","null","","Agent A","scrambled","STIM_SET_1/712977.bmp_pp51_L1_V1.0_scrambled_freeview_isoFalse.mp4",""
"null","","","html-keyboard-response","574","1326820","0.0-574.0","37gvne9f","","<span style=""color:Black; font-size:50px;"">Agent B","null","","","","",""
"null","","","video-keyboard-response","575","1329952","0.0-575.0","37gvne9f","","","null","","Agent B","veridical","STIM_SET_1/712977.bmp_pp51_L1_V1.0_veridical_freeview_isoFalse.mp4",""
"","","","call-function","576","1329953","0.0-576.0","37gvne9f","","","","","","","",""
"2422.9899999999907","{""judgement"":0}","[0]","survey-likert","577","1332378","0.0-577.0","37gvne9f","","","","","","","","1"
"1132.755000000121","{""confidence"":1}","[0]","survey-likert","578","1333512","0.0-578.0","37gvne9f","","","","","","","",""
"1882.0249999999069","","","instructions","579","1335394","0.0-579.0","37gvne9f","[{""page_index"":0,""viewing_time"":1881.8899999998976}]","","","","","","",""
"2586.5200000000186","","","instructions","580","1337981","0.0-580.0","37gvne9f","[{""page_index"":0,""viewing_time"":2586.405000000028}]","","","","","","",""
"31862.814999999944","{""post-1"":1}","[0]","survey-likert","581","1369846","0.0-581.0","37gvne9f","","","","","","","",""
"19291.514999999898","{""post-1"":1}","[0]","survey-likert","582","1389140","0.0-582.0","37gvne9f","","","","","","","",""
"18114.26500000013","{""post-2"":0}","[0]","survey-likert","583","1407256","0.0-583.0","37gvne9f","","","","","","","",""
"2223.5800000000745","{""post-2"":0}","[0]","survey-likert","584","1409481","0.0-584.0","37gvne9f","","","","","","","",""
"4858.439999999944","{""post-3"":0}","[0]","survey-likert","585","1414340","0.0-585.0","37gvne9f","","","","","","","",""
"2416.054999999935","{""post-3"":0}","[0]","survey-likert","586","1416758","0.0-586.0","37gvne9f","","","","","","","",""
"7618.979999999981","{""post-4"":0}","[0]","survey-likert","587","1424378","0.0-587.0","37gvne9f","","","","","","","",""
"3398.320000000065","{""post-4"":0}","[0]","survey-likert","588","1427779","0.0-588.0","37gvne9f","","","","","","","",""
"11977.935000000056","{""post-5"":1}","[0]","survey-likert","589","1439759","0.0-589.0","37gvne9f","","","","","","","",""
"1548.6499999999069","{""post-5"":2}","[0]","survey-likert","590","1441309","0.0-590.0","37gvne9f","","","","","","","",""
"439367.43500000006","{""Q0"":""I noticed a pattern between the agents, but neither of them really felt \""real\"" to me. At times, I found it odd to see where their attention would grab on to first. I am aware that sometimes our eyes jump from object to object, which made it difficult to choose between the two agents. Midway, I noticed the pattern, although not sure if intentional, and sort of created a bit of a bias for which agent may be more human. However, most times, I chose a specific agent because the alternative did not feel real to me even if the agent I chose didn't really feel real to me either. I was moreso choosing the \""least fake one\"" at that point. On some images, I tried to look at it on my own to see if it would match the agent's, but it always differed. However, that may be influenced by the experiment itself.""}","","survey-text","591","1880685","0.0-591.0","37gvne9f","","","","","","","",""
"132870.46999999997","{""Q0"":""When the agent's attentions differed in the order in which they looked at objects, I found it easier to find the more human one. I tried to imagine an eye tracker on myself to see if I would look at the image similarly.""}","","survey-text","592","2013560","0.0-592.0","37gvne9f","","","","","","","",""
"192203.06000000006","{""Q0"":""I didn't think it would be this difficult to identify the more human one. There was one that is \""smoother\"" and another that is more \""jumpy.\"" I thought that our eyes could move in both ways, although the latter looking a bit more robotic.""}","","survey-text","593","2205769","0.0-593.0","37gvne9f","","","","","","","",""
"1459.9699999997392","","","instructions","594","2207230","0.0-594.0","37gvne9f","[{""page_index"":0,""viewing_time"":1459.7650000001304}]","","","","","","",""
"59455.889999999665","{""Experimenter_end"":[""Printed ID# 37gvne9f on consent form"",""Given subject SONA credit or payment"",""Given the subject debrief form""]}","[0]","survey-multi-select","595","2266689","0.0-595.0","37gvne9f","","","","","","","",""
