"rt","responses","question_order","trial_type","trial_index","time_elapsed","internal_node_id","ID","view_history","stimulus","key_press","value","agent","condition","image","correct_answer"
"398167.53","{""Experimenter"":[""Confirmed subject's identity"",""Confirmed normal or corrected-to-normal vision"",""Obtained consent (signature and date)"",""Checked the test room lighting"",""Checked computer screen lighting"",""Checked distance from screen to chin rest (50cm)"",""Cleaned and adjusted chin rest"",""Counterbalanced the order of the tasks"",""Opened the experiment in Firefox"",""Made the experiment full screen"",""Encouraged subject to silence phone, put away distractors, etc.""]}","[0]","survey-multi-select","0","398176","0.0-0.0","3ayv79za","","","","","","","",""
"25311.23999999999","","","instructions","1","423489","0.0-1.0","3ayv79za","[{""page_index"":0,""viewing_time"":25311.065000000002}]","","","","","","",""
"18952.89500000002","","","instructions","2","442443","0.0-2.0","3ayv79za","[{""page_index"":0,""viewing_time"":8065.424999999988},{""page_index"":1,""viewing_time"":1987.0750000000116},{""page_index"":2,""viewing_time"":8900.229999999981}]","","","","","","",""
"6336.140000000014","","","instructions","3","448779","0.0-3.0","3ayv79za","[{""page_index"":0,""viewing_time"":6336.040000000037}]","","","","","","",""
"null","","","video-keyboard-response","4","451870","0.0-4.0","3ayv79za","","","null","","","","",""
"16786.39500000002","","","instructions","5","468657","0.0-5.0","3ayv79za","[{""page_index"":0,""viewing_time"":5599.330000000016},{""page_index"":1,""viewing_time"":4406.744999999995},{""page_index"":2,""viewing_time"":6780.205000000016}]","","","","","","",""
"6299.450000000012","","","instructions","6","474957","0.0-6.0","3ayv79za","[{""page_index"":0,""viewing_time"":6299.349999999977}]","","","","","","",""
"30379.074999999953","","","instructions","7","505337","0.0-7.0","3ayv79za","[{""page_index"":0,""viewing_time"":30378.804999999993}]","","","","","","",""
"null","","","video-keyboard-response","8","508413","0.0-8.0","3ayv79za","","","null","","","","",""
"16804.764999999956","","","instructions","9","525218","0.0-9.0","3ayv79za","[{""page_index"":0,""viewing_time"":1519.9799999999814},{""page_index"":1,""viewing_time"":6952.295000000042},{""page_index"":2,""viewing_time"":8331.820000000007}]","","","","","","",""
"7493.9400000000605","","","instructions","10","532713","0.0-10.0","3ayv79za","[{""page_index"":0,""viewing_time"":7493.829999999958}]","","","","","","",""
"","","","call-function","11","532714","0.0-11.0","3ayv79za","","","","","","","",""
"null","","","html-keyboard-response","12","534218","0.0-12.0","3ayv79za","","<span style=""color:Black; font-size:50px;"">Agent A","null","","","","",""
"null","","","video-keyboard-response","13","537293","0.0-13.0","3ayv79za","","","null","","Agent A","veridical","STIM_SET_2_144/498372.bmp_pp95_L2_V1_veridical_freeview_isoTrue_fps144.mp4",""
"null","","","html-keyboard-response","14","538798","0.0-14.0","3ayv79za","","<span style=""color:Black; font-size:50px;"">Agent B","null","","","","",""
"null","","","video-keyboard-response","15","541874","0.0-15.0","3ayv79za","","","null","","Agent B","scrambled","STIM_SET_5/498372.bmp_pp95_L2_V1_veridical_freeview_isoTrue_Hflip_fps144.mp4",""
"","","","call-function","16","541874","0.0-16.0","3ayv79za","","","","","","","",""
"4300.180000000051","{""judgement"":1}","[0]","survey-likert","17","546176","0.0-17.0","3ayv79za","","","","","","","","0"
"5981.819999999949","{""confidence"":1}","[0]","survey-likert","18","552159","0.0-18.0","3ayv79za","","","","","","","",""
"","","","call-function","19","552159","0.0-19.0","3ayv79za","","","","","","","",""
"null","","","html-keyboard-response","20","553661","0.0-20.0","3ayv79za","","<span style=""color:Black; font-size:50px;"">Agent A","null","","","","",""
"null","","","video-keyboard-response","21","556758","0.0-21.0","3ayv79za","","","null","","Agent A","scrambled","STIM_SET_5/713381.bmp_pp82_L2_V1.0_veridical_freeview_isoTrue_Hflip_fps144.mp4",""
"null","","","html-keyboard-response","22","558260","0.0-22.0","3ayv79za","","<span style=""color:Black; font-size:50px;"">Agent B","null","","","","",""
"null","","","video-keyboard-response","23","561333","0.0-23.0","3ayv79za","","","null","","Agent B","veridical","STIM_SET_2_144/713381.bmp_pp82_L2_V1.0_veridical_freeview_isoTrue_fps144.mp4",""
"","","","call-function","24","561333","0.0-24.0","3ayv79za","","","","","","","",""
"18099.339999999967","{""judgement"":0}","[0]","survey-likert","25","579433","0.0-25.0","3ayv79za","","","","","","","","1"
"1824.2200000000885","{""confidence"":1}","[0]","survey-likert","26","581259","0.0-26.0","3ayv79za","","","","","","","",""
"","","","call-function","27","581259","0.0-27.0","3ayv79za","","","","","","","",""
"null","","","html-keyboard-response","28","582760","0.0-28.0","3ayv79za","","<span style=""color:Black; font-size:50px;"">Agent A","null","","","","",""
"null","","","video-keyboard-response","29","585869","0.0-29.0","3ayv79za","","","null","","Agent A","scrambled","STIM_SET_5/713920.bmp_pp76_L1_V1.0_veridical_freeview_isoTrue_Hflip_fps144.mp4",""
"null","","","html-keyboard-response","30","587371","0.0-30.0","3ayv79za","","<span style=""color:Black; font-size:50px;"">Agent B","null","","","","",""
"null","","","video-keyboard-response","31","590451","0.0-31.0","3ayv79za","","","null","","Agent B","veridical","STIM_SET_2_144/713920.bmp_pp76_L1_V1.0_veridical_freeview_isoTrue_fps144.mp4",""
"","","","call-function","32","590452","0.0-32.0","3ayv79za","","","","","","","",""
"7608.344999999972","{""judgement"":0}","[0]","survey-likert","33","598061","0.0-33.0","3ayv79za","","","","","","","","1"
"1736.5899999999674","{""confidence"":1}","[0]","survey-likert","34","599798","0.0-34.0","3ayv79za","","","","","","","",""
"","","","call-function","35","599799","0.0-35.0","3ayv79za","","","","","","","",""
"null","","","html-keyboard-response","36","601300","0.0-36.0","3ayv79za","","<span style=""color:Black; font-size:50px;"">Agent A","null","","","","",""
"null","","","video-keyboard-response","37","604377","0.0-37.0","3ayv79za","","","null","","Agent A","scrambled","STIM_SET_5/1591975.bmp_pp88_L2_V1.0_veridical_freeview_isoTrue_Hflip_fps144.mp4",""
"null","","","html-keyboard-response","38","605881","0.0-38.0","3ayv79za","","<span style=""color:Black; font-size:50px;"">Agent B","null","","","","",""
"null","","","video-keyboard-response","39","608942","0.0-39.0","3ayv79za","","","null","","Agent B","veridical","STIM_SET_2_144/1591975.bmp_pp88_L2_V1.0_veridical_freeview_isoTrue_fps144.mp4",""
"","","","call-function","40","608942","0.0-40.0","3ayv79za","","","","","","","",""
"2182.9649999999674","{""judgement"":1}","[0]","survey-likert","41","611126","0.0-41.0","3ayv79za","","","","","","","","1"
"2173.7600000000093","{""confidence"":2}","[0]","survey-likert","42","613301","0.0-42.0","3ayv79za","","","","","","","",""
"","","","call-function","43","613301","0.0-43.0","3ayv79za","","","","","","","",""
"null","","","html-keyboard-response","44","614806","0.0-44.0","3ayv79za","","<span style=""color:Black; font-size:50px;"">Agent A","null","","","","",""
"null","","","video-keyboard-response","45","617899","0.0-45.0","3ayv79za","","","null","","Agent A","scrambled","STIM_SET_5/1592951.bmp_pp80_L3_V1.0_veridical_freeview_isoTrue_Hflip_fps144.mp4",""
"null","","","html-keyboard-response","46","619401","0.0-46.0","3ayv79za","","<span style=""color:Black; font-size:50px;"">Agent B","null","","","","",""
"null","","","video-keyboard-response","47","622457","0.0-47.0","3ayv79za","","","null","","Agent B","veridical","STIM_SET_2_144/1592951.bmp_pp80_L3_V1.0_veridical_freeview_isoTrue_fps144.mp4",""
"","","","call-function","48","622458","0.0-48.0","3ayv79za","","","","","","","",""
"1949.2550000000047","{""judgement"":0}","[0]","survey-likert","49","624408","0.0-49.0","3ayv79za","","","","","","","","1"
"1680.6800000000512","{""confidence"":0}","[0]","survey-likert","50","626089","0.0-50.0","3ayv79za","","","","","","","",""
"","","","call-function","51","626090","0.0-51.0","3ayv79za","","","","","","","",""
"null","","","html-keyboard-response","52","627592","0.0-52.0","3ayv79za","","<span style=""color:Black; font-size:50px;"">Agent A","null","","","","",""
"null","","","video-keyboard-response","53","630652","0.0-53.0","3ayv79za","","","null","","Agent A","veridical","STIM_SET_2_144/1159860.bmp_pp152_L2_V1.0_veridical_freeview_isoTrue_fps144.mp4",""
"null","","","html-keyboard-response","54","632157","0.0-54.0","3ayv79za","","<span style=""color:Black; font-size:50px;"">Agent B","null","","","","",""
"null","","","video-keyboard-response","55","635233","0.0-55.0","3ayv79za","","","null","","Agent B","scrambled","STIM_SET_5/1159860.bmp_pp152_L2_V1.0_veridical_freeview_isoTrue_Hflip_fps144.mp4",""
"","","","call-function","56","635233","0.0-56.0","3ayv79za","","","","","","","",""
"2024.4349999999395","{""judgement"":1}","[0]","survey-likert","57","637258","0.0-57.0","3ayv79za","","","","","","","","0"
"1292.3850000000093","{""confidence"":1}","[0]","survey-likert","58","638552","0.0-58.0","3ayv79za","","","","","","","",""
"","","","call-function","59","638552","0.0-59.0","3ayv79za","","","","","","","",""
"null","","","html-keyboard-response","60","640053","0.0-60.0","3ayv79za","","<span style=""color:Black; font-size:50px;"">Agent A","null","","","","",""
"null","","","video-keyboard-response","61","643154","0.0-61.0","3ayv79za","","","null","","Agent A","scrambled","STIM_SET_5/1592025.bmp_pp68_L1_V1.0_veridical_freeview_isoTrue_Hflip_fps144.mp4",""
"null","","","html-keyboard-response","62","644661","0.0-62.0","3ayv79za","","<span style=""color:Black; font-size:50px;"">Agent B","null","","","","",""
"null","","","video-keyboard-response","63","647729","0.0-63.0","3ayv79za","","","null","","Agent B","veridical","STIM_SET_2_144/1592025.bmp_pp68_L1_V1.0_veridical_freeview_isoTrue_fps144.mp4",""
"","","","call-function","64","647730","0.0-64.0","3ayv79za","","","","","","","",""
"4312.899999999907","{""judgement"":1}","[0]","survey-likert","65","652044","0.0-65.0","3ayv79za","","","","","","","","1"
"1414.3300000000745","{""confidence"":0}","[0]","survey-likert","66","653461","0.0-66.0","3ayv79za","","","","","","","",""
"","","","call-function","67","653461","0.0-67.0","3ayv79za","","","","","","","",""
"null","","","html-keyboard-response","68","654963","0.0-68.0","3ayv79za","","<span style=""color:Black; font-size:50px;"">Agent A","null","","","","",""
"null","","","video-keyboard-response","69","658049","0.0-69.0","3ayv79za","","","null","","Agent A","scrambled","STIM_SET_5/285946.bmp_pp79_L2_V1.0_veridical_freeview_isoTrue_Hflip_fps144.mp4",""
"null","","","html-keyboard-response","70","659552","0.0-70.0","3ayv79za","","<span style=""color:Black; font-size:50px;"">Agent B","null","","","","",""
"null","","","video-keyboard-response","71","662634","0.0-71.0","3ayv79za","","","null","","Agent B","veridical","STIM_SET_2_144/285946.bmp_pp79_L2_V1.0_veridical_freeview_isoTrue_fps144.mp4",""
"","","","call-function","72","662635","0.0-72.0","3ayv79za","","","","","","","",""
"3947.085000000079","{""judgement"":0}","[0]","survey-likert","73","666583","0.0-73.0","3ayv79za","","","","","","","","1"
"2331.984999999986","{""confidence"":1}","[0]","survey-likert","74","668916","0.0-74.0","3ayv79za","","","","","","","",""
"","","","call-function","75","668916","0.0-75.0","3ayv79za","","","","","","","",""
"null","","","html-keyboard-response","76","670419","0.0-76.0","3ayv79za","","<span style=""color:Black; font-size:50px;"">Agent A","null","","","","",""
"null","","","video-keyboard-response","77","673502","0.0-77.0","3ayv79za","","","null","","Agent A","scrambled","STIM_SET_5/498261.bmp_pp84_L3_V1.0_veridical_freeview_isoTrue_Hflip_fps144.mp4",""
"null","","","html-keyboard-response","78","675008","0.0-78.0","3ayv79za","","<span style=""color:Black; font-size:50px;"">Agent B","null","","","","",""
"null","","","video-keyboard-response","79","678074","0.0-79.0","3ayv79za","","","null","","Agent B","veridical","STIM_SET_2_144/498261.bmp_pp84_L3_V1.0_veridical_freeview_isoTrue_fps144.mp4",""
"","","","call-function","80","678074","0.0-80.0","3ayv79za","","","","","","","",""
"2351.015000000014","{""judgement"":1}","[0]","survey-likert","81","680426","0.0-81.0","3ayv79za","","","","","","","","1"
"2785.319999999949","{""confidence"":0}","[0]","survey-likert","82","683212","0.0-82.0","3ayv79za","","","","","","","",""
"","","","call-function","83","683212","0.0-83.0","3ayv79za","","","","","","","",""
"null","","","html-keyboard-response","84","684714","0.0-84.0","3ayv79za","","<span style=""color:Black; font-size:50px;"">Agent A","null","","","","",""
"null","","","video-keyboard-response","85","687806","0.0-85.0","3ayv79za","","","null","","Agent A","veridical","STIM_SET_2_144/1592747.bmp_pp53_L2_V1.0_veridical_freeview_isoTrue_fps144.mp4",""
"null","","","html-keyboard-response","86","689308","0.0-86.0","3ayv79za","","<span style=""color:Black; font-size:50px;"">Agent B","null","","","","",""
"null","","","video-keyboard-response","87","692404","0.0-87.0","3ayv79za","","","null","","Agent B","scrambled","STIM_SET_5/1592747.bmp_pp53_L2_V1.0_veridical_freeview_isoTrue_Hflip_fps144.mp4",""
"","","","call-function","88","692404","0.0-88.0","3ayv79za","","","","","","","",""
"8431.595000000088","{""judgement"":0}","[0]","survey-likert","89","700836","0.0-89.0","3ayv79za","","","","","","","","0"
"1312.625","{""confidence"":0}","[0]","survey-likert","90","702150","0.0-90.0","3ayv79za","","","","","","","",""
"44322.15000000002","","","instructions","91","746473","0.0-91.0","3ayv79za","[{""page_index"":0,""viewing_time"":1956.9100000000326},{""page_index"":1,""viewing_time"":40914.34999999998},{""page_index"":2,""viewing_time"":1450.6849999999395}]","","","","","","",""
"5535.614999999991","","","instructions","92","752009","0.0-92.0","3ayv79za","[{""page_index"":0,""viewing_time"":806.4949999999953},{""page_index"":1,""viewing_time"":3949.0100000000093},{""page_index"":2,""viewing_time"":780}]","","","","","","",""
"","","","call-function","93","752009","0.0-93.0","3ayv79za","","","","","","","",""
"null","","","html-keyboard-response","94","753511","0.0-94.0","3ayv79za","","<span style=""color:Black; font-size:50px;"">Agent A","null","","","","",""
"null","","","video-keyboard-response","95","756574","0.0-95.0","3ayv79za","","","null","","Agent A","veridical","STIM_SET_2_144/498398.bmp_pp81_L1_V1.0_veridical_freeview_isoTrue_fps144.mp4",""
"null","","","html-keyboard-response","96","758077","0.0-96.0","3ayv79za","","<span style=""color:Black; font-size:50px;"">Agent B","null","","","","",""
"null","","","video-keyboard-response","97","761146","0.0-97.0","3ayv79za","","","null","","Agent B","scrambled","STIM_SET_5/498398.bmp_pp81_L1_V1.0_veridical_freeview_isoTrue_Hflip_fps144.mp4",""
"","","","call-function","98","761146","0.0-98.0","3ayv79za","","","","","","","",""
"2680.640000000014","{""judgement"":0}","[0]","survey-likert","99","763828","0.0-99.0","3ayv79za","","","","","","","","0"
"1570.5500000000466","{""confidence"":2}","[0]","survey-likert","100","765399","0.0-100.0","3ayv79za","","","","","","","",""
"","","","call-function","101","765400","0.0-101.0","3ayv79za","","","","","","","",""
"null","","","html-keyboard-response","102","766903","0.0-102.0","3ayv79za","","<span style=""color:Black; font-size:50px;"">Agent A","null","","","","",""
"null","","","video-keyboard-response","103","769971","0.0-103.0","3ayv79za","","","null","","Agent A","scrambled","STIM_SET_5/61513.bmp_pp75_L1_V1.0_veridical_freeview_isoTrue_Hflip_fps144.mp4",""
"null","","","html-keyboard-response","104","771474","0.0-104.0","3ayv79za","","<span style=""color:Black; font-size:50px;"">Agent B","null","","","","",""
"null","","","video-keyboard-response","105","774544","0.0-105.0","3ayv79za","","","null","","Agent B","veridical","STIM_SET_2_144/61513.bmp_pp75_L1_V1.0_veridical_freeview_isoTrue_fps144.mp4",""
"","","","call-function","106","774544","0.0-106.0","3ayv79za","","","","","","","",""
"4785.185000000056","{""judgement"":1}","[0]","survey-likert","107","779330","0.0-107.0","3ayv79za","","","","","","","","1"
"1742.2300000000978","{""confidence"":1}","[0]","survey-likert","108","781074","0.0-108.0","3ayv79za","","","","","","","",""
"","","","call-function","109","781074","0.0-109.0","3ayv79za","","","","","","","",""
"null","","","html-keyboard-response","110","782580","0.0-110.0","3ayv79za","","<span style=""color:Black; font-size:50px;"">Agent A","null","","","","",""
"null","","","video-keyboard-response","111","785685","0.0-111.0","3ayv79za","","","null","","Agent A","scrambled","STIM_SET_5/1159592.bmp_pp91_L3_V1.0_veridical_freeview_isoTrue_Hflip_fps144.mp4",""
"null","","","html-keyboard-response","112","787187","0.0-112.0","3ayv79za","","<span style=""color:Black; font-size:50px;"">Agent B","null","","","","",""
"null","","","video-keyboard-response","113","790274","0.0-113.0","3ayv79za","","","null","","Agent B","veridical","STIM_SET_2_144/1159592.bmp_pp91_L3_V1.0_veridical_freeview_isoTrue_fps144.mp4",""
"","","","call-function","114","790274","0.0-114.0","3ayv79za","","","","","","","",""
"2089.930000000051","{""judgement"":1}","[0]","survey-likert","115","792365","0.0-115.0","3ayv79za","","","","","","","","1"
"2462.1149999999907","{""confidence"":1}","[0]","survey-likert","116","794828","0.0-116.0","3ayv79za","","","","","","","",""
"","","","call-function","117","794829","0.0-117.0","3ayv79za","","","","","","","",""
"null","","","html-keyboard-response","118","796333","0.0-118.0","3ayv79za","","<span style=""color:Black; font-size:50px;"">Agent A","null","","","","",""
"null","","","video-keyboard-response","119","799425","0.0-119.0","3ayv79za","","","null","","Agent A","scrambled","STIM_SET_5/107955.bmp_pp90_L2_V1.0_veridical_freeview_isoTrue_Hflip_fps144.mp4",""
"null","","","html-keyboard-response","120","800932","0.0-120.0","3ayv79za","","<span style=""color:Black; font-size:50px;"">Agent B","null","","","","",""
"null","","","video-keyboard-response","121","803994","0.0-121.0","3ayv79za","","","null","","Agent B","veridical","STIM_SET_2_144/107955.bmp_pp90_L2_V1.0_veridical_freeview_isoTrue_fps144.mp4",""
"","","","call-function","122","803995","0.0-122.0","3ayv79za","","","","","","","",""
"8421.780000000028","{""judgement"":1}","[0]","survey-likert","123","812419","0.0-123.0","3ayv79za","","","","","","","","1"
"2144.939999999944","{""confidence"":0}","[0]","survey-likert","124","814565","0.0-124.0","3ayv79za","","","","","","","",""
"","","","call-function","125","814565","0.0-125.0","3ayv79za","","","","","","","",""
"null","","","html-keyboard-response","126","816066","0.0-126.0","3ayv79za","","<span style=""color:Black; font-size:50px;"">Agent A","null","","","","",""
"null","","","video-keyboard-response","127","819148","0.0-127.0","3ayv79za","","","null","","Agent A","scrambled","STIM_SET_5/1159973.bmp_pp98_L1_V1.0_veridical_freeview_isoTrue_Hflip_fps144.mp4",""
"null","","","html-keyboard-response","128","820653","0.0-128.0","3ayv79za","","<span style=""color:Black; font-size:50px;"">Agent B","null","","","","",""
"null","","","video-keyboard-response","129","823723","0.0-129.0","3ayv79za","","","null","","Agent B","veridical","STIM_SET_2_144/1159973.bmp_pp98_L1_V1.0_veridical_freeview_isoTrue_fps144.mp4",""
"","","","call-function","130","823723","0.0-130.0","3ayv79za","","","","","","","",""
"4861.854999999981","{""judgement"":0}","[0]","survey-likert","131","828586","0.0-131.0","3ayv79za","","","","","","","","1"
"1711.7249999999767","{""confidence"":3}","[0]","survey-likert","132","830300","0.0-132.0","3ayv79za","","","","","","","",""
"","","","call-function","133","830300","0.0-133.0","3ayv79za","","","","","","","",""
"null","","","html-keyboard-response","134","831807","0.0-134.0","3ayv79za","","<span style=""color:Black; font-size:50px;"">Agent A","null","","","","",""
"null","","","video-keyboard-response","135","834889","0.0-135.0","3ayv79za","","","null","","Agent A","scrambled","STIM_SET_5/713689.bmp_pp153_L3_V1.0_veridical_freeview_isoTrue_Hflip_fps144.mp4",""
"null","","","html-keyboard-response","136","836396","0.0-136.0","3ayv79za","","<span style=""color:Black; font-size:50px;"">Agent B","null","","","","",""
"null","","","video-keyboard-response","137","839480","0.0-137.0","3ayv79za","","","null","","Agent B","veridical","STIM_SET_2_144/713689.bmp_pp153_L3_V1.0_veridical_freeview_isoTrue_fps144.mp4",""
"","","","call-function","138","839480","0.0-138.0","3ayv79za","","","","","","","",""
"2965.429999999935","{""judgement"":0}","[0]","survey-likert","139","842446","0.0-139.0","3ayv79za","","","","","","","","1"
"2998.5999999999767","{""confidence"":1}","[0]","survey-likert","140","845446","0.0-140.0","3ayv79za","","","","","","","",""
"","","","call-function","141","845446","0.0-141.0","3ayv79za","","","","","","","",""
"null","","","html-keyboard-response","142","846951","0.0-142.0","3ayv79za","","<span style=""color:Black; font-size:50px;"">Agent A","null","","","","",""
"null","","","video-keyboard-response","143","850020","0.0-143.0","3ayv79za","","","null","","Agent A","veridical","STIM_SET_2_144/1592017.bmp_pp154_L1_V1.0_veridical_freeview_isoTrue_fps144.mp4",""
"null","","","html-keyboard-response","144","851527","0.0-144.0","3ayv79za","","<span style=""color:Black; font-size:50px;"">Agent B","null","","","","",""
"null","","","video-keyboard-response","145","854604","0.0-145.0","3ayv79za","","","null","","Agent B","scrambled","STIM_SET_5/1592017.bmp_pp154_L1_V1.0_veridical_freeview_isoTrue_Hflip_fps144.mp4",""
"","","","call-function","146","854604","0.0-146.0","3ayv79za","","","","","","","",""
"2690.2449999999953","{""judgement"":0}","[0]","survey-likert","147","857295","0.0-147.0","3ayv79za","","","","","","","","0"
"1877.9899999999907","{""confidence"":0}","[0]","survey-likert","148","859174","0.0-148.0","3ayv79za","","","","","","","",""
"","","","call-function","149","859175","0.0-149.0","3ayv79za","","","","","","","",""
"null","","","html-keyboard-response","150","860681","0.0-150.0","3ayv79za","","<span style=""color:Black; font-size:50px;"">Agent A","null","","","","",""
"null","","","video-keyboard-response","151","863770","0.0-151.0","3ayv79za","","","null","","Agent A","veridical","STIM_SET_2_144/1591781.bmp_pp63_L1_V1.0_veridical_freeview_isoTrue_fps144.mp4",""
"null","","","html-keyboard-response","152","865275","0.0-152.0","3ayv79za","","<span style=""color:Black; font-size:50px;"">Agent B","null","","","","",""
"null","","","video-keyboard-response","153","868367","0.0-153.0","3ayv79za","","","null","","Agent B","scrambled","STIM_SET_5/1591781.bmp_pp63_L1_V1.0_veridical_freeview_isoTrue_Hflip_fps144.mp4",""
"","","","call-function","154","868367","0.0-154.0","3ayv79za","","","","","","","",""
"3378.840000000084","{""judgement"":1}","[0]","survey-likert","155","871747","0.0-155.0","3ayv79za","","","","","","","","0"
"2166.185000000056","{""confidence"":1}","[0]","survey-likert","156","873914","0.0-156.0","3ayv79za","","","","","","","",""
"","","","call-function","157","873915","0.0-157.0","3ayv79za","","","","","","","",""
"null","","","html-keyboard-response","158","875417","0.0-158.0","3ayv79za","","<span style=""color:Black; font-size:50px;"">Agent A","null","","","","",""
"null","","","video-keyboard-response","159","878503","0.0-159.0","3ayv79za","","","null","","Agent A","veridical","STIM_SET_2_144/1592568.bmp_pp71_L1_V1.0_veridical_freeview_isoTrue_fps144.mp4",""
"null","","","html-keyboard-response","160","880010","0.0-160.0","3ayv79za","","<span style=""color:Black; font-size:50px;"">Agent B","null","","","","",""
"null","","","video-keyboard-response","161","883105","0.0-161.0","3ayv79za","","","null","","Agent B","scrambled","STIM_SET_5/1592568.bmp_pp71_L1_V1.0_veridical_freeview_isoTrue_Hflip_fps144.mp4",""
"","","","call-function","162","883105","0.0-162.0","3ayv79za","","","","","","","",""
"2052.2200000000885","{""judgement"":1}","[0]","survey-likert","163","885158","0.0-163.0","3ayv79za","","","","","","","","0"
"1536.094999999972","{""confidence"":2}","[0]","survey-likert","164","886695","0.0-164.0","3ayv79za","","","","","","","",""
"","","","call-function","165","886695","0.0-165.0","3ayv79za","","","","","","","",""
"null","","","html-keyboard-response","166","888199","0.0-166.0","3ayv79za","","<span style=""color:Black; font-size:50px;"">Agent A","null","","","","",""
"null","","","video-keyboard-response","167","891281","0.0-167.0","3ayv79za","","","null","","Agent A","scrambled","STIM_SET_5/1159392.bmp_pp96_L2_V1.0_veridical_freeview_isoTrue_Hflip_fps144.mp4",""
"null","","","html-keyboard-response","168","892783","0.0-168.0","3ayv79za","","<span style=""color:Black; font-size:50px;"">Agent B","null","","","","",""
"null","","","video-keyboard-response","169","895858","0.0-169.0","3ayv79za","","","null","","Agent B","veridical","STIM_SET_2_144/1159392.bmp_pp96_L2_V1.0_veridical_freeview_isoTrue_fps144.mp4",""
"","","","call-function","170","895859","0.0-170.0","3ayv79za","","","","","","","",""
"2325.105000000098","{""judgement"":0}","[0]","survey-likert","171","898187","0.0-171.0","3ayv79za","","","","","","","","1"
"1672.6300000000047","{""confidence"":0}","[0]","survey-likert","172","899862","0.0-172.0","3ayv79za","","","","","","","",""
"2921.140000000014","","","instructions","173","902784","0.0-173.0","3ayv79za","[{""page_index"":0,""viewing_time"":982.3850000000093},{""page_index"":1,""viewing_time"":1342.75},{""page_index"":2,""viewing_time"":595.6849999999395}]","","","","","","",""
"4855.255000000005","","","instructions","174","907641","0.0-174.0","3ayv79za","[{""page_index"":0,""viewing_time"":1979.2249999999767},{""page_index"":1,""viewing_time"":2173.890000000014},{""page_index"":2,""viewing_time"":702.0200000000186}]","","","","","","",""
"","","","call-function","175","907641","0.0-175.0","3ayv79za","","","","","","","",""
"null","","","html-keyboard-response","176","909146","0.0-176.0","3ayv79za","","<span style=""color:Black; font-size:50px;"">Agent A","null","","","","",""
"null","","","video-keyboard-response","177","912219","0.0-177.0","3ayv79za","","","null","","Agent A","veridical","STIM_SET_2_144/107909.bmp_pp95_L2_V1.0_veridical_freeview_isoTrue_fps144.mp4",""
"null","","","html-keyboard-response","178","913722","0.0-178.0","3ayv79za","","<span style=""color:Black; font-size:50px;"">Agent B","null","","","","",""
"null","","","video-keyboard-response","179","916816","0.0-179.0","3ayv79za","","","null","","Agent B","scrambled","STIM_SET_5/107909.bmp_pp95_L2_V1.0_veridical_freeview_isoTrue_Hflip_fps144.mp4",""
"","","","call-function","180","916816","0.0-180.0","3ayv79za","","","","","","","",""
"2728.984999999986","{""judgement"":0}","[0]","survey-likert","181","919546","0.0-181.0","3ayv79za","","","","","","","","0"
"1642.1850000000559","{""confidence"":1}","[0]","survey-likert","182","921190","0.0-182.0","3ayv79za","","","","","","","",""
"","","","call-function","183","921191","0.0-183.0","3ayv79za","","","","","","","",""
"null","","","html-keyboard-response","184","922697","0.0-184.0","3ayv79za","","<span style=""color:Black; font-size:50px;"">Agent A","null","","","","",""
"null","","","video-keyboard-response","185","925757","0.0-185.0","3ayv79za","","","null","","Agent A","veridical","STIM_SET_2_144/1592150.bmp_pp77_L3_V1.0_veridical_freeview_isoTrue_fps144.mp4",""
"null","","","html-keyboard-response","186","927260","0.0-186.0","3ayv79za","","<span style=""color:Black; font-size:50px;"">Agent B","null","","","","",""
"null","","","video-keyboard-response","187","930334","0.0-187.0","3ayv79za","","","null","","Agent B","scrambled","STIM_SET_5/1592150.bmp_pp77_L3_V1.0_veridical_freeview_isoTrue_Hflip_fps144.mp4",""
"","","","call-function","188","930335","0.0-188.0","3ayv79za","","","","","","","",""
"2165.2449999999953","{""judgement"":0}","[0]","survey-likert","189","932501","0.0-189.0","3ayv79za","","","","","","","","0"
"3177.009999999893","{""confidence"":1}","[0]","survey-likert","190","935679","0.0-190.0","3ayv79za","","","","","","","",""
"","","","call-function","191","935680","0.0-191.0","3ayv79za","","","","","","","",""
"null","","","html-keyboard-response","192","937182","0.0-192.0","3ayv79za","","<span style=""color:Black; font-size:50px;"">Agent A","null","","","","",""
"null","","","video-keyboard-response","193","940280","0.0-193.0","3ayv79za","","","null","","Agent A","veridical","STIM_SET_2_144/713633.bmp_pp58_L1_V1.0_veridical_freeview_isoTrue_fps144.mp4",""
"null","","","html-keyboard-response","194","941787","0.0-194.0","3ayv79za","","<span style=""color:Black; font-size:50px;"">Agent B","null","","","","",""
"null","","","video-keyboard-response","195","944892","0.0-195.0","3ayv79za","","","null","","Agent B","scrambled","STIM_SET_5/713633.bmp_pp58_L1_V1.0_veridical_freeview_isoTrue_Hflip_fps144.mp4",""
"","","","call-function","196","944892","0.0-196.0","3ayv79za","","","","","","","",""
"2292.45000000007","{""judgement"":1}","[0]","survey-likert","197","947186","0.0-197.0","3ayv79za","","","","","","","","0"
"2285.6500000000233","{""confidence"":3}","[0]","survey-likert","198","949472","0.0-198.0","3ayv79za","","","","","","","",""
"","","","call-function","199","949473","0.0-199.0","3ayv79za","","","","","","","",""
"null","","","html-keyboard-response","200","950974","0.0-200.0","3ayv79za","","<span style=""color:Black; font-size:50px;"">Agent A","null","","","","",""
"null","","","video-keyboard-response","201","954047","0.0-201.0","3ayv79za","","","null","","Agent A","veridical","STIM_SET_2_144/713829.bmp_pp60_L3_V1.0_veridical_freeview_isoTrue_fps144.mp4",""
"null","","","html-keyboard-response","202","955549","0.0-202.0","3ayv79za","","<span style=""color:Black; font-size:50px;"">Agent B","null","","","","",""
"null","","","video-keyboard-response","203","958646","0.0-203.0","3ayv79za","","","null","","Agent B","scrambled","STIM_SET_5/713829.bmp_pp60_L3_V1.0_veridical_freeview_isoTrue_Hflip_fps144.mp4",""
"","","","call-function","204","958646","0.0-204.0","3ayv79za","","","","","","","",""
"5223.140000000014","{""judgement"":0}","[0]","survey-likert","205","963870","0.0-205.0","3ayv79za","","","","","","","","0"
"1931.109999999986","{""confidence"":0}","[0]","survey-likert","206","965803","0.0-206.0","3ayv79za","","","","","","","",""
"","","","call-function","207","965803","0.0-207.0","3ayv79za","","","","","","","",""
"null","","","html-keyboard-response","208","967307","0.0-208.0","3ayv79za","","<span style=""color:Black; font-size:50px;"">Agent A","null","","","","",""
"null","","","video-keyboard-response","209","970384","0.0-209.0","3ayv79za","","","null","","Agent A","scrambled","STIM_SET_5/1591920.bmp_pp97_L3_V1_veridical_freeview_isoTrue_Hflip_fps144.mp4",""
"null","","","html-keyboard-response","210","971887","0.0-210.0","3ayv79za","","<span style=""color:Black; font-size:50px;"">Agent B","null","","","","",""
"null","","","video-keyboard-response","211","974960","0.0-211.0","3ayv79za","","","null","","Agent B","veridical","STIM_SET_2_144/1591920.bmp_pp97_L3_V1_veridical_freeview_isoTrue_fps144.mp4",""
"","","","call-function","212","974961","0.0-212.0","3ayv79za","","","","","","","",""
"1787.6300000000047","{""judgement"":0}","[0]","survey-likert","213","976749","0.0-213.0","3ayv79za","","","","","","","","1"
"2033.9100000000326","{""confidence"":3}","[0]","survey-likert","214","978784","0.0-214.0","3ayv79za","","","","","","","",""
"","","","call-function","215","978785","0.0-215.0","3ayv79za","","","","","","","",""
"null","","","html-keyboard-response","216","980288","0.0-216.0","3ayv79za","","<span style=""color:Black; font-size:50px;"">Agent A","null","","","","",""
"null","","","video-keyboard-response","217","983369","0.0-217.0","3ayv79za","","","null","","Agent A","scrambled","STIM_SET_5/1592047.bmp_pp51_L1_V1.0_veridical_freeview_isoTrue_Hflip_fps144.mp4",""
"null","","","html-keyboard-response","218","984874","0.0-218.0","3ayv79za","","<span style=""color:Black; font-size:50px;"">Agent B","null","","","","",""
"null","","","video-keyboard-response","219","987937","0.0-219.0","3ayv79za","","","null","","Agent B","veridical","STIM_SET_2_144/1592047.bmp_pp51_L1_V1.0_veridical_freeview_isoTrue_fps144.mp4",""
"","","","call-function","220","987938","0.0-220.0","3ayv79za","","","","","","","",""
"6007.905000000028","{""judgement"":0}","[0]","survey-likert","221","993946","0.0-221.0","3ayv79za","","","","","","","","1"
"1658.0900000000838","{""confidence"":2}","[0]","survey-likert","222","995605","0.0-222.0","3ayv79za","","","","","","","",""
"","","","call-function","223","995606","0.0-223.0","3ayv79za","","","","","","","",""
"null","","","html-keyboard-response","224","997107","0.0-224.0","3ayv79za","","<span style=""color:Black; font-size:50px;"">Agent A","null","","","","",""
"null","","","video-keyboard-response","225","1000200","0.0-225.0","3ayv79za","","","null","","Agent A","scrambled","STIM_SET_5/713790.bmp_pp100_L3_V1_veridical_freeview_isoTrue_Hflip_fps144.mp4",""
"null","","","html-keyboard-response","226","1001707","0.0-226.0","3ayv79za","","<span style=""color:Black; font-size:50px;"">Agent B","null","","","","",""
"null","","","video-keyboard-response","227","1004784","0.0-227.0","3ayv79za","","","null","","Agent B","veridical","STIM_SET_2_144/713790.bmp_pp100_L3_V1_veridical_freeview_isoTrue_fps144.mp4",""
"","","","call-function","228","1004785","0.0-228.0","3ayv79za","","","","","","","",""
"1782.7149999999674","{""judgement"":0}","[0]","survey-likert","229","1006569","0.0-229.0","3ayv79za","","","","","","","","1"
"3129.3300000000745","{""confidence"":2}","[0]","survey-likert","230","1009700","0.0-230.0","3ayv79za","","","","","","","",""
"","","","call-function","231","1009700","0.0-231.0","3ayv79za","","","","","","","",""
"null","","","html-keyboard-response","232","1011207","0.0-232.0","3ayv79za","","<span style=""color:Black; font-size:50px;"">Agent A","null","","","","",""
"null","","","video-keyboard-response","233","1014269","0.0-233.0","3ayv79za","","","null","","Agent A","veridical","STIM_SET_2_144/1160049.bmp_pp53_L2_V1.0_veridical_freeview_isoTrue_fps144.mp4",""
"null","","","html-keyboard-response","234","1015776","0.0-234.0","3ayv79za","","<span style=""color:Black; font-size:50px;"">Agent B","null","","","","",""
"null","","","video-keyboard-response","235","1018839","0.0-235.0","3ayv79za","","","null","","Agent B","scrambled","STIM_SET_5/1160049.bmp_pp53_L2_V1.0_veridical_freeview_isoTrue_Hflip_fps144.mp4",""
"","","","call-function","236","1018839","0.0-236.0","3ayv79za","","","","","","","",""
"5381.375","{""judgement"":0}","[0]","survey-likert","237","1024222","0.0-237.0","3ayv79za","","","","","","","","0"
"1814.7399999999907","{""confidence"":1}","[0]","survey-likert","238","1026038","0.0-238.0","3ayv79za","","","","","","","",""
"","","","call-function","239","1026038","0.0-239.0","3ayv79za","","","","","","","",""
"null","","","html-keyboard-response","240","1027544","0.0-240.0","3ayv79za","","<span style=""color:Black; font-size:50px;"">Agent A","null","","","","",""
"null","","","video-keyboard-response","241","1030605","0.0-241.0","3ayv79za","","","null","","Agent A","veridical","STIM_SET_2_144/1592857.bmp_pp52_L1_V1_veridical_freeview_isoTrue_fps144.mp4",""
"null","","","html-keyboard-response","242","1032109","0.0-242.0","3ayv79za","","<span style=""color:Black; font-size:50px;"">Agent B","null","","","","",""
"null","","","video-keyboard-response","243","1035185","0.0-243.0","3ayv79za","","","null","","Agent B","scrambled","STIM_SET_5/1592857.bmp_pp52_L1_V1_veridical_freeview_isoTrue_Hflip_fps144.mp4",""
"","","","call-function","244","1035185","0.0-244.0","3ayv79za","","","","","","","",""
"1866.9350000000559","{""judgement"":0}","[0]","survey-likert","245","1037054","0.0-245.0","3ayv79za","","","","","","","","0"
"1388.0449999999255","{""confidence"":0}","[0]","survey-likert","246","1038443","0.0-246.0","3ayv79za","","","","","","","",""
"","","","call-function","247","1038443","0.0-247.0","3ayv79za","","","","","","","",""
"null","","","html-keyboard-response","248","1039948","0.0-248.0","3ayv79za","","<span style=""color:Black; font-size:50px;"">Agent A","null","","","","",""
"null","","","video-keyboard-response","249","1043033","0.0-249.0","3ayv79za","","","null","","Agent A","veridical","STIM_SET_2_144/1159427.bmp_pp98_L1_V1.0_veridical_freeview_isoTrue_fps144.mp4",""
"null","","","html-keyboard-response","250","1044535","0.0-250.0","3ayv79za","","<span style=""color:Black; font-size:50px;"">Agent B","null","","","","",""
"null","","","video-keyboard-response","251","1047620","0.0-251.0","3ayv79za","","","null","","Agent B","scrambled","STIM_SET_5/1159427.bmp_pp98_L1_V1.0_veridical_freeview_isoTrue_Hflip_fps144.mp4",""
"","","","call-function","252","1047620","0.0-252.0","3ayv79za","","","","","","","",""
"6041.659999999916","{""judgement"":0}","[0]","survey-likert","253","1053663","0.0-253.0","3ayv79za","","","","","","","","0"
"1498.1699999999255","{""confidence"":1}","[0]","survey-likert","254","1055162","0.0-254.0","3ayv79za","","","","","","","",""
"1745.809999999823","","","instructions","255","1056909","0.0-255.0","3ayv79za","[{""page_index"":0,""viewing_time"":1120.2700000000186},{""page_index"":1,""viewing_time"":155.35499999998137},{""page_index"":2,""viewing_time"":469.88999999989755}]","","","","","","",""
"2507.4199999999255","","","instructions","256","1059416","0.0-256.0","3ayv79za","[{""page_index"":0,""viewing_time"":431.33499999996275},{""page_index"":1,""viewing_time"":854.1450000000186},{""page_index"":2,""viewing_time"":1221.8349999999627}]","","","","","","",""
"","","","call-function","257","1059417","0.0-257.0","3ayv79za","","","","","","","",""
"null","","","html-keyboard-response","258","1060919","0.0-258.0","3ayv79za","","<span style=""color:Black; font-size:50px;"">Agent A","null","","","","",""
"null","","","video-keyboard-response","259","1063996","0.0-259.0","3ayv79za","","","null","","Agent A","veridical","STIM_SET_2_144/1159325.bmp_pp67_L2_V1.0_veridical_freeview_isoTrue_fps144.mp4",""
"null","","","html-keyboard-response","260","1065497","0.0-260.0","3ayv79za","","<span style=""color:Black; font-size:50px;"">Agent B","null","","","","",""
"null","","","video-keyboard-response","261","1068591","0.0-261.0","3ayv79za","","","null","","Agent B","scrambled","STIM_SET_5/1159325.bmp_pp67_L2_V1.0_veridical_freeview_isoTrue_Hflip_fps144.mp4",""
"","","","call-function","262","1068591","0.0-262.0","3ayv79za","","","","","","","",""
"5516.469999999972","{""judgement"":1}","[0]","survey-likert","263","1074108","0.0-263.0","3ayv79za","","","","","","","","0"
"1848.7000000001863","{""confidence"":0}","[0]","survey-likert","264","1075958","0.0-264.0","3ayv79za","","","","","","","",""
"","","","call-function","265","1075958","0.0-265.0","3ayv79za","","","","","","","",""
"null","","","html-keyboard-response","266","1077463","0.0-266.0","3ayv79za","","<span style=""color:Black; font-size:50px;"">Agent A","null","","","","",""
"null","","","video-keyboard-response","267","1080532","0.0-267.0","3ayv79za","","","null","","Agent A","scrambled","STIM_SET_5/1592298.bmp_pp56_L3_V1.0_veridical_freeview_isoTrue_Hflip_fps144.mp4",""
"null","","","html-keyboard-response","268","1082035","0.0-268.0","3ayv79za","","<span style=""color:Black; font-size:50px;"">Agent B","null","","","","",""
"null","","","video-keyboard-response","269","1085100","0.0-269.0","3ayv79za","","","null","","Agent B","veridical","STIM_SET_2_144/1592298.bmp_pp56_L3_V1.0_veridical_freeview_isoTrue_fps144.mp4",""
"","","","call-function","270","1085100","0.0-270.0","3ayv79za","","","","","","","",""
"3192.3900000001304","{""judgement"":0}","[0]","survey-likert","271","1088294","0.0-271.0","3ayv79za","","","","","","","","1"
"1840.3000000000466","{""confidence"":2}","[0]","survey-likert","272","1090136","0.0-272.0","3ayv79za","","","","","","","",""
"","","","call-function","273","1090136","0.0-273.0","3ayv79za","","","","","","","",""
"null","","","html-keyboard-response","274","1091641","0.0-274.0","3ayv79za","","<span style=""color:Black; font-size:50px;"">Agent A","null","","","","",""
"null","","","video-keyboard-response","275","1094708","0.0-275.0","3ayv79za","","","null","","Agent A","veridical","STIM_SET_2_144/1592530.bmp_pp75_L1_V1.0_veridical_freeview_isoTrue_fps144.mp4",""
"null","","","html-keyboard-response","276","1096210","0.0-276.0","3ayv79za","","<span style=""color:Black; font-size:50px;"">Agent B","null","","","","",""
"null","","","video-keyboard-response","277","1099297","0.0-277.0","3ayv79za","","","null","","Agent B","scrambled","STIM_SET_5/1592530.bmp_pp75_L1_V1.0_veridical_freeview_isoTrue_Hflip_fps144.mp4",""
"","","","call-function","278","1099298","0.0-278.0","3ayv79za","","","","","","","",""
"2385.840000000084","{""judgement"":0}","[0]","survey-likert","279","1101685","0.0-279.0","3ayv79za","","","","","","","","0"
"1595.0249999999069","{""confidence"":0}","[0]","survey-likert","280","1103281","0.0-280.0","3ayv79za","","","","","","","",""
"","","","call-function","281","1103281","0.0-281.0","3ayv79za","","","","","","","",""
"null","","","html-keyboard-response","282","1104783","0.0-282.0","3ayv79za","","<span style=""color:Black; font-size:50px;"">Agent A","null","","","","",""
"null","","","video-keyboard-response","283","1107875","0.0-283.0","3ayv79za","","","null","","Agent A","veridical","STIM_SET_2_144/1160189.bmp_pp64_L1_V1.0_veridical_freeview_isoTrue_fps144.mp4",""
"null","","","html-keyboard-response","284","1109375","0.0-284.0","3ayv79za","","<span style=""color:Black; font-size:50px;"">Agent B","null","","","","",""
"null","","","video-keyboard-response","285","1112473","0.0-285.0","3ayv79za","","","null","","Agent B","scrambled","STIM_SET_5/1160189.bmp_pp64_L1_V1.0_veridical_freeview_isoTrue_Hflip_fps144.mp4",""
"","","","call-function","286","1112474","0.0-286.0","3ayv79za","","","","","","","",""
"2946.0749999999534","{""judgement"":1}","[0]","survey-likert","287","1115422","0.0-287.0","3ayv79za","","","","","","","","0"
"3129.0149999998976","{""confidence"":1}","[0]","survey-likert","288","1118552","0.0-288.0","3ayv79za","","","","","","","",""
"","","","call-function","289","1118554","0.0-289.0","3ayv79za","","","","","","","",""
"null","","","html-keyboard-response","290","1120056","0.0-290.0","3ayv79za","","<span style=""color:Black; font-size:50px;"">Agent A","null","","","","",""
"null","","","video-keyboard-response","291","1123123","0.0-291.0","3ayv79za","","","null","","Agent A","veridical","STIM_SET_2_144/1592350.bmp_pp55_L3_V1.0_veridical_freeview_isoTrue_fps144.mp4",""
"null","","","html-keyboard-response","292","1124624","0.0-292.0","3ayv79za","","<span style=""color:Black; font-size:50px;"">Agent B","null","","","","",""
"null","","","video-keyboard-response","293","1127700","0.0-293.0","3ayv79za","","","null","","Agent B","scrambled","STIM_SET_5/1592350.bmp_pp55_L3_V1.0_veridical_freeview_isoTrue_Hflip_fps144.mp4",""
"","","","call-function","294","1127701","0.0-294.0","3ayv79za","","","","","","","",""
"3043.719999999972","{""judgement"":1}","[0]","survey-likert","295","1130745","0.0-295.0","3ayv79za","","","","","","","","0"
"1768.5700000000652","{""confidence"":2}","[0]","survey-likert","296","1132515","0.0-296.0","3ayv79za","","","","","","","",""
"","","","call-function","297","1132515","0.0-297.0","3ayv79za","","","","","","","",""
"null","","","html-keyboard-response","298","1134021","0.0-298.0","3ayv79za","","<span style=""color:Black; font-size:50px;"">Agent A","null","","","","",""
"null","","","video-keyboard-response","299","1137098","0.0-299.0","3ayv79za","","","null","","Agent A","scrambled","STIM_SET_5/285932.bmp_pp64_L1_V1.0_veridical_freeview_isoTrue_Hflip_fps144.mp4",""
"null","","","html-keyboard-response","300","1138604","0.0-300.0","3ayv79za","","<span style=""color:Black; font-size:50px;"">Agent B","null","","","","",""
"null","","","video-keyboard-response","301","1141668","0.0-301.0","3ayv79za","","","null","","Agent B","veridical","STIM_SET_2_144/285932.bmp_pp64_L1_V1.0_veridical_freeview_isoTrue_fps144.mp4",""
"","","","call-function","302","1141668","0.0-302.0","3ayv79za","","","","","","","",""
"5676.559999999823","{""judgement"":1}","[0]","survey-likert","303","1147346","0.0-303.0","3ayv79za","","","","","","","","1"
"9668.98999999999","{""confidence"":1}","[0]","survey-likert","304","1157016","0.0-304.0","3ayv79za","","","","","","","",""
"","","","call-function","305","1157016","0.0-305.0","3ayv79za","","","","","","","",""
"null","","","html-keyboard-response","306","1158522","0.0-306.0","3ayv79za","","<span style=""color:Black; font-size:50px;"">Agent A","null","","","","",""
"null","","","video-keyboard-response","307","1161623","0.0-307.0","3ayv79za","","","null","","Agent A","scrambled","STIM_SET_5/1592168.bmp_pp71_L1_V1.0_veridical_freeview_isoTrue_Hflip_fps144.mp4",""
"null","","","html-keyboard-response","308","1163130","0.0-308.0","3ayv79za","","<span style=""color:Black; font-size:50px;"">Agent B","null","","","","",""
"null","","","video-keyboard-response","309","1166214","0.0-309.0","3ayv79za","","","null","","Agent B","veridical","STIM_SET_2_144/1592168.bmp_pp71_L1_V1.0_veridical_freeview_isoTrue_fps144.mp4",""
"","","","call-function","310","1166214","0.0-310.0","3ayv79za","","","","","","","",""
"14723.629999999888","{""judgement"":0}","[0]","survey-likert","311","1180939","0.0-311.0","3ayv79za","","","","","","","","1"
"1546.7299999999814","{""confidence"":0}","[0]","survey-likert","312","1182487","0.0-312.0","3ayv79za","","","","","","","",""
"","","","call-function","313","1182487","0.0-313.0","3ayv79za","","","","","","","",""
"null","","","html-keyboard-response","314","1183989","0.0-314.0","3ayv79za","","<span style=""color:Black; font-size:50px;"">Agent A","null","","","","",""
"null","","","video-keyboard-response","315","1187059","0.0-315.0","3ayv79za","","","null","","Agent A","scrambled","STIM_SET_5/1592201.bmp_pp97_L3_V1.0_veridical_freeview_isoTrue_Hflip_fps144.mp4",""
"null","","","html-keyboard-response","316","1188566","0.0-316.0","3ayv79za","","<span style=""color:Black; font-size:50px;"">Agent B","null","","","","",""
"null","","","video-keyboard-response","317","1191631","0.0-317.0","3ayv79za","","","null","","Agent B","veridical","STIM_SET_2_144/1592201.bmp_pp97_L3_V1.0_veridical_freeview_isoTrue_fps144.mp4",""
"","","","call-function","318","1191632","0.0-318.0","3ayv79za","","","","","","","",""
"1777.030000000028","{""judgement"":1}","[0]","survey-likert","319","1193410","0.0-319.0","3ayv79za","","","","","","","","1"
"994.0349999999162","{""confidence"":1}","[0]","survey-likert","320","1194405","0.0-320.0","3ayv79za","","","","","","","",""
"","","","call-function","321","1194405","0.0-321.0","3ayv79za","","","","","","","",""
"null","","","html-keyboard-response","322","1195912","0.0-322.0","3ayv79za","","<span style=""color:Black; font-size:50px;"">Agent A","null","","","","",""
"null","","","video-keyboard-response","323","1198987","0.0-323.0","3ayv79za","","","null","","Agent A","veridical","STIM_SET_2_144/713328.bmp_pp86_L2_V1.0_veridical_freeview_isoTrue_fps144.mp4",""
"null","","","html-keyboard-response","324","1200489","0.0-324.0","3ayv79za","","<span style=""color:Black; font-size:50px;"">Agent B","null","","","","",""
"null","","","video-keyboard-response","325","1203592","0.0-325.0","3ayv79za","","","null","","Agent B","scrambled","STIM_SET_5/713328.bmp_pp86_L2_V1.0_veridical_freeview_isoTrue_Hflip_fps144.mp4",""
"","","","call-function","326","1203593","0.0-326.0","3ayv79za","","","","","","","",""
"1425.7600000000093","{""judgement"":1}","[0]","survey-likert","327","1205019","0.0-327.0","3ayv79za","","","","","","","","0"
"1909.0349999999162","{""confidence"":1}","[0]","survey-likert","328","1206930","0.0-328.0","3ayv79za","","","","","","","",""
"","","","call-function","329","1206930","0.0-329.0","3ayv79za","","","","","","","",""
"null","","","html-keyboard-response","330","1208431","0.0-330.0","3ayv79za","","<span style=""color:Black; font-size:50px;"">Agent A","null","","","","",""
"null","","","video-keyboard-response","331","1211497","0.0-331.0","3ayv79za","","","null","","Agent A","veridical","STIM_SET_2_144/498396.bmp_pp99_L2_V1.0_veridical_freeview_isoTrue_fps144.mp4",""
"null","","","html-keyboard-response","332","1213010","0.0-332.0","3ayv79za","","<span style=""color:Black; font-size:50px;"">Agent B","null","","","","",""
"null","","","video-keyboard-response","333","1216111","0.0-333.0","3ayv79za","","","null","","Agent B","scrambled","STIM_SET_5/498396.bmp_pp99_L2_V1.0_veridical_freeview_isoTrue_Hflip_fps144.mp4",""
"","","","call-function","334","1216112","0.0-334.0","3ayv79za","","","","","","","",""
"5511.01500000013","{""judgement"":1}","[0]","survey-likert","335","1221624","0.0-335.0","3ayv79za","","","","","","","","0"
"2191.929999999935","{""confidence"":0}","[0]","survey-likert","336","1223817","0.0-336.0","3ayv79za","","","","","","","",""
"1356.130000000121","","","instructions","337","1225174","0.0-337.0","3ayv79za","[{""page_index"":0,""viewing_time"":1012.7900000000373},{""page_index"":1,""viewing_time"":168.3300000000745},{""page_index"":2,""viewing_time"":174.84499999997206}]","","","","","","",""
"515.5449999999255","","","instructions","338","1225690","0.0-338.0","3ayv79za","[{""page_index"":0,""viewing_time"":177.5100000000093},{""page_index"":1,""viewing_time"":165.82999999984168},{""page_index"":2,""viewing_time"":172.05500000016764}]","","","","","","",""
"","","","call-function","339","1225690","0.0-339.0","3ayv79za","","","","","","","",""
"null","","","html-keyboard-response","340","1227191","0.0-340.0","3ayv79za","","<span style=""color:Black; font-size:50px;"">Agent A","null","","","","",""
"null","","","video-keyboard-response","341","1230258","0.0-341.0","3ayv79za","","","null","","Agent A","veridical","STIM_SET_2_144/1160204.bmp_pp54_L2_V1.0_veridical_freeview_isoTrue_fps144.mp4",""
"null","","","html-keyboard-response","342","1231765","0.0-342.0","3ayv79za","","<span style=""color:Black; font-size:50px;"">Agent B","null","","","","",""
"null","","","video-keyboard-response","343","1234855","0.0-343.0","3ayv79za","","","null","","Agent B","scrambled","STIM_SET_5/1160204.bmp_pp54_L2_V1.0_veridical_freeview_isoTrue_Hflip_fps144.mp4",""
"","","","call-function","344","1234856","0.0-344.0","3ayv79za","","","","","","","",""
"4825.179999999935","{""judgement"":0}","[0]","survey-likert","345","1239682","0.0-345.0","3ayv79za","","","","","","","","0"
"1291.2050000000745","{""confidence"":1}","[0]","survey-likert","346","1240974","0.0-346.0","3ayv79za","","","","","","","",""
"","","","call-function","347","1240975","0.0-347.0","3ayv79za","","","","","","","",""
"null","","","html-keyboard-response","348","1242478","0.0-348.0","3ayv79za","","<span style=""color:Black; font-size:50px;"">Agent A","null","","","","",""
"null","","","video-keyboard-response","349","1245564","0.0-349.0","3ayv79za","","","null","","Agent A","scrambled","STIM_SET_5/1592305.bmp_pp65_L3_V1.0_veridical_freeview_isoTrue_Hflip_fps144.mp4",""
"null","","","html-keyboard-response","350","1247065","0.0-350.0","3ayv79za","","<span style=""color:Black; font-size:50px;"">Agent B","null","","","","",""
"null","","","video-keyboard-response","351","1250132","0.0-351.0","3ayv79za","","","null","","Agent B","veridical","STIM_SET_2_144/1592305.bmp_pp65_L3_V1.0_veridical_freeview_isoTrue_fps144.mp4",""
"","","","call-function","352","1250133","0.0-352.0","3ayv79za","","","","","","","",""
"3085.7399999999907","{""judgement"":1}","[0]","survey-likert","353","1253219","0.0-353.0","3ayv79za","","","","","","","","1"
"22981.659999999916","{""confidence"":1}","[0]","survey-likert","354","1276202","0.0-354.0","3ayv79za","","","","","","","",""
"","","","call-function","355","1276202","0.0-355.0","3ayv79za","","","","","","","",""
"null","","","html-keyboard-response","356","1277708","0.0-356.0","3ayv79za","","<span style=""color:Black; font-size:50px;"">Agent A","null","","","","",""
"null","","","video-keyboard-response","357","1280802","0.0-357.0","3ayv79za","","","null","","Agent A","scrambled","STIM_SET_5/713274.bmp_pp73_L3_V1.0_veridical_freeview_isoTrue_Hflip_fps144.mp4",""
"null","","","html-keyboard-response","358","1282305","0.0-358.0","3ayv79za","","<span style=""color:Black; font-size:50px;"">Agent B","null","","","","",""
"null","","","video-keyboard-response","359","1285387","0.0-359.0","3ayv79za","","","null","","Agent B","veridical","STIM_SET_2_144/713274.bmp_pp73_L3_V1.0_veridical_freeview_isoTrue_fps144.mp4",""
"","","","call-function","360","1285388","0.0-360.0","3ayv79za","","","","","","","",""
"1506.7050000000745","{""judgement"":1}","[0]","survey-likert","361","1286895","0.0-361.0","3ayv79za","","","","","","","","1"
"1710.905000000028","{""confidence"":2}","[0]","survey-likert","362","1288607","0.0-362.0","3ayv79za","","","","","","","",""
"","","","call-function","363","1288608","0.0-363.0","3ayv79za","","","","","","","",""
"null","","","html-keyboard-response","364","1290111","0.0-364.0","3ayv79za","","<span style=""color:Black; font-size:50px;"">Agent A","null","","","","",""
"null","","","video-keyboard-response","365","1293196","0.0-365.0","3ayv79za","","","null","","Agent A","scrambled","STIM_SET_5/498025.bmp_pp81_L1_V1.0_veridical_freeview_isoTrue_Hflip_fps144.mp4",""
"null","","","html-keyboard-response","366","1294700","0.0-366.0","3ayv79za","","<span style=""color:Black; font-size:50px;"">Agent B","null","","","","",""
"null","","","video-keyboard-response","367","1297780","0.0-367.0","3ayv79za","","","null","","Agent B","veridical","STIM_SET_2_144/498025.bmp_pp81_L1_V1.0_veridical_freeview_isoTrue_fps144.mp4",""
"","","","call-function","368","1297781","0.0-368.0","3ayv79za","","","","","","","",""
"15261.030000000028","{""judgement"":0}","[0]","survey-likert","369","1313043","0.0-369.0","3ayv79za","","","","","","","","1"
"1369.0600000000559","{""confidence"":0}","[0]","survey-likert","370","1314414","0.0-370.0","3ayv79za","","","","","","","",""
"","","","call-function","371","1314414","0.0-371.0","3ayv79za","","","","","","","",""
"null","","","html-keyboard-response","372","1315917","0.0-372.0","3ayv79za","","<span style=""color:Black; font-size:50px;"">Agent A","null","","","","",""
"null","","","video-keyboard-response","373","1318983","0.0-373.0","3ayv79za","","","null","","Agent A","scrambled","STIM_SET_5/1592314.bmp_pp100_L3_V1.0_veridical_freeview_isoTrue_Hflip_fps144.mp4",""
"null","","","html-keyboard-response","374","1320486","0.0-374.0","3ayv79za","","<span style=""color:Black; font-size:50px;"">Agent B","null","","","","",""
"null","","","video-keyboard-response","375","1323545","0.0-375.0","3ayv79za","","","null","","Agent B","veridical","STIM_SET_2_144/1592314.bmp_pp100_L3_V1.0_veridical_freeview_isoTrue_fps144.mp4",""
"","","","call-function","376","1323546","0.0-376.0","3ayv79za","","","","","","","",""
"2009.6950000000652","{""judgement"":0}","[0]","survey-likert","377","1325556","0.0-377.0","3ayv79za","","","","","","","","1"
"1914.214999999851","{""confidence"":1}","[0]","survey-likert","378","1327471","0.0-378.0","3ayv79za","","","","","","","",""
"","","","call-function","379","1327472","0.0-379.0","3ayv79za","","","","","","","",""
"null","","","html-keyboard-response","380","1328976","0.0-380.0","3ayv79za","","<span style=""color:Black; font-size:50px;"">Agent A","null","","","","",""
"null","","","video-keyboard-response","381","1332064","0.0-381.0","3ayv79za","","","null","","Agent A","scrambled","STIM_SET_5/1592129.bmp_pp153_L3_V1.0_veridical_freeview_isoTrue_Hflip_fps144.mp4",""
"null","","","html-keyboard-response","382","1333566","0.0-382.0","3ayv79za","","<span style=""color:Black; font-size:50px;"">Agent B","null","","","","",""
"null","","","video-keyboard-response","383","1336642","0.0-383.0","3ayv79za","","","null","","Agent B","veridical","STIM_SET_2_144/1592129.bmp_pp153_L3_V1.0_veridical_freeview_isoTrue_fps144.mp4",""
"","","","call-function","384","1336642","0.0-384.0","3ayv79za","","","","","","","",""
"1767.9750000000931","{""judgement"":0}","[0]","survey-likert","385","1338411","0.0-385.0","3ayv79za","","","","","","","","1"
"1514.964999999851","{""confidence"":1}","[0]","survey-likert","386","1339927","0.0-386.0","3ayv79za","","","","","","","",""
"","","","call-function","387","1339928","0.0-387.0","3ayv79za","","","","","","","",""
"null","","","html-keyboard-response","388","1341434","0.0-388.0","3ayv79za","","<span style=""color:Black; font-size:50px;"">Agent A","null","","","","",""
"null","","","video-keyboard-response","389","1344537","0.0-389.0","3ayv79za","","","null","","Agent A","scrambled","STIM_SET_5/1160247.bmp_pp54_L2_V1.0_veridical_freeview_isoTrue_Hflip_fps144.mp4",""
"null","","","html-keyboard-response","390","1346040","0.0-390.0","3ayv79za","","<span style=""color:Black; font-size:50px;"">Agent B","null","","","","",""
"null","","","video-keyboard-response","391","1349137","0.0-391.0","3ayv79za","","","null","","Agent B","veridical","STIM_SET_2_144/1160247.bmp_pp54_L2_V1.0_veridical_freeview_isoTrue_fps144.mp4",""
"","","","call-function","392","1349137","0.0-392.0","3ayv79za","","","","","","","",""
"1793.655000000028","{""judgement"":0}","[0]","survey-likert","393","1350932","0.0-393.0","3ayv79za","","","","","","","","1"
"1411.505000000121","{""confidence"":2}","[0]","survey-likert","394","1352344","0.0-394.0","3ayv79za","","","","","","","",""
"","","","call-function","395","1352345","0.0-395.0","3ayv79za","","","","","","","",""
"null","","","html-keyboard-response","396","1353850","0.0-396.0","3ayv79za","","<span style=""color:Black; font-size:50px;"">Agent A","null","","","","",""
"null","","","video-keyboard-response","397","1356916","0.0-397.0","3ayv79za","","","null","","Agent A","veridical","STIM_SET_2_144/498258.bmp_pp51_L1_V1.0_veridical_freeview_isoTrue_fps144.mp4",""
"null","","","html-keyboard-response","398","1358420","0.0-398.0","3ayv79za","","<span style=""color:Black; font-size:50px;"">Agent B","null","","","","",""
"null","","","video-keyboard-response","399","1361493","0.0-399.0","3ayv79za","","","null","","Agent B","scrambled","STIM_SET_5/498258.bmp_pp51_L1_V1.0_veridical_freeview_isoTrue_Hflip_fps144.mp4",""
"","","","call-function","400","1361494","0.0-400.0","3ayv79za","","","","","","","",""
"2915.1650000000373","{""judgement"":1}","[0]","survey-likert","401","1364410","0.0-401.0","3ayv79za","","","","","","","","0"
"1361.095000000205","{""confidence"":0}","[0]","survey-likert","402","1365772","0.0-402.0","3ayv79za","","","","","","","",""
"","","","call-function","403","1365773","0.0-403.0","3ayv79za","","","","","","","",""
"null","","","html-keyboard-response","404","1367279","0.0-404.0","3ayv79za","","<span style=""color:Black; font-size:50px;"">Agent A","null","","","","",""
"null","","","video-keyboard-response","405","1370362","0.0-405.0","3ayv79za","","","null","","Agent A","veridical","STIM_SET_2_144/1159508.bmp_pp151_L1_V1.0_veridical_freeview_isoTrue_fps144.mp4",""
"null","","","html-keyboard-response","406","1371865","0.0-406.0","3ayv79za","","<span style=""color:Black; font-size:50px;"">Agent B","null","","","","",""
"null","","","video-keyboard-response","407","1374960","0.0-407.0","3ayv79za","","","null","","Agent B","scrambled","STIM_SET_5/1159508.bmp_pp151_L1_V1.0_veridical_freeview_isoTrue_Hflip_fps144.mp4",""
"","","","call-function","408","1374960","0.0-408.0","3ayv79za","","","","","","","",""
"1924.214999999851","{""judgement"":1}","[0]","survey-likert","409","1376885","0.0-409.0","3ayv79za","","","","","","","","0"
"1135.8349999999627","{""confidence"":2}","[0]","survey-likert","410","1378023","0.0-410.0","3ayv79za","","","","","","","",""
"","","","call-function","411","1378023","0.0-411.0","3ayv79za","","","","","","","",""
"null","","","html-keyboard-response","412","1379529","0.0-412.0","3ayv79za","","<span style=""color:Black; font-size:50px;"">Agent A","null","","","","",""
"null","","","video-keyboard-response","413","1382604","0.0-413.0","3ayv79za","","","null","","Agent A","veridical","STIM_SET_2_144/285959.bmp_pp93_L1_V1.0_veridical_freeview_isoTrue_fps144.mp4",""
"null","","","html-keyboard-response","414","1384107","0.0-414.0","3ayv79za","","<span style=""color:Black; font-size:50px;"">Agent B","null","","","","",""
"null","","","video-keyboard-response","415","1387194","0.0-415.0","3ayv79za","","","null","","Agent B","scrambled","STIM_SET_5/285959.bmp_pp93_L1_V1.0_veridical_freeview_isoTrue_Hflip_fps144.mp4",""
"","","","call-function","416","1387195","0.0-416.0","3ayv79za","","","","","","","",""
"2724.2349999998696","{""judgement"":0}","[0]","survey-likert","417","1389920","0.0-417.0","3ayv79za","","","","","","","","0"
"1532.1500000001397","{""confidence"":1}","[0]","survey-likert","418","1391455","0.0-418.0","3ayv79za","","","","","","","",""
"1202.3599999998696","","","instructions","419","1392658","0.0-419.0","3ayv79za","[{""page_index"":0,""viewing_time"":891.9899999999907},{""page_index"":1,""viewing_time"":168.12999999988824},{""page_index"":2,""viewing_time"":141.97500000009313}]","","","","","","",""
"465.13999999989755","","","instructions","420","1393124","0.0-420.0","3ayv79za","[{""page_index"":0,""viewing_time"":165.19999999995343},{""page_index"":1,""viewing_time"":145.06499999994412},{""page_index"":2,""viewing_time"":154.76500000013039}]","","","","","","",""
"","","","call-function","421","1393125","0.0-421.0","3ayv79za","","","","","","","",""
"null","","","html-keyboard-response","422","1394626","0.0-422.0","3ayv79za","","<span style=""color:Black; font-size:50px;"">Agent A","null","","","","",""
"null","","","video-keyboard-response","423","1397688","0.0-423.0","3ayv79za","","","null","","Agent A","veridical","STIM_SET_2_144/1592567.bmp_pp70_L2_V1.0_veridical_freeview_isoTrue_fps144.mp4",""
"null","","","html-keyboard-response","424","1399195","0.0-424.0","3ayv79za","","<span style=""color:Black; font-size:50px;"">Agent B","null","","","","",""
"null","","","video-keyboard-response","425","1402262","0.0-425.0","3ayv79za","","","null","","Agent B","scrambled","STIM_SET_5/1592567.bmp_pp70_L2_V1.0_veridical_freeview_isoTrue_Hflip_fps144.mp4",""
"","","","call-function","426","1402262","0.0-426.0","3ayv79za","","","","","","","",""
"1787.3700000001118","{""judgement"":0}","[0]","survey-likert","427","1404051","0.0-427.0","3ayv79za","","","","","","","","0"
"1350.2349999998696","{""confidence"":0}","[0]","survey-likert","428","1405403","0.0-428.0","3ayv79za","","","","","","","",""
"","","","call-function","429","1405403","0.0-429.0","3ayv79za","","","","","","","",""
"null","","","html-keyboard-response","430","1406906","0.0-430.0","3ayv79za","","<span style=""color:Black; font-size:50px;"">Agent A","null","","","","",""
"null","","","video-keyboard-response","431","1409973","0.0-431.0","3ayv79za","","","null","","Agent A","veridical","STIM_SET_2_144/713788.bmp_pp52_L1_V1.0_veridical_freeview_isoTrue_fps144.mp4",""
"null","","","html-keyboard-response","432","1411475","0.0-432.0","3ayv79za","","<span style=""color:Black; font-size:50px;"">Agent B","null","","","","",""
"null","","","video-keyboard-response","433","1414562","0.0-433.0","3ayv79za","","","null","","Agent B","scrambled","STIM_SET_5/713788.bmp_pp52_L1_V1.0_veridical_freeview_isoTrue_Hflip_fps144.mp4",""
"","","","call-function","434","1414562","0.0-434.0","3ayv79za","","","","","","","",""
"10231.185000000056","{""judgement"":1}","[0]","survey-likert","435","1424794","0.0-435.0","3ayv79za","","","","","","","","0"
"1333.6499999999069","{""confidence"":0}","[0]","survey-likert","436","1426129","0.0-436.0","3ayv79za","","","","","","","",""
"","","","call-function","437","1426129","0.0-437.0","3ayv79za","","","","","","","",""
"null","","","html-keyboard-response","438","1427631","0.0-438.0","3ayv79za","","<span style=""color:Black; font-size:50px;"">Agent A","null","","","","",""
"null","","","video-keyboard-response","439","1430726","0.0-439.0","3ayv79za","","","null","","Agent A","veridical","STIM_SET_2_144/713742.bmp_pp91_L3_V1.0_veridical_freeview_isoTrue_fps144.mp4",""
"null","","","html-keyboard-response","440","1432232","0.0-440.0","3ayv79za","","<span style=""color:Black; font-size:50px;"">Agent B","null","","","","",""
"null","","","video-keyboard-response","441","1435333","0.0-441.0","3ayv79za","","","null","","Agent B","scrambled","STIM_SET_5/713742.bmp_pp91_L3_V1.0_veridical_freeview_isoTrue_Hflip_fps144.mp4",""
"","","","call-function","442","1435334","0.0-442.0","3ayv79za","","","","","","","",""
"2616.469999999972","{""judgement"":0}","[0]","survey-likert","443","1437951","0.0-443.0","3ayv79za","","","","","","","","0"
"1251.2399999999907","{""confidence"":0}","[0]","survey-likert","444","1439204","0.0-444.0","3ayv79za","","","","","","","",""
"","","","call-function","445","1439204","0.0-445.0","3ayv79za","","","","","","","",""
"null","","","html-keyboard-response","446","1440709","0.0-446.0","3ayv79za","","<span style=""color:Black; font-size:50px;"">Agent A","null","","","","",""
"null","","","video-keyboard-response","447","1443782","0.0-447.0","3ayv79za","","","null","","Agent A","veridical","STIM_SET_2_144/285684.bmp_pp80_L3_V1.0_veridical_freeview_isoTrue_fps144.mp4",""
"null","","","html-keyboard-response","448","1445288","0.0-448.0","3ayv79za","","<span style=""color:Black; font-size:50px;"">Agent B","null","","","","",""
"null","","","video-keyboard-response","449","1448383","0.0-449.0","3ayv79za","","","null","","Agent B","scrambled","STIM_SET_5/285684.bmp_pp80_L3_V1.0_veridical_freeview_isoTrue_Hflip_fps144.mp4",""
"","","","call-function","450","1448383","0.0-450.0","3ayv79za","","","","","","","",""
"1498.6149999999907","{""judgement"":1}","[0]","survey-likert","451","1449883","0.0-451.0","3ayv79za","","","","","","","","0"
"1104.4499999999534","{""confidence"":1}","[0]","survey-likert","452","1450988","0.0-452.0","3ayv79za","","","","","","","",""
"","","","call-function","453","1450989","0.0-453.0","3ayv79za","","","","","","","",""
"null","","","html-keyboard-response","454","1452494","0.0-454.0","3ayv79za","","<span style=""color:Black; font-size:50px;"">Agent A","null","","","","",""
"null","","","video-keyboard-response","455","1455599","0.0-455.0","3ayv79za","","","null","","Agent A","scrambled","STIM_SET_5/1159329.bmp_pp61_L2_V1.0_veridical_freeview_isoTrue_Hflip_fps144.mp4",""
"null","","","html-keyboard-response","456","1457101","0.0-456.0","3ayv79za","","<span style=""color:Black; font-size:50px;"">Agent B","null","","","","",""
"null","","","video-keyboard-response","457","1460184","0.0-457.0","3ayv79za","","","null","","Agent B","veridical","STIM_SET_2_144/1159329.bmp_pp61_L2_V1.0_veridical_freeview_isoTrue_fps144.mp4",""
"","","","call-function","458","1460185","0.0-458.0","3ayv79za","","","","","","","",""
"2948.4249999998137","{""judgement"":0}","[0]","survey-likert","459","1463135","0.0-459.0","3ayv79za","","","","","","","","1"
"4988.114999999991","{""confidence"":2}","[0]","survey-likert","460","1468124","0.0-460.0","3ayv79za","","","","","","","",""
"","","","call-function","461","1468124","0.0-461.0","3ayv79za","","","","","","","",""
"null","","","html-keyboard-response","462","1469626","0.0-462.0","3ayv79za","","<span style=""color:Black; font-size:50px;"">Agent A","null","","","","",""
"null","","","video-keyboard-response","463","1472714","0.0-463.0","3ayv79za","","","null","","Agent A","scrambled","STIM_SET_5/150277.bmp_pp65_L3_V1.0_veridical_freeview_isoTrue_Hflip_fps144.mp4",""
"null","","","html-keyboard-response","464","1474216","0.0-464.0","3ayv79za","","<span style=""color:Black; font-size:50px;"">Agent B","null","","","","",""
"null","","","video-keyboard-response","465","1477283","0.0-465.0","3ayv79za","","","null","","Agent B","veridical","STIM_SET_2_144/150277.bmp_pp65_L3_V1.0_veridical_freeview_isoTrue_fps144.mp4",""
"","","","call-function","466","1477285","0.0-466.0","3ayv79za","","","","","","","",""
"3272.685000000056","{""judgement"":1}","[0]","survey-likert","467","1480559","0.0-467.0","3ayv79za","","","","","","","","1"
"1507.4950000001118","{""confidence"":0}","[0]","survey-likert","468","1482068","0.0-468.0","3ayv79za","","","","","","","",""
"","","","call-function","469","1482068","0.0-469.0","3ayv79za","","","","","","","",""
"null","","","html-keyboard-response","470","1483572","0.0-470.0","3ayv79za","","<span style=""color:Black; font-size:50px;"">Agent A","null","","","","",""
"null","","","video-keyboard-response","471","1486639","0.0-471.0","3ayv79za","","","null","","Agent A","veridical","STIM_SET_2_144/1592289.bmp_pp92_L3_V1.0_veridical_freeview_isoTrue_fps144.mp4",""
"null","","","html-keyboard-response","472","1488143","0.0-472.0","3ayv79za","","<span style=""color:Black; font-size:50px;"">Agent B","null","","","","",""
"null","","","video-keyboard-response","473","1491212","0.0-473.0","3ayv79za","","","null","","Agent B","scrambled","STIM_SET_5/1592289.bmp_pp92_L3_V1.0_veridical_freeview_isoTrue_Hflip_fps144.mp4",""
"","","","call-function","474","1491212","0.0-474.0","3ayv79za","","","","","","","",""
"3424.600000000093","{""judgement"":1}","[0]","survey-likert","475","1494638","0.0-475.0","3ayv79za","","","","","","","","0"
"1468.4799999999814","{""confidence"":1}","[0]","survey-likert","476","1496108","0.0-476.0","3ayv79za","","","","","","","",""
"","","","call-function","477","1496108","0.0-477.0","3ayv79za","","","","","","","",""
"null","","","html-keyboard-response","478","1497613","0.0-478.0","3ayv79za","","<span style=""color:Black; font-size:50px;"">Agent A","null","","","","",""
"null","","","video-keyboard-response","479","1500682","0.0-479.0","3ayv79za","","","null","","Agent A","scrambled","STIM_SET_5/1159956.bmp_pp59_L3_V1.0_veridical_freeview_isoTrue_Hflip_fps144.mp4",""
"null","","","html-keyboard-response","480","1502183","0.0-480.0","3ayv79za","","<span style=""color:Black; font-size:50px;"">Agent B","null","","","","",""
"null","","","video-keyboard-response","481","1505273","0.0-481.0","3ayv79za","","","null","","Agent B","veridical","STIM_SET_2_144/1159956.bmp_pp59_L3_V1.0_veridical_freeview_isoTrue_fps144.mp4",""
"","","","call-function","482","1505273","0.0-482.0","3ayv79za","","","","","","","",""
"5252.925000000047","{""judgement"":0}","[0]","survey-likert","483","1510527","0.0-483.0","3ayv79za","","","","","","","","1"
"3809.3950000000186","{""confidence"":0}","[0]","survey-likert","484","1514337","0.0-484.0","3ayv79za","","","","","","","",""
"","","","call-function","485","1514338","0.0-485.0","3ayv79za","","","","","","","",""
"null","","","html-keyboard-response","486","1515841","0.0-486.0","3ayv79za","","<span style=""color:Black; font-size:50px;"">Agent A","null","","","","",""
"null","","","video-keyboard-response","487","1518949","0.0-487.0","3ayv79za","","","null","","Agent A","scrambled","STIM_SET_5/713858.bmp_pp57_L1_V1.0_veridical_freeview_isoTrue_Hflip_fps144.mp4",""
"null","","","html-keyboard-response","488","1520451","0.0-488.0","3ayv79za","","<span style=""color:Black; font-size:50px;"">Agent B","null","","","","",""
"null","","","video-keyboard-response","489","1523541","0.0-489.0","3ayv79za","","","null","","Agent B","veridical","STIM_SET_2_144/713858.bmp_pp57_L1_V1.0_veridical_freeview_isoTrue_fps144.mp4",""
"","","","call-function","490","1523542","0.0-490.0","3ayv79za","","","","","","","",""
"2161.6049999999814","{""judgement"":1}","[0]","survey-likert","491","1525704","0.0-491.0","3ayv79za","","","","","","","","1"
"1898.6650000000373","{""confidence"":1}","[0]","survey-likert","492","1527604","0.0-492.0","3ayv79za","","","","","","","",""
"","","","call-function","493","1527604","0.0-493.0","3ayv79za","","","","","","","",""
"null","","","html-keyboard-response","494","1529110","0.0-494.0","3ayv79za","","<span style=""color:Black; font-size:50px;"">Agent A","null","","","","",""
"null","","","video-keyboard-response","495","1532211","0.0-495.0","3ayv79za","","","null","","Agent A","scrambled","STIM_SET_5/150463.bmp_pp55_L3_V1.0_veridical_freeview_isoTrue_Hflip_fps144.mp4",""
"null","","","html-keyboard-response","496","1533712","0.0-496.0","3ayv79za","","<span style=""color:Black; font-size:50px;"">Agent B","null","","","","",""
"null","","","video-keyboard-response","497","1536798","0.0-497.0","3ayv79za","","","null","","Agent B","veridical","STIM_SET_2_144/150463.bmp_pp55_L3_V1.0_veridical_freeview_isoTrue_fps144.mp4",""
"","","","call-function","498","1536798","0.0-498.0","3ayv79za","","","","","","","",""
"5953.010000000009","{""judgement"":1}","[0]","survey-likert","499","1542752","0.0-499.0","3ayv79za","","","","","","","","1"
"14044.425000000047","{""confidence"":1}","[0]","survey-likert","500","1556797","0.0-500.0","3ayv79za","","","","","","","",""
"1570.469999999972","","","instructions","501","1558368","0.0-501.0","3ayv79za","[{""page_index"":0,""viewing_time"":1283.1599999999162},{""page_index"":1,""viewing_time"":140.25},{""page_index"":2,""viewing_time"":146.88999999989755}]","","","","","","",""
"454.60000000009313","","","instructions","502","1558823","0.0-502.0","3ayv79za","[{""page_index"":0,""viewing_time"":137.4000000001397},{""page_index"":1,""viewing_time"":160.98499999986961},{""page_index"":2,""viewing_time"":156.10000000009313}]","","","","","","",""
"","","","call-function","503","1558824","0.0-503.0","3ayv79za","","","","","","","",""
"null","","","html-keyboard-response","504","1560325","0.0-504.0","3ayv79za","","<span style=""color:Black; font-size:50px;"">Agent A","null","","","","",""
"null","","","video-keyboard-response","505","1563427","0.0-505.0","3ayv79za","","","null","","Agent A","scrambled","STIM_SET_5/498326.bmp_pp57_L1_V1.0_veridical_freeview_isoTrue_Hflip_fps144.mp4",""
"null","","","html-keyboard-response","506","1564929","0.0-506.0","3ayv79za","","<span style=""color:Black; font-size:50px;"">Agent B","null","","","","",""
"null","","","video-keyboard-response","507","1567988","0.0-507.0","3ayv79za","","","null","","Agent B","veridical","STIM_SET_2_144/498326.bmp_pp57_L1_V1.0_veridical_freeview_isoTrue_fps144.mp4",""
"","","","call-function","508","1567990","0.0-508.0","3ayv79za","","","","","","","",""
"2920.159999999916","{""judgement"":1}","[0]","survey-likert","509","1570912","0.0-509.0","3ayv79za","","","","","","","","1"
"1298.1500000001397","{""confidence"":1}","[0]","survey-likert","510","1572213","0.0-510.0","3ayv79za","","","","","","","",""
"","","","call-function","511","1572214","0.0-511.0","3ayv79za","","","","","","","",""
"null","","","html-keyboard-response","512","1573720","0.0-512.0","3ayv79za","","<span style=""color:Black; font-size:50px;"">Agent A","null","","","","",""
"null","","","video-keyboard-response","513","1576817","0.0-513.0","3ayv79za","","","null","","Agent A","scrambled","STIM_SET_5/713770.bmp_pp89_L1_V1.0_veridical_freeview_isoTrue_Hflip_fps144.mp4",""
"null","","","html-keyboard-response","514","1578323","0.0-514.0","3ayv79za","","<span style=""color:Black; font-size:50px;"">Agent B","null","","","","",""
"null","","","video-keyboard-response","515","1581400","0.0-515.0","3ayv79za","","","null","","Agent B","veridical","STIM_SET_2_144/713770.bmp_pp89_L1_V1.0_veridical_freeview_isoTrue_fps144.mp4",""
"","","","call-function","516","1581400","0.0-516.0","3ayv79za","","","","","","","",""
"20273.33999999985","{""judgement"":0}","[0]","survey-likert","517","1601675","0.0-517.0","3ayv79za","","","","","","","","1"
"4323.994999999879","{""confidence"":1}","[0]","survey-likert","518","1606000","0.0-518.0","3ayv79za","","","","","","","",""
"","","","call-function","519","1606000","0.0-519.0","3ayv79za","","","","","","","",""
"null","","","html-keyboard-response","520","1607504","0.0-520.0","3ayv79za","","<span style=""color:Black; font-size:50px;"">Agent A","null","","","","",""
"null","","","video-keyboard-response","521","1610578","0.0-521.0","3ayv79za","","","null","","Agent A","scrambled","STIM_SET_5/285715.bmp_pp67_L2_V1.0_veridical_freeview_isoTrue_Hflip_fps144.mp4",""
"null","","","html-keyboard-response","522","1612079","0.0-522.0","3ayv79za","","<span style=""color:Black; font-size:50px;"">Agent B","null","","","","",""
"null","","","video-keyboard-response","523","1615140","0.0-523.0","3ayv79za","","","null","","Agent B","veridical","STIM_SET_2_144/285715.bmp_pp67_L2_V1.0_veridical_freeview_isoTrue_fps144.mp4",""
"","","","call-function","524","1615140","0.0-524.0","3ayv79za","","","","","","","",""
"1729.8950000000186","{""judgement"":1}","[0]","survey-likert","525","1616871","0.0-525.0","3ayv79za","","","","","","","","1"
"1065.375","{""confidence"":1}","[0]","survey-likert","526","1617937","0.0-526.0","3ayv79za","","","","","","","",""
"","","","call-function","527","1617938","0.0-527.0","3ayv79za","","","","","","","",""
"null","","","html-keyboard-response","528","1619440","0.0-528.0","3ayv79za","","<span style=""color:Black; font-size:50px;"">Agent A","null","","","","",""
"null","","","video-keyboard-response","529","1622551","0.0-529.0","3ayv79za","","","null","","Agent A","scrambled","STIM_SET_5/1592921.bmp_pp69_L3_V1.0_veridical_freeview_isoTrue_Hflip_fps144.mp4",""
"null","","","html-keyboard-response","530","1624058","0.0-530.0","3ayv79za","","<span style=""color:Black; font-size:50px;"">Agent B","null","","","","",""
"null","","","video-keyboard-response","531","1627136","0.0-531.0","3ayv79za","","","null","","Agent B","veridical","STIM_SET_2_144/1592921.bmp_pp69_L3_V1.0_veridical_freeview_isoTrue_fps144.mp4",""
"","","","call-function","532","1627137","0.0-532.0","3ayv79za","","","","","","","",""
"2962.75","{""judgement"":0}","[0]","survey-likert","533","1630100","0.0-533.0","3ayv79za","","","","","","","","1"
"2821.905000000028","{""confidence"":2}","[0]","survey-likert","534","1632923","0.0-534.0","3ayv79za","","","","","","","",""
"","","","call-function","535","1632924","0.0-535.0","3ayv79za","","","","","","","",""
"null","","","html-keyboard-response","536","1634425","0.0-536.0","3ayv79za","","<span style=""color:Black; font-size:50px;"">Agent A","null","","","","",""
"null","","","video-keyboard-response","537","1637515","0.0-537.0","3ayv79za","","","null","","Agent A","scrambled","STIM_SET_5/713652.bmp_pp89_L1_V1_veridical_freeview_isoTrue_Hflip_fps144.mp4",""
"null","","","html-keyboard-response","538","1639018","0.0-538.0","3ayv79za","","<span style=""color:Black; font-size:50px;"">Agent B","null","","","","",""
"null","","","video-keyboard-response","539","1642081","0.0-539.0","3ayv79za","","","null","","Agent B","veridical","STIM_SET_2_144/713652.bmp_pp89_L1_V1_veridical_freeview_isoTrue_fps144.mp4",""
"","","","call-function","540","1642081","0.0-540.0","3ayv79za","","","","","","","",""
"7492.264999999898","{""judgement"":1}","[0]","survey-likert","541","1649575","0.0-541.0","3ayv79za","","","","","","","","1"
"7113.770000000019","{""confidence"":0}","[0]","survey-likert","542","1656689","0.0-542.0","3ayv79za","","","","","","","",""
"","","","call-function","543","1656690","0.0-543.0","3ayv79za","","","","","","","",""
"null","","","html-keyboard-response","544","1658192","0.0-544.0","3ayv79za","","<span style=""color:Black; font-size:50px;"">Agent A","null","","","","",""
"null","","","video-keyboard-response","545","1661289","0.0-545.0","3ayv79za","","","null","","Agent A","scrambled","STIM_SET_5/1592038.bmp_pp79_L2_V1.0_veridical_freeview_isoTrue_Hflip_fps144.mp4",""
"null","","","html-keyboard-response","546","1662794","0.0-546.0","3ayv79za","","<span style=""color:Black; font-size:50px;"">Agent B","null","","","","",""
"null","","","video-keyboard-response","547","1665882","0.0-547.0","3ayv79za","","","null","","Agent B","veridical","STIM_SET_2_144/1592038.bmp_pp79_L2_V1.0_veridical_freeview_isoTrue_fps144.mp4",""
"","","","call-function","548","1665883","0.0-548.0","3ayv79za","","","","","","","",""
"1681.3950000000186","{""judgement"":0}","[0]","survey-likert","549","1667565","0.0-549.0","3ayv79za","","","","","","","","1"
"2207.4799999999814","{""confidence"":3}","[0]","survey-likert","550","1669774","0.0-550.0","3ayv79za","","","","","","","",""
"","","","call-function","551","1669775","0.0-551.0","3ayv79za","","","","","","","",""
"null","","","html-keyboard-response","552","1671277","0.0-552.0","3ayv79za","","<span style=""color:Black; font-size:50px;"">Agent A","null","","","","",""
"null","","","video-keyboard-response","553","1674368","0.0-553.0","3ayv79za","","","null","","Agent A","scrambled","STIM_SET_5/1159874.bmp_pp96_L2_V1.0_veridical_freeview_isoTrue_Hflip_fps144.mp4",""
"null","","","html-keyboard-response","554","1675872","0.0-554.0","3ayv79za","","<span style=""color:Black; font-size:50px;"">Agent B","null","","","","",""
"null","","","video-keyboard-response","555","1678957","0.0-555.0","3ayv79za","","","null","","Agent B","veridical","STIM_SET_2_144/1159874.bmp_pp96_L2_V1.0_veridical_freeview_isoTrue_fps144.mp4",""
"","","","call-function","556","1678957","0.0-556.0","3ayv79za","","","","","","","",""
"2810.4250000000466","{""judgement"":1}","[0]","survey-likert","557","1681768","0.0-557.0","3ayv79za","","","","","","","","1"
"4348.415000000037","{""confidence"":2}","[0]","survey-likert","558","1686118","0.0-558.0","3ayv79za","","","","","","","",""
"","","","call-function","559","1686120","0.0-559.0","3ayv79za","","","","","","","",""
"null","","","html-keyboard-response","560","1687624","0.0-560.0","3ayv79za","","<span style=""color:Black; font-size:50px;"">Agent A","null","","","","",""
"null","","","video-keyboard-response","561","1690712","0.0-561.0","3ayv79za","","","null","","Agent A","veridical","STIM_SET_2_144/1592044.bmp_pp94_L2_V1.0_veridical_freeview_isoTrue_fps144.mp4",""
"null","","","html-keyboard-response","562","1692215","0.0-562.0","3ayv79za","","<span style=""color:Black; font-size:50px;"">Agent B","null","","","","",""
"null","","","video-keyboard-response","563","1695294","0.0-563.0","3ayv79za","","","null","","Agent B","scrambled","STIM_SET_5/1592044.bmp_pp94_L2_V1.0_veridical_freeview_isoTrue_Hflip_fps144.mp4",""
"","","","call-function","564","1695296","0.0-564.0","3ayv79za","","","","","","","",""
"6767.604999999981","{""judgement"":1}","[0]","survey-likert","565","1702065","0.0-565.0","3ayv79za","","","","","","","","0"
"1624.2749999999069","{""confidence"":0}","[0]","survey-likert","566","1703691","0.0-566.0","3ayv79za","","","","","","","",""
"","","","call-function","567","1703691","0.0-567.0","3ayv79za","","","","","","","",""
"null","","","html-keyboard-response","568","1705193","0.0-568.0","3ayv79za","","<span style=""color:Black; font-size:50px;"">Agent A","null","","","","",""
"null","","","video-keyboard-response","569","1708262","0.0-569.0","3ayv79za","","","null","","Agent A","veridical","STIM_SET_2_144/1159819.bmp_pp151_L1_V1.0_veridical_freeview_isoTrue_fps144.mp4",""
"null","","","html-keyboard-response","570","1709768","0.0-570.0","3ayv79za","","<span style=""color:Black; font-size:50px;"">Agent B","null","","","","",""
"null","","","video-keyboard-response","571","1712837","0.0-571.0","3ayv79za","","","null","","Agent B","scrambled","STIM_SET_5/1159819.bmp_pp151_L1_V1.0_veridical_freeview_isoTrue_Hflip_fps144.mp4",""
"","","","call-function","572","1712837","0.0-572.0","3ayv79za","","","","","","","",""
"1841.6399999998976","{""judgement"":0}","[0]","survey-likert","573","1714680","0.0-573.0","3ayv79za","","","","","","","","0"
"1640.095000000205","{""confidence"":2}","[0]","survey-likert","574","1716322","0.0-574.0","3ayv79za","","","","","","","",""
"","","","call-function","575","1716322","0.0-575.0","3ayv79za","","","","","","","",""
"null","","","html-keyboard-response","576","1717824","0.0-576.0","3ayv79za","","<span style=""color:Black; font-size:50px;"">Agent A","null","","","","",""
"null","","","video-keyboard-response","577","1720884","0.0-577.0","3ayv79za","","","null","","Agent A","veridical","STIM_SET_2_144/286034.bmp_pp69_L3_V1.0_veridical_freeview_isoTrue_fps144.mp4",""
"null","","","html-keyboard-response","578","1722386","0.0-578.0","3ayv79za","","<span style=""color:Black; font-size:50px;"">Agent B","null","","","","",""
"null","","","video-keyboard-response","579","1725475","0.0-579.0","3ayv79za","","","null","","Agent B","scrambled","STIM_SET_5/286034.bmp_pp69_L3_V1.0_veridical_freeview_isoTrue_Hflip_fps144.mp4",""
"","","","call-function","580","1725475","0.0-580.0","3ayv79za","","","","","","","",""
"1925.9350000000559","{""judgement"":0}","[0]","survey-likert","581","1727402","0.0-581.0","3ayv79za","","","","","","","","0"
"1367.4499999999534","{""confidence"":1}","[0]","survey-likert","582","1728771","0.0-582.0","3ayv79za","","","","","","","",""
"3199.529999999795","","","instructions","583","1731971","0.0-583.0","3ayv79za","[{""page_index"":0,""viewing_time"":3199.3950000000186}]","","","","","","",""
"4830.120000000112","","","instructions","584","1736801","0.0-584.0","3ayv79za","[{""page_index"":0,""viewing_time"":4829.885000000009}]","","","","","","",""
"9481.074999999953","{""post-1"":1}","[0]","survey-likert","585","1746283","0.0-585.0","3ayv79za","","","","","","","",""
"7657.195000000065","{""post-1"":1}","[0]","survey-likert","586","1753942","0.0-586.0","3ayv79za","","","","","","","",""
"12403.294999999925","{""post-2"":2}","[0]","survey-likert","587","1766346","0.0-587.0","3ayv79za","","","","","","","",""
"4307.540000000037","{""post-2"":1}","[0]","survey-likert","588","1770655","0.0-588.0","3ayv79za","","","","","","","",""
"7015.125","{""post-3"":1}","[0]","survey-likert","589","1777672","0.0-589.0","3ayv79za","","","","","","","",""
"3182.9549999998417","{""post-3"":1}","[0]","survey-likert","590","1780857","0.0-590.0","3ayv79za","","","","","","","",""
"10197.01000000001","{""post-4"":0}","[0]","survey-likert","591","1791056","0.0-591.0","3ayv79za","","","","","","","",""
"1837.5550000001676","{""post-4"":0}","[0]","survey-likert","592","1792895","0.0-592.0","3ayv79za","","","","","","","",""
"6861.4199999999255","{""post-5"":1}","[0]","survey-likert","593","1799758","0.0-593.0","3ayv79za","","","","","","","",""
"1751.8349999999627","{""post-5"":1}","[0]","survey-likert","594","1801511","0.0-594.0","3ayv79za","","","","","","","",""
"63562.909999999916","{""Q0"":""I felt that a lot of the tests were the same between agent 1 and 2, they were just mirrored or very similar so it was hard for me to tell them apart. Also without a picture to look at, it was hard for me to visualize what a proper human pattern should be with regards to viewing an image.""}","","survey-text","595","1865079","0.0-595.0","3ayv79za","","","","","","","",""
"36336.20499999984","{""Q0"":""I tried to envision that I was looking at an image and traced the outline of the viewing pattern and seeing if it made sense to me in any way.""}","","survey-text","596","1901420","0.0-596.0","3ayv79za","","","","","","","",""
"48467.80000000005","{""Q0"":""Telling Agent 1 and 2 apart from each other most of the time and trying to understand why both agents sometimes would spontaneously look at the other side of the screen/image out of nowhere and then come back.""}","","survey-text","597","1949892","0.0-597.0","3ayv79za","","","","","","","",""
"2273.814999999944","","","instructions","598","1952166","0.0-598.0","3ayv79za","[{""page_index"":0,""viewing_time"":2273.679999999935}]","","","","","","",""
"79210.33999999985","{""Experimenter_end"":[""Printed ID# 3ayv79za on consent form"",""Given subject SONA credit or payment"",""Given the subject debrief form""]}","[0]","survey-multi-select","599","2031379","0.0-599.0","3ayv79za","","","","","","","",""
