"rt","responses","question_order","trial_type","trial_index","time_elapsed","internal_node_id","ID","view_history","stimulus","key_press","value","agent","condition","image","correct_answer"
"62285.225","{""Experimenter"":[""Confirmed subject's identity (ID card)"",""Confirmed normal or corrected-to-normal vision"",""Obtained consent (signature and date)"",""Checked the test room lighting"",""Checked computer screen lighting"",""Checked distance from screen to chin rest (50cm)"",""Cleaned and adjusted chin rest"",""Counterbalanced the order of the tasks"",""Opened the experiment in Firefox"",""Made the experiment full screen"",""Encouraged subject to silence phone, put away distractors, etc.""]}","[0]","survey-multi-select","0","62294","0.0-0.0","3gprrsje","","","","","","","",""
"64465.94500000001","","","instructions","1","126762","0.0-1.0","3gprrsje","[{""page_index"":0,""viewing_time"":64465.795}]","","","","","","",""
"16709.630000000005","","","instructions","2","143473","0.0-2.0","3gprrsje","[{""page_index"":0,""viewing_time"":1872.9100000000035},{""page_index"":1,""viewing_time"":5853.654999999999},{""page_index"":2,""viewing_time"":8982.940000000002}]","","","","","","",""
"3462.695000000007","","","instructions","3","146936","0.0-3.0","3gprrsje","[{""page_index"":0,""viewing_time"":3462.5800000000163}]","","","","","","",""
"null","","","video-keyboard-response","4","150011","0.0-4.0","3gprrsje","","","null","","","","",""
"26750.464999999997","","","instructions","5","176762","0.0-5.0","3gprrsje","[{""page_index"":0,""viewing_time"":7357.649999999994},{""page_index"":1,""viewing_time"":6394.0199999999895},{""page_index"":2,""viewing_time"":1027.6050000000105},{""page_index"":3,""viewing_time"":3520.024999999994},{""page_index"":4,""viewing_time"":8451.040000000008}]","","","","","","",""
"5161.470000000001","","","instructions","6","181924","0.0-6.0","3gprrsje","[{""page_index"":0,""viewing_time"":5161.345000000001}]","","","","","","",""
"","","","call-function","7","181925","0.0-7.0","3gprrsje","","","","","","","",""
"null","","","html-keyboard-response","8","183427","0.0-8.0","3gprrsje","","<span style=""color:Black; font-size:50px;"">Agent A","null","","","","",""
"null","","","video-keyboard-response","9","186508","0.0-9.0","3gprrsje","","","null","","Agent A","veridical","STIM_SET_1/498175.bmp_pp154_L1_V1.0_veridical_freeview_isoFalse.mp4",""
"null","","","html-keyboard-response","10","188012","0.0-10.0","3gprrsje","","<span style=""color:Black; font-size:50px;"">Agent B","null","","","","",""
"null","","","video-keyboard-response","11","191091","0.0-11.0","3gprrsje","","","null","","Agent B","scrambled","STIM_SET_1/498175.bmp_pp154_L1_V1.0_scrambled_freeview_isoFalse.mp4",""
"","","","call-function","12","191092","0.0-12.0","3gprrsje","","","","","","","",""
"5574.390000000014","{""judgement"":1}","[0]","survey-likert","13","196668","0.0-13.0","3gprrsje","","","","","","","","0"
"4954.720000000001","{""confidence"":0}","[0]","survey-likert","14","201624","0.0-14.0","3gprrsje","","","","","","","",""
"","","","call-function","15","201624","0.0-15.0","3gprrsje","","","","","","","",""
"null","","","html-keyboard-response","16","203126","0.0-16.0","3gprrsje","","<span style=""color:Black; font-size:50px;"">Agent A","null","","","","",""
"null","","","video-keyboard-response","17","206200","0.0-17.0","3gprrsje","","","null","","Agent A","scrambled","STIM_SET_1/713513.bmp_pp62_L2_V1.0_scrambled_freeview_isoFalse.mp4",""
"null","","","html-keyboard-response","18","207701","0.0-18.0","3gprrsje","","<span style=""color:Black; font-size:50px;"">Agent B","null","","","","",""
"null","","","video-keyboard-response","19","210813","0.0-19.0","3gprrsje","","","null","","Agent B","veridical","STIM_SET_1/713513.bmp_pp62_L2_V1.0_veridical_freeview_isoFalse.mp4",""
"","","","call-function","20","210814","0.0-20.0","3gprrsje","","","","","","","",""
"2392.2299999999814","{""judgement"":1}","[0]","survey-likert","21","213208","0.0-21.0","3gprrsje","","","","","","","","1"
"2606.2550000000047","{""confidence"":3}","[0]","survey-likert","22","215815","0.0-22.0","3gprrsje","","","","","","","",""
"","","","call-function","23","215816","0.0-23.0","3gprrsje","","","","","","","",""
"null","","","html-keyboard-response","24","217319","0.0-24.0","3gprrsje","","<span style=""color:Black; font-size:50px;"">Agent A","null","","","","",""
"null","","","video-keyboard-response","25","220387","0.0-25.0","3gprrsje","","","null","","Agent A","scrambled","STIM_SET_1/1592817.bmp_pp55_L3_V1.0_scrambled_freeview_isoFalse.mp4",""
"null","","","html-keyboard-response","26","221889","0.0-26.0","3gprrsje","","<span style=""color:Black; font-size:50px;"">Agent B","null","","","","",""
"null","","","video-keyboard-response","27","224955","0.0-27.0","3gprrsje","","","null","","Agent B","veridical","STIM_SET_1/1592817.bmp_pp55_L3_V1.0_veridical_freeview_isoFalse.mp4",""
"","","","call-function","28","224956","0.0-28.0","3gprrsje","","","","","","","",""
"2228.154999999999","{""judgement"":1}","[0]","survey-likert","29","227185","0.0-29.0","3gprrsje","","","","","","","","1"
"1151.25","{""confidence"":3}","[0]","survey-likert","30","228338","0.0-30.0","3gprrsje","","","","","","","",""
"","","","call-function","31","228339","0.0-31.0","3gprrsje","","","","","","","",""
"null","","","html-keyboard-response","32","229846","0.0-32.0","3gprrsje","","<span style=""color:Black; font-size:50px;"">Agent A","null","","","","",""
"null","","","video-keyboard-response","33","232919","0.0-33.0","3gprrsje","","","null","","Agent A","scrambled","STIM_SET_1/285905.bmp_pp57_L1_V1.0_scrambled_freeview_isoFalse.mp4",""
"null","","","html-keyboard-response","34","234423","0.0-34.0","3gprrsje","","<span style=""color:Black; font-size:50px;"">Agent B","null","","","","",""
"null","","","video-keyboard-response","35","237498","0.0-35.0","3gprrsje","","","null","","Agent B","veridical","STIM_SET_1/285905.bmp_pp57_L1_V1.0_veridical_freeview_isoFalse.mp4",""
"","","","call-function","36","237500","0.0-36.0","3gprrsje","","","","","","","",""
"2890.375","{""judgement"":0}","[0]","survey-likert","37","240391","0.0-37.0","3gprrsje","","","","","","","","1"
"1739.125","{""confidence"":0}","[0]","survey-likert","38","242132","0.0-38.0","3gprrsje","","","","","","","",""
"","","","call-function","39","242133","0.0-39.0","3gprrsje","","","","","","","",""
"null","","","html-keyboard-response","40","243636","0.0-40.0","3gprrsje","","<span style=""color:Black; font-size:50px;"">Agent A","null","","","","",""
"null","","","video-keyboard-response","41","246711","0.0-41.0","3gprrsje","","","null","","Agent A","veridical","STIM_SET_1/713593.bmp_pp64_L1_V1.0_veridical_freeview_isoFalse.mp4",""
"null","","","html-keyboard-response","42","248216","0.0-42.0","3gprrsje","","<span style=""color:Black; font-size:50px;"">Agent B","null","","","","",""
"null","","","video-keyboard-response","43","251294","0.0-43.0","3gprrsje","","","null","","Agent B","scrambled","STIM_SET_1/713593.bmp_pp64_L1_V1.0_scrambled_freeview_isoFalse.mp4",""
"","","","call-function","44","251294","0.0-44.0","3gprrsje","","","","","","","",""
"1860.2699999999895","{""judgement"":0}","[0]","survey-likert","45","253155","0.0-45.0","3gprrsje","","","","","","","","0"
"3924.790000000008","{""confidence"":3}","[0]","survey-likert","46","257081","0.0-46.0","3gprrsje","","","","","","","",""
"","","","call-function","47","257082","0.0-47.0","3gprrsje","","","","","","","",""
"null","","","html-keyboard-response","48","258583","0.0-48.0","3gprrsje","","<span style=""color:Black; font-size:50px;"">Agent A","null","","","","",""
"null","","","video-keyboard-response","49","261699","0.0-49.0","3gprrsje","","","null","","Agent A","veridical","STIM_SET_1/498155.bmp_pp61_L2_V1.0_veridical_freeview_isoFalse.mp4",""
"null","","","html-keyboard-response","50","263202","0.0-50.0","3gprrsje","","<span style=""color:Black; font-size:50px;"">Agent B","null","","","","",""
"null","","","video-keyboard-response","51","266323","0.0-51.0","3gprrsje","","","null","","Agent B","scrambled","STIM_SET_1/498155.bmp_pp61_L2_V1.0_scrambled_freeview_isoFalse.mp4",""
"","","","call-function","52","266323","0.0-52.0","3gprrsje","","","","","","","",""
"2660.1199999999953","{""judgement"":0}","[0]","survey-likert","53","268984","0.0-53.0","3gprrsje","","","","","","","","0"
"1035.8649999999907","{""confidence"":2}","[0]","survey-likert","54","270021","0.0-54.0","3gprrsje","","","","","","","",""
"","","","call-function","55","270022","0.0-55.0","3gprrsje","","","","","","","",""
"null","","","html-keyboard-response","56","271527","0.0-56.0","3gprrsje","","<span style=""color:Black; font-size:50px;"">Agent A","null","","","","",""
"null","","","video-keyboard-response","57","274642","0.0-57.0","3gprrsje","","","null","","Agent A","scrambled","STIM_SET_1/61537.bmp_pp73_L3_V1.0_scrambled_freeview_isoFalse.mp4",""
"null","","","html-keyboard-response","58","276147","0.0-58.0","3gprrsje","","<span style=""color:Black; font-size:50px;"">Agent B","null","","","","",""
"null","","","video-keyboard-response","59","279260","0.0-59.0","3gprrsje","","","null","","Agent B","veridical","STIM_SET_1/61537.bmp_pp73_L3_V1.0_veridical_freeview_isoFalse.mp4",""
"","","","call-function","60","279260","0.0-60.0","3gprrsje","","","","","","","",""
"2193.4749999999767","{""judgement"":1}","[0]","survey-likert","61","281454","0.0-61.0","3gprrsje","","","","","","","","1"
"3429.679999999993","{""confidence"":2}","[0]","survey-likert","62","284885","0.0-62.0","3gprrsje","","","","","","","",""
"","","","call-function","63","284886","0.0-63.0","3gprrsje","","","","","","","",""
"null","","","html-keyboard-response","64","286390","0.0-64.0","3gprrsje","","<span style=""color:Black; font-size:50px;"">Agent A","null","","","","",""
"null","","","video-keyboard-response","65","289507","0.0-65.0","3gprrsje","","","null","","Agent A","scrambled","STIM_SET_1/1159784.bmp_pp73_L3_V1.0_scrambled_freeview_isoFalse.mp4",""
"null","","","html-keyboard-response","66","291011","0.0-66.0","3gprrsje","","<span style=""color:Black; font-size:50px;"">Agent B","null","","","","",""
"null","","","video-keyboard-response","67","294127","0.0-67.0","3gprrsje","","","null","","Agent B","veridical","STIM_SET_1/1159784.bmp_pp73_L3_V1.0_veridical_freeview_isoFalse.mp4",""
"","","","call-function","68","294128","0.0-68.0","3gprrsje","","","","","","","",""
"3742.1350000000093","{""judgement"":1}","[0]","survey-likert","69","297871","0.0-69.0","3gprrsje","","","","","","","","1"
"2633.414999999979","{""confidence"":1}","[0]","survey-likert","70","300506","0.0-70.0","3gprrsje","","","","","","","",""
"","","","call-function","71","300506","0.0-71.0","3gprrsje","","","","","","","",""
"null","","","html-keyboard-response","72","302012","0.0-72.0","3gprrsje","","<span style=""color:Black; font-size:50px;"">Agent A","null","","","","",""
"null","","","video-keyboard-response","73","305090","0.0-73.0","3gprrsje","","","null","","Agent A","scrambled","STIM_SET_1/498253.bmp_pp67_L2_V1.0_scrambled_freeview_isoFalse.mp4",""
"null","","","html-keyboard-response","74","306592","0.0-74.0","3gprrsje","","<span style=""color:Black; font-size:50px;"">Agent B","null","","","","",""
"null","","","video-keyboard-response","75","309669","0.0-75.0","3gprrsje","","","null","","Agent B","veridical","STIM_SET_1/498253.bmp_pp67_L2_V1.0_veridical_freeview_isoFalse.mp4",""
"","","","call-function","76","309669","0.0-76.0","3gprrsje","","","","","","","",""
"3308.5100000000093","{""judgement"":1}","[0]","survey-likert","77","312979","0.0-77.0","3gprrsje","","","","","","","","1"
"9233.795000000042","{""confidence"":1}","[0]","survey-likert","78","322214","0.0-78.0","3gprrsje","","","","","","","",""
"","","","call-function","79","322214","0.0-79.0","3gprrsje","","","","","","","",""
"null","","","html-keyboard-response","80","323717","0.0-80.0","3gprrsje","","<span style=""color:Black; font-size:50px;"">Agent A","null","","","","",""
"null","","","video-keyboard-response","81","326786","0.0-81.0","3gprrsje","","","null","","Agent A","veridical","STIM_SET_1/285994.bmp_pp92_L3_V1.0_veridical_freeview_isoFalse.mp4",""
"null","","","html-keyboard-response","82","328292","0.0-82.0","3gprrsje","","<span style=""color:Black; font-size:50px;"">Agent B","null","","","","",""
"null","","","video-keyboard-response","83","331362","0.0-83.0","3gprrsje","","","null","","Agent B","scrambled","STIM_SET_1/285994.bmp_pp92_L3_V1.0_scrambled_freeview_isoFalse.mp4",""
"","","","call-function","84","331363","0.0-84.0","3gprrsje","","","","","","","",""
"1852.4550000000163","{""judgement"":0}","[0]","survey-likert","85","333217","0.0-85.0","3gprrsje","","","","","","","","0"
"2843.8250000000116","{""confidence"":3}","[0]","survey-likert","86","336062","0.0-86.0","3gprrsje","","","","","","","",""
"37921.92499999999","","","instructions","87","373985","0.0-87.0","3gprrsje","[{""page_index"":0,""viewing_time"":3858.710000000021},{""page_index"":1,""viewing_time"":30968.79999999999},{""page_index"":2,""viewing_time"":3094.1900000000023}]","","","","","","",""
"6513.5","","","instructions","88","380500","0.0-88.0","3gprrsje","[{""page_index"":0,""viewing_time"":817.2999999999884},{""page_index"":1,""viewing_time"":4411.030000000028},{""page_index"":2,""viewing_time"":1285.0650000000023}]","","","","","","",""
"","","","call-function","89","380501","0.0-89.0","3gprrsje","","","","","","","",""
"null","","","html-keyboard-response","90","382003","0.0-90.0","3gprrsje","","<span style=""color:Black; font-size:50px;"">Agent A","null","","","","",""
"null","","","video-keyboard-response","91","385069","0.0-91.0","3gprrsje","","","null","","Agent A","veridical","STIM_SET_1/713135.bmp_pp54_L2_V1.0_veridical_freeview_isoFalse.mp4",""
"null","","","html-keyboard-response","92","386573","0.0-92.0","3gprrsje","","<span style=""color:Black; font-size:50px;"">Agent B","null","","","","",""
"null","","","video-keyboard-response","93","389646","0.0-93.0","3gprrsje","","","null","","Agent B","scrambled","STIM_SET_1/713135.bmp_pp54_L2_V1.0_scrambled_freeview_isoFalse.mp4",""
"","","","call-function","94","389647","0.0-94.0","3gprrsje","","","","","","","",""
"2293.4400000000023","{""judgement"":0}","[0]","survey-likert","95","391941","0.0-95.0","3gprrsje","","","","","","","","0"
"1174.2849999999744","{""confidence"":2}","[0]","survey-likert","96","393117","0.0-96.0","3gprrsje","","","","","","","",""
"","","","call-function","97","393118","0.0-97.0","3gprrsje","","","","","","","",""
"null","","","html-keyboard-response","98","394622","0.0-98.0","3gprrsje","","<span style=""color:Black; font-size:50px;"">Agent A","null","","","","",""
"null","","","video-keyboard-response","99","397696","0.0-99.0","3gprrsje","","","null","","Agent A","veridical","STIM_SET_1/1592286.bmp_pp52_L1_V1.0_veridical_freeview_isoFalse.mp4",""
"null","","","html-keyboard-response","100","399200","0.0-100.0","3gprrsje","","<span style=""color:Black; font-size:50px;"">Agent B","null","","","","",""
"null","","","video-keyboard-response","101","402272","0.0-101.0","3gprrsje","","","null","","Agent B","scrambled","STIM_SET_1/1592286.bmp_pp52_L1_V1.0_scrambled_freeview_isoFalse.mp4",""
"","","","call-function","102","402273","0.0-102.0","3gprrsje","","","","","","","",""
"4376.574999999953","{""judgement"":0}","[0]","survey-likert","103","406650","0.0-103.0","3gprrsje","","","","","","","","0"
"1749.2050000000163","{""confidence"":0}","[0]","survey-likert","104","408401","0.0-104.0","3gprrsje","","","","","","","",""
"","","","call-function","105","408401","0.0-105.0","3gprrsje","","","","","","","",""
"null","","","html-keyboard-response","106","409906","0.0-106.0","3gprrsje","","<span style=""color:Black; font-size:50px;"">Agent A","null","","","","",""
"null","","","video-keyboard-response","107","412980","0.0-107.0","3gprrsje","","","null","","Agent A","veridical","STIM_SET_1/713681.bmp_pp86_L2_V1.0_veridical_freeview_isoFalse.mp4",""
"null","","","html-keyboard-response","108","414484","0.0-108.0","3gprrsje","","<span style=""color:Black; font-size:50px;"">Agent B","null","","","","",""
"null","","","video-keyboard-response","109","417556","0.0-109.0","3gprrsje","","","null","","Agent B","scrambled","STIM_SET_1/713681.bmp_pp86_L2_V1.0_scrambled_freeview_isoFalse.mp4",""
"","","","call-function","110","417557","0.0-110.0","3gprrsje","","","","","","","",""
"1288.7949999999837","{""judgement"":1}","[0]","survey-likert","111","418846","0.0-111.0","3gprrsje","","","","","","","","0"
"2289.960000000021","{""confidence"":3}","[0]","survey-likert","112","421137","0.0-112.0","3gprrsje","","","","","","","",""
"","","","call-function","113","421138","0.0-113.0","3gprrsje","","","","","","","",""
"null","","","html-keyboard-response","114","422639","0.0-114.0","3gprrsje","","<span style=""color:Black; font-size:50px;"">Agent A","null","","","","",""
"null","","","video-keyboard-response","115","425739","0.0-115.0","3gprrsje","","","null","","Agent A","scrambled","STIM_SET_1/1592727.bmp_pp59_L3_V1.0_scrambled_freeview_isoFalse.mp4",""
"null","","","html-keyboard-response","116","427246","0.0-116.0","3gprrsje","","<span style=""color:Black; font-size:50px;"">Agent B","null","","","","",""
"null","","","video-keyboard-response","117","430346","0.0-117.0","3gprrsje","","","null","","Agent B","veridical","STIM_SET_1/1592727.bmp_pp59_L3_V1.0_veridical_freeview_isoFalse.mp4",""
"","","","call-function","118","430347","0.0-118.0","3gprrsje","","","","","","","",""
"2041.594999999972","{""judgement"":1}","[0]","survey-likert","119","432389","0.0-119.0","3gprrsje","","","","","","","","1"
"2015.0049999999464","{""confidence"":3}","[0]","survey-likert","120","434405","0.0-120.0","3gprrsje","","","","","","","",""
"","","","call-function","121","434406","0.0-121.0","3gprrsje","","","","","","","",""
"null","","","html-keyboard-response","122","435909","0.0-122.0","3gprrsje","","<span style=""color:Black; font-size:50px;"">Agent A","null","","","","",""
"null","","","video-keyboard-response","123","438988","0.0-123.0","3gprrsje","","","null","","Agent A","scrambled","STIM_SET_1/1592890.bmp_pp82_L2_V1.0_scrambled_freeview_isoFalse.mp4",""
"null","","","html-keyboard-response","124","440490","0.0-124.0","3gprrsje","","<span style=""color:Black; font-size:50px;"">Agent B","null","","","","",""
"null","","","video-keyboard-response","125","443566","0.0-125.0","3gprrsje","","","null","","Agent B","veridical","STIM_SET_1/1592890.bmp_pp82_L2_V1.0_veridical_freeview_isoFalse.mp4",""
"","","","call-function","126","443567","0.0-126.0","3gprrsje","","","","","","","",""
"1231.0499999999884","{""judgement"":0}","[0]","survey-likert","127","444799","0.0-127.0","3gprrsje","","","","","","","","1"
"1034.8549999999814","{""confidence"":1}","[0]","survey-likert","128","445836","0.0-128.0","3gprrsje","","","","","","","",""
"","","","call-function","129","445836","0.0-129.0","3gprrsje","","","","","","","",""
"null","","","html-keyboard-response","130","447342","0.0-130.0","3gprrsje","","<span style=""color:Black; font-size:50px;"">Agent A","null","","","","",""
"null","","","video-keyboard-response","131","450421","0.0-131.0","3gprrsje","","","null","","Agent A","scrambled","STIM_SET_1/713371.bmp_pp68_L1_V1.0_scrambled_freeview_isoFalse.mp4",""
"null","","","html-keyboard-response","132","451923","0.0-132.0","3gprrsje","","<span style=""color:Black; font-size:50px;"">Agent B","null","","","","",""
"null","","","video-keyboard-response","133","455002","0.0-133.0","3gprrsje","","","null","","Agent B","veridical","STIM_SET_1/713371.bmp_pp68_L1_V1.0_veridical_freeview_isoFalse.mp4",""
"","","","call-function","134","455002","0.0-134.0","3gprrsje","","","","","","","",""
"2388.0499999999884","{""judgement"":0}","[0]","survey-likert","135","457391","0.0-135.0","3gprrsje","","","","","","","","1"
"1282.9249999999884","{""confidence"":2}","[0]","survey-likert","136","458675","0.0-136.0","3gprrsje","","","","","","","",""
"","","","call-function","137","458676","0.0-137.0","3gprrsje","","","","","","","",""
"null","","","html-keyboard-response","138","460181","0.0-138.0","3gprrsje","","<span style=""color:Black; font-size:50px;"">Agent A","null","","","","",""
"null","","","video-keyboard-response","139","463251","0.0-139.0","3gprrsje","","","null","","Agent A","veridical","STIM_SET_1/713089.bmp_pp60_L3_V1.0_veridical_freeview_isoFalse.mp4",""
"null","","","html-keyboard-response","140","464757","0.0-140.0","3gprrsje","","<span style=""color:Black; font-size:50px;"">Agent B","null","","","","",""
"null","","","video-keyboard-response","141","467826","0.0-141.0","3gprrsje","","","null","","Agent B","scrambled","STIM_SET_1/713089.bmp_pp60_L3_V1.0_scrambled_freeview_isoFalse.mp4",""
"","","","call-function","142","467826","0.0-142.0","3gprrsje","","","","","","","",""
"2264.1350000000093","{""judgement"":0}","[0]","survey-likert","143","470092","0.0-143.0","3gprrsje","","","","","","","","0"
"1011.5750000000116","{""confidence"":3}","[0]","survey-likert","144","471104","0.0-144.0","3gprrsje","","","","","","","",""
"","","","call-function","145","471105","0.0-145.0","3gprrsje","","","","","","","",""
"null","","","html-keyboard-response","146","472611","0.0-146.0","3gprrsje","","<span style=""color:Black; font-size:50px;"">Agent A","null","","","","",""
"null","","","video-keyboard-response","147","475716","0.0-147.0","3gprrsje","","","null","","Agent A","veridical","STIM_SET_1/1159446.bmp_pp60_L3_V1.0_veridical_freeview_isoFalse.mp4",""
"null","","","html-keyboard-response","148","477222","0.0-148.0","3gprrsje","","<span style=""color:Black; font-size:50px;"">Agent B","null","","","","",""
"null","","","video-keyboard-response","149","480325","0.0-149.0","3gprrsje","","","null","","Agent B","scrambled","STIM_SET_1/1159446.bmp_pp60_L3_V1.0_scrambled_freeview_isoFalse.mp4",""
"","","","call-function","150","480327","0.0-150.0","3gprrsje","","","","","","","",""
"2634.3649999999907","{""judgement"":0}","[0]","survey-likert","151","482962","0.0-151.0","3gprrsje","","","","","","","","0"
"2386.960000000021","{""confidence"":1}","[0]","survey-likert","152","485350","0.0-152.0","3gprrsje","","","","","","","",""
"","","","call-function","153","485351","0.0-153.0","3gprrsje","","","","","","","",""
"null","","","html-keyboard-response","154","486854","0.0-154.0","3gprrsje","","<span style=""color:Black; font-size:50px;"">Agent A","null","","","","",""
"null","","","video-keyboard-response","155","489983","0.0-155.0","3gprrsje","","","null","","Agent A","veridical","STIM_SET_1/1591954.bmp_pp62_L2_V1.0_veridical_freeview_isoFalse.mp4",""
"null","","","html-keyboard-response","156","491486","0.0-156.0","3gprrsje","","<span style=""color:Black; font-size:50px;"">Agent B","null","","","","",""
"null","","","video-keyboard-response","157","494612","0.0-157.0","3gprrsje","","","null","","Agent B","scrambled","STIM_SET_1/1591954.bmp_pp62_L2_V1.0_scrambled_freeview_isoFalse.mp4",""
"","","","call-function","158","494614","0.0-158.0","3gprrsje","","","","","","","",""
"4520.494999999995","{""judgement"":0}","[0]","survey-likert","159","499136","0.0-159.0","3gprrsje","","","","","","","","0"
"1719.359999999986","{""confidence"":2}","[0]","survey-likert","160","500857","0.0-160.0","3gprrsje","","","","","","","",""
"","","","call-function","161","500858","0.0-161.0","3gprrsje","","","","","","","",""
"null","","","html-keyboard-response","162","502361","0.0-162.0","3gprrsje","","<span style=""color:Black; font-size:50px;"">Agent A","null","","","","",""
"null","","","video-keyboard-response","163","505433","0.0-163.0","3gprrsje","","","null","","Agent A","veridical","STIM_SET_1/1593041.bmp_pp58_L1_V1.0_veridical_freeview_isoFalse.mp4",""
"null","","","html-keyboard-response","164","506937","0.0-164.0","3gprrsje","","<span style=""color:Black; font-size:50px;"">Agent B","null","","","","",""
"null","","","video-keyboard-response","165","510015","0.0-165.0","3gprrsje","","","null","","Agent B","scrambled","STIM_SET_1/1593041.bmp_pp58_L1_V1.0_scrambled_freeview_isoFalse.mp4",""
"","","","call-function","166","510016","0.0-166.0","3gprrsje","","","","","","","",""
"8653.755000000005","{""judgement"":1}","[0]","survey-likert","167","518671","0.0-167.0","3gprrsje","","","","","","","","0"
"1397.835000000021","{""confidence"":0}","[0]","survey-likert","168","520070","0.0-168.0","3gprrsje","","","","","","","",""
"11502.775000000023","","","instructions","169","531574","0.0-169.0","3gprrsje","[{""page_index"":0,""viewing_time"":3134.4850000000442},{""page_index"":1,""viewing_time"":6254.119999999937},{""page_index"":2,""viewing_time"":2113.960000000079}]","","","","","","",""
"2345.42499999993","","","instructions","170","533920","0.0-170.0","3gprrsje","[{""page_index"":0,""viewing_time"":651.2749999999069},{""page_index"":1,""viewing_time"":1188.9400000000605},{""page_index"":2,""viewing_time"":505.0999999999767}]","","","","","","",""
"","","","call-function","171","533921","0.0-171.0","3gprrsje","","","","","","","",""
"null","","","html-keyboard-response","172","535428","0.0-172.0","3gprrsje","","<span style=""color:Black; font-size:50px;"">Agent A","null","","","","",""
"null","","","video-keyboard-response","173","538497","0.0-173.0","3gprrsje","","","null","","Agent A","scrambled","STIM_SET_1/1159447.bmp_pp70_L2_V1.0_scrambled_freeview_isoFalse.mp4",""
"null","","","html-keyboard-response","174","540002","0.0-174.0","3gprrsje","","<span style=""color:Black; font-size:50px;"">Agent B","null","","","","",""
"null","","","video-keyboard-response","175","543071","0.0-175.0","3gprrsje","","","null","","Agent B","veridical","STIM_SET_1/1159447.bmp_pp70_L2_V1.0_veridical_freeview_isoFalse.mp4",""
"","","","call-function","176","543071","0.0-176.0","3gprrsje","","","","","","","",""
"2001.734999999986","{""judgement"":1}","[0]","survey-likert","177","545074","0.0-177.0","3gprrsje","","","","","","","","1"
"1472.2600000000093","{""confidence"":2}","[0]","survey-likert","178","546548","0.0-178.0","3gprrsje","","","","","","","",""
"","","","call-function","179","546548","0.0-179.0","3gprrsje","","","","","","","",""
"null","","","html-keyboard-response","180","548050","0.0-180.0","3gprrsje","","<span style=""color:Black; font-size:50px;"">Agent A","null","","","","",""
"null","","","video-keyboard-response","181","551150","0.0-181.0","3gprrsje","","","null","","Agent A","veridical","STIM_SET_1/1159813.bmp_pp79_L2_V1.0_veridical_freeview_isoFalse.mp4",""
"null","","","html-keyboard-response","182","552657","0.0-182.0","3gprrsje","","<span style=""color:Black; font-size:50px;"">Agent B","null","","","","",""
"null","","","video-keyboard-response","183","555759","0.0-183.0","3gprrsje","","","null","","Agent B","scrambled","STIM_SET_1/1159813.bmp_pp79_L2_V1.0_scrambled_freeview_isoFalse.mp4",""
"","","","call-function","184","555760","0.0-184.0","3gprrsje","","","","","","","",""
"1542.7300000000978","{""judgement"":0}","[0]","survey-likert","185","557304","0.0-185.0","3gprrsje","","","","","","","","0"
"1640.734999999986","{""confidence"":1}","[0]","survey-likert","186","558946","0.0-186.0","3gprrsje","","","","","","","",""
"","","","call-function","187","558946","0.0-187.0","3gprrsje","","","","","","","",""
"null","","","html-keyboard-response","188","560447","0.0-188.0","3gprrsje","","<span style=""color:Black; font-size:50px;"">Agent A","null","","","","",""
"null","","","video-keyboard-response","189","563559","0.0-189.0","3gprrsje","","","null","","Agent A","veridical","STIM_SET_1/498170.bmp_pp153_L3_V1.0_veridical_freeview_isoFalse.mp4",""
"null","","","html-keyboard-response","190","565060","0.0-190.0","3gprrsje","","<span style=""color:Black; font-size:50px;"">Agent B","null","","","","",""
"null","","","video-keyboard-response","191","568130","0.0-191.0","3gprrsje","","","null","","Agent B","scrambled","STIM_SET_1/498170.bmp_pp153_L3_V1.0_scrambled_freeview_isoFalse.mp4",""
"","","","call-function","192","568131","0.0-192.0","3gprrsje","","","","","","","",""
"1913.0100000000093","{""judgement"":0}","[0]","survey-likert","193","570045","0.0-193.0","3gprrsje","","","","","","","","0"
"1595.015000000014","{""confidence"":1}","[0]","survey-likert","194","571641","0.0-194.0","3gprrsje","","","","","","","",""
"","","","call-function","195","571641","0.0-195.0","3gprrsje","","","","","","","",""
"null","","","html-keyboard-response","196","573146","0.0-196.0","3gprrsje","","<span style=""color:Black; font-size:50px;"">Agent A","null","","","","",""
"null","","","video-keyboard-response","197","576220","0.0-197.0","3gprrsje","","","null","","Agent A","veridical","STIM_SET_1/1592499.bmp_pp96_L2_V1.0_veridical_freeview_isoFalse.mp4",""
"null","","","html-keyboard-response","198","577723","0.0-198.0","3gprrsje","","<span style=""color:Black; font-size:50px;"">Agent B","null","","","","",""
"null","","","video-keyboard-response","199","580800","0.0-199.0","3gprrsje","","","null","","Agent B","scrambled","STIM_SET_1/1592499.bmp_pp96_L2_V1.0_scrambled_freeview_isoFalse.mp4",""
"","","","call-function","200","580800","0.0-200.0","3gprrsje","","","","","","","",""
"1669.640000000014","{""judgement"":0}","[0]","survey-likert","201","582471","0.0-201.0","3gprrsje","","","","","","","","0"
"2936.9799999999814","{""confidence"":0}","[0]","survey-likert","202","585409","0.0-202.0","3gprrsje","","","","","","","",""
"","","","call-function","203","585410","0.0-203.0","3gprrsje","","","","","","","",""
"null","","","html-keyboard-response","204","586912","0.0-204.0","3gprrsje","","<span style=""color:Black; font-size:50px;"">Agent A","null","","","","",""
"null","","","video-keyboard-response","205","589988","0.0-205.0","3gprrsje","","","null","","Agent A","scrambled","STIM_SET_1/1592581.bmp_pp100_L3_V1.0_scrambled_freeview_isoFalse.mp4",""
"null","","","html-keyboard-response","206","591492","0.0-206.0","3gprrsje","","<span style=""color:Black; font-size:50px;"">Agent B","null","","","","",""
"null","","","video-keyboard-response","207","594569","0.0-207.0","3gprrsje","","","null","","Agent B","veridical","STIM_SET_1/1592581.bmp_pp100_L3_V1.0_veridical_freeview_isoFalse.mp4",""
"","","","call-function","208","594570","0.0-208.0","3gprrsje","","","","","","","",""
"2605.890000000014","{""judgement"":1}","[0]","survey-likert","209","597177","0.0-209.0","3gprrsje","","","","","","","","1"
"2636.859999999986","{""confidence"":1}","[0]","survey-likert","210","599815","0.0-210.0","3gprrsje","","","","","","","",""
"","","","call-function","211","599815","0.0-211.0","3gprrsje","","","","","","","",""
"null","","","html-keyboard-response","212","601316","0.0-212.0","3gprrsje","","<span style=""color:Black; font-size:50px;"">Agent A","null","","","","",""
"null","","","video-keyboard-response","213","604389","0.0-213.0","3gprrsje","","","null","","Agent A","veridical","STIM_SET_1/1159515.bmp_pp84_L3_V1.0_veridical_freeview_isoFalse.mp4",""
"null","","","html-keyboard-response","214","605891","0.0-214.0","3gprrsje","","<span style=""color:Black; font-size:50px;"">Agent B","null","","","","",""
"null","","","video-keyboard-response","215","608962","0.0-215.0","3gprrsje","","","null","","Agent B","scrambled","STIM_SET_1/1159515.bmp_pp84_L3_V1.0_scrambled_freeview_isoFalse.mp4",""
"","","","call-function","216","608963","0.0-216.0","3gprrsje","","","","","","","",""
"1873.0100000000093","{""judgement"":0}","[0]","survey-likert","217","610837","0.0-217.0","3gprrsje","","","","","","","","0"
"1342.9250000000466","{""confidence"":2}","[0]","survey-likert","218","612181","0.0-218.0","3gprrsje","","","","","","","",""
"","","","call-function","219","612181","0.0-219.0","3gprrsje","","","","","","","",""
"null","","","html-keyboard-response","220","613682","0.0-220.0","3gprrsje","","<span style=""color:Black; font-size:50px;"">Agent A","null","","","","",""
"null","","","video-keyboard-response","221","616791","0.0-221.0","3gprrsje","","","null","","Agent A","scrambled","STIM_SET_1/713796.bmp_pp84_L3_V1.0_scrambled_freeview_isoFalse.mp4",""
"null","","","html-keyboard-response","222","618298","0.0-222.0","3gprrsje","","<span style=""color:Black; font-size:50px;"">Agent B","null","","","","",""
"null","","","video-keyboard-response","223","621408","0.0-223.0","3gprrsje","","","null","","Agent B","veridical","STIM_SET_1/713796.bmp_pp84_L3_V1.0_veridical_freeview_isoFalse.mp4",""
"","","","call-function","224","621408","0.0-224.0","3gprrsje","","","","","","","",""
"2017.6600000000326","{""judgement"":1}","[0]","survey-likert","225","623427","0.0-225.0","3gprrsje","","","","","","","","1"
"1029.670000000042","{""confidence"":3}","[0]","survey-likert","226","624458","0.0-226.0","3gprrsje","","","","","","","",""
"","","","call-function","227","624458","0.0-227.0","3gprrsje","","","","","","","",""
"null","","","html-keyboard-response","228","625964","0.0-228.0","3gprrsje","","<span style=""color:Black; font-size:50px;"">Agent A","null","","","","",""
"null","","","video-keyboard-response","229","629075","0.0-229.0","3gprrsje","","","null","","Agent A","scrambled","STIM_SET_1/498149.bmp_pp99_L2_V1.0_scrambled_freeview_isoFalse.mp4",""
"null","","","html-keyboard-response","230","630577","0.0-230.0","3gprrsje","","<span style=""color:Black; font-size:50px;"">Agent B","null","","","","",""
"null","","","video-keyboard-response","231","633687","0.0-231.0","3gprrsje","","","null","","Agent B","veridical","STIM_SET_1/498149.bmp_pp99_L2_V1.0_veridical_freeview_isoFalse.mp4",""
"","","","call-function","232","633688","0.0-232.0","3gprrsje","","","","","","","",""
"2261.3800000000047","{""judgement"":1}","[0]","survey-likert","233","635950","0.0-233.0","3gprrsje","","","","","","","","1"
"1884.655000000028","{""confidence"":1}","[0]","survey-likert","234","637836","0.0-234.0","3gprrsje","","","","","","","",""
"","","","call-function","235","637837","0.0-235.0","3gprrsje","","","","","","","",""
"null","","","html-keyboard-response","236","639338","0.0-236.0","3gprrsje","","<span style=""color:Black; font-size:50px;"">Agent A","null","","","","",""
"null","","","video-keyboard-response","237","642403","0.0-237.0","3gprrsje","","","null","","Agent A","veridical","STIM_SET_1/713403.bmp_pp80_L3_V1.0_veridical_freeview_isoFalse.mp4",""
"null","","","html-keyboard-response","238","643907","0.0-238.0","3gprrsje","","<span style=""color:Black; font-size:50px;"">Agent B","null","","","","",""
"null","","","video-keyboard-response","239","646974","0.0-239.0","3gprrsje","","","null","","Agent B","scrambled","STIM_SET_1/713403.bmp_pp80_L3_V1.0_scrambled_freeview_isoFalse.mp4",""
"","","","call-function","240","646975","0.0-240.0","3gprrsje","","","","","","","",""
"2308.5599999999395","{""judgement"":1}","[0]","survey-likert","241","649285","0.0-241.0","3gprrsje","","","","","","","","0"
"920.3249999999534","{""confidence"":1}","[0]","survey-likert","242","650208","0.0-242.0","3gprrsje","","","","","","","",""
"","","","call-function","243","650209","0.0-243.0","3gprrsje","","","","","","","",""
"null","","","html-keyboard-response","244","651713","0.0-244.0","3gprrsje","","<span style=""color:Black; font-size:50px;"">Agent A","null","","","","",""
"null","","","video-keyboard-response","245","654775","0.0-245.0","3gprrsje","","","null","","Agent A","veridical","STIM_SET_1/713760.bmp_pp81_L1_V1.0_veridical_freeview_isoFalse.mp4",""
"null","","","html-keyboard-response","246","656281","0.0-246.0","3gprrsje","","<span style=""color:Black; font-size:50px;"">Agent B","null","","","","",""
"null","","","video-keyboard-response","247","659343","0.0-247.0","3gprrsje","","","null","","Agent B","scrambled","STIM_SET_1/713760.bmp_pp81_L1_V1.0_scrambled_freeview_isoFalse.mp4",""
"","","","call-function","248","659344","0.0-248.0","3gprrsje","","","","","","","",""
"2038.6350000000093","{""judgement"":1}","[0]","survey-likert","249","661384","0.0-249.0","3gprrsje","","","","","","","","0"
"742.4949999999953","{""confidence"":1}","[0]","survey-likert","250","662127","0.0-250.0","3gprrsje","","","","","","","",""
"1559","","","instructions","251","663687","0.0-251.0","3gprrsje","[{""page_index"":0,""viewing_time"":843.2800000000279},{""page_index"":1,""viewing_time"":373.5550000000512},{""page_index"":2,""viewing_time"":341.95999999996275}]","","","","","","",""
"1985.2099999999627","","","instructions","252","665673","0.0-252.0","3gprrsje","[{""page_index"":0,""viewing_time"":395.8649999999907},{""page_index"":1,""viewing_time"":979.1199999999953},{""page_index"":2,""viewing_time"":610.109999999986}]","","","","","","",""
"","","","call-function","253","665674","0.0-253.0","3gprrsje","","","","","","","",""
"null","","","html-keyboard-response","254","667178","0.0-254.0","3gprrsje","","<span style=""color:Black; font-size:50px;"">Agent A","null","","","","",""
"null","","","video-keyboard-response","255","670256","0.0-255.0","3gprrsje","","","null","","Agent A","scrambled","STIM_SET_1/1159675.bmp_pp77_L3_V1.0_scrambled_freeview_isoFalse.mp4",""
"null","","","html-keyboard-response","256","671762","0.0-256.0","3gprrsje","","<span style=""color:Black; font-size:50px;"">Agent B","null","","","","",""
"null","","","video-keyboard-response","257","674843","0.0-257.0","3gprrsje","","","null","","Agent B","veridical","STIM_SET_1/1159675.bmp_pp77_L3_V1.0_veridical_freeview_isoFalse.mp4",""
"","","","call-function","258","674843","0.0-258.0","3gprrsje","","","","","","","",""
"2158.5749999999534","{""judgement"":0}","[0]","survey-likert","259","677003","0.0-259.0","3gprrsje","","","","","","","","1"
"1954","{""confidence"":3}","[0]","survey-likert","260","678958","0.0-260.0","3gprrsje","","","","","","","",""
"","","","call-function","261","678959","0.0-261.0","3gprrsje","","","","","","","",""
"null","","","html-keyboard-response","262","680461","0.0-262.0","3gprrsje","","<span style=""color:Black; font-size:50px;"">Agent A","null","","","","",""
"null","","","video-keyboard-response","263","683574","0.0-263.0","3gprrsje","","","null","","Agent A","scrambled","STIM_SET_1/1159829.bmp_pp91_L3_V1.0_scrambled_freeview_isoFalse.mp4",""
"null","","","html-keyboard-response","264","685079","0.0-264.0","3gprrsje","","<span style=""color:Black; font-size:50px;"">Agent B","null","","","","",""
"null","","","video-keyboard-response","265","688191","0.0-265.0","3gprrsje","","","null","","Agent B","veridical","STIM_SET_1/1159829.bmp_pp91_L3_V1.0_veridical_freeview_isoFalse.mp4",""
"","","","call-function","266","688192","0.0-266.0","3gprrsje","","","","","","","",""
"1760.280000000028","{""judgement"":0}","[0]","survey-likert","267","689953","0.0-267.0","3gprrsje","","","","","","","","1"
"1041.780000000028","{""confidence"":2}","[0]","survey-likert","268","690997","0.0-268.0","3gprrsje","","","","","","","",""
"","","","call-function","269","690997","0.0-269.0","3gprrsje","","","","","","","",""
"null","","","html-keyboard-response","270","692503","0.0-270.0","3gprrsje","","<span style=""color:Black; font-size:50px;"">Agent A","null","","","","",""
"null","","","video-keyboard-response","271","695619","0.0-271.0","3gprrsje","","","null","","Agent A","scrambled","STIM_SET_1/1159621.bmp_pp92_L3_V1.0_scrambled_freeview_isoFalse.mp4",""
"null","","","html-keyboard-response","272","697122","0.0-272.0","3gprrsje","","<span style=""color:Black; font-size:50px;"">Agent B","null","","","","",""
"null","","","video-keyboard-response","273","700241","0.0-273.0","3gprrsje","","","null","","Agent B","veridical","STIM_SET_1/1159621.bmp_pp92_L3_V1.0_veridical_freeview_isoFalse.mp4",""
"","","","call-function","274","700242","0.0-274.0","3gprrsje","","","","","","","",""
"2575.945000000065","{""judgement"":1}","[0]","survey-likert","275","702819","0.0-275.0","3gprrsje","","","","","","","","1"
"1425.8100000000559","{""confidence"":0}","[0]","survey-likert","276","704246","0.0-276.0","3gprrsje","","","","","","","",""
"","","","call-function","277","704247","0.0-277.0","3gprrsje","","","","","","","",""
"null","","","html-keyboard-response","278","705749","0.0-278.0","3gprrsje","","<span style=""color:Black; font-size:50px;"">Agent A","null","","","","",""
"null","","","video-keyboard-response","279","708872","0.0-279.0","3gprrsje","","","null","","Agent A","veridical","STIM_SET_1/1592372.bmp_pp76_L1_V1.0_veridical_freeview_isoFalse.mp4",""
"null","","","html-keyboard-response","280","710376","0.0-280.0","3gprrsje","","<span style=""color:Black; font-size:50px;"">Agent B","null","","","","",""
"null","","","video-keyboard-response","281","713455","0.0-281.0","3gprrsje","","","null","","Agent B","scrambled","STIM_SET_1/1592372.bmp_pp76_L1_V1.0_scrambled_freeview_isoFalse.mp4",""
"","","","call-function","282","713456","0.0-282.0","3gprrsje","","","","","","","",""
"1552.9749999999767","{""judgement"":0}","[0]","survey-likert","283","715009","0.0-283.0","3gprrsje","","","","","","","","0"
"2383.375","{""confidence"":2}","[0]","survey-likert","284","717394","0.0-284.0","3gprrsje","","","","","","","",""
"","","","call-function","285","717395","0.0-285.0","3gprrsje","","","","","","","",""
"null","","","html-keyboard-response","286","718897","0.0-286.0","3gprrsje","","<span style=""color:Black; font-size:50px;"">Agent A","null","","","","",""
"null","","","video-keyboard-response","287","721978","0.0-287.0","3gprrsje","","","null","","Agent A","veridical","STIM_SET_1/1591994.bmp_pp69_L3_V1.0_veridical_freeview_isoFalse.mp4",""
"null","","","html-keyboard-response","288","723485","0.0-288.0","3gprrsje","","<span style=""color:Black; font-size:50px;"">Agent B","null","","","","",""
"null","","","video-keyboard-response","289","726569","0.0-289.0","3gprrsje","","","null","","Agent B","scrambled","STIM_SET_1/1591994.bmp_pp69_L3_V1.0_scrambled_freeview_isoFalse.mp4",""
"","","","call-function","290","726569","0.0-290.0","3gprrsje","","","","","","","",""
"2116.984999999986","{""judgement"":0}","[0]","survey-likert","291","728687","0.0-291.0","3gprrsje","","","","","","","","0"
"1206.969999999972","{""confidence"":2}","[0]","survey-likert","292","729895","0.0-292.0","3gprrsje","","","","","","","",""
"","","","call-function","293","729896","0.0-293.0","3gprrsje","","","","","","","",""
"null","","","html-keyboard-response","294","731398","0.0-294.0","3gprrsje","","<span style=""color:Black; font-size:50px;"">Agent A","null","","","","",""
"null","","","video-keyboard-response","295","734478","0.0-295.0","3gprrsje","","","null","","Agent A","veridical","STIM_SET_1/1159777.bmp_pp77_L3_V1.0_veridical_freeview_isoFalse.mp4",""
"null","","","html-keyboard-response","296","735981","0.0-296.0","3gprrsje","","<span style=""color:Black; font-size:50px;"">Agent B","null","","","","",""
"null","","","video-keyboard-response","297","739062","0.0-297.0","3gprrsje","","","null","","Agent B","scrambled","STIM_SET_1/1159777.bmp_pp77_L3_V1.0_scrambled_freeview_isoFalse.mp4",""
"","","","call-function","298","739062","0.0-298.0","3gprrsje","","","","","","","",""
"2009.3000000000466","{""judgement"":0}","[0]","survey-likert","299","741073","0.0-299.0","3gprrsje","","","","","","","","0"
"894.3200000000652","{""confidence"":3}","[0]","survey-likert","300","741968","0.0-300.0","3gprrsje","","","","","","","",""
"","","","call-function","301","741969","0.0-301.0","3gprrsje","","","","","","","",""
"null","","","html-keyboard-response","302","743472","0.0-302.0","3gprrsje","","<span style=""color:Black; font-size:50px;"">Agent A","null","","","","",""
"null","","","video-keyboard-response","303","746583","0.0-303.0","3gprrsje","","","null","","Agent A","scrambled","STIM_SET_1/1592934.bmp_pp63_L1_V1.0_scrambled_freeview_isoFalse.mp4",""
"null","","","html-keyboard-response","304","748085","0.0-304.0","3gprrsje","","<span style=""color:Black; font-size:50px;"">Agent B","null","","","","",""
"null","","","video-keyboard-response","305","751199","0.0-305.0","3gprrsje","","","null","","Agent B","veridical","STIM_SET_1/1592934.bmp_pp63_L1_V1.0_veridical_freeview_isoFalse.mp4",""
"","","","call-function","306","751199","0.0-306.0","3gprrsje","","","","","","","",""
"1601.8499999999767","{""judgement"":1}","[0]","survey-likert","307","752802","0.0-307.0","3gprrsje","","","","","","","","1"
"1651.6750000000466","{""confidence"":3}","[0]","survey-likert","308","754455","0.0-308.0","3gprrsje","","","","","","","",""
"","","","call-function","309","754456","0.0-309.0","3gprrsje","","","","","","","",""
"null","","","html-keyboard-response","310","755959","0.0-310.0","3gprrsje","","<span style=""color:Black; font-size:50px;"">Agent A","null","","","","",""
"null","","","video-keyboard-response","311","759070","0.0-311.0","3gprrsje","","","null","","Agent A","veridical","STIM_SET_1/1592619.bmp_pp56_L3_V1.0_veridical_freeview_isoFalse.mp4",""
"null","","","html-keyboard-response","312","760576","0.0-312.0","3gprrsje","","<span style=""color:Black; font-size:50px;"">Agent B","null","","","","",""
"null","","","video-keyboard-response","313","763685","0.0-313.0","3gprrsje","","","null","","Agent B","scrambled","STIM_SET_1/1592619.bmp_pp56_L3_V1.0_scrambled_freeview_isoFalse.mp4",""
"","","","call-function","314","763686","0.0-314.0","3gprrsje","","","","","","","",""
"3362.1399999998976","{""judgement"":0}","[0]","survey-likert","315","767049","0.0-315.0","3gprrsje","","","","","","","","0"
"1082.7649999998976","{""confidence"":3}","[0]","survey-likert","316","768133","0.0-316.0","3gprrsje","","","","","","","",""
"","","","call-function","317","768133","0.0-317.0","3gprrsje","","","","","","","",""
"null","","","html-keyboard-response","318","769635","0.0-318.0","3gprrsje","","<span style=""color:Black; font-size:50px;"">Agent A","null","","","","",""
"null","","","video-keyboard-response","319","772750","0.0-319.0","3gprrsje","","","null","","Agent A","veridical","STIM_SET_1/1159768.bmp_pp89_L1_V1.0_veridical_freeview_isoFalse.mp4",""
"null","","","html-keyboard-response","320","774255","0.0-320.0","3gprrsje","","<span style=""color:Black; font-size:50px;"">Agent B","null","","","","",""
"null","","","video-keyboard-response","321","777326","0.0-321.0","3gprrsje","","","null","","Agent B","scrambled","STIM_SET_1/1159768.bmp_pp89_L1_V1.0_scrambled_freeview_isoFalse.mp4",""
"","","","call-function","322","777327","0.0-322.0","3gprrsje","","","","","","","",""
"1578.3549999999814","{""judgement"":0}","[0]","survey-likert","323","778907","0.0-323.0","3gprrsje","","","","","","","","0"
"1617.015000000014","{""confidence"":3}","[0]","survey-likert","324","780525","0.0-324.0","3gprrsje","","","","","","","",""
"","","","call-function","325","780526","0.0-325.0","3gprrsje","","","","","","","",""
"null","","","html-keyboard-response","326","782027","0.0-326.0","3gprrsje","","<span style=""color:Black; font-size:50px;"">Agent A","null","","","","",""
"null","","","video-keyboard-response","327","785097","0.0-327.0","3gprrsje","","","null","","Agent A","scrambled","STIM_SET_1/1593035.bmp_pp94_L2_V1.0_scrambled_freeview_isoFalse.mp4",""
"null","","","html-keyboard-response","328","786603","0.0-328.0","3gprrsje","","<span style=""color:Black; font-size:50px;"">Agent B","null","","","","",""
"null","","","video-keyboard-response","329","789671","0.0-329.0","3gprrsje","","","null","","Agent B","veridical","STIM_SET_1/1593035.bmp_pp94_L2_V1.0_veridical_freeview_isoFalse.mp4",""
"","","","call-function","330","789672","0.0-330.0","3gprrsje","","","","","","","",""
"1610.6149999999907","{""judgement"":1}","[0]","survey-likert","331","791283","0.0-331.0","3gprrsje","","","","","","","","1"
"812.4500000000698","{""confidence"":3}","[0]","survey-likert","332","792098","0.0-332.0","3gprrsje","","","","","","","",""
"28043.589999999967","","","instructions","333","820142","0.0-333.0","3gprrsje","[{""page_index"":0,""viewing_time"":896.2600000000093},{""page_index"":1,""viewing_time"":380.9350000000559},{""page_index"":2,""viewing_time"":26766.18499999994}]","","","","","","",""
"2452.2399999999907","","","instructions","334","822595","0.0-334.0","3gprrsje","[{""page_index"":0,""viewing_time"":599.0200000000186},{""page_index"":1,""viewing_time"":1339.2700000000186},{""page_index"":2,""viewing_time"":513.8399999999674}]","","","","","","",""
"","","","call-function","335","822595","0.0-335.0","3gprrsje","","","","","","","",""
"null","","","html-keyboard-response","336","824099","0.0-336.0","3gprrsje","","<span style=""color:Black; font-size:50px;"">Agent A","null","","","","",""
"null","","","video-keyboard-response","337","827177","0.0-337.0","3gprrsje","","","null","","Agent A","veridical","STIM_SET_1/1592657.bmp_pp98_L1_V1.0_veridical_freeview_isoFalse.mp4",""
"null","","","html-keyboard-response","338","828684","0.0-338.0","3gprrsje","","<span style=""color:Black; font-size:50px;"">Agent B","null","","","","",""
"null","","","video-keyboard-response","339","831801","0.0-339.0","3gprrsje","","","null","","Agent B","scrambled","STIM_SET_1/1592657.bmp_pp98_L1_V1.0_scrambled_freeview_isoFalse.mp4",""
"","","","call-function","340","831802","0.0-340.0","3gprrsje","","","","","","","",""
"2573.6350000000093","{""judgement"":0}","[0]","survey-likert","341","834376","0.0-341.0","3gprrsje","","","","","","","","0"
"1023.7299999999814","{""confidence"":0}","[0]","survey-likert","342","835401","0.0-342.0","3gprrsje","","","","","","","",""
"","","","call-function","343","835402","0.0-343.0","3gprrsje","","","","","","","",""
"null","","","html-keyboard-response","344","836903","0.0-344.0","3gprrsje","","<span style=""color:Black; font-size:50px;"">Agent A","null","","","","",""
"null","","","video-keyboard-response","345","840017","0.0-345.0","3gprrsje","","","null","","Agent A","scrambled","STIM_SET_1/285933.bmp_pp81_L1_V1.0_scrambled_freeview_isoFalse.mp4",""
"null","","","html-keyboard-response","346","841522","0.0-346.0","3gprrsje","","<span style=""color:Black; font-size:50px;"">Agent B","null","","","","",""
"null","","","video-keyboard-response","347","844593","0.0-347.0","3gprrsje","","","null","","Agent B","veridical","STIM_SET_1/285933.bmp_pp81_L1_V1.0_veridical_freeview_isoFalse.mp4",""
"","","","call-function","348","844594","0.0-348.0","3gprrsje","","","","","","","",""
"1046.6149999999907","{""judgement"":0}","[0]","survey-likert","349","845641","0.0-349.0","3gprrsje","","","","","","","","1"
"892.0350000000326","{""confidence"":3}","[0]","survey-likert","350","846534","0.0-350.0","3gprrsje","","","","","","","",""
"","","","call-function","351","846535","0.0-351.0","3gprrsje","","","","","","","",""
"null","","","html-keyboard-response","352","848038","0.0-352.0","3gprrsje","","<span style=""color:Black; font-size:50px;"">Agent A","null","","","","",""
"null","","","video-keyboard-response","353","851106","0.0-353.0","3gprrsje","","","null","","Agent A","scrambled","STIM_SET_1/497950.bmp_pp151_L1_V1.0_scrambled_freeview_isoFalse.mp4",""
"null","","","html-keyboard-response","354","852612","0.0-354.0","3gprrsje","","<span style=""color:Black; font-size:50px;"">Agent B","null","","","","",""
"null","","","video-keyboard-response","355","855682","0.0-355.0","3gprrsje","","","null","","Agent B","veridical","STIM_SET_1/497950.bmp_pp151_L1_V1.0_veridical_freeview_isoFalse.mp4",""
"","","","call-function","356","855683","0.0-356.0","3gprrsje","","","","","","","",""
"1857.0499999999302","{""judgement"":0}","[0]","survey-likert","357","857541","0.0-357.0","3gprrsje","","","","","","","","1"
"1048.4350000000559","{""confidence"":2}","[0]","survey-likert","358","858590","0.0-358.0","3gprrsje","","","","","","","",""
"","","","call-function","359","858591","0.0-359.0","3gprrsje","","","","","","","",""
"null","","","html-keyboard-response","360","860093","0.0-360.0","3gprrsje","","<span style=""color:Black; font-size:50px;"">Agent A","null","","","","",""
"null","","","video-keyboard-response","361","863203","0.0-361.0","3gprrsje","","","null","","Agent A","veridical","STIM_SET_1/1593146.bmp_pp93_L1_V1.0_veridical_freeview_isoFalse.mp4",""
"null","","","html-keyboard-response","362","864707","0.0-362.0","3gprrsje","","<span style=""color:Black; font-size:50px;"">Agent B","null","","","","",""
"null","","","video-keyboard-response","363","867820","0.0-363.0","3gprrsje","","","null","","Agent B","scrambled","STIM_SET_1/1593146.bmp_pp93_L1_V1.0_scrambled_freeview_isoFalse.mp4",""
"","","","call-function","364","867821","0.0-364.0","3gprrsje","","","","","","","",""
"3018.3450000000885","{""judgement"":0}","[0]","survey-likert","365","870840","0.0-365.0","3gprrsje","","","","","","","","0"
"1678.515000000014","{""confidence"":1}","[0]","survey-likert","366","872520","0.0-366.0","3gprrsje","","","","","","","",""
"","","","call-function","367","872520","0.0-367.0","3gprrsje","","","","","","","",""
"null","","","html-keyboard-response","368","874027","0.0-368.0","3gprrsje","","<span style=""color:Black; font-size:50px;"">Agent A","null","","","","",""
"null","","","video-keyboard-response","369","877133","0.0-369.0","3gprrsje","","","null","","Agent A","scrambled","STIM_SET_1/1160127.bmp_pp90_L2_V1.0_scrambled_freeview_isoFalse.mp4",""
"null","","","html-keyboard-response","370","878635","0.0-370.0","3gprrsje","","<span style=""color:Black; font-size:50px;"">Agent B","null","","","","",""
"null","","","video-keyboard-response","371","881747","0.0-371.0","3gprrsje","","","null","","Agent B","veridical","STIM_SET_1/1160127.bmp_pp90_L2_V1.0_veridical_freeview_isoFalse.mp4",""
"","","","call-function","372","881747","0.0-372.0","3gprrsje","","","","","","","",""
"1538.375","{""judgement"":0}","[0]","survey-likert","373","883286","0.0-373.0","3gprrsje","","","","","","","","1"
"958.984999999986","{""confidence"":2}","[0]","survey-likert","374","884247","0.0-374.0","3gprrsje","","","","","","","",""
"","","","call-function","375","884247","0.0-375.0","3gprrsje","","","","","","","",""
"null","","","html-keyboard-response","376","885750","0.0-376.0","3gprrsje","","<span style=""color:Black; font-size:50px;"">Agent A","null","","","","",""
"null","","","video-keyboard-response","377","888870","0.0-377.0","3gprrsje","","","null","","Agent A","scrambled","STIM_SET_1/713211.bmp_pp100_L3_V1.0_scrambled_freeview_isoFalse.mp4",""
"null","","","html-keyboard-response","378","890376","0.0-378.0","3gprrsje","","<span style=""color:Black; font-size:50px;"">Agent B","null","","","","",""
"null","","","video-keyboard-response","379","893454","0.0-379.0","3gprrsje","","","null","","Agent B","veridical","STIM_SET_1/713211.bmp_pp100_L3_V1.0_veridical_freeview_isoFalse.mp4",""
"","","","call-function","380","893454","0.0-380.0","3gprrsje","","","","","","","",""
"1391.329999999958","{""judgement"":1}","[0]","survey-likert","381","894847","0.0-381.0","3gprrsje","","","","","","","","1"
"1203.1849999999395","{""confidence"":3}","[0]","survey-likert","382","896051","0.0-382.0","3gprrsje","","","","","","","",""
"","","","call-function","383","896052","0.0-383.0","3gprrsje","","","","","","","",""
"null","","","html-keyboard-response","384","897556","0.0-384.0","3gprrsje","","<span style=""color:Black; font-size:50px;"">Agent A","null","","","","",""
"null","","","video-keyboard-response","385","900652","0.0-385.0","3gprrsje","","","null","","Agent A","scrambled","STIM_SET_1/713684.bmp_pp85_L3_V1.0_scrambled_freeview_isoFalse.mp4",""
"null","","","html-keyboard-response","386","902159","0.0-386.0","3gprrsje","","<span style=""color:Black; font-size:50px;"">Agent B","null","","","","",""
"null","","","video-keyboard-response","387","905255","0.0-387.0","3gprrsje","","","null","","Agent B","veridical","STIM_SET_1/713684.bmp_pp85_L3_V1.0_veridical_freeview_isoFalse.mp4",""
"","","","call-function","388","905255","0.0-388.0","3gprrsje","","","","","","","",""
"1907.634999999893","{""judgement"":1}","[0]","survey-likert","389","907164","0.0-389.0","3gprrsje","","","","","","","","1"
"1092.2200000000885","{""confidence"":0}","[0]","survey-likert","390","908257","0.0-390.0","3gprrsje","","","","","","","",""
"","","","call-function","391","908258","0.0-391.0","3gprrsje","","","","","","","",""
"null","","","html-keyboard-response","392","909760","0.0-392.0","3gprrsje","","<span style=""color:Black; font-size:50px;"">Agent A","null","","","","",""
"null","","","video-keyboard-response","393","912823","0.0-393.0","3gprrsje","","","null","","Agent A","scrambled","STIM_SET_1/286001.bmp_pp54_L2_V1.0_scrambled_freeview_isoFalse.mp4",""
"null","","","html-keyboard-response","394","914329","0.0-394.0","3gprrsje","","<span style=""color:Black; font-size:50px;"">Agent B","null","","","","",""
"null","","","video-keyboard-response","395","917395","0.0-395.0","3gprrsje","","","null","","Agent B","veridical","STIM_SET_1/286001.bmp_pp54_L2_V1.0_veridical_freeview_isoFalse.mp4",""
"","","","call-function","396","917396","0.0-396.0","3gprrsje","","","","","","","",""
"1582.1350000000093","{""judgement"":0}","[0]","survey-likert","397","918979","0.0-397.0","3gprrsje","","","","","","","","1"
"823.8249999999534","{""confidence"":1}","[0]","survey-likert","398","919804","0.0-398.0","3gprrsje","","","","","","","",""
"","","","call-function","399","919804","0.0-399.0","3gprrsje","","","","","","","",""
"null","","","html-keyboard-response","400","921308","0.0-400.0","3gprrsje","","<span style=""color:Black; font-size:50px;"">Agent A","null","","","","",""
"null","","","video-keyboard-response","401","924388","0.0-401.0","3gprrsje","","","null","","Agent A","veridical","STIM_SET_1/285751.bmp_pp55_L3_V1.0_veridical_freeview_isoFalse.mp4",""
"null","","","html-keyboard-response","402","925892","0.0-402.0","3gprrsje","","<span style=""color:Black; font-size:50px;"">Agent B","null","","","","",""
"null","","","video-keyboard-response","403","929011","0.0-403.0","3gprrsje","","","null","","Agent B","scrambled","STIM_SET_1/285751.bmp_pp55_L3_V1.0_scrambled_freeview_isoFalse.mp4",""
"","","","call-function","404","929012","0.0-404.0","3gprrsje","","","","","","","",""
"6645.964999999967","{""judgement"":1}","[0]","survey-likert","405","935659","0.0-405.0","3gprrsje","","","","","","","","0"
"1747.9400000000605","{""confidence"":1}","[0]","survey-likert","406","937408","0.0-406.0","3gprrsje","","","","","","","",""
"","","","call-function","407","937408","0.0-407.0","3gprrsje","","","","","","","",""
"null","","","html-keyboard-response","408","938912","0.0-408.0","3gprrsje","","<span style=""color:Black; font-size:50px;"">Agent A","null","","","","",""
"null","","","video-keyboard-response","409","942029","0.0-409.0","3gprrsje","","","null","","Agent A","scrambled","STIM_SET_1/1592804.bmp_pp91_L3_V1.0_scrambled_freeview_isoFalse.mp4",""
"null","","","html-keyboard-response","410","943533","0.0-410.0","3gprrsje","","<span style=""color:Black; font-size:50px;"">Agent B","null","","","","",""
"null","","","video-keyboard-response","411","946651","0.0-411.0","3gprrsje","","","null","","Agent B","veridical","STIM_SET_1/1592804.bmp_pp91_L3_V1.0_veridical_freeview_isoFalse.mp4",""
"","","","call-function","412","946652","0.0-412.0","3gprrsje","","","","","","","",""
"2869.5449999999255","{""judgement"":1}","[0]","survey-likert","413","949524","0.0-413.0","3gprrsje","","","","","","","","1"
"1646.0600000000559","{""confidence"":0}","[0]","survey-likert","414","951172","0.0-414.0","3gprrsje","","","","","","","",""
"3107.189999999944","","","instructions","415","954281","0.0-415.0","3gprrsje","[{""page_index"":0,""viewing_time"":1201.155000000028},{""page_index"":1,""viewing_time"":678.0349999999162},{""page_index"":2,""viewing_time"":1227.7850000000326}]","","","","","","",""
"1969.3200000000652","","","instructions","416","956251","0.0-416.0","3gprrsje","[{""page_index"":0,""viewing_time"":638.5300000000279},{""page_index"":1,""viewing_time"":1001.6850000000559},{""page_index"":2,""viewing_time"":329}]","","","","","","",""
"","","","call-function","417","956252","0.0-417.0","3gprrsje","","","","","","","",""
"null","","","html-keyboard-response","418","957755","0.0-418.0","3gprrsje","","<span style=""color:Black; font-size:50px;"">Agent A","null","","","","",""
"null","","","video-keyboard-response","419","960823","0.0-419.0","3gprrsje","","","null","","Agent A","veridical","STIM_SET_1/1159572.bmp_pp71_L1_V1.0_veridical_freeview_isoFalse.mp4",""
"null","","","html-keyboard-response","420","962327","0.0-420.0","3gprrsje","","<span style=""color:Black; font-size:50px;"">Agent B","null","","","","",""
"null","","","video-keyboard-response","421","965396","0.0-421.0","3gprrsje","","","null","","Agent B","scrambled","STIM_SET_1/1159572.bmp_pp71_L1_V1.0_scrambled_freeview_isoFalse.mp4",""
"","","","call-function","422","965396","0.0-422.0","3gprrsje","","","","","","","",""
"1688.5649999999441","{""judgement"":0}","[0]","survey-likert","423","967086","0.0-423.0","3gprrsje","","","","","","","","0"
"1305.4449999999488","{""confidence"":2}","[0]","survey-likert","424","968393","0.0-424.0","3gprrsje","","","","","","","",""
"","","","call-function","425","968393","0.0-425.0","3gprrsje","","","","","","","",""
"null","","","html-keyboard-response","426","969900","0.0-426.0","3gprrsje","","<span style=""color:Black; font-size:50px;"">Agent A","null","","","","",""
"null","","","video-keyboard-response","427","972982","0.0-427.0","3gprrsje","","","null","","Agent A","scrambled","STIM_SET_1/1591876.bmp_pp63_L1_V1.0_scrambled_freeview_isoFalse.mp4",""
"null","","","html-keyboard-response","428","974486","0.0-428.0","3gprrsje","","<span style=""color:Black; font-size:50px;"">Agent B","null","","","","",""
"null","","","video-keyboard-response","429","977566","0.0-429.0","3gprrsje","","","null","","Agent B","veridical","STIM_SET_1/1591876.bmp_pp63_L1_V1.0_veridical_freeview_isoFalse.mp4",""
"","","","call-function","430","977566","0.0-430.0","3gprrsje","","","","","","","",""
"2501.1500000000233","{""judgement"":1}","[0]","survey-likert","431","980068","0.0-431.0","3gprrsje","","","","","","","","1"
"1653.109999999986","{""confidence"":2}","[0]","survey-likert","432","981723","0.0-432.0","3gprrsje","","","","","","","",""
"","","","call-function","433","981723","0.0-433.0","3gprrsje","","","","","","","",""
"null","","","html-keyboard-response","434","983225","0.0-434.0","3gprrsje","","<span style=""color:Black; font-size:50px;"">Agent A","null","","","","",""
"null","","","video-keyboard-response","435","986343","0.0-435.0","3gprrsje","","","null","","Agent A","veridical","STIM_SET_1/1592807.bmp_pp68_L1_V1.0_veridical_freeview_isoFalse.mp4",""
"null","","","html-keyboard-response","436","987848","0.0-436.0","3gprrsje","","<span style=""color:Black; font-size:50px;"">Agent B","null","","","","",""
"null","","","video-keyboard-response","437","990967","0.0-437.0","3gprrsje","","","null","","Agent B","scrambled","STIM_SET_1/1592807.bmp_pp68_L1_V1.0_scrambled_freeview_isoFalse.mp4",""
"","","","call-function","438","990967","0.0-438.0","3gprrsje","","","","","","","",""
"1899.6900000000605","{""judgement"":0}","[0]","survey-likert","439","992868","0.0-439.0","3gprrsje","","","","","","","","0"
"1538.9400000000605","{""confidence"":2}","[0]","survey-likert","440","994408","0.0-440.0","3gprrsje","","","","","","","",""
"","","","call-function","441","994409","0.0-441.0","3gprrsje","","","","","","","",""
"null","","","html-keyboard-response","442","995912","0.0-442.0","3gprrsje","","<span style=""color:Black; font-size:50px;"">Agent A","null","","","","",""
"null","","","video-keyboard-response","443","999030","0.0-443.0","3gprrsje","","","null","","Agent A","scrambled","STIM_SET_1/713666.bmp_pp97_L3_V1.0_scrambled_freeview_isoFalse.mp4",""
"null","","","html-keyboard-response","444","1000536","0.0-444.0","3gprrsje","","<span style=""color:Black; font-size:50px;"">Agent B","null","","","","",""
"null","","","video-keyboard-response","445","1003660","0.0-445.0","3gprrsje","","","null","","Agent B","veridical","STIM_SET_1/713666.bmp_pp97_L3_V1.0_veridical_freeview_isoFalse.mp4",""
"","","","call-function","446","1003661","0.0-446.0","3gprrsje","","","","","","","",""
"1440.7399999999907","{""judgement"":0}","[0]","survey-likert","447","1005103","0.0-447.0","3gprrsje","","","","","","","","1"
"915.0350000000326","{""confidence"":2}","[0]","survey-likert","448","1006019","0.0-448.0","3gprrsje","","","","","","","",""
"","","","call-function","449","1006020","0.0-449.0","3gprrsje","","","","","","","",""
"null","","","html-keyboard-response","450","1007523","0.0-450.0","3gprrsje","","<span style=""color:Black; font-size:50px;"">Agent A","null","","","","",""
"null","","","video-keyboard-response","451","1010643","0.0-451.0","3gprrsje","","","null","","Agent A","veridical","STIM_SET_1/1159855.bmp_pp99_L2_V1.0_veridical_freeview_isoFalse.mp4",""
"null","","","html-keyboard-response","452","1012145","0.0-452.0","3gprrsje","","<span style=""color:Black; font-size:50px;"">Agent B","null","","","","",""
"null","","","video-keyboard-response","453","1015264","0.0-453.0","3gprrsje","","","null","","Agent B","scrambled","STIM_SET_1/1159855.bmp_pp99_L2_V1.0_scrambled_freeview_isoFalse.mp4",""
"","","","call-function","454","1015264","0.0-454.0","3gprrsje","","","","","","","",""
"4832.909999999916","{""judgement"":0}","[0]","survey-likert","455","1020098","0.0-455.0","3gprrsje","","","","","","","","0"
"1472.5850000000792","{""confidence"":3}","[0]","survey-likert","456","1021572","0.0-456.0","3gprrsje","","","","","","","",""
"","","","call-function","457","1021573","0.0-457.0","3gprrsje","","","","","","","",""
"null","","","html-keyboard-response","458","1023078","0.0-458.0","3gprrsje","","<span style=""color:Black; font-size:50px;"">Agent A","null","","","","",""
"null","","","video-keyboard-response","459","1026145","0.0-459.0","3gprrsje","","","null","","Agent A","scrambled","STIM_SET_1/1592351.bmp_pp51_L1_V1.0_scrambled_freeview_isoFalse.mp4",""
"null","","","html-keyboard-response","460","1027648","0.0-460.0","3gprrsje","","<span style=""color:Black; font-size:50px;"">Agent B","null","","","","",""
"null","","","video-keyboard-response","461","1030716","0.0-461.0","3gprrsje","","","null","","Agent B","veridical","STIM_SET_1/1592351.bmp_pp51_L1_V1.0_veridical_freeview_isoFalse.mp4",""
"","","","call-function","462","1030717","0.0-462.0","3gprrsje","","","","","","","",""
"1935.4599999999627","{""judgement"":1}","[0]","survey-likert","463","1032653","0.0-463.0","3gprrsje","","","","","","","","1"
"2080.984999999986","{""confidence"":2}","[0]","survey-likert","464","1034736","0.0-464.0","3gprrsje","","","","","","","",""
"","","","call-function","465","1034737","0.0-465.0","3gprrsje","","","","","","","",""
"null","","","html-keyboard-response","466","1036241","0.0-466.0","3gprrsje","","<span style=""color:Black; font-size:50px;"">Agent A","null","","","","",""
"null","","","video-keyboard-response","467","1039315","0.0-467.0","3gprrsje","","","null","","Agent A","veridical","STIM_SET_1/713017.bmp_pp152_L2_V1.0_veridical_freeview_isoFalse.mp4",""
"null","","","html-keyboard-response","468","1040820","0.0-468.0","3gprrsje","","<span style=""color:Black; font-size:50px;"">Agent B","null","","","","",""
"null","","","video-keyboard-response","469","1043895","0.0-469.0","3gprrsje","","","null","","Agent B","scrambled","STIM_SET_1/713017.bmp_pp152_L2_V1.0_scrambled_freeview_isoFalse.mp4",""
"","","","call-function","470","1043896","0.0-470.0","3gprrsje","","","","","","","",""
"1990.8349999999627","{""judgement"":1}","[0]","survey-likert","471","1045888","0.0-471.0","3gprrsje","","","","","","","","0"
"2110.844999999972","{""confidence"":1}","[0]","survey-likert","472","1048000","0.0-472.0","3gprrsje","","","","","","","",""
"","","","call-function","473","1048001","0.0-473.0","3gprrsje","","","","","","","",""
"null","","","html-keyboard-response","474","1049502","0.0-474.0","3gprrsje","","<span style=""color:Black; font-size:50px;"">Agent A","null","","","","",""
"null","","","video-keyboard-response","475","1052584","0.0-475.0","3gprrsje","","","null","","Agent A","veridical","STIM_SET_1/713707.bmp_pp154_L1_V1.0_veridical_freeview_isoFalse.mp4",""
"null","","","html-keyboard-response","476","1054087","0.0-476.0","3gprrsje","","<span style=""color:Black; font-size:50px;"">Agent B","null","","","","",""
"null","","","video-keyboard-response","477","1057172","0.0-477.0","3gprrsje","","","null","","Agent B","scrambled","STIM_SET_1/713707.bmp_pp154_L1_V1.0_scrambled_freeview_isoFalse.mp4",""
"","","","call-function","478","1057172","0.0-478.0","3gprrsje","","","","","","","",""
"2034.994999999879","{""judgement"":1}","[0]","survey-likert","479","1059208","0.0-479.0","3gprrsje","","","","","","","","0"
"1569.8249999999534","{""confidence"":2}","[0]","survey-likert","480","1060779","0.0-480.0","3gprrsje","","","","","","","",""
"","","","call-function","481","1060780","0.0-481.0","3gprrsje","","","","","","","",""
"null","","","html-keyboard-response","482","1062284","0.0-482.0","3gprrsje","","<span style=""color:Black; font-size:50px;"">Agent A","null","","","","",""
"null","","","video-keyboard-response","483","1065397","0.0-483.0","3gprrsje","","","null","","Agent A","veridical","STIM_SET_1/1592362.bmp_pp95_L2_V1.0_veridical_freeview_isoFalse.mp4",""
"null","","","html-keyboard-response","484","1066902","0.0-484.0","3gprrsje","","<span style=""color:Black; font-size:50px;"">Agent B","null","","","","",""
"null","","","video-keyboard-response","485","1070019","0.0-485.0","3gprrsje","","","null","","Agent B","scrambled","STIM_SET_1/1592362.bmp_pp95_L2_V1.0_scrambled_freeview_isoFalse.mp4",""
"","","","call-function","486","1070019","0.0-486.0","3gprrsje","","","","","","","",""
"6442.899999999907","{""judgement"":1}","[0]","survey-likert","487","1076463","0.0-487.0","3gprrsje","","","","","","","","0"
"1123.4150000000373","{""confidence"":1}","[0]","survey-likert","488","1077588","0.0-488.0","3gprrsje","","","","","","","",""
"","","","call-function","489","1077589","0.0-489.0","3gprrsje","","","","","","","",""
"null","","","html-keyboard-response","490","1079092","0.0-490.0","3gprrsje","","<span style=""color:Black; font-size:50px;"">Agent A","null","","","","",""
"null","","","video-keyboard-response","491","1082211","0.0-491.0","3gprrsje","","","null","","Agent A","scrambled","STIM_SET_1/1592397.bmp_pp85_L3_V1.0_scrambled_freeview_isoFalse.mp4",""
"null","","","html-keyboard-response","492","1083713","0.0-492.0","3gprrsje","","<span style=""color:Black; font-size:50px;"">Agent B","null","","","","",""
"null","","","video-keyboard-response","493","1086827","0.0-493.0","3gprrsje","","","null","","Agent B","veridical","STIM_SET_1/1592397.bmp_pp85_L3_V1.0_veridical_freeview_isoFalse.mp4",""
"","","","call-function","494","1086827","0.0-494.0","3gprrsje","","","","","","","",""
"3290.5999999998603","{""judgement"":1}","[0]","survey-likert","495","1090119","0.0-495.0","3gprrsje","","","","","","","","1"
"1103.375","{""confidence"":1}","[0]","survey-likert","496","1091224","0.0-496.0","3gprrsje","","","","","","","",""
"45853.03000000003","","","instructions","497","1137077","0.0-497.0","3gprrsje","[{""page_index"":0,""viewing_time"":999.0849999999627},{""page_index"":1,""viewing_time"":42816.875},{""page_index"":2,""viewing_time"":2036.9599999999627}]","","","","","","",""
"3092.530000000028","","","instructions","498","1140171","0.0-498.0","3gprrsje","[{""page_index"":0,""viewing_time"":1036.2700000000186},{""page_index"":1,""viewing_time"":1026.2900000000373},{""page_index"":2,""viewing_time"":1029.8549999999814}]","","","","","","",""
"","","","call-function","499","1140171","0.0-499.0","3gprrsje","","","","","","","",""
"null","","","html-keyboard-response","500","1141676","0.0-500.0","3gprrsje","","<span style=""color:Black; font-size:50px;"">Agent A","null","","","","",""
"null","","","video-keyboard-response","501","1144748","0.0-501.0","3gprrsje","","","null","","Agent A","veridical","STIM_SET_1/1159440.bmp_pp98_L1_V1.0_veridical_freeview_isoFalse.mp4",""
"null","","","html-keyboard-response","502","1146251","0.0-502.0","3gprrsje","","<span style=""color:Black; font-size:50px;"">Agent B","null","","","","",""
"null","","","video-keyboard-response","503","1149325","0.0-503.0","3gprrsje","","","null","","Agent B","scrambled","STIM_SET_1/1159440.bmp_pp98_L1_V1.0_scrambled_freeview_isoFalse.mp4",""
"","","","call-function","504","1149326","0.0-504.0","3gprrsje","","","","","","","",""
"1573.964999999851","{""judgement"":1}","[0]","survey-likert","505","1150900","0.0-505.0","3gprrsje","","","","","","","","0"
"2646.964999999851","{""confidence"":2}","[0]","survey-likert","506","1153548","0.0-506.0","3gprrsje","","","","","","","",""
"","","","call-function","507","1153549","0.0-507.0","3gprrsje","","","","","","","",""
"null","","","html-keyboard-response","508","1155054","0.0-508.0","3gprrsje","","<span style=""color:Black; font-size:50px;"">Agent A","null","","","","",""
"null","","","video-keyboard-response","509","1158133","0.0-509.0","3gprrsje","","","null","","Agent A","veridical","STIM_SET_1/712977.bmp_pp51_L1_V1.0_veridical_freeview_isoFalse.mp4",""
"null","","","html-keyboard-response","510","1159637","0.0-510.0","3gprrsje","","<span style=""color:Black; font-size:50px;"">Agent B","null","","","","",""
"null","","","video-keyboard-response","511","1162716","0.0-511.0","3gprrsje","","","null","","Agent B","scrambled","STIM_SET_1/712977.bmp_pp51_L1_V1.0_scrambled_freeview_isoFalse.mp4",""
"","","","call-function","512","1162718","0.0-512.0","3gprrsje","","","","","","","",""
"1344.6599999999162","{""judgement"":1}","[0]","survey-likert","513","1164064","0.0-513.0","3gprrsje","","","","","","","","0"
"855.4099999999162","{""confidence"":3}","[0]","survey-likert","514","1164921","0.0-514.0","3gprrsje","","","","","","","",""
"","","","call-function","515","1164922","0.0-515.0","3gprrsje","","","","","","","",""
"null","","","html-keyboard-response","516","1166425","0.0-516.0","3gprrsje","","<span style=""color:Black; font-size:50px;"">Agent A","null","","","","",""
"null","","","video-keyboard-response","517","1169500","0.0-517.0","3gprrsje","","","null","","Agent A","veridical","STIM_SET_1/713749.bmp_pp88_L2_V1.0_veridical_freeview_isoFalse.mp4",""
"null","","","html-keyboard-response","518","1171003","0.0-518.0","3gprrsje","","<span style=""color:Black; font-size:50px;"">Agent B","null","","","","",""
"null","","","video-keyboard-response","519","1174084","0.0-519.0","3gprrsje","","","null","","Agent B","scrambled","STIM_SET_1/713749.bmp_pp88_L2_V1.0_scrambled_freeview_isoFalse.mp4",""
"","","","call-function","520","1174085","0.0-520.0","3gprrsje","","","","","","","",""
"1247.6850000000559","{""judgement"":0}","[0]","survey-likert","521","1175334","0.0-521.0","3gprrsje","","","","","","","","0"
"727.3649999999907","{""confidence"":3}","[0]","survey-likert","522","1176063","0.0-522.0","3gprrsje","","","","","","","",""
"","","","call-function","523","1176064","0.0-523.0","3gprrsje","","","","","","","",""
"null","","","html-keyboard-response","524","1177570","0.0-524.0","3gprrsje","","<span style=""color:Black; font-size:50px;"">Agent A","null","","","","",""
"null","","","video-keyboard-response","525","1180630","0.0-525.0","3gprrsje","","","null","","Agent A","scrambled","STIM_SET_1/713779.bmp_pp152_L2_V1.0_scrambled_freeview_isoFalse.mp4",""
"null","","","html-keyboard-response","526","1182133","0.0-526.0","3gprrsje","","<span style=""color:Black; font-size:50px;"">Agent B","null","","","","",""
"null","","","video-keyboard-response","527","1185197","0.0-527.0","3gprrsje","","","null","","Agent B","veridical","STIM_SET_1/713779.bmp_pp152_L2_V1.0_veridical_freeview_isoFalse.mp4",""
"","","","call-function","528","1185198","0.0-528.0","3gprrsje","","","","","","","",""
"2465.8349999999627","{""judgement"":1}","[0]","survey-likert","529","1187664","0.0-529.0","3gprrsje","","","","","","","","1"
"3831.8000000000466","{""confidence"":0}","[0]","survey-likert","530","1191498","0.0-530.0","3gprrsje","","","","","","","",""
"","","","call-function","531","1191498","0.0-531.0","3gprrsje","","","","","","","",""
"null","","","html-keyboard-response","532","1193000","0.0-532.0","3gprrsje","","<span style=""color:Black; font-size:50px;"">Agent A","null","","","","",""
"null","","","video-keyboard-response","533","1196067","0.0-533.0","3gprrsje","","","null","","Agent A","scrambled","STIM_SET_1/1592133.bmp_pp75_L1_V1.0_scrambled_freeview_isoFalse.mp4",""
"null","","","html-keyboard-response","534","1197569","0.0-534.0","3gprrsje","","<span style=""color:Black; font-size:50px;"">Agent B","null","","","","",""
"null","","","video-keyboard-response","535","1200674","0.0-535.0","3gprrsje","","","null","","Agent B","veridical","STIM_SET_1/1592133.bmp_pp75_L1_V1.0_veridical_freeview_isoFalse.mp4",""
"","","","call-function","536","1200675","0.0-536.0","3gprrsje","","","","","","","",""
"1053.7399999999907","{""judgement"":1}","[0]","survey-likert","537","1201730","0.0-537.0","3gprrsje","","","","","","","","1"
"1032.8900000001304","{""confidence"":3}","[0]","survey-likert","538","1202765","0.0-538.0","3gprrsje","","","","","","","",""
"","","","call-function","539","1202765","0.0-539.0","3gprrsje","","","","","","","",""
"null","","","html-keyboard-response","540","1204267","0.0-540.0","3gprrsje","","<span style=""color:Black; font-size:50px;"">Agent A","null","","","","",""
"null","","","video-keyboard-response","541","1207394","0.0-541.0","3gprrsje","","","null","","Agent A","scrambled","STIM_SET_1/1160168.bmp_pp53_L2_V1.0_scrambled_freeview_isoFalse.mp4",""
"null","","","html-keyboard-response","542","1208896","0.0-542.0","3gprrsje","","<span style=""color:Black; font-size:50px;"">Agent B","null","","","","",""
"null","","","video-keyboard-response","543","1211982","0.0-543.0","3gprrsje","","","null","","Agent B","veridical","STIM_SET_1/1160168.bmp_pp53_L2_V1.0_veridical_freeview_isoFalse.mp4",""
"","","","call-function","544","1211983","0.0-544.0","3gprrsje","","","","","","","",""
"3603.850000000093","{""judgement"":0}","[0]","survey-likert","545","1215588","0.0-545.0","3gprrsje","","","","","","","","1"
"1231.5250000001397","{""confidence"":1}","[0]","survey-likert","546","1216820","0.0-546.0","3gprrsje","","","","","","","",""
"","","","call-function","547","1216821","0.0-547.0","3gprrsje","","","","","","","",""
"null","","","html-keyboard-response","548","1218325","0.0-548.0","3gprrsje","","<span style=""color:Black; font-size:50px;"">Agent A","null","","","","",""
"null","","","video-keyboard-response","549","1221442","0.0-549.0","3gprrsje","","","null","","Agent A","veridical","STIM_SET_1/713620.bmp_pp65_L3_V1.0_veridical_freeview_isoFalse.mp4",""
"null","","","html-keyboard-response","550","1222948","0.0-550.0","3gprrsje","","<span style=""color:Black; font-size:50px;"">Agent B","null","","","","",""
"null","","","video-keyboard-response","551","1226065","0.0-551.0","3gprrsje","","","null","","Agent B","scrambled","STIM_SET_1/713620.bmp_pp65_L3_V1.0_scrambled_freeview_isoFalse.mp4",""
"","","","call-function","552","1226066","0.0-552.0","3gprrsje","","","","","","","",""
"2016.0349999999162","{""judgement"":0}","[0]","survey-likert","553","1228083","0.0-553.0","3gprrsje","","","","","","","","0"
"1965.0349999999162","{""confidence"":3}","[0]","survey-likert","554","1230050","0.0-554.0","3gprrsje","","","","","","","",""
"","","","call-function","555","1230050","0.0-555.0","3gprrsje","","","","","","","",""
"null","","","html-keyboard-response","556","1231553","0.0-556.0","3gprrsje","","<span style=""color:Black; font-size:50px;"">Agent A","null","","","","",""
"null","","","video-keyboard-response","557","1234677","0.0-557.0","3gprrsje","","","null","","Agent A","veridical","STIM_SET_1/1591961.bmp_pp67_L2_V1.0_veridical_freeview_isoFalse.mp4",""
"null","","","html-keyboard-response","558","1236180","0.0-558.0","3gprrsje","","<span style=""color:Black; font-size:50px;"">Agent B","null","","","","",""
"null","","","video-keyboard-response","559","1239253","0.0-559.0","3gprrsje","","","null","","Agent B","scrambled","STIM_SET_1/1591961.bmp_pp67_L2_V1.0_scrambled_freeview_isoFalse.mp4",""
"","","","call-function","560","1239254","0.0-560.0","3gprrsje","","","","","","","",""
"5831.73499999987","{""judgement"":1}","[0]","survey-likert","561","1245087","0.0-561.0","3gprrsje","","","","","","","","0"
"1248.4150000000373","{""confidence"":1}","[0]","survey-likert","562","1246337","0.0-562.0","3gprrsje","","","","","","","",""
"","","","call-function","563","1246337","0.0-563.0","3gprrsje","","","","","","","",""
"null","","","html-keyboard-response","564","1247844","0.0-564.0","3gprrsje","","<span style=""color:Black; font-size:50px;"">Agent A","null","","","","",""
"null","","","video-keyboard-response","565","1250917","0.0-565.0","3gprrsje","","","null","","Agent A","scrambled","STIM_SET_1/498111.bmp_pp88_L2_V1.0_scrambled_freeview_isoFalse.mp4",""
"null","","","html-keyboard-response","566","1252419","0.0-566.0","3gprrsje","","<span style=""color:Black; font-size:50px;"">Agent B","null","","","","",""
"null","","","video-keyboard-response","567","1255498","0.0-567.0","3gprrsje","","","null","","Agent B","veridical","STIM_SET_1/498111.bmp_pp88_L2_V1.0_veridical_freeview_isoFalse.mp4",""
"","","","call-function","568","1255499","0.0-568.0","3gprrsje","","","","","","","",""
"1375.9550000000745","{""judgement"":1}","[0]","survey-likert","569","1256876","0.0-569.0","3gprrsje","","","","","","","","1"
"896.8600000001024","{""confidence"":2}","[0]","survey-likert","570","1257774","0.0-570.0","3gprrsje","","","","","","","",""
"","","","call-function","571","1257774","0.0-571.0","3gprrsje","","","","","","","",""
"null","","","html-keyboard-response","572","1259279","0.0-572.0","3gprrsje","","<span style=""color:Black; font-size:50px;"">Agent A","null","","","","",""
"null","","","video-keyboard-response","573","1262347","0.0-573.0","3gprrsje","","","null","","Agent A","veridical","STIM_SET_1/1159882.bmp_pp61_L2_V1.0_veridical_freeview_isoFalse.mp4",""
"null","","","html-keyboard-response","574","1263850","0.0-574.0","3gprrsje","","<span style=""color:Black; font-size:50px;"">Agent B","null","","","","",""
"null","","","video-keyboard-response","575","1266957","0.0-575.0","3gprrsje","","","null","","Agent B","scrambled","STIM_SET_1/1159882.bmp_pp61_L2_V1.0_scrambled_freeview_isoFalse.mp4",""
"","","","call-function","576","1266958","0.0-576.0","3gprrsje","","","","","","","",""
"1215.0900000000838","{""judgement"":1}","[0]","survey-likert","577","1268174","0.0-577.0","3gprrsje","","","","","","","","0"
"1749.8649999999907","{""confidence"":2}","[0]","survey-likert","578","1269925","0.0-578.0","3gprrsje","","","","","","","",""
"3690.655000000028","","","instructions","579","1273616","0.0-579.0","3gprrsje","[{""page_index"":0,""viewing_time"":3690.445000000065}]","","","","","","",""
"3677.2700000000186","","","instructions","580","1277294","0.0-580.0","3gprrsje","[{""page_index"":0,""viewing_time"":3677.1650000000373}]","","","","","","",""
"21428.25","{""post-1"":2}","[0]","survey-likert","581","1298723","0.0-581.0","3gprrsje","","","","","","","",""
"11174.589999999851","{""post-1"":1}","[0]","survey-likert","582","1309900","0.0-582.0","3gprrsje","","","","","","","",""
"18382.38000000012","{""post-2"":1}","[0]","survey-likert","583","1328285","0.0-583.0","3gprrsje","","","","","","","",""
"9940.415000000037","{""post-2"":0}","[0]","survey-likert","584","1338227","0.0-584.0","3gprrsje","","","","","","","",""
"16540.485000000102","{""post-3"":1}","[0]","survey-likert","585","1354770","0.0-585.0","3gprrsje","","","","","","","",""
"3066.744999999879","{""post-3"":0}","[0]","survey-likert","586","1357838","0.0-586.0","3gprrsje","","","","","","","",""
"10629.290000000037","{""post-4"":1}","[0]","survey-likert","587","1368469","0.0-587.0","3gprrsje","","","","","","","",""
"848.3000000000466","{""post-4"":1}","[0]","survey-likert","588","1369318","0.0-588.0","3gprrsje","","","","","","","",""
"8483.030000000028","{""post-5"":0}","[0]","survey-likert","589","1377803","0.0-589.0","3gprrsje","","","","","","","",""
"2136.5450000001583","{""post-5"":1}","[0]","survey-likert","590","1379941","0.0-590.0","3gprrsje","","","","","","","",""
"241381.5399999998","{""Q0"":""I was not expecting the fast pace, maybe a little warning since the very first round caught me off guard. The example image for the hotspot made me think that there would only be one specific area that would be highlighted but in a couple of images there were some that spread out. Initially this would cause me to think that the spread out ones were robotic but since it seemed to have occurred in both agents then I was a bit confused. Maybe I misinterpreted what a hotspot can consist of.""}","","survey-text","591","1621329","0.0-591.0","3gprrsje","","","","","","","",""
"111313.09000000008","{""Q0"":""I found it easy to follow that hotpots once I got used to the pace. As the hotspots moved, I tried to analyze the image throughout and see what I would naturally gravitate toward. such as foods or faces, and then the overall movement of the hotpots. If they felt to sudden in change or too systematic then that would raise my suspicions.""}","","survey-text","592","1732646","0.0-592.0","3gprrsje","","","","","","","",""
"126300.60499999998","{""Q0"":""Sometimes my strategies would almost backfire when there was a case where both agents appear to either have robotic or human movements. Such as the images where there are faces, one can look at a particular set of faces or all the faces available in the image and so it would be hard to distinguish.""}","","survey-text","593","1858951","0.0-593.0","3gprrsje","","","","","","","",""
"26142.13500000001","","","instructions","594","1885095","0.0-594.0","3gprrsje","[{""page_index"":0,""viewing_time"":26141.98999999999}]","","","","","","",""
"18277.800000000047","{""Experimenter_end"":[""Printed ID# 3gprrsje on consent form"",""Given subject SONA credit or payment"",""Given the subject debrief form""]}","[0]","survey-multi-select","595","1903375","0.0-595.0","3gprrsje","","","","","","","",""
