"rt","responses","question_order","trial_type","trial_index","time_elapsed","internal_node_id","ID","view_history","stimulus","key_press","value","agent","condition","image","correct_answer"
"110007.04000000001","{""Experimenter"":[""Confirmed subject's identity (ID card)"",""Confirmed normal or corrected-to-normal vision"",""Obtained consent (signature and date)"",""Checked the test room lighting"",""Checked computer screen lighting"",""Checked distance from screen to chin rest (50cm)"",""Cleaned and adjusted chin rest"",""Counterbalanced the order of the tasks"",""Opened the experiment in Firefox"",""Made the experiment full screen"",""Encouraged subject to silence phone, put away distractors, etc.""]}","[0]","survey-multi-select","0","110016","0.0-0.0","44qozdc8","","","","","","","",""
"35758.610000000015","","","instructions","1","145776","0.0-1.0","44qozdc8","[{""page_index"":0,""viewing_time"":35758.455000000016}]","","","","","","",""
"13249.085000000021","","","instructions","2","159026","0.0-2.0","44qozdc8","[{""page_index"":0,""viewing_time"":2322.8399999999965},{""page_index"":1,""viewing_time"":6439.895000000019},{""page_index"":2,""viewing_time"":4486.220000000001}]","","","","","","",""
"2527.0800000000163","","","instructions","3","161554","0.0-3.0","44qozdc8","[{""page_index"":0,""viewing_time"":2526.970000000001}]","","","","","","",""
"null","","","video-keyboard-response","4","164628","0.0-4.0","44qozdc8","","","null","","","","",""
"22328.35499999998","","","instructions","5","186957","0.0-5.0","44qozdc8","[{""page_index"":0,""viewing_time"":5296.039999999979},{""page_index"":1,""viewing_time"":3368.220000000001},{""page_index"":2,""viewing_time"":881.9000000000233},{""page_index"":3,""viewing_time"":5233.954999999987},{""page_index"":4,""viewing_time"":7548.1050000000105}]","","","","","","",""
"3154.4649999999965","","","instructions","6","190112","0.0-6.0","44qozdc8","[{""page_index"":0,""viewing_time"":3154.329999999987}]","","","","","","",""
"","","","call-function","7","190112","0.0-7.0","44qozdc8","","","","","","","",""
"null","","","html-keyboard-response","8","191614","0.0-8.0","44qozdc8","","<span style=""color:Black; font-size:50px;"">Agent A","null","","","","",""
"null","","","video-keyboard-response","9","194296","0.0-9.0","44qozdc8","","","null","","Agent A","veridical","FOR_REV_BLOBBY_STIM/1160168.bmp_pp53_L2_V1.0_veridical_freeview_isoFalse_fps144.mp4",""
"null","","","html-keyboard-response","10","195802","0.0-10.0","44qozdc8","","<span style=""color:Black; font-size:50px;"">Agent B","null","","","","",""
"null","","","video-keyboard-response","11","198479","0.0-11.0","44qozdc8","","","null","","Agent B","scrambled","FOR_REV_BLOBBY_STIM/1160168.bmp_pp53_L2_V1.0_veridical_freeview_isoFalse_fps144_reversed_REAL.mp4",""
"","","","call-function","12","198481","0.0-12.0","44qozdc8","","","","","","","",""
"2549.279999999999","{""judgement"":0}","[0]","survey-likert","13","201031","0.0-13.0","44qozdc8","","","","","","","","0"
"3225.8800000000047","{""confidence"":2}","[0]","survey-likert","14","204259","0.0-14.0","44qozdc8","","","","","","","",""
"","","","call-function","15","204259","0.0-15.0","44qozdc8","","","","","","","",""
"null","","","html-keyboard-response","16","205761","0.0-16.0","44qozdc8","","<span style=""color:Black; font-size:50px;"">Agent A","null","","","","",""
"null","","","video-keyboard-response","17","208599","0.0-17.0","44qozdc8","","","null","","Agent A","veridical","FOR_REV_BLOBBY_STIM/498253.bmp_pp67_L2_V1.0_veridical_freeview_isoFalse_fps144.mp4",""
"null","","","html-keyboard-response","18","210100","0.0-18.0","44qozdc8","","<span style=""color:Black; font-size:50px;"">Agent B","null","","","","",""
"null","","","video-keyboard-response","19","212936","0.0-19.0","44qozdc8","","","null","","Agent B","scrambled","FOR_REV_BLOBBY_STIM/498253.bmp_pp67_L2_V1.0_veridical_freeview_isoFalse_fps144_reversed_REAL.mp4",""
"","","","call-function","20","212936","0.0-20.0","44qozdc8","","","","","","","",""
"2169.36500000002","{""judgement"":0}","[0]","survey-likert","21","215107","0.0-21.0","44qozdc8","","","","","","","","0"
"1034.8450000000012","{""confidence"":2}","[0]","survey-likert","22","216143","0.0-22.0","44qozdc8","","","","","","","",""
"","","","call-function","23","216143","0.0-23.0","44qozdc8","","","","","","","",""
"null","","","html-keyboard-response","24","217646","0.0-24.0","44qozdc8","","<span style=""color:Black; font-size:50px;"">Agent A","null","","","","",""
"null","","","video-keyboard-response","25","220282","0.0-25.0","44qozdc8","","","null","","Agent A","veridical","FOR_REV_BLOBBY_STIM/498149.bmp_pp99_L2_V1.0_veridical_freeview_isoFalse_fps144.mp4",""
"null","","","html-keyboard-response","26","221785","0.0-26.0","44qozdc8","","<span style=""color:Black; font-size:50px;"">Agent B","null","","","","",""
"null","","","video-keyboard-response","27","224446","0.0-27.0","44qozdc8","","","null","","Agent B","scrambled","FOR_REV_BLOBBY_STIM/498149.bmp_pp99_L2_V1.0_veridical_freeview_isoFalse_fps144_reversed_REAL.mp4",""
"","","","call-function","28","224447","0.0-28.0","44qozdc8","","","","","","","",""
"2002.6100000000151","{""judgement"":1}","[0]","survey-likert","29","226450","0.0-29.0","44qozdc8","","","","","","","","0"
"1552.8549999999814","{""confidence"":3}","[0]","survey-likert","30","228004","0.0-30.0","44qozdc8","","","","","","","",""
"","","","call-function","31","228005","0.0-31.0","44qozdc8","","","","","","","",""
"null","","","html-keyboard-response","32","229507","0.0-32.0","44qozdc8","","<span style=""color:Black; font-size:50px;"">Agent A","null","","","","",""
"null","","","video-keyboard-response","33","232258","0.0-33.0","44qozdc8","","","null","","Agent A","veridical","FOR_REV_BLOBBY_STIM/498111.bmp_pp88_L2_V1.0_veridical_freeview_isoFalse_fps144.mp4",""
"null","","","html-keyboard-response","34","233764","0.0-34.0","44qozdc8","","<span style=""color:Black; font-size:50px;"">Agent B","null","","","","",""
"null","","","video-keyboard-response","35","236637","0.0-35.0","44qozdc8","","","null","","Agent B","scrambled","FOR_REV_BLOBBY_STIM/498111.bmp_pp88_L2_V1.0_veridical_freeview_isoFalse_fps144_reversed_REAL.mp4",""
"","","","call-function","36","236638","0.0-36.0","44qozdc8","","","","","","","",""
"2233.7750000000233","{""judgement"":0}","[0]","survey-likert","37","238873","0.0-37.0","44qozdc8","","","","","","","","0"
"1309.609999999986","{""confidence"":2}","[0]","survey-likert","38","240183","0.0-38.0","44qozdc8","","","","","","","",""
"","","","call-function","39","240184","0.0-39.0","44qozdc8","","","","","","","",""
"null","","","html-keyboard-response","40","241686","0.0-40.0","44qozdc8","","<span style=""color:Black; font-size:50px;"">Agent A","null","","","","",""
"null","","","video-keyboard-response","41","244540","0.0-41.0","44qozdc8","","","null","","Agent A","veridical","FOR_REV_BLOBBY_STIM/1591961.bmp_pp67_L2_V1.0_veridical_freeview_isoFalse_fps144.mp4",""
"null","","","html-keyboard-response","42","246047","0.0-42.0","44qozdc8","","<span style=""color:Black; font-size:50px;"">Agent B","null","","","","",""
"null","","","video-keyboard-response","43","248891","0.0-43.0","44qozdc8","","","null","","Agent B","scrambled","FOR_REV_BLOBBY_STIM/1591961.bmp_pp67_L2_V1.0_veridical_freeview_isoFalse_fps144_reversed_REAL.mp4",""
"","","","call-function","44","248891","0.0-44.0","44qozdc8","","","","","","","",""
"1444","{""judgement"":0}","[0]","survey-likert","45","250336","0.0-45.0","44qozdc8","","","","","","","","0"
"1578","{""confidence"":2}","[0]","survey-likert","46","251915","0.0-46.0","44qozdc8","","","","","","","",""
"","","","call-function","47","251916","0.0-47.0","44qozdc8","","","","","","","",""
"null","","","html-keyboard-response","48","253417","0.0-48.0","44qozdc8","","<span style=""color:Black; font-size:50px;"">Agent A","null","","","","",""
"null","","","video-keyboard-response","49","256237","0.0-49.0","44qozdc8","","","null","","Agent A","scrambled","FOR_REV_BLOBBY_STIM/713135.bmp_pp54_L2_V1.0_veridical_freeview_isoFalse_fps144_reversed_REAL.mp4",""
"null","","","html-keyboard-response","50","257739","0.0-50.0","44qozdc8","","<span style=""color:Black; font-size:50px;"">Agent B","null","","","","",""
"null","","","video-keyboard-response","51","260559","0.0-51.0","44qozdc8","","","null","","Agent B","veridical","FOR_REV_BLOBBY_STIM/713135.bmp_pp54_L2_V1.0_veridical_freeview_isoFalse_fps144.mp4",""
"","","","call-function","52","260559","0.0-52.0","44qozdc8","","","","","","","",""
"1208.8549999999814","{""judgement"":1}","[0]","survey-likert","53","261769","0.0-53.0","44qozdc8","","","","","","","","1"
"2358.834999999992","{""confidence"":1}","[0]","survey-likert","54","264129","0.0-54.0","44qozdc8","","","","","","","",""
"","","","call-function","55","264129","0.0-55.0","44qozdc8","","","","","","","",""
"null","","","html-keyboard-response","56","265634","0.0-56.0","44qozdc8","","<span style=""color:Black; font-size:50px;"">Agent A","null","","","","",""
"null","","","video-keyboard-response","57","268387","0.0-57.0","44qozdc8","","","null","","Agent A","veridical","FOR_REV_BLOBBY_STIM/498155.bmp_pp61_L2_V1.0_veridical_freeview_isoFalse_fps144.mp4",""
"null","","","html-keyboard-response","58","269891","0.0-58.0","44qozdc8","","<span style=""color:Black; font-size:50px;"">Agent B","null","","","","",""
"null","","","video-keyboard-response","59","272644","0.0-59.0","44qozdc8","","","null","","Agent B","scrambled","FOR_REV_BLOBBY_STIM/498155.bmp_pp61_L2_V1.0_veridical_freeview_isoFalse_fps144_reversed_REAL.mp4",""
"","","","call-function","60","272644","0.0-60.0","44qozdc8","","","","","","","",""
"1390.405000000028","{""judgement"":0}","[0]","survey-likert","61","274035","0.0-61.0","44qozdc8","","","","","","","","0"
"2346.8850000000093","{""confidence"":2}","[0]","survey-likert","62","276383","0.0-62.0","44qozdc8","","","","","","","",""
"","","","call-function","63","276384","0.0-63.0","44qozdc8","","","","","","","",""
"null","","","html-keyboard-response","64","277887","0.0-64.0","44qozdc8","","<span style=""color:Black; font-size:50px;"">Agent A","null","","","","",""
"null","","","video-keyboard-response","65","280654","0.0-65.0","44qozdc8","","","null","","Agent A","veridical","FOR_REV_BLOBBY_STIM/1159621.bmp_pp92_L3_V1.0_veridical_freeview_isoFalse_fps144.mp4",""
"null","","","html-keyboard-response","66","282159","0.0-66.0","44qozdc8","","<span style=""color:Black; font-size:50px;"">Agent B","null","","","","",""
"null","","","video-keyboard-response","67","284926","0.0-67.0","44qozdc8","","","null","","Agent B","scrambled","FOR_REV_BLOBBY_STIM/1159621.bmp_pp92_L3_V1.0_veridical_freeview_isoFalse_fps144_reversed_REAL.mp4",""
"","","","call-function","68","284927","0.0-68.0","44qozdc8","","","","","","","",""
"1428.445000000007","{""judgement"":0}","[0]","survey-likert","69","286356","0.0-69.0","44qozdc8","","","","","","","","0"
"1467.695000000007","{""confidence"":1}","[0]","survey-likert","70","287825","0.0-70.0","44qozdc8","","","","","","","",""
"","","","call-function","71","287825","0.0-71.0","44qozdc8","","","","","","","",""
"null","","","html-keyboard-response","72","289330","0.0-72.0","44qozdc8","","<span style=""color:Black; font-size:50px;"">Agent A","null","","","","",""
"null","","","video-keyboard-response","73","292191","0.0-73.0","44qozdc8","","","null","","Agent A","scrambled","FOR_REV_BLOBBY_STIM/1159675.bmp_pp77_L3_V1.0_veridical_freeview_isoFalse_fps144_reversed_REAL.mp4",""
"null","","","html-keyboard-response","74","293695","0.0-74.0","44qozdc8","","<span style=""color:Black; font-size:50px;"">Agent B","null","","","","",""
"null","","","video-keyboard-response","75","296553","0.0-75.0","44qozdc8","","","null","","Agent B","veridical","FOR_REV_BLOBBY_STIM/1159675.bmp_pp77_L3_V1.0_veridical_freeview_isoFalse_fps144.mp4",""
"","","","call-function","76","296554","0.0-76.0","44qozdc8","","","","","","","",""
"3672.280000000028","{""judgement"":1}","[0]","survey-likert","77","300228","0.0-77.0","44qozdc8","","","","","","","","1"
"1460.0999999999767","{""confidence"":1}","[0]","survey-likert","78","301690","0.0-78.0","44qozdc8","","","","","","","",""
"","","","call-function","79","301691","0.0-79.0","44qozdc8","","","","","","","",""
"null","","","html-keyboard-response","80","303194","0.0-80.0","44qozdc8","","<span style=""color:Black; font-size:50px;"">Agent A","null","","","","",""
"null","","","video-keyboard-response","81","306002","0.0-81.0","44qozdc8","","","null","","Agent A","scrambled","FOR_REV_BLOBBY_STIM/1592351.bmp_pp51_L1_V1.0_veridical_freeview_isoFalse_fps144_reversed_REAL.mp4",""
"null","","","html-keyboard-response","82","307508","0.0-82.0","44qozdc8","","<span style=""color:Black; font-size:50px;"">Agent B","null","","","","",""
"null","","","video-keyboard-response","83","310301","0.0-83.0","44qozdc8","","","null","","Agent B","veridical","FOR_REV_BLOBBY_STIM/1592351.bmp_pp51_L1_V1.0_veridical_freeview_isoFalse_fps144.mp4",""
"","","","call-function","84","310302","0.0-84.0","44qozdc8","","","","","","","",""
"1324.5449999999837","{""judgement"":0}","[0]","survey-likert","85","311628","0.0-85.0","44qozdc8","","","","","","","","1"
"1434.8800000000047","{""confidence"":1}","[0]","survey-likert","86","313064","0.0-86.0","44qozdc8","","","","","","","",""
"3986.054999999993","","","instructions","87","317051","0.0-87.0","44qozdc8","[{""page_index"":0,""viewing_time"":964.2999999999884},{""page_index"":1,""viewing_time"":967.9550000000163},{""page_index"":2,""viewing_time"":2053.5849999999627}]","","","","","","",""
"3584.445000000007","","","instructions","88","320636","0.0-88.0","44qozdc8","[{""page_index"":0,""viewing_time"":452.3949999999604},{""page_index"":1,""viewing_time"":2558.9700000000303},{""page_index"":2,""viewing_time"":572.9699999999721}]","","","","","","",""
"","","","call-function","89","320636","0.0-89.0","44qozdc8","","","","","","","",""
"null","","","html-keyboard-response","90","322141","0.0-90.0","44qozdc8","","<span style=""color:Black; font-size:50px;"">Agent A","null","","","","",""
"null","","","video-keyboard-response","91","326037","0.0-91.0","44qozdc8","","","null","","Agent A","scrambled","FOR_REV_BLOBBY_STIM/1159855.bmp_pp99_L2_V1.0_veridical_freeview_isoFalse_fps144_reversed_REAL.mp4",""
"null","","","html-keyboard-response","92","327540","0.0-92.0","44qozdc8","","<span style=""color:Black; font-size:50px;"">Agent B","null","","","","",""
"null","","","video-keyboard-response","93","330313","0.0-93.0","44qozdc8","","","null","","Agent B","veridical","FOR_REV_BLOBBY_STIM/1159855.bmp_pp99_L2_V1.0_veridical_freeview_isoFalse_fps144.mp4",""
"","","","call-function","94","330314","0.0-94.0","44qozdc8","","","","","","","",""
"1546.2449999999953","{""judgement"":0}","[0]","survey-likert","95","331861","0.0-95.0","44qozdc8","","","","","","","","1"
"1524.774999999965","{""confidence"":2}","[0]","survey-likert","96","333387","0.0-96.0","44qozdc8","","","","","","","",""
"","","","call-function","97","333387","0.0-97.0","44qozdc8","","","","","","","",""
"null","","","html-keyboard-response","98","334890","0.0-98.0","44qozdc8","","<span style=""color:Black; font-size:50px;"">Agent A","null","","","","",""
"null","","","video-keyboard-response","99","337545","0.0-99.0","44qozdc8","","","null","","Agent A","veridical","FOR_REV_BLOBBY_STIM/713707.bmp_pp154_L1_V1.0_veridical_freeview_isoFalse_fps144.mp4",""
"null","","","html-keyboard-response","100","339049","0.0-100.0","44qozdc8","","<span style=""color:Black; font-size:50px;"">Agent B","null","","","","",""
"null","","","video-keyboard-response","101","341710","0.0-101.0","44qozdc8","","","null","","Agent B","scrambled","FOR_REV_BLOBBY_STIM/713707.bmp_pp154_L1_V1.0_veridical_freeview_isoFalse_fps144_reversed_REAL.mp4",""
"","","","call-function","102","341710","0.0-102.0","44qozdc8","","","","","","","",""
"2676.9349999999977","{""judgement"":0}","[0]","survey-likert","103","344388","0.0-103.0","44qozdc8","","","","","","","","0"
"1162.4500000000116","{""confidence"":1}","[0]","survey-likert","104","345551","0.0-104.0","44qozdc8","","","","","","","",""
"","","","call-function","105","345552","0.0-105.0","44qozdc8","","","","","","","",""
"null","","","html-keyboard-response","106","347055","0.0-106.0","44qozdc8","","<span style=""color:Black; font-size:50px;"">Agent A","null","","","","",""
"null","","","video-keyboard-response","107","349764","0.0-107.0","44qozdc8","","","null","","Agent A","veridical","FOR_REV_BLOBBY_STIM/285994.bmp_pp92_L3_V1.0_veridical_freeview_isoFalse_fps144.mp4",""
"null","","","html-keyboard-response","108","351267","0.0-108.0","44qozdc8","","<span style=""color:Black; font-size:50px;"">Agent B","null","","","","",""
"null","","","video-keyboard-response","109","353974","0.0-109.0","44qozdc8","","","null","","Agent B","scrambled","FOR_REV_BLOBBY_STIM/285994.bmp_pp92_L3_V1.0_veridical_freeview_isoFalse_fps144_reversed_REAL.mp4",""
"","","","call-function","110","353974","0.0-110.0","44qozdc8","","","","","","","",""
"1512.179999999993","{""judgement"":0}","[0]","survey-likert","111","355487","0.0-111.0","44qozdc8","","","","","","","","0"
"1569.5900000000256","{""confidence"":2}","[0]","survey-likert","112","357058","0.0-112.0","44qozdc8","","","","","","","",""
"","","","call-function","113","357058","0.0-113.0","44qozdc8","","","","","","","",""
"null","","","html-keyboard-response","114","358565","0.0-114.0","44qozdc8","","<span style=""color:Black; font-size:50px;"">Agent A","null","","","","",""
"null","","","video-keyboard-response","115","361369","0.0-115.0","44qozdc8","","","null","","Agent A","veridical","FOR_REV_BLOBBY_STIM/713620.bmp_pp65_L3_V1.0_veridical_freeview_isoFalse_fps144.mp4",""
"null","","","html-keyboard-response","116","362874","0.0-116.0","44qozdc8","","<span style=""color:Black; font-size:50px;"">Agent B","null","","","","",""
"null","","","video-keyboard-response","117","365678","0.0-117.0","44qozdc8","","","null","","Agent B","scrambled","FOR_REV_BLOBBY_STIM/713620.bmp_pp65_L3_V1.0_veridical_freeview_isoFalse_fps144_reversed_REAL.mp4",""
"","","","call-function","118","365678","0.0-118.0","44qozdc8","","","","","","","",""
"2521.5100000000093","{""judgement"":0}","[0]","survey-likert","119","368201","0.0-119.0","44qozdc8","","","","","","","","0"
"2453.240000000049","{""confidence"":2}","[0]","survey-likert","120","370655","0.0-120.0","44qozdc8","","","","","","","",""
"","","","call-function","121","370656","0.0-121.0","44qozdc8","","","","","","","",""
"null","","","html-keyboard-response","122","372158","0.0-122.0","44qozdc8","","<span style=""color:Black; font-size:50px;"">Agent A","null","","","","",""
"null","","","video-keyboard-response","123","374772","0.0-123.0","44qozdc8","","","null","","Agent A","veridical","FOR_REV_BLOBBY_STIM/61537.bmp_pp73_L3_V1.0_veridical_freeview_isoFalse_fps144.mp4",""
"null","","","html-keyboard-response","124","376276","0.0-124.0","44qozdc8","","<span style=""color:Black; font-size:50px;"">Agent B","null","","","","",""
"null","","","video-keyboard-response","125","378891","0.0-125.0","44qozdc8","","","null","","Agent B","scrambled","FOR_REV_BLOBBY_STIM/61537.bmp_pp73_L3_V1.0_veridical_freeview_isoFalse_fps144_reversed_REAL.mp4",""
"","","","call-function","126","378892","0.0-126.0","44qozdc8","","","","","","","",""
"1499.1599999999744","{""judgement"":0}","[0]","survey-likert","127","380392","0.0-127.0","44qozdc8","","","","","","","","0"
"1392.9199999999837","{""confidence"":1}","[0]","survey-likert","128","381786","0.0-128.0","44qozdc8","","","","","","","",""
"","","","call-function","129","381787","0.0-129.0","44qozdc8","","","","","","","",""
"null","","","html-keyboard-response","130","383289","0.0-130.0","44qozdc8","","<span style=""color:Black; font-size:50px;"">Agent A","null","","","","",""
"null","","","video-keyboard-response","131","386168","0.0-131.0","44qozdc8","","","null","","Agent A","scrambled","FOR_REV_BLOBBY_STIM/1159572.bmp_pp71_L1_V1.0_veridical_freeview_isoFalse_fps144_reversed_REAL.mp4",""
"null","","","html-keyboard-response","132","387670","0.0-132.0","44qozdc8","","<span style=""color:Black; font-size:50px;"">Agent B","null","","","","",""
"null","","","video-keyboard-response","133","390522","0.0-133.0","44qozdc8","","","null","","Agent B","veridical","FOR_REV_BLOBBY_STIM/1159572.bmp_pp71_L1_V1.0_veridical_freeview_isoFalse_fps144.mp4",""
"","","","call-function","134","390523","0.0-134.0","44qozdc8","","","","","","","",""
"1667.295000000042","{""judgement"":0}","[0]","survey-likert","135","392192","0.0-135.0","44qozdc8","","","","","","","","1"
"1611.9949999999953","{""confidence"":2}","[0]","survey-likert","136","393805","0.0-136.0","44qozdc8","","","","","","","",""
"","","","call-function","137","393806","0.0-137.0","44qozdc8","","","","","","","",""
"null","","","html-keyboard-response","138","395312","0.0-138.0","44qozdc8","","<span style=""color:Black; font-size:50px;"">Agent A","null","","","","",""
"null","","","video-keyboard-response","139","398146","0.0-139.0","44qozdc8","","","null","","Agent A","scrambled","FOR_REV_BLOBBY_STIM/497950.bmp_pp151_L1_V1.0_veridical_freeview_isoFalse_fps144_reversed_REAL.mp4",""
"null","","","html-keyboard-response","140","399649","0.0-140.0","44qozdc8","","<span style=""color:Black; font-size:50px;"">Agent B","null","","","","",""
"null","","","video-keyboard-response","141","402484","0.0-141.0","44qozdc8","","","null","","Agent B","veridical","FOR_REV_BLOBBY_STIM/497950.bmp_pp151_L1_V1.0_veridical_freeview_isoFalse_fps144.mp4",""
"","","","call-function","142","402485","0.0-142.0","44qozdc8","","","","","","","",""
"1929.6750000000466","{""judgement"":1}","[0]","survey-likert","143","404416","0.0-143.0","44qozdc8","","","","","","","","1"
"2370.115000000049","{""confidence"":2}","[0]","survey-likert","144","406787","0.0-144.0","44qozdc8","","","","","","","",""
"","","","call-function","145","406788","0.0-145.0","44qozdc8","","","","","","","",""
"null","","","html-keyboard-response","146","408292","0.0-146.0","44qozdc8","","<span style=""color:Black; font-size:50px;"">Agent A","null","","","","",""
"null","","","video-keyboard-response","147","411132","0.0-147.0","44qozdc8","","","null","","Agent A","veridical","FOR_REV_BLOBBY_STIM/1592286.bmp_pp52_L1_V1.0_veridical_freeview_isoFalse_fps144.mp4",""
"null","","","html-keyboard-response","148","412633","0.0-148.0","44qozdc8","","<span style=""color:Black; font-size:50px;"">Agent B","null","","","","",""
"null","","","video-keyboard-response","149","415452","0.0-149.0","44qozdc8","","","null","","Agent B","scrambled","FOR_REV_BLOBBY_STIM/1592286.bmp_pp52_L1_V1.0_veridical_freeview_isoFalse_fps144_reversed_REAL.mp4",""
"","","","call-function","150","415453","0.0-150.0","44qozdc8","","","","","","","",""
"1412.2150000000256","{""judgement"":0}","[0]","survey-likert","151","416866","0.0-151.0","44qozdc8","","","","","","","","0"
"1731.210000000021","{""confidence"":2}","[0]","survey-likert","152","418598","0.0-152.0","44qozdc8","","","","","","","",""
"","","","call-function","153","418599","0.0-153.0","44qozdc8","","","","","","","",""
"null","","","html-keyboard-response","154","420105","0.0-154.0","44qozdc8","","<span style=""color:Black; font-size:50px;"">Agent A","null","","","","",""
"null","","","video-keyboard-response","155","422921","0.0-155.0","44qozdc8","","","null","","Agent A","veridical","FOR_REV_BLOBBY_STIM/1159446.bmp_pp60_L3_V1.0_veridical_freeview_isoFalse_fps144.mp4",""
"null","","","html-keyboard-response","156","424426","0.0-156.0","44qozdc8","","<span style=""color:Black; font-size:50px;"">Agent B","null","","","","",""
"null","","","video-keyboard-response","157","427172","0.0-157.0","44qozdc8","","","null","","Agent B","scrambled","FOR_REV_BLOBBY_STIM/1159446.bmp_pp60_L3_V1.0_veridical_freeview_isoFalse_fps144_reversed_REAL.mp4",""
"","","","call-function","158","427173","0.0-158.0","44qozdc8","","","","","","","",""
"1681.765000000014","{""judgement"":0}","[0]","survey-likert","159","428855","0.0-159.0","44qozdc8","","","","","","","","0"
"3958.7600000000093","{""confidence"":2}","[0]","survey-likert","160","432815","0.0-160.0","44qozdc8","","","","","","","",""
"","","","call-function","161","432816","0.0-161.0","44qozdc8","","","","","","","",""
"null","","","html-keyboard-response","162","434319","0.0-162.0","44qozdc8","","<span style=""color:Black; font-size:50px;"">Agent A","null","","","","",""
"null","","","video-keyboard-response","163","437140","0.0-163.0","44qozdc8","","","null","","Agent A","scrambled","FOR_REV_BLOBBY_STIM/1159784.bmp_pp73_L3_V1.0_veridical_freeview_isoFalse_fps144_reversed_REAL.mp4",""
"null","","","html-keyboard-response","164","438645","0.0-164.0","44qozdc8","","<span style=""color:Black; font-size:50px;"">Agent B","null","","","","",""
"null","","","video-keyboard-response","165","441460","0.0-165.0","44qozdc8","","","null","","Agent B","veridical","FOR_REV_BLOBBY_STIM/1159784.bmp_pp73_L3_V1.0_veridical_freeview_isoFalse_fps144.mp4",""
"","","","call-function","166","441461","0.0-166.0","44qozdc8","","","","","","","",""
"2359.2999999999884","{""judgement"":0}","[0]","survey-likert","167","443821","0.0-167.0","44qozdc8","","","","","","","","1"
"941.1599999999744","{""confidence"":1}","[0]","survey-likert","168","444763","0.0-168.0","44qozdc8","","","","","","","",""
"4677.650000000023","","","instructions","169","449441","0.0-169.0","44qozdc8","[{""page_index"":0,""viewing_time"":2245.5599999999977},{""page_index"":1,""viewing_time"":1849.9400000000023},{""page_index"":2,""viewing_time"":581.945000000007}]","","","","","","",""
"1781.4099999999744","","","instructions","170","451223","0.0-170.0","44qozdc8","[{""page_index"":0,""viewing_time"":603.804999999993},{""page_index"":1,""viewing_time"":738.0499999999884},{""page_index"":2,""viewing_time"":439.45000000001164}]","","","","","","",""
"","","","call-function","171","451223","0.0-171.0","44qozdc8","","","","","","","",""
"null","","","html-keyboard-response","172","452729","0.0-172.0","44qozdc8","","<span style=""color:Black; font-size:50px;"">Agent A","null","","","","",""
"null","","","video-keyboard-response","173","455375","0.0-173.0","44qozdc8","","","null","","Agent A","veridical","FOR_REV_BLOBBY_STIM/713779.bmp_pp152_L2_V1.0_veridical_freeview_isoFalse_fps144.mp4",""
"null","","","html-keyboard-response","174","456880","0.0-174.0","44qozdc8","","<span style=""color:Black; font-size:50px;"">Agent B","null","","","","",""
"null","","","video-keyboard-response","175","459524","0.0-175.0","44qozdc8","","","null","","Agent B","scrambled","FOR_REV_BLOBBY_STIM/713779.bmp_pp152_L2_V1.0_veridical_freeview_isoFalse_fps144_reversed_REAL.mp4",""
"","","","call-function","176","459525","0.0-176.0","44qozdc8","","","","","","","",""
"1953.710000000021","{""judgement"":1}","[0]","survey-likert","177","461479","0.0-177.0","44qozdc8","","","","","","","","0"
"1210.359999999986","{""confidence"":2}","[0]","survey-likert","178","462691","0.0-178.0","44qozdc8","","","","","","","",""
"","","","call-function","179","462692","0.0-179.0","44qozdc8","","","","","","","",""
"null","","","html-keyboard-response","180","464197","0.0-180.0","44qozdc8","","<span style=""color:Black; font-size:50px;"">Agent A","null","","","","",""
"null","","","video-keyboard-response","181","466964","0.0-181.0","44qozdc8","","","null","","Agent A","scrambled","FOR_REV_BLOBBY_STIM/1592499.bmp_pp96_L2_V1.0_veridical_freeview_isoFalse_fps144_reversed_REAL.mp4",""
"null","","","html-keyboard-response","182","468469","0.0-182.0","44qozdc8","","<span style=""color:Black; font-size:50px;"">Agent B","null","","","","",""
"null","","","video-keyboard-response","183","471238","0.0-183.0","44qozdc8","","","null","","Agent B","veridical","FOR_REV_BLOBBY_STIM/1592499.bmp_pp96_L2_V1.0_veridical_freeview_isoFalse_fps144.mp4",""
"","","","call-function","184","471238","0.0-184.0","44qozdc8","","","","","","","",""
"2791.6350000000093","{""judgement"":1}","[0]","survey-likert","185","474031","0.0-185.0","44qozdc8","","","","","","","","1"
"1335.7999999999884","{""confidence"":1}","[0]","survey-likert","186","475368","0.0-186.0","44qozdc8","","","","","","","",""
"","","","call-function","187","475369","0.0-187.0","44qozdc8","","","","","","","",""
"null","","","html-keyboard-response","188","476873","0.0-188.0","44qozdc8","","<span style=""color:Black; font-size:50px;"">Agent A","null","","","","",""
"null","","","video-keyboard-response","189","479614","0.0-189.0","44qozdc8","","","null","","Agent A","veridical","FOR_REV_BLOBBY_STIM/1592581.bmp_pp100_L3_V1.0_veridical_freeview_isoFalse_fps144.mp4",""
"null","","","html-keyboard-response","190","481120","0.0-190.0","44qozdc8","","<span style=""color:Black; font-size:50px;"">Agent B","null","","","","",""
"null","","","video-keyboard-response","191","483860","0.0-191.0","44qozdc8","","","null","","Agent B","scrambled","FOR_REV_BLOBBY_STIM/1592581.bmp_pp100_L3_V1.0_veridical_freeview_isoFalse_fps144_reversed_REAL.mp4",""
"","","","call-function","192","483861","0.0-192.0","44qozdc8","","","","","","","",""
"2070.7949999999837","{""judgement"":0}","[0]","survey-likert","193","485933","0.0-193.0","44qozdc8","","","","","","","","0"
"3938.890000000014","{""confidence"":1}","[0]","survey-likert","194","489874","0.0-194.0","44qozdc8","","","","","","","",""
"","","","call-function","195","489875","0.0-195.0","44qozdc8","","","","","","","",""
"null","","","html-keyboard-response","196","491380","0.0-196.0","44qozdc8","","<span style=""color:Black; font-size:50px;"">Agent A","null","","","","",""
"null","","","video-keyboard-response","197","493908","0.0-197.0","44qozdc8","","","null","","Agent A","scrambled","FOR_REV_BLOBBY_STIM/1159813.bmp_pp79_L2_V1.0_veridical_freeview_isoFalse_fps144_reversed_REAL.mp4",""
"null","","","html-keyboard-response","198","495412","0.0-198.0","44qozdc8","","<span style=""color:Black; font-size:50px;"">Agent B","null","","","","",""
"null","","","video-keyboard-response","199","497944","0.0-199.0","44qozdc8","","","null","","Agent B","veridical","FOR_REV_BLOBBY_STIM/1159813.bmp_pp79_L2_V1.0_veridical_freeview_isoFalse_fps144.mp4",""
"","","","call-function","200","497945","0.0-200.0","44qozdc8","","","","","","","",""
"3063.195000000007","{""judgement"":1}","[0]","survey-likert","201","501010","0.0-201.0","44qozdc8","","","","","","","","1"
"2178.140000000014","{""confidence"":2}","[0]","survey-likert","202","503190","0.0-202.0","44qozdc8","","","","","","","",""
"","","","call-function","203","503190","0.0-203.0","44qozdc8","","","","","","","",""
"null","","","html-keyboard-response","204","504693","0.0-204.0","44qozdc8","","<span style=""color:Black; font-size:50px;"">Agent A","null","","","","",""
"null","","","video-keyboard-response","205","506278","0.0-205.0","44qozdc8","","","null","","Agent A","scrambled","FOR_REV_BLOBBY_STIM/713684.bmp_pp85_L3_V1.0_veridical_freeview_isoFalse_fps144_reversed_REAL.mp4",""
"null","","","html-keyboard-response","206","507780","0.0-206.0","44qozdc8","","<span style=""color:Black; font-size:50px;"">Agent B","null","","","","",""
"null","","","video-keyboard-response","207","509364","0.0-207.0","44qozdc8","","","null","","Agent B","veridical","FOR_REV_BLOBBY_STIM/713684.bmp_pp85_L3_V1.0_veridical_freeview_isoFalse_fps144.mp4",""
"","","","call-function","208","509365","0.0-208.0","44qozdc8","","","","","","","",""
"1829.914999999979","{""judgement"":1}","[0]","survey-likert","209","511195","0.0-209.0","44qozdc8","","","","","","","","1"
"1355.4150000000373","{""confidence"":1}","[0]","survey-likert","210","512552","0.0-210.0","44qozdc8","","","","","","","",""
"","","","call-function","211","512553","0.0-211.0","44qozdc8","","","","","","","",""
"null","","","html-keyboard-response","212","514053","0.0-212.0","44qozdc8","","<span style=""color:Black; font-size:50px;"">Agent A","null","","","","",""
"null","","","video-keyboard-response","213","516899","0.0-213.0","44qozdc8","","","null","","Agent A","scrambled","FOR_REV_BLOBBY_STIM/1159882.bmp_pp61_L2_V1.0_veridical_freeview_isoFalse_fps144_reversed_REAL.mp4",""
"null","","","html-keyboard-response","214","518404","0.0-214.0","44qozdc8","","<span style=""color:Black; font-size:50px;"">Agent B","null","","","","",""
"null","","","video-keyboard-response","215","521243","0.0-215.0","44qozdc8","","","null","","Agent B","veridical","FOR_REV_BLOBBY_STIM/1159882.bmp_pp61_L2_V1.0_veridical_freeview_isoFalse_fps144.mp4",""
"","","","call-function","216","521244","0.0-216.0","44qozdc8","","","","","","","",""
"1385.4150000000373","{""judgement"":0}","[0]","survey-likert","217","522630","0.0-217.0","44qozdc8","","","","","","","","1"
"1752.6949999999488","{""confidence"":2}","[0]","survey-likert","218","524384","0.0-218.0","44qozdc8","","","","","","","",""
"","","","call-function","219","524384","0.0-219.0","44qozdc8","","","","","","","",""
"null","","","html-keyboard-response","220","525887","0.0-220.0","44qozdc8","","<span style=""color:Black; font-size:50px;"">Agent A","null","","","","",""
"null","","","video-keyboard-response","221","528732","0.0-221.0","44qozdc8","","","null","","Agent A","scrambled","FOR_REV_BLOBBY_STIM/713593.bmp_pp64_L1_V1.0_veridical_freeview_isoFalse_fps144_reversed_REAL.mp4",""
"null","","","html-keyboard-response","222","530233","0.0-222.0","44qozdc8","","<span style=""color:Black; font-size:50px;"">Agent B","null","","","","",""
"null","","","video-keyboard-response","223","533077","0.0-223.0","44qozdc8","","","null","","Agent B","veridical","FOR_REV_BLOBBY_STIM/713593.bmp_pp64_L1_V1.0_veridical_freeview_isoFalse_fps144.mp4",""
"","","","call-function","224","533077","0.0-224.0","44qozdc8","","","","","","","",""
"2829.890000000014","{""judgement"":1}","[0]","survey-likert","225","535908","0.0-225.0","44qozdc8","","","","","","","","1"
"4005.590000000084","{""confidence"":2}","[0]","survey-likert","226","539915","0.0-226.0","44qozdc8","","","","","","","",""
"","","","call-function","227","539916","0.0-227.0","44qozdc8","","","","","","","",""
"null","","","html-keyboard-response","228","541418","0.0-228.0","44qozdc8","","<span style=""color:Black; font-size:50px;"">Agent A","null","","","","",""
"null","","","video-keyboard-response","229","544033","0.0-229.0","44qozdc8","","","null","","Agent A","scrambled","FOR_REV_BLOBBY_STIM/1593146.bmp_pp93_L1_V1.0_veridical_freeview_isoFalse_fps144_reversed_REAL.mp4",""
"null","","","html-keyboard-response","230","545535","0.0-230.0","44qozdc8","","<span style=""color:Black; font-size:50px;"">Agent B","null","","","","",""
"null","","","video-keyboard-response","231","548164","0.0-231.0","44qozdc8","","","null","","Agent B","veridical","FOR_REV_BLOBBY_STIM/1593146.bmp_pp93_L1_V1.0_veridical_freeview_isoFalse_fps144.mp4",""
"","","","call-function","232","548164","0.0-232.0","44qozdc8","","","","","","","",""
"1503.3049999999348","{""judgement"":1}","[0]","survey-likert","233","549668","0.0-233.0","44qozdc8","","","","","","","","1"
"1385.0999999999767","{""confidence"":2}","[0]","survey-likert","234","551054","0.0-234.0","44qozdc8","","","","","","","",""
"","","","call-function","235","551055","0.0-235.0","44qozdc8","","","","","","","",""
"null","","","html-keyboard-response","236","552558","0.0-236.0","44qozdc8","","<span style=""color:Black; font-size:50px;"">Agent A","null","","","","",""
"null","","","video-keyboard-response","237","555340","0.0-237.0","44qozdc8","","","null","","Agent A","veridical","FOR_REV_BLOBBY_STIM/1593041.bmp_pp58_L1_V1.0_veridical_freeview_isoFalse_fps144.mp4",""
"null","","","html-keyboard-response","238","556843","0.0-238.0","44qozdc8","","<span style=""color:Black; font-size:50px;"">Agent B","null","","","","",""
"null","","","video-keyboard-response","239","559601","0.0-239.0","44qozdc8","","","null","","Agent B","scrambled","FOR_REV_BLOBBY_STIM/1593041.bmp_pp58_L1_V1.0_veridical_freeview_isoFalse_fps144_reversed_REAL.mp4",""
"","","","call-function","240","559601","0.0-240.0","44qozdc8","","","","","","","",""
"3077.320000000065","{""judgement"":0}","[0]","survey-likert","241","562680","0.0-241.0","44qozdc8","","","","","","","","0"
"1548.1199999999953","{""confidence"":1}","[0]","survey-likert","242","564231","0.0-242.0","44qozdc8","","","","","","","",""
"","","","call-function","243","564232","0.0-243.0","44qozdc8","","","","","","","",""
"null","","","html-keyboard-response","244","565735","0.0-244.0","44qozdc8","","<span style=""color:Black; font-size:50px;"">Agent A","null","","","","",""
"null","","","video-keyboard-response","245","568394","0.0-245.0","44qozdc8","","","null","","Agent A","veridical","FOR_REV_BLOBBY_STIM/713211.bmp_pp100_L3_V1.0_veridical_freeview_isoFalse_fps144.mp4",""
"null","","","html-keyboard-response","246","569900","0.0-246.0","44qozdc8","","<span style=""color:Black; font-size:50px;"">Agent B","null","","","","",""
"null","","","video-keyboard-response","247","572563","0.0-247.0","44qozdc8","","","null","","Agent B","scrambled","FOR_REV_BLOBBY_STIM/713211.bmp_pp100_L3_V1.0_veridical_freeview_isoFalse_fps144_reversed_REAL.mp4",""
"","","","call-function","248","572564","0.0-248.0","44qozdc8","","","","","","","",""
"2164.1900000000605","{""judgement"":0}","[0]","survey-likert","249","574729","0.0-249.0","44qozdc8","","","","","","","","0"
"1064.670000000042","{""confidence"":1}","[0]","survey-likert","250","575795","0.0-250.0","44qozdc8","","","","","","","",""
"14906.689999999944","","","instructions","251","590703","0.0-251.0","44qozdc8","[{""page_index"":0,""viewing_time"":4665.625},{""page_index"":1,""viewing_time"":9537.839999999967},{""page_index"":2,""viewing_time"":703.0649999999441}]","","","","","","",""
"1697.1199999999953","","","instructions","252","592401","0.0-252.0","44qozdc8","[{""page_index"":0,""viewing_time"":590.8000000000466},{""page_index"":1,""viewing_time"":490.0549999999348},{""page_index"":2,""viewing_time"":616.1550000000279}]","","","","","","",""
"","","","call-function","253","592401","0.0-253.0","44qozdc8","","","","","","","",""
"null","","","html-keyboard-response","254","593904","0.0-254.0","44qozdc8","","<span style=""color:Black; font-size:50px;"">Agent A","null","","","","",""
"null","","","video-keyboard-response","255","596437","0.0-255.0","44qozdc8","","","null","","Agent A","scrambled","FOR_REV_BLOBBY_STIM/1591876.bmp_pp63_L1_V1.0_veridical_freeview_isoFalse_fps144_reversed_REAL.mp4",""
"null","","","html-keyboard-response","256","597938","0.0-256.0","44qozdc8","","<span style=""color:Black; font-size:50px;"">Agent B","null","","","","",""
"null","","","video-keyboard-response","257","600479","0.0-257.0","44qozdc8","","","null","","Agent B","veridical","FOR_REV_BLOBBY_STIM/1591876.bmp_pp63_L1_V1.0_veridical_freeview_isoFalse_fps144.mp4",""
"","","","call-function","258","600480","0.0-258.0","44qozdc8","","","","","","","",""
"2952.1199999999953","{""judgement"":1}","[0]","survey-likert","259","603433","0.0-259.0","44qozdc8","","","","","","","","1"
"1850.1300000000047","{""confidence"":1}","[0]","survey-likert","260","605285","0.0-260.0","44qozdc8","","","","","","","",""
"","","","call-function","261","605287","0.0-261.0","44qozdc8","","","","","","","",""
"null","","","html-keyboard-response","262","606789","0.0-262.0","44qozdc8","","<span style=""color:Black; font-size:50px;"">Agent A","null","","","","",""
"null","","","video-keyboard-response","263","609401","0.0-263.0","44qozdc8","","","null","","Agent A","scrambled","FOR_REV_BLOBBY_STIM/286001.bmp_pp54_L2_V1.0_veridical_freeview_isoFalse_fps144_reversed_REAL.mp4",""
"null","","","html-keyboard-response","264","610902","0.0-264.0","44qozdc8","","<span style=""color:Black; font-size:50px;"">Agent B","null","","","","",""
"null","","","video-keyboard-response","265","613509","0.0-265.0","44qozdc8","","","null","","Agent B","veridical","FOR_REV_BLOBBY_STIM/286001.bmp_pp54_L2_V1.0_veridical_freeview_isoFalse_fps144.mp4",""
"","","","call-function","266","613510","0.0-266.0","44qozdc8","","","","","","","",""
"1577.7900000000373","{""judgement"":1}","[0]","survey-likert","267","615088","0.0-267.0","44qozdc8","","","","","","","","1"
"1195.0050000000047","{""confidence"":2}","[0]","survey-likert","268","616285","0.0-268.0","44qozdc8","","","","","","","",""
"","","","call-function","269","616286","0.0-269.0","44qozdc8","","","","","","","",""
"null","","","html-keyboard-response","270","617787","0.0-270.0","44qozdc8","","<span style=""color:Black; font-size:50px;"">Agent A","null","","","","",""
"null","","","video-keyboard-response","271","620494","0.0-271.0","44qozdc8","","","null","","Agent A","scrambled","FOR_REV_BLOBBY_STIM/1592372.bmp_pp76_L1_V1.0_veridical_freeview_isoFalse_fps144_reversed_REAL.mp4",""
"null","","","html-keyboard-response","272","622000","0.0-272.0","44qozdc8","","<span style=""color:Black; font-size:50px;"">Agent B","null","","","","",""
"null","","","video-keyboard-response","273","624725","0.0-273.0","44qozdc8","","","null","","Agent B","veridical","FOR_REV_BLOBBY_STIM/1592372.bmp_pp76_L1_V1.0_veridical_freeview_isoFalse_fps144.mp4",""
"","","","call-function","274","624725","0.0-274.0","44qozdc8","","","","","","","",""
"1703.1199999999953","{""judgement"":1}","[0]","survey-likert","275","626429","0.0-275.0","44qozdc8","","","","","","","","1"
"1279.7850000000326","{""confidence"":2}","[0]","survey-likert","276","627710","0.0-276.0","44qozdc8","","","","","","","",""
"","","","call-function","277","627711","0.0-277.0","44qozdc8","","","","","","","",""
"null","","","html-keyboard-response","278","629216","0.0-278.0","44qozdc8","","<span style=""color:Black; font-size:50px;"">Agent A","null","","","","",""
"null","","","video-keyboard-response","279","631919","0.0-279.0","44qozdc8","","","null","","Agent A","veridical","FOR_REV_BLOBBY_STIM/1592817.bmp_pp55_L3_V1.0_veridical_freeview_isoFalse_fps144.mp4",""
"null","","","html-keyboard-response","280","633423","0.0-280.0","44qozdc8","","<span style=""color:Black; font-size:50px;"">Agent B","null","","","","",""
"null","","","video-keyboard-response","281","636124","0.0-281.0","44qozdc8","","","null","","Agent B","scrambled","FOR_REV_BLOBBY_STIM/1592817.bmp_pp55_L3_V1.0_veridical_freeview_isoFalse_fps144_reversed_REAL.mp4",""
"","","","call-function","282","636126","0.0-282.0","44qozdc8","","","","","","","",""
"2894.310000000056","{""judgement"":0}","[0]","survey-likert","283","639021","0.0-283.0","44qozdc8","","","","","","","","0"
"1266.280000000028","{""confidence"":2}","[0]","survey-likert","284","640290","0.0-284.0","44qozdc8","","","","","","","",""
"","","","call-function","285","640291","0.0-285.0","44qozdc8","","","","","","","",""
"null","","","html-keyboard-response","286","641794","0.0-286.0","44qozdc8","","<span style=""color:Black; font-size:50px;"">Agent A","null","","","","",""
"null","","","video-keyboard-response","287","644657","0.0-287.0","44qozdc8","","","null","","Agent A","scrambled","FOR_REV_BLOBBY_STIM/713089.bmp_pp60_L3_V1.0_veridical_freeview_isoFalse_fps144_reversed_REAL.mp4",""
"null","","","html-keyboard-response","288","646163","0.0-288.0","44qozdc8","","<span style=""color:Black; font-size:50px;"">Agent B","null","","","","",""
"null","","","video-keyboard-response","289","649025","0.0-289.0","44qozdc8","","","null","","Agent B","veridical","FOR_REV_BLOBBY_STIM/713089.bmp_pp60_L3_V1.0_veridical_freeview_isoFalse_fps144.mp4",""
"","","","call-function","290","649025","0.0-290.0","44qozdc8","","","","","","","",""
"3158.1500000000233","{""judgement"":1}","[0]","survey-likert","291","652185","0.0-291.0","44qozdc8","","","","","","","","1"
"1043.0849999999627","{""confidence"":2}","[0]","survey-likert","292","653229","0.0-292.0","44qozdc8","","","","","","","",""
"","","","call-function","293","653230","0.0-293.0","44qozdc8","","","","","","","",""
"null","","","html-keyboard-response","294","654736","0.0-294.0","44qozdc8","","<span style=""color:Black; font-size:50px;"">Agent A","null","","","","",""
"null","","","video-keyboard-response","295","657525","0.0-295.0","44qozdc8","","","null","","Agent A","scrambled","FOR_REV_BLOBBY_STIM/713681.bmp_pp86_L2_V1.0_veridical_freeview_isoFalse_fps144_reversed_REAL.mp4",""
"null","","","html-keyboard-response","296","659027","0.0-296.0","44qozdc8","","<span style=""color:Black; font-size:50px;"">Agent B","null","","","","",""
"null","","","video-keyboard-response","297","661811","0.0-297.0","44qozdc8","","","null","","Agent B","veridical","FOR_REV_BLOBBY_STIM/713681.bmp_pp86_L2_V1.0_veridical_freeview_isoFalse_fps144.mp4",""
"","","","call-function","298","661811","0.0-298.0","44qozdc8","","","","","","","",""
"2504.064999999944","{""judgement"":1}","[0]","survey-likert","299","664317","0.0-299.0","44qozdc8","","","","","","","","1"
"1277.359999999986","{""confidence"":1}","[0]","survey-likert","300","665595","0.0-300.0","44qozdc8","","","","","","","",""
"","","","call-function","301","665596","0.0-301.0","44qozdc8","","","","","","","",""
"null","","","html-keyboard-response","302","667098","0.0-302.0","44qozdc8","","<span style=""color:Black; font-size:50px;"">Agent A","null","","","","",""
"null","","","video-keyboard-response","303","669942","0.0-303.0","44qozdc8","","","null","","Agent A","veridical","FOR_REV_BLOBBY_STIM/713403.bmp_pp80_L3_V1.0_veridical_freeview_isoFalse_fps144.mp4",""
"null","","","html-keyboard-response","304","671445","0.0-304.0","44qozdc8","","<span style=""color:Black; font-size:50px;"">Agent B","null","","","","",""
"null","","","video-keyboard-response","305","674293","0.0-305.0","44qozdc8","","","null","","Agent B","scrambled","FOR_REV_BLOBBY_STIM/713403.bmp_pp80_L3_V1.0_veridical_freeview_isoFalse_fps144_reversed_REAL.mp4",""
"","","","call-function","306","674293","0.0-306.0","44qozdc8","","","","","","","",""
"2094.840000000084","{""judgement"":0}","[0]","survey-likert","307","676389","0.0-307.0","44qozdc8","","","","","","","","0"
"991.3349999999627","{""confidence"":1}","[0]","survey-likert","308","677381","0.0-308.0","44qozdc8","","","","","","","",""
"","","","call-function","309","677382","0.0-309.0","44qozdc8","","","","","","","",""
"null","","","html-keyboard-response","310","678883","0.0-310.0","44qozdc8","","<span style=""color:Black; font-size:50px;"">Agent A","null","","","","",""
"null","","","video-keyboard-response","311","681477","0.0-311.0","44qozdc8","","","null","","Agent A","veridical","FOR_REV_BLOBBY_STIM/1592397.bmp_pp85_L3_V1.0_veridical_freeview_isoFalse_fps144.mp4",""
"null","","","html-keyboard-response","312","682981","0.0-312.0","44qozdc8","","<span style=""color:Black; font-size:50px;"">Agent B","null","","","","",""
"null","","","video-keyboard-response","313","685575","0.0-313.0","44qozdc8","","","null","","Agent B","scrambled","FOR_REV_BLOBBY_STIM/1592397.bmp_pp85_L3_V1.0_veridical_freeview_isoFalse_fps144_reversed_REAL.mp4",""
"","","","call-function","314","685576","0.0-314.0","44qozdc8","","","","","","","",""
"3461.1399999998976","{""judgement"":0}","[0]","survey-likert","315","689038","0.0-315.0","44qozdc8","","","","","","","","0"
"2982.375","{""confidence"":1}","[0]","survey-likert","316","692021","0.0-316.0","44qozdc8","","","","","","","",""
"","","","call-function","317","692022","0.0-317.0","44qozdc8","","","","","","","",""
"null","","","html-keyboard-response","318","693525","0.0-318.0","44qozdc8","","<span style=""color:Black; font-size:50px;"">Agent A","null","","","","",""
"null","","","video-keyboard-response","319","696351","0.0-319.0","44qozdc8","","","null","","Agent A","scrambled","FOR_REV_BLOBBY_STIM/285751.bmp_pp55_L3_V1.0_veridical_freeview_isoFalse_fps144_reversed_REAL.mp4",""
"null","","","html-keyboard-response","320","697855","0.0-320.0","44qozdc8","","<span style=""color:Black; font-size:50px;"">Agent B","null","","","","",""
"null","","","video-keyboard-response","321","700703","0.0-321.0","44qozdc8","","","null","","Agent B","veridical","FOR_REV_BLOBBY_STIM/285751.bmp_pp55_L3_V1.0_veridical_freeview_isoFalse_fps144.mp4",""
"","","","call-function","322","700703","0.0-322.0","44qozdc8","","","","","","","",""
"2689.884999999893","{""judgement"":0}","[0]","survey-likert","323","703394","0.0-323.0","44qozdc8","","","","","","","","1"
"831.0699999999488","{""confidence"":1}","[0]","survey-likert","324","704226","0.0-324.0","44qozdc8","","","","","","","",""
"","","","call-function","325","704227","0.0-325.0","44qozdc8","","","","","","","",""
"null","","","html-keyboard-response","326","705732","0.0-326.0","44qozdc8","","<span style=""color:Black; font-size:50px;"">Agent A","null","","","","",""
"null","","","video-keyboard-response","327","708464","0.0-327.0","44qozdc8","","","null","","Agent A","veridical","FOR_REV_BLOBBY_STIM/1591954.bmp_pp62_L2_V1.0_veridical_freeview_isoFalse_fps144.mp4",""
"null","","","html-keyboard-response","328","709968","0.0-328.0","44qozdc8","","<span style=""color:Black; font-size:50px;"">Agent B","null","","","","",""
"null","","","video-keyboard-response","329","712695","0.0-329.0","44qozdc8","","","null","","Agent B","scrambled","FOR_REV_BLOBBY_STIM/1591954.bmp_pp62_L2_V1.0_veridical_freeview_isoFalse_fps144_reversed_REAL.mp4",""
"","","","call-function","330","712696","0.0-330.0","44qozdc8","","","","","","","",""
"4267.295000000042","{""judgement"":0}","[0]","survey-likert","331","716965","0.0-331.0","44qozdc8","","","","","","","","0"
"1217.4100000000326","{""confidence"":0}","[0]","survey-likert","332","718184","0.0-332.0","44qozdc8","","","","","","","",""
"16444.959999999963","","","instructions","333","734629","0.0-333.0","44qozdc8","[{""page_index"":0,""viewing_time"":802.6149999999907},{""page_index"":1,""viewing_time"":1014.7850000000326},{""page_index"":2,""viewing_time"":14627.399999999907}]","","","","","","",""
"1535.9600000000792","","","instructions","334","736166","0.0-334.0","44qozdc8","[{""page_index"":0,""viewing_time"":471.01500000001397},{""page_index"":1,""viewing_time"":420.98499999998603},{""page_index"":2,""viewing_time"":643.8499999999767}]","","","","","","",""
"","","","call-function","335","736166","0.0-335.0","44qozdc8","","","","","","","",""
"null","","","html-keyboard-response","336","737667","0.0-336.0","44qozdc8","","<span style=""color:Black; font-size:50px;"">Agent A","null","","","","",""
"null","","","video-keyboard-response","337","740345","0.0-337.0","44qozdc8","","","null","","Agent A","veridical","FOR_REV_BLOBBY_STIM/1592727.bmp_pp59_L3_V1.0_veridical_freeview_isoFalse_fps144.mp4",""
"null","","","html-keyboard-response","338","741851","0.0-338.0","44qozdc8","","<span style=""color:Black; font-size:50px;"">Agent B","null","","","","",""
"null","","","video-keyboard-response","339","744523","0.0-339.0","44qozdc8","","","null","","Agent B","scrambled","FOR_REV_BLOBBY_STIM/1592727.bmp_pp59_L3_V1.0_veridical_freeview_isoFalse_fps144_reversed_REAL.mp4",""
"","","","call-function","340","744524","0.0-340.0","44qozdc8","","","","","","","",""
"1337.9150000000373","{""judgement"":1}","[0]","survey-likert","341","745862","0.0-341.0","44qozdc8","","","","","","","","0"
"1562.6199999999953","{""confidence"":2}","[0]","survey-likert","342","747426","0.0-342.0","44qozdc8","","","","","","","",""
"","","","call-function","343","747427","0.0-343.0","44qozdc8","","","","","","","",""
"null","","","html-keyboard-response","344","748932","0.0-344.0","44qozdc8","","<span style=""color:Black; font-size:50px;"">Agent A","null","","","","",""
"null","","","video-keyboard-response","345","751734","0.0-345.0","44qozdc8","","","null","","Agent A","scrambled","FOR_REV_BLOBBY_STIM/1592362.bmp_pp95_L2_V1.0_veridical_freeview_isoFalse_fps144_reversed_REAL.mp4",""
"null","","","html-keyboard-response","346","753236","0.0-346.0","44qozdc8","","<span style=""color:Black; font-size:50px;"">Agent B","null","","","","",""
"null","","","video-keyboard-response","347","756063","0.0-347.0","44qozdc8","","","null","","Agent B","veridical","FOR_REV_BLOBBY_STIM/1592362.bmp_pp95_L2_V1.0_veridical_freeview_isoFalse_fps144.mp4",""
"","","","call-function","348","756064","0.0-348.0","44qozdc8","","","","","","","",""
"1518.8649999999907","{""judgement"":0}","[0]","survey-likert","349","757584","0.0-349.0","44qozdc8","","","","","","","","1"
"1855.109999999986","{""confidence"":1}","[0]","survey-likert","350","759440","0.0-350.0","44qozdc8","","","","","","","",""
"","","","call-function","351","759440","0.0-351.0","44qozdc8","","","","","","","",""
"null","","","html-keyboard-response","352","760944","0.0-352.0","44qozdc8","","<span style=""color:Black; font-size:50px;"">Agent A","null","","","","",""
"null","","","video-keyboard-response","353","763705","0.0-353.0","44qozdc8","","","null","","Agent A","scrambled","FOR_REV_BLOBBY_STIM/713749.bmp_pp88_L2_V1.0_veridical_freeview_isoFalse_fps144_reversed_REAL.mp4",""
"null","","","html-keyboard-response","354","765210","0.0-354.0","44qozdc8","","<span style=""color:Black; font-size:50px;"">Agent B","null","","","","",""
"null","","","video-keyboard-response","355","767962","0.0-355.0","44qozdc8","","","null","","Agent B","veridical","FOR_REV_BLOBBY_STIM/713749.bmp_pp88_L2_V1.0_veridical_freeview_isoFalse_fps144.mp4",""
"","","","call-function","356","767963","0.0-356.0","44qozdc8","","","","","","","",""
"1739.375","{""judgement"":0}","[0]","survey-likert","357","769703","0.0-357.0","44qozdc8","","","","","","","","1"
"2438.219999999972","{""confidence"":1}","[0]","survey-likert","358","772143","0.0-358.0","44qozdc8","","","","","","","",""
"","","","call-function","359","772143","0.0-359.0","44qozdc8","","","","","","","",""
"null","","","html-keyboard-response","360","773645","0.0-360.0","44qozdc8","","<span style=""color:Black; font-size:50px;"">Agent A","null","","","","",""
"null","","","video-keyboard-response","361","776477","0.0-361.0","44qozdc8","","","null","","Agent A","scrambled","FOR_REV_BLOBBY_STIM/1160127.bmp_pp90_L2_V1.0_veridical_freeview_isoFalse_fps144_reversed_REAL.mp4",""
"null","","","html-keyboard-response","362","777979","0.0-362.0","44qozdc8","","<span style=""color:Black; font-size:50px;"">Agent B","null","","","","",""
"null","","","video-keyboard-response","363","780841","0.0-363.0","44qozdc8","","","null","","Agent B","veridical","FOR_REV_BLOBBY_STIM/1160127.bmp_pp90_L2_V1.0_veridical_freeview_isoFalse_fps144.mp4",""
"","","","call-function","364","780842","0.0-364.0","44qozdc8","","","","","","","",""
"5109.765000000014","{""judgement"":1}","[0]","survey-likert","365","785952","0.0-365.0","44qozdc8","","","","","","","","1"
"1579.8450000000885","{""confidence"":1}","[0]","survey-likert","366","787534","0.0-366.0","44qozdc8","","","","","","","",""
"","","","call-function","367","787534","0.0-367.0","44qozdc8","","","","","","","",""
"null","","","html-keyboard-response","368","789039","0.0-368.0","44qozdc8","","<span style=""color:Black; font-size:50px;"">Agent A","null","","","","",""
"null","","","video-keyboard-response","369","791921","0.0-369.0","44qozdc8","","","null","","Agent A","veridical","FOR_REV_BLOBBY_STIM/1159447.bmp_pp70_L2_V1.0_veridical_freeview_isoFalse_fps144.mp4",""
"null","","","html-keyboard-response","370","793428","0.0-370.0","44qozdc8","","<span style=""color:Black; font-size:50px;"">Agent B","null","","","","",""
"null","","","video-keyboard-response","371","796298","0.0-371.0","44qozdc8","","","null","","Agent B","scrambled","FOR_REV_BLOBBY_STIM/1159447.bmp_pp70_L2_V1.0_veridical_freeview_isoFalse_fps144_reversed_REAL.mp4",""
"","","","call-function","372","796298","0.0-372.0","44qozdc8","","","","","","","",""
"2574.6600000000326","{""judgement"":0}","[0]","survey-likert","373","798874","0.0-373.0","44qozdc8","","","","","","","","0"
"1828.734999999986","{""confidence"":1}","[0]","survey-likert","374","800704","0.0-374.0","44qozdc8","","","","","","","",""
"","","","call-function","375","800705","0.0-375.0","44qozdc8","","","","","","","",""
"null","","","html-keyboard-response","376","802208","0.0-376.0","44qozdc8","","<span style=""color:Black; font-size:50px;"">Agent A","null","","","","",""
"null","","","video-keyboard-response","377","804997","0.0-377.0","44qozdc8","","","null","","Agent A","veridical","FOR_REV_BLOBBY_STIM/1159440.bmp_pp98_L1_V1.0_veridical_freeview_isoFalse_fps144.mp4",""
"null","","","html-keyboard-response","378","806501","0.0-378.0","44qozdc8","","<span style=""color:Black; font-size:50px;"">Agent B","null","","","","",""
"null","","","video-keyboard-response","379","810329","0.0-379.0","44qozdc8","","","null","","Agent B","scrambled","FOR_REV_BLOBBY_STIM/1159440.bmp_pp98_L1_V1.0_veridical_freeview_isoFalse_fps144_reversed_REAL.mp4",""
"","","","call-function","380","810330","0.0-380.0","44qozdc8","","","","","","","",""
"1984.1750000000466","{""judgement"":1}","[0]","survey-likert","381","812315","0.0-381.0","44qozdc8","","","","","","","","0"
"1470.8249999999534","{""confidence"":2}","[0]","survey-likert","382","813787","0.0-382.0","44qozdc8","","","","","","","",""
"","","","call-function","383","813787","0.0-383.0","44qozdc8","","","","","","","",""
"null","","","html-keyboard-response","384","815291","0.0-384.0","44qozdc8","","<span style=""color:Black; font-size:50px;"">Agent A","null","","","","",""
"null","","","video-keyboard-response","385","818096","0.0-385.0","44qozdc8","","","null","","Agent A","veridical","FOR_REV_BLOBBY_STIM/713666.bmp_pp97_L3_V1.0_veridical_freeview_isoFalse_fps144.mp4",""
"null","","","html-keyboard-response","386","819599","0.0-386.0","44qozdc8","","<span style=""color:Black; font-size:50px;"">Agent B","null","","","","",""
"null","","","video-keyboard-response","387","822433","0.0-387.0","44qozdc8","","","null","","Agent B","scrambled","FOR_REV_BLOBBY_STIM/713666.bmp_pp97_L3_V1.0_veridical_freeview_isoFalse_fps144_reversed_REAL.mp4",""
"","","","call-function","388","822433","0.0-388.0","44qozdc8","","","","","","","",""
"1368.7449999999953","{""judgement"":0}","[0]","survey-likert","389","823803","0.0-389.0","44qozdc8","","","","","","","","0"
"1612.9100000000326","{""confidence"":1}","[0]","survey-likert","390","825417","0.0-390.0","44qozdc8","","","","","","","",""
"","","","call-function","391","825417","0.0-391.0","44qozdc8","","","","","","","",""
"null","","","html-keyboard-response","392","826921","0.0-392.0","44qozdc8","","<span style=""color:Black; font-size:50px;"">Agent A","null","","","","",""
"null","","","video-keyboard-response","393","829847","0.0-393.0","44qozdc8","","","null","","Agent A","scrambled","FOR_REV_BLOBBY_STIM/1593035.bmp_pp94_L2_V1.0_veridical_freeview_isoFalse_fps144_reversed_REAL.mp4",""
"null","","","html-keyboard-response","394","831349","0.0-394.0","44qozdc8","","<span style=""color:Black; font-size:50px;"">Agent B","null","","","","",""
"null","","","video-keyboard-response","395","834250","0.0-395.0","44qozdc8","","","null","","Agent B","veridical","FOR_REV_BLOBBY_STIM/1593035.bmp_pp94_L2_V1.0_veridical_freeview_isoFalse_fps144.mp4",""
"","","","call-function","396","834251","0.0-396.0","44qozdc8","","","","","","","",""
"1608.9100000000326","{""judgement"":1}","[0]","survey-likert","397","835861","0.0-397.0","44qozdc8","","","","","","","","1"
"1127.484999999986","{""confidence"":1}","[0]","survey-likert","398","836990","0.0-398.0","44qozdc8","","","","","","","",""
"","","","call-function","399","836991","0.0-399.0","44qozdc8","","","","","","","",""
"null","","","html-keyboard-response","400","838496","0.0-400.0","44qozdc8","","<span style=""color:Black; font-size:50px;"">Agent A","null","","","","",""
"null","","","video-keyboard-response","401","841349","0.0-401.0","44qozdc8","","","null","","Agent A","scrambled","FOR_REV_BLOBBY_STIM/712977.bmp_pp51_L1_V1.0_veridical_freeview_isoFalse_fps144_reversed_REAL.mp4",""
"null","","","html-keyboard-response","402","842850","0.0-402.0","44qozdc8","","<span style=""color:Black; font-size:50px;"">Agent B","null","","","","",""
"null","","","video-keyboard-response","403","845691","0.0-403.0","44qozdc8","","","null","","Agent B","veridical","FOR_REV_BLOBBY_STIM/712977.bmp_pp51_L1_V1.0_veridical_freeview_isoFalse_fps144.mp4",""
"","","","call-function","404","845691","0.0-404.0","44qozdc8","","","","","","","",""
"2412.7750000000233","{""judgement"":0}","[0]","survey-likert","405","848105","0.0-405.0","44qozdc8","","","","","","","","1"
"880.4050000000279","{""confidence"":1}","[0]","survey-likert","406","848987","0.0-406.0","44qozdc8","","","","","","","",""
"","","","call-function","407","848987","0.0-407.0","44qozdc8","","","","","","","",""
"null","","","html-keyboard-response","408","850490","0.0-408.0","44qozdc8","","<span style=""color:Black; font-size:50px;"">Agent A","null","","","","",""
"null","","","video-keyboard-response","409","853060","0.0-409.0","44qozdc8","","","null","","Agent A","scrambled","FOR_REV_BLOBBY_STIM/713760.bmp_pp81_L1_V1.0_veridical_freeview_isoFalse_fps144_reversed_REAL.mp4",""
"null","","","html-keyboard-response","410","854565","0.0-410.0","44qozdc8","","<span style=""color:Black; font-size:50px;"">Agent B","null","","","","",""
"null","","","video-keyboard-response","411","857136","0.0-411.0","44qozdc8","","","null","","Agent B","veridical","FOR_REV_BLOBBY_STIM/713760.bmp_pp81_L1_V1.0_veridical_freeview_isoFalse_fps144.mp4",""
"","","","call-function","412","857136","0.0-412.0","44qozdc8","","","","","","","",""
"3037.4100000000326","{""judgement"":1}","[0]","survey-likert","413","860175","0.0-413.0","44qozdc8","","","","","","","","1"
"1190.6500000000233","{""confidence"":2}","[0]","survey-likert","414","861367","0.0-414.0","44qozdc8","","","","","","","",""
"20312.80500000005","","","instructions","415","881681","0.0-415.0","44qozdc8","[{""page_index"":0,""viewing_time"":18350.875},{""page_index"":1,""viewing_time"":1482.875},{""page_index"":2,""viewing_time"":478.8950000000186}]","","","","","","",""
"1689.515000000014","","","instructions","416","883371","0.0-416.0","44qozdc8","[{""page_index"":0,""viewing_time"":560.3400000000838},{""page_index"":1,""viewing_time"":519.1699999999255},{""page_index"":2,""viewing_time"":609.8950000000186}]","","","","","","",""
"","","","call-function","417","883373","0.0-417.0","44qozdc8","","","","","","","",""
"null","","","html-keyboard-response","418","884874","0.0-418.0","44qozdc8","","<span style=""color:Black; font-size:50px;"">Agent A","null","","","","",""
"null","","","video-keyboard-response","419","887712","0.0-419.0","44qozdc8","","","null","","Agent A","veridical","FOR_REV_BLOBBY_STIM/713017.bmp_pp152_L2_V1.0_veridical_freeview_isoFalse_fps144.mp4",""
"null","","","html-keyboard-response","420","889216","0.0-420.0","44qozdc8","","<span style=""color:Black; font-size:50px;"">Agent B","null","","","","",""
"null","","","video-keyboard-response","421","892050","0.0-421.0","44qozdc8","","","null","","Agent B","scrambled","FOR_REV_BLOBBY_STIM/713017.bmp_pp152_L2_V1.0_veridical_freeview_isoFalse_fps144_reversed_REAL.mp4",""
"","","","call-function","422","892050","0.0-422.0","44qozdc8","","","","","","","",""
"1690.8199999999488","{""judgement"":1}","[0]","survey-likert","423","893742","0.0-423.0","44qozdc8","","","","","","","","0"
"1362.2100000000792","{""confidence"":2}","[0]","survey-likert","424","895106","0.0-424.0","44qozdc8","","","","","","","",""
"","","","call-function","425","895107","0.0-425.0","44qozdc8","","","","","","","",""
"null","","","html-keyboard-response","426","896612","0.0-426.0","44qozdc8","","<span style=""color:Black; font-size:50px;"">Agent A","null","","","","",""
"null","","","video-keyboard-response","427","899338","0.0-427.0","44qozdc8","","","null","","Agent A","scrambled","FOR_REV_BLOBBY_STIM/285933.bmp_pp81_L1_V1.0_veridical_freeview_isoFalse_fps144_reversed_REAL.mp4",""
"null","","","html-keyboard-response","428","900840","0.0-428.0","44qozdc8","","<span style=""color:Black; font-size:50px;"">Agent B","null","","","","",""
"null","","","video-keyboard-response","429","903568","0.0-429.0","44qozdc8","","","null","","Agent B","veridical","FOR_REV_BLOBBY_STIM/285933.bmp_pp81_L1_V1.0_veridical_freeview_isoFalse_fps144.mp4",""
"","","","call-function","430","903568","0.0-430.0","44qozdc8","","","","","","","",""
"2008.6499999999069","{""judgement"":1}","[0]","survey-likert","431","905578","0.0-431.0","44qozdc8","","","","","","","","1"
"1171.9300000000512","{""confidence"":2}","[0]","survey-likert","432","906751","0.0-432.0","44qozdc8","","","","","","","",""
"","","","call-function","433","906752","0.0-433.0","44qozdc8","","","","","","","",""
"null","","","html-keyboard-response","434","908256","0.0-434.0","44qozdc8","","<span style=""color:Black; font-size:50px;"">Agent A","null","","","","",""
"null","","","video-keyboard-response","435","910819","0.0-435.0","44qozdc8","","","null","","Agent A","scrambled","FOR_REV_BLOBBY_STIM/1159515.bmp_pp84_L3_V1.0_veridical_freeview_isoFalse_fps144_reversed_REAL.mp4",""
"null","","","html-keyboard-response","436","912326","0.0-436.0","44qozdc8","","<span style=""color:Black; font-size:50px;"">Agent B","null","","","","",""
"null","","","video-keyboard-response","437","914884","0.0-437.0","44qozdc8","","","null","","Agent B","veridical","FOR_REV_BLOBBY_STIM/1159515.bmp_pp84_L3_V1.0_veridical_freeview_isoFalse_fps144.mp4",""
"","","","call-function","438","914884","0.0-438.0","44qozdc8","","","","","","","",""
"1711.7149999999674","{""judgement"":1}","[0]","survey-likert","439","916597","0.0-439.0","44qozdc8","","","","","","","","1"
"1913.1650000000373","{""confidence"":1}","[0]","survey-likert","440","918511","0.0-440.0","44qozdc8","","","","","","","",""
"","","","call-function","441","918512","0.0-441.0","44qozdc8","","","","","","","",""
"null","","","html-keyboard-response","442","920016","0.0-442.0","44qozdc8","","<span style=""color:Black; font-size:50px;"">Agent A","null","","","","",""
"null","","","video-keyboard-response","443","922864","0.0-443.0","44qozdc8","","","null","","Agent A","scrambled","FOR_REV_BLOBBY_STIM/713371.bmp_pp68_L1_V1.0_veridical_freeview_isoFalse_fps144_reversed_REAL.mp4",""
"null","","","html-keyboard-response","444","924368","0.0-444.0","44qozdc8","","<span style=""color:Black; font-size:50px;"">Agent B","null","","","","",""
"null","","","video-keyboard-response","445","927208","0.0-445.0","44qozdc8","","","null","","Agent B","veridical","FOR_REV_BLOBBY_STIM/713371.bmp_pp68_L1_V1.0_veridical_freeview_isoFalse_fps144.mp4",""
"","","","call-function","446","927209","0.0-446.0","44qozdc8","","","","","","","",""
"4230","{""judgement"":0}","[0]","survey-likert","447","931440","0.0-447.0","44qozdc8","","","","","","","","1"
"2379.969999999972","{""confidence"":1}","[0]","survey-likert","448","933821","0.0-448.0","44qozdc8","","","","","","","",""
"","","","call-function","449","933822","0.0-449.0","44qozdc8","","","","","","","",""
"null","","","html-keyboard-response","450","935322","0.0-450.0","44qozdc8","","<span style=""color:Black; font-size:50px;"">Agent A","null","","","","",""
"null","","","video-keyboard-response","451","937856","0.0-451.0","44qozdc8","","","null","","Agent A","scrambled","FOR_REV_BLOBBY_STIM/713513.bmp_pp62_L2_V1.0_veridical_freeview_isoFalse_fps144_reversed_REAL.mp4",""
"null","","","html-keyboard-response","452","939359","0.0-452.0","44qozdc8","","<span style=""color:Black; font-size:50px;"">Agent B","null","","","","",""
"null","","","video-keyboard-response","453","941887","0.0-453.0","44qozdc8","","","null","","Agent B","veridical","FOR_REV_BLOBBY_STIM/713513.bmp_pp62_L2_V1.0_veridical_freeview_isoFalse_fps144.mp4",""
"","","","call-function","454","941889","0.0-454.0","44qozdc8","","","","","","","",""
"3056.6600000000326","{""judgement"":1}","[0]","survey-likert","455","944947","0.0-455.0","44qozdc8","","","","","","","","1"
"2705.1149999999907","{""confidence"":2}","[0]","survey-likert","456","947653","0.0-456.0","44qozdc8","","","","","","","",""
"","","","call-function","457","947654","0.0-457.0","44qozdc8","","","","","","","",""
"null","","","html-keyboard-response","458","949158","0.0-458.0","44qozdc8","","<span style=""color:Black; font-size:50px;"">Agent A","null","","","","",""
"null","","","video-keyboard-response","459","951680","0.0-459.0","44qozdc8","","","null","","Agent A","scrambled","FOR_REV_BLOBBY_STIM/713796.bmp_pp84_L3_V1.0_veridical_freeview_isoFalse_fps144_reversed_REAL.mp4",""
"null","","","html-keyboard-response","460","953184","0.0-460.0","44qozdc8","","<span style=""color:Black; font-size:50px;"">Agent B","null","","","","",""
"null","","","video-keyboard-response","461","955707","0.0-461.0","44qozdc8","","","null","","Agent B","veridical","FOR_REV_BLOBBY_STIM/713796.bmp_pp84_L3_V1.0_veridical_freeview_isoFalse_fps144.mp4",""
"","","","call-function","462","955707","0.0-462.0","44qozdc8","","","","","","","",""
"2583.054999999935","{""judgement"":0}","[0]","survey-likert","463","958291","0.0-463.0","44qozdc8","","","","","","","","1"
"1320.1600000000326","{""confidence"":2}","[0]","survey-likert","464","959613","0.0-464.0","44qozdc8","","","","","","","",""
"","","","call-function","465","959614","0.0-465.0","44qozdc8","","","","","","","",""
"null","","","html-keyboard-response","466","961120","0.0-466.0","44qozdc8","","<span style=""color:Black; font-size:50px;"">Agent A","null","","","","",""
"null","","","video-keyboard-response","467","963855","0.0-467.0","44qozdc8","","","null","","Agent A","scrambled","FOR_REV_BLOBBY_STIM/1592619.bmp_pp56_L3_V1.0_veridical_freeview_isoFalse_fps144_reversed_REAL.mp4",""
"null","","","html-keyboard-response","468","965360","0.0-468.0","44qozdc8","","<span style=""color:Black; font-size:50px;"">Agent B","null","","","","",""
"null","","","video-keyboard-response","469","968112","0.0-469.0","44qozdc8","","","null","","Agent B","veridical","FOR_REV_BLOBBY_STIM/1592619.bmp_pp56_L3_V1.0_veridical_freeview_isoFalse_fps144.mp4",""
"","","","call-function","470","968113","0.0-470.0","44qozdc8","","","","","","","",""
"1617.390000000014","{""judgement"":0}","[0]","survey-likert","471","969731","0.0-471.0","44qozdc8","","","","","","","","1"
"2331.140000000014","{""confidence"":1}","[0]","survey-likert","472","972063","0.0-472.0","44qozdc8","","","","","","","",""
"","","","call-function","473","972064","0.0-473.0","44qozdc8","","","","","","","",""
"null","","","html-keyboard-response","474","973569","0.0-474.0","44qozdc8","","<span style=""color:Black; font-size:50px;"">Agent A","null","","","","",""
"null","","","video-keyboard-response","475","976357","0.0-475.0","44qozdc8","","","null","","Agent A","veridical","FOR_REV_BLOBBY_STIM/1592804.bmp_pp91_L3_V1.0_veridical_freeview_isoFalse_fps144.mp4",""
"null","","","html-keyboard-response","476","977860","0.0-476.0","44qozdc8","","<span style=""color:Black; font-size:50px;"">Agent B","null","","","","",""
"null","","","video-keyboard-response","477","980643","0.0-477.0","44qozdc8","","","null","","Agent B","scrambled","FOR_REV_BLOBBY_STIM/1592804.bmp_pp91_L3_V1.0_veridical_freeview_isoFalse_fps144_reversed_REAL.mp4",""
"","","","call-function","478","980643","0.0-478.0","44qozdc8","","","","","","","",""
"2104.734999999986","{""judgement"":1}","[0]","survey-likert","479","982749","0.0-479.0","44qozdc8","","","","","","","","0"
"1448.920000000042","{""confidence"":2}","[0]","survey-likert","480","984199","0.0-480.0","44qozdc8","","","","","","","",""
"","","","call-function","481","984199","0.0-481.0","44qozdc8","","","","","","","",""
"null","","","html-keyboard-response","482","985703","0.0-482.0","44qozdc8","","<span style=""color:Black; font-size:50px;"">Agent A","null","","","","",""
"null","","","video-keyboard-response","483","988555","0.0-483.0","44qozdc8","","","null","","Agent A","scrambled","FOR_REV_BLOBBY_STIM/1592807.bmp_pp68_L1_V1.0_veridical_freeview_isoFalse_fps144_reversed_REAL.mp4",""
"null","","","html-keyboard-response","484","990057","0.0-484.0","44qozdc8","","<span style=""color:Black; font-size:50px;"">Agent B","null","","","","",""
"null","","","video-keyboard-response","485","992912","0.0-485.0","44qozdc8","","","null","","Agent B","veridical","FOR_REV_BLOBBY_STIM/1592807.bmp_pp68_L1_V1.0_veridical_freeview_isoFalse_fps144.mp4",""
"","","","call-function","486","992913","0.0-486.0","44qozdc8","","","","","","","",""
"1886.2899999999208","{""judgement"":0}","[0]","survey-likert","487","994800","0.0-487.0","44qozdc8","","","","","","","","1"
"1247.1500000000233","{""confidence"":1}","[0]","survey-likert","488","996048","0.0-488.0","44qozdc8","","","","","","","",""
"","","","call-function","489","996049","0.0-489.0","44qozdc8","","","","","","","",""
"null","","","html-keyboard-response","490","997552","0.0-490.0","44qozdc8","","<span style=""color:Black; font-size:50px;"">Agent A","null","","","","",""
"null","","","video-keyboard-response","491","1000362","0.0-491.0","44qozdc8","","","null","","Agent A","scrambled","FOR_REV_BLOBBY_STIM/1159829.bmp_pp91_L3_V1.0_veridical_freeview_isoFalse_fps144_reversed_REAL.mp4",""
"null","","","html-keyboard-response","492","1001868","0.0-492.0","44qozdc8","","<span style=""color:Black; font-size:50px;"">Agent B","null","","","","",""
"null","","","video-keyboard-response","493","1004687","0.0-493.0","44qozdc8","","","null","","Agent B","veridical","FOR_REV_BLOBBY_STIM/1159829.bmp_pp91_L3_V1.0_veridical_freeview_isoFalse_fps144.mp4",""
"","","","call-function","494","1004688","0.0-494.0","44qozdc8","","","","","","","",""
"2585.850000000093","{""judgement"":0}","[0]","survey-likert","495","1007276","0.0-495.0","44qozdc8","","","","","","","","1"
"1985.4399999999441","{""confidence"":1}","[0]","survey-likert","496","1009263","0.0-496.0","44qozdc8","","","","","","","",""
"7674.520000000019","","","instructions","497","1016938","0.0-497.0","44qozdc8","[{""page_index"":0,""viewing_time"":6765.035000000033},{""page_index"":1,""viewing_time"":688.7099999999627},{""page_index"":2,""viewing_time"":220.5800000000745}]","","","","","","",""
"1590.2850000000326","","","instructions","498","1018529","0.0-498.0","44qozdc8","[{""page_index"":0,""viewing_time"":422.7850000000326},{""page_index"":1,""viewing_time"":656.9699999999721},{""page_index"":2,""viewing_time"":510.3299999999581}]","","","","","","",""
"","","","call-function","499","1018529","0.0-499.0","44qozdc8","","","","","","","",""
"null","","","html-keyboard-response","500","1020031","0.0-500.0","44qozdc8","","<span style=""color:Black; font-size:50px;"">Agent A","null","","","","",""
"null","","","video-keyboard-response","501","1022818","0.0-501.0","44qozdc8","","","null","","Agent A","veridical","FOR_REV_BLOBBY_STIM/1159777.bmp_pp77_L3_V1.0_veridical_freeview_isoFalse_fps144.mp4",""
"null","","","html-keyboard-response","502","1024320","0.0-502.0","44qozdc8","","<span style=""color:Black; font-size:50px;"">Agent B","null","","","","",""
"null","","","video-keyboard-response","503","1027105","0.0-503.0","44qozdc8","","","null","","Agent B","scrambled","FOR_REV_BLOBBY_STIM/1159777.bmp_pp77_L3_V1.0_veridical_freeview_isoFalse_fps144_reversed_REAL.mp4",""
"","","","call-function","504","1027105","0.0-504.0","44qozdc8","","","","","","","",""
"4550.145000000019","{""judgement"":0}","[0]","survey-likert","505","1031656","0.0-505.0","44qozdc8","","","","","","","","0"
"830.4400000000605","{""confidence"":2}","[0]","survey-likert","506","1032488","0.0-506.0","44qozdc8","","","","","","","",""
"","","","call-function","507","1032489","0.0-507.0","44qozdc8","","","","","","","",""
"null","","","html-keyboard-response","508","1033993","0.0-508.0","44qozdc8","","<span style=""color:Black; font-size:50px;"">Agent A","null","","","","",""
"null","","","video-keyboard-response","509","1036693","0.0-509.0","44qozdc8","","","null","","Agent A","scrambled","FOR_REV_BLOBBY_STIM/1592934.bmp_pp63_L1_V1.0_veridical_freeview_isoFalse_fps144_reversed_REAL.mp4",""
"null","","","html-keyboard-response","510","1038197","0.0-510.0","44qozdc8","","<span style=""color:Black; font-size:50px;"">Agent B","null","","","","",""
"null","","","video-keyboard-response","511","1040914","0.0-511.0","44qozdc8","","","null","","Agent B","veridical","FOR_REV_BLOBBY_STIM/1592934.bmp_pp63_L1_V1.0_veridical_freeview_isoFalse_fps144.mp4",""
"","","","call-function","512","1040915","0.0-512.0","44qozdc8","","","","","","","",""
"2500.67499999993","{""judgement"":1}","[0]","survey-likert","513","1043416","0.0-513.0","44qozdc8","","","","","","","","1"
"892.9250000000466","{""confidence"":2}","[0]","survey-likert","514","1044310","0.0-514.0","44qozdc8","","","","","","","",""
"","","","call-function","515","1044311","0.0-515.0","44qozdc8","","","","","","","",""
"null","","","html-keyboard-response","516","1045812","0.0-516.0","44qozdc8","","<span style=""color:Black; font-size:50px;"">Agent A","null","","","","",""
"null","","","video-keyboard-response","517","1048720","0.0-517.0","44qozdc8","","","null","","Agent A","scrambled","FOR_REV_BLOBBY_STIM/285905.bmp_pp57_L1_V1.0_veridical_freeview_isoFalse_fps144_reversed_REAL.mp4",""
"null","","","html-keyboard-response","518","1050222","0.0-518.0","44qozdc8","","<span style=""color:Black; font-size:50px;"">Agent B","null","","","","",""
"null","","","video-keyboard-response","519","1053122","0.0-519.0","44qozdc8","","","null","","Agent B","veridical","FOR_REV_BLOBBY_STIM/285905.bmp_pp57_L1_V1.0_veridical_freeview_isoFalse_fps144.mp4",""
"","","","call-function","520","1053122","0.0-520.0","44qozdc8","","","","","","","",""
"1212.7750000001397","{""judgement"":1}","[0]","survey-likert","521","1054336","0.0-521.0","44qozdc8","","","","","","","","1"
"1359.434999999823","{""confidence"":2}","[0]","survey-likert","522","1055697","0.0-522.0","44qozdc8","","","","","","","",""
"","","","call-function","523","1055698","0.0-523.0","44qozdc8","","","","","","","",""
"null","","","html-keyboard-response","524","1057200","0.0-524.0","44qozdc8","","<span style=""color:Black; font-size:50px;"">Agent A","null","","","","",""
"null","","","video-keyboard-response","525","1060009","0.0-525.0","44qozdc8","","","null","","Agent A","scrambled","FOR_REV_BLOBBY_STIM/1159768.bmp_pp89_L1_V1.0_veridical_freeview_isoFalse_fps144_reversed_REAL.mp4",""
"null","","","html-keyboard-response","526","1061509","0.0-526.0","44qozdc8","","<span style=""color:Black; font-size:50px;"">Agent B","null","","","","",""
"null","","","video-keyboard-response","527","1064314","0.0-527.0","44qozdc8","","","null","","Agent B","veridical","FOR_REV_BLOBBY_STIM/1159768.bmp_pp89_L1_V1.0_veridical_freeview_isoFalse_fps144.mp4",""
"","","","call-function","528","1064314","0.0-528.0","44qozdc8","","","","","","","",""
"1941.2350000001024","{""judgement"":1}","[0]","survey-likert","529","1066257","0.0-529.0","44qozdc8","","","","","","","","1"
"932.7350000001024","{""confidence"":2}","[0]","survey-likert","530","1067191","0.0-530.0","44qozdc8","","","","","","","",""
"","","","call-function","531","1067192","0.0-531.0","44qozdc8","","","","","","","",""
"null","","","html-keyboard-response","532","1068696","0.0-532.0","44qozdc8","","<span style=""color:Black; font-size:50px;"">Agent A","null","","","","",""
"null","","","video-keyboard-response","533","1071542","0.0-533.0","44qozdc8","","","null","","Agent A","veridical","FOR_REV_BLOBBY_STIM/1592657.bmp_pp98_L1_V1.0_veridical_freeview_isoFalse_fps144.mp4",""
"null","","","html-keyboard-response","534","1073046","0.0-534.0","44qozdc8","","<span style=""color:Black; font-size:50px;"">Agent B","null","","","","",""
"null","","","video-keyboard-response","535","1075908","0.0-535.0","44qozdc8","","","null","","Agent B","scrambled","FOR_REV_BLOBBY_STIM/1592657.bmp_pp98_L1_V1.0_veridical_freeview_isoFalse_fps144_reversed_REAL.mp4",""
"","","","call-function","536","1075910","0.0-536.0","44qozdc8","","","","","","","",""
"2779.4150000000373","{""judgement"":0}","[0]","survey-likert","537","1078691","0.0-537.0","44qozdc8","","","","","","","","0"
"1673.3849999997765","{""confidence"":2}","[0]","survey-likert","538","1080366","0.0-538.0","44qozdc8","","","","","","","",""
"","","","call-function","539","1080367","0.0-539.0","44qozdc8","","","","","","","",""
"null","","","html-keyboard-response","540","1081873","0.0-540.0","44qozdc8","","<span style=""color:Black; font-size:50px;"">Agent A","null","","","","",""
"null","","","video-keyboard-response","541","1084645","0.0-541.0","44qozdc8","","","null","","Agent A","veridical","FOR_REV_BLOBBY_STIM/1592890.bmp_pp82_L2_V1.0_veridical_freeview_isoFalse_fps144.mp4",""
"null","","","html-keyboard-response","542","1086150","0.0-542.0","44qozdc8","","<span style=""color:Black; font-size:50px;"">Agent B","null","","","","",""
"null","","","video-keyboard-response","543","1088939","0.0-543.0","44qozdc8","","","null","","Agent B","scrambled","FOR_REV_BLOBBY_STIM/1592890.bmp_pp82_L2_V1.0_veridical_freeview_isoFalse_fps144_reversed_REAL.mp4",""
"","","","call-function","544","1088939","0.0-544.0","44qozdc8","","","","","","","",""
"9168.735000000102","{""judgement"":0}","[0]","survey-likert","545","1098110","0.0-545.0","44qozdc8","","","","","","","","0"
"1473.2700000000186","{""confidence"":2}","[0]","survey-likert","546","1099585","0.0-546.0","44qozdc8","","","","","","","",""
"","","","call-function","547","1099585","0.0-547.0","44qozdc8","","","","","","","",""
"null","","","html-keyboard-response","548","1101087","0.0-548.0","44qozdc8","","<span style=""color:Black; font-size:50px;"">Agent A","null","","","","",""
"null","","","video-keyboard-response","549","1103888","0.0-549.0","44qozdc8","","","null","","Agent A","scrambled","FOR_REV_BLOBBY_STIM/498175.bmp_pp154_L1_V1.0_veridical_freeview_isoFalse_fps144_reversed_REAL.mp4",""
"null","","","html-keyboard-response","550","1105393","0.0-550.0","44qozdc8","","<span style=""color:Black; font-size:50px;"">Agent B","null","","","","",""
"null","","","video-keyboard-response","551","1108190","0.0-551.0","44qozdc8","","","null","","Agent B","veridical","FOR_REV_BLOBBY_STIM/498175.bmp_pp154_L1_V1.0_veridical_freeview_isoFalse_fps144.mp4",""
"","","","call-function","552","1108190","0.0-552.0","44qozdc8","","","","","","","",""
"2124.244999999879","{""judgement"":0}","[0]","survey-likert","553","1110315","0.0-553.0","44qozdc8","","","","","","","","1"
"1085.9599999999627","{""confidence"":2}","[0]","survey-likert","554","1111403","0.0-554.0","44qozdc8","","","","","","","",""
"","","","call-function","555","1111403","0.0-555.0","44qozdc8","","","","","","","",""
"null","","","html-keyboard-response","556","1112907","0.0-556.0","44qozdc8","","<span style=""color:Black; font-size:50px;"">Agent A","null","","","","",""
"null","","","video-keyboard-response","557","1115651","0.0-557.0","44qozdc8","","","null","","Agent A","veridical","FOR_REV_BLOBBY_STIM/498170.bmp_pp153_L3_V1.0_veridical_freeview_isoFalse_fps144.mp4",""
"null","","","html-keyboard-response","558","1117153","0.0-558.0","44qozdc8","","<span style=""color:Black; font-size:50px;"">Agent B","null","","","","",""
"null","","","video-keyboard-response","559","1119894","0.0-559.0","44qozdc8","","","null","","Agent B","scrambled","FOR_REV_BLOBBY_STIM/498170.bmp_pp153_L3_V1.0_veridical_freeview_isoFalse_fps144_reversed_REAL.mp4",""
"","","","call-function","560","1119894","0.0-560.0","44qozdc8","","","","","","","",""
"3034.035000000149","{""judgement"":0}","[0]","survey-likert","561","1122929","0.0-561.0","44qozdc8","","","","","","","","0"
"2252.975000000093","{""confidence"":1}","[0]","survey-likert","562","1125184","0.0-562.0","44qozdc8","","","","","","","",""
"","","","call-function","563","1125184","0.0-563.0","44qozdc8","","","","","","","",""
"null","","","html-keyboard-response","564","1126688","0.0-564.0","44qozdc8","","<span style=""color:Black; font-size:50px;"">Agent A","null","","","","",""
"null","","","video-keyboard-response","565","1129493","0.0-565.0","44qozdc8","","","null","","Agent A","scrambled","FOR_REV_BLOBBY_STIM/1591994.bmp_pp69_L3_V1.0_veridical_freeview_isoFalse_fps144_reversed_REAL.mp4",""
"null","","","html-keyboard-response","566","1130998","0.0-566.0","44qozdc8","","<span style=""color:Black; font-size:50px;"">Agent B","null","","","","",""
"null","","","video-keyboard-response","567","1133800","0.0-567.0","44qozdc8","","","null","","Agent B","veridical","FOR_REV_BLOBBY_STIM/1591994.bmp_pp69_L3_V1.0_veridical_freeview_isoFalse_fps144.mp4",""
"","","","call-function","568","1133800","0.0-568.0","44qozdc8","","","","","","","",""
"2833.405000000028","{""judgement"":1}","[0]","survey-likert","569","1136635","0.0-569.0","44qozdc8","","","","","","","","1"
"874.625","{""confidence"":2}","[0]","survey-likert","570","1137510","0.0-570.0","44qozdc8","","","","","","","",""
"","","","call-function","571","1137511","0.0-571.0","44qozdc8","","","","","","","",""
"null","","","html-keyboard-response","572","1139012","0.0-572.0","44qozdc8","","<span style=""color:Black; font-size:50px;"">Agent A","null","","","","",""
"null","","","video-keyboard-response","573","1141743","0.0-573.0","44qozdc8","","","null","","Agent A","veridical","FOR_REV_BLOBBY_STIM/1592133.bmp_pp75_L1_V1.0_veridical_freeview_isoFalse_fps144.mp4",""
"null","","","html-keyboard-response","574","1143249","0.0-574.0","44qozdc8","","<span style=""color:Black; font-size:50px;"">Agent B","null","","","","",""
"null","","","video-keyboard-response","575","1145946","0.0-575.0","44qozdc8","","","null","","Agent B","scrambled","FOR_REV_BLOBBY_STIM/1592133.bmp_pp75_L1_V1.0_veridical_freeview_isoFalse_fps144_reversed_REAL.mp4",""
"","","","call-function","576","1145947","0.0-576.0","44qozdc8","","","","","","","",""
"1467","{""judgement"":1}","[0]","survey-likert","577","1147416","0.0-577.0","44qozdc8","","","","","","","","0"
"2088.440000000177","{""confidence"":2}","[0]","survey-likert","578","1149506","0.0-578.0","44qozdc8","","","","","","","",""
"1983.1999999999534","","","instructions","579","1151491","0.0-579.0","44qozdc8","[{""page_index"":0,""viewing_time"":1983.030000000028}]","","","","","","",""
"1550.1299999998882","","","instructions","580","1153042","0.0-580.0","44qozdc8","[{""page_index"":0,""viewing_time"":1550.0249999999069}]","","","","","","",""
"12981.450000000186","{""post-1"":2}","[0]","survey-likert","581","1166025","0.0-581.0","44qozdc8","","","","","","","",""
"6167.25","{""post-1"":1}","[0]","survey-likert","582","1172193","0.0-582.0","44qozdc8","","","","","","","",""
"5056.040000000037","{""post-2"":2}","[0]","survey-likert","583","1177251","0.0-583.0","44qozdc8","","","","","","","",""
"1761.1599999999162","{""post-2"":1}","[0]","survey-likert","584","1179013","0.0-584.0","44qozdc8","","","","","","","",""
"9061.76000000001","{""post-3"":3}","[0]","survey-likert","585","1188076","0.0-585.0","44qozdc8","","","","","","","",""
"3124.4899999999907","{""post-3"":1}","[0]","survey-likert","586","1191202","0.0-586.0","44qozdc8","","","","","","","",""
"8852.370000000112","{""post-4"":1}","[0]","survey-likert","587","1200056","0.0-587.0","44qozdc8","","","","","","","",""
"6363.590000000084","{""post-4"":1}","[0]","survey-likert","588","1206422","0.0-588.0","44qozdc8","","","","","","","",""
"6300.535000000149","{""post-5"":1}","[0]","survey-likert","589","1212725","0.0-589.0","44qozdc8","","","","","","","",""
"1406.3149999999441","{""post-5"":1}","[0]","survey-likert","590","1214133","0.0-590.0","44qozdc8","","","","","","","",""
"75670.56500000018","{""Q0"":""This was an interesting experience! I tried choosing whichever agent viewed the screen most similarly to how I would've viewed it. I think the experiment and the questions are great as they are.""}","","survey-text","591","1289809","0.0-591.0","44qozdc8","","","","","","","",""
"68513.86499999999","{""Q0"":""I saw that sometimes an agent would look at an object in the picture, look away, and look back at it. I thought this was something a fake agent might do so I didn't choose that agent.""}","","survey-text","592","1358326","0.0-592.0","44qozdc8","","","","","","","",""
"62168.04500000016","{""Q0"":""The highlighted part moved very fast so I guess keeping up with it was a bit difficult (but this wasn't really a problem while I was taking the test)""}","","survey-text","593","1420499","0.0-593.0","44qozdc8","","","","","","","",""
"1124.7749999999069","","","instructions","594","1421625","0.0-594.0","44qozdc8","[{""page_index"":0,""viewing_time"":1124.6350000000093}]","","","","","","",""
"70398.36499999999","{""Experimenter_end"":[""Printed ID# 44qozdc8 on consent form"",""Given subject SONA credit or payment"",""Given the subject debrief form""]}","[0]","survey-multi-select","595","1492025","0.0-595.0","44qozdc8","","","","","","","",""
