"rt","responses","question_order","trial_type","trial_index","time_elapsed","internal_node_id","ID","view_history","stimulus","key_press","value","agent","condition","image","correct_answer"
"12518.9","{""Experimenter"":[""Confirmed subject's identity (ID card)"",""Confirmed normal or corrected-to-normal vision"",""Obtained consent (signature and date)"",""Checked the test room lighting"",""Checked computer screen lighting"",""Checked distance from screen to chin rest (50cm)"",""Cleaned and adjusted chin rest"",""Counterbalanced the order of the tasks"",""Opened the experiment in Firefox"",""Made the experiment full screen"",""Encouraged subject to silence phone, put away distractors, etc.""]}","[0]","survey-multi-select","0","12526","0.0-0.0","4hptnk60","","","","","","","",""
"32821.265","","","instructions","1","45349","0.0-1.0","4hptnk60","[{""page_index"":0,""viewing_time"":32821.115000000005}]","","","","","","",""
"8248.659999999996","","","instructions","2","53599","0.0-2.0","4hptnk60","[{""page_index"":0,""viewing_time"":918.5349999999962},{""page_index"":1,""viewing_time"":3608.9950000000026},{""page_index"":2,""viewing_time"":3721.010000000002}]","","","","","","",""
"2373.790000000001","","","instructions","3","55974","0.0-3.0","4hptnk60","[{""page_index"":0,""viewing_time"":2373.6800000000003}]","","","","","","",""
"null","","","video-keyboard-response","4","59045","0.0-4.0","4hptnk60","","","null","","","","",""
"12901.160000000003","","","instructions","5","71947","0.0-5.0","4hptnk60","[{""page_index"":0,""viewing_time"":2105.975000000006},{""page_index"":1,""viewing_time"":1780.9349999999977},{""page_index"":2,""viewing_time"":883.9800000000032},{""page_index"":3,""viewing_time"":3499.064999999995},{""page_index"":4,""viewing_time"":4631.074999999997}]","","","","","","",""
"5425.240000000005","","","instructions","6","77373","0.0-6.0","4hptnk60","[{""page_index"":0,""viewing_time"":5425.115000000005}]","","","","","","",""
"","","","call-function","7","77374","0.0-7.0","4hptnk60","","","","","","","",""
"null","","","html-keyboard-response","8","78877","0.0-8.0","4hptnk60","","<span style=""color:Black; font-size:50px;"">Agent A","null","","","","",""
"null","","","video-keyboard-response","9","81942","0.0-9.0","4hptnk60","","","null","","Agent A","veridical","STIM_SET_1_REAL/498149.bmp_pp99_L2_V1.0_veridical_freeview_isoFalse_fps144.mp4",""
"null","","","html-keyboard-response","10","83447","0.0-10.0","4hptnk60","","<span style=""color:Black; font-size:50px;"">Agent B","null","","","","",""
"null","","","video-keyboard-response","11","86513","0.0-11.0","4hptnk60","","","null","","Agent B","scrambled","STIM_SET_3/107955.bmp_pp90_L2_V2_veridical_freeview_isoFalsemismatch_498149.bmp_L2_fps90.mp4",""
"","","","call-function","12","86514","0.0-12.0","4hptnk60","","","","","","","",""
"2235.725000000006","{""judgement"":0}","[0]","survey-likert","13","88751","0.0-13.0","4hptnk60","","","","","","","","0"
"1739.8899999999994","{""confidence"":1}","[0]","survey-likert","14","90492","0.0-14.0","4hptnk60","","","","","","","",""
"","","","call-function","15","90493","0.0-15.0","4hptnk60","","","","","","","",""
"null","","","html-keyboard-response","16","91995","0.0-16.0","4hptnk60","","<span style=""color:Black; font-size:50px;"">Agent A","null","","","","",""
"null","","","video-keyboard-response","17","95066","0.0-17.0","4hptnk60","","","null","","Agent A","veridical","STIM_SET_1_REAL/1592934.bmp_pp63_L1_V1.0_veridical_freeview_isoFalse_fps144.mp4",""
"null","","","html-keyboard-response","18","96570","0.0-18.0","4hptnk60","","<span style=""color:Black; font-size:50px;"">Agent B","null","","","","",""
"null","","","video-keyboard-response","19","99663","0.0-19.0","4hptnk60","","","null","","Agent B","scrambled","STIM_SET_3/1159392.bmp_pp96_L2_V2_veridical_freeview_isoFalsemismatch_1592934.bmp_L1_fps90.mp4",""
"","","","call-function","20","99663","0.0-20.0","4hptnk60","","","","","","","",""
"3608.595000000001","{""judgement"":0}","[0]","survey-likert","21","103274","0.0-21.0","4hptnk60","","","","","","","","0"
"1677.1850000000122","{""confidence"":2}","[0]","survey-likert","22","104952","0.0-22.0","4hptnk60","","","","","","","",""
"","","","call-function","23","104953","0.0-23.0","4hptnk60","","","","","","","",""
"null","","","html-keyboard-response","24","106456","0.0-24.0","4hptnk60","","<span style=""color:Black; font-size:50px;"">Agent A","null","","","","",""
"null","","","video-keyboard-response","25","109550","0.0-25.0","4hptnk60","","","null","","Agent A","scrambled","STIM_SET_3/1592350.bmp_pp55_L3_V2_veridical_freeview_isoFalsemismatch_498111.bmp_L2_fps90.mp4",""
"null","","","html-keyboard-response","26","111053","0.0-26.0","4hptnk60","","<span style=""color:Black; font-size:50px;"">Agent B","null","","","","",""
"null","","","video-keyboard-response","27","114160","0.0-27.0","4hptnk60","","","null","","Agent B","veridical","STIM_SET_1_REAL/498111.bmp_pp88_L2_V1.0_veridical_freeview_isoFalse_fps144.mp4",""
"","","","call-function","28","114160","0.0-28.0","4hptnk60","","","","","","","",""
"2478.0099999999948","{""judgement"":0}","[0]","survey-likert","29","116639","0.0-29.0","4hptnk60","","","","","","","","1"
"1474.300000000003","{""confidence"":1}","[0]","survey-likert","30","118115","0.0-30.0","4hptnk60","","","","","","","",""
"","","","call-function","31","118115","0.0-31.0","4hptnk60","","","","","","","",""
"null","","","html-keyboard-response","32","119618","0.0-32.0","4hptnk60","","<span style=""color:Black; font-size:50px;"">Agent A","null","","","","",""
"null","","","video-keyboard-response","33","122687","0.0-33.0","4hptnk60","","","null","","Agent A","veridical","STIM_SET_1_REAL/285933.bmp_pp81_L1_V1.0_veridical_freeview_isoFalse_fps144.mp4",""
"null","","","html-keyboard-response","34","124189","0.0-34.0","4hptnk60","","<span style=""color:Black; font-size:50px;"">Agent B","null","","","","",""
"null","","","video-keyboard-response","35","127286","0.0-35.0","4hptnk60","","","null","","Agent B","scrambled","STIM_SET_3/1159973.bmp_pp98_L1_V2_veridical_freeview_isoFalsemismatch_285933.bmp_L1_fps90.mp4",""
"","","","call-function","36","127287","0.0-36.0","4hptnk60","","","","","","","",""
"3880.390000000014","{""judgement"":0}","[0]","survey-likert","37","131168","0.0-37.0","4hptnk60","","","","","","","","0"
"3980.6049999999814","{""confidence"":3}","[0]","survey-likert","38","135150","0.0-38.0","4hptnk60","","","","","","","",""
"","","","call-function","39","135151","0.0-39.0","4hptnk60","","","","","","","",""
"null","","","html-keyboard-response","40","136656","0.0-40.0","4hptnk60","","<span style=""color:Black; font-size:50px;"">Agent A","null","","","","",""
"null","","","video-keyboard-response","41","139765","0.0-41.0","4hptnk60","","","null","","Agent A","veridical","STIM_SET_1_REAL/713707.bmp_pp154_L1_V1.0_veridical_freeview_isoFalse_fps144.mp4",""
"null","","","html-keyboard-response","42","141267","0.0-42.0","4hptnk60","","<span style=""color:Black; font-size:50px;"">Agent B","null","","","","",""
"null","","","video-keyboard-response","43","144365","0.0-43.0","4hptnk60","","","null","","Agent B","scrambled","STIM_SET_3/1592314.bmp_pp100_L3_V2_veridical_freeview_isoFalsemismatch_713707.bmp_L1_fps90.mp4",""
"","","","call-function","44","144366","0.0-44.0","4hptnk60","","","","","","","",""
"2185.4349999999977","{""judgement"":0}","[0]","survey-likert","45","146553","0.0-45.0","4hptnk60","","","","","","","","0"
"2132.2550000000047","{""confidence"":3}","[0]","survey-likert","46","148686","0.0-46.0","4hptnk60","","","","","","","",""
"","","","call-function","47","148688","0.0-47.0","4hptnk60","","","","","","","",""
"null","","","html-keyboard-response","48","150191","0.0-48.0","4hptnk60","","<span style=""color:Black; font-size:50px;"">Agent A","null","","","","",""
"null","","","video-keyboard-response","49","153263","0.0-49.0","4hptnk60","","","null","","Agent A","scrambled","STIM_SET_3/498396.bmp_pp99_L2_V2_veridical_freeview_isoFalsemismatch_713371.bmp_L1_fps90.mp4",""
"null","","","html-keyboard-response","50","154769","0.0-50.0","4hptnk60","","<span style=""color:Black; font-size:50px;"">Agent B","null","","","","",""
"null","","","video-keyboard-response","51","157845","0.0-51.0","4hptnk60","","","null","","Agent B","veridical","STIM_SET_1_REAL/713371.bmp_pp68_L1_V1.0_veridical_freeview_isoFalse_fps144.mp4",""
"","","","call-function","52","157846","0.0-52.0","4hptnk60","","","","","","","",""
"2219.4799999999814","{""judgement"":1}","[0]","survey-likert","53","160066","0.0-53.0","4hptnk60","","","","","","","","1"
"1861.140000000014","{""confidence"":1}","[0]","survey-likert","54","161929","0.0-54.0","4hptnk60","","","","","","","",""
"","","","call-function","55","161930","0.0-55.0","4hptnk60","","","","","","","",""
"null","","","html-keyboard-response","56","163434","0.0-56.0","4hptnk60","","<span style=""color:Black; font-size:50px;"">Agent A","null","","","","",""
"null","","","video-keyboard-response","57","166520","0.0-57.0","4hptnk60","","","null","","Agent A","scrambled","STIM_SET_3/498025.bmp_pp81_L1_V2_veridical_freeview_isoFalsemismatch_713681.bmp_L2_fps90.mp4",""
"null","","","html-keyboard-response","58","168026","0.0-58.0","4hptnk60","","<span style=""color:Black; font-size:50px;"">Agent B","null","","","","",""
"null","","","video-keyboard-response","59","171088","0.0-59.0","4hptnk60","","","null","","Agent B","veridical","STIM_SET_1_REAL/713681.bmp_pp86_L2_V1.0_veridical_freeview_isoFalse_fps144.mp4",""
"","","","call-function","60","171089","0.0-60.0","4hptnk60","","","","","","","",""
"8803.940000000002","{""judgement"":0}","[0]","survey-likert","61","179894","0.0-61.0","4hptnk60","","","","","","","","1"
"1472.9300000000221","{""confidence"":0}","[0]","survey-likert","62","181368","0.0-62.0","4hptnk60","","","","","","","",""
"","","","call-function","63","181369","0.0-63.0","4hptnk60","","","","","","","",""
"null","","","html-keyboard-response","64","182871","0.0-64.0","4hptnk60","","<span style=""color:Black; font-size:50px;"">Agent A","null","","","","",""
"null","","","video-keyboard-response","65","185991","0.0-65.0","4hptnk60","","","null","","Agent A","scrambled","STIM_SET_3/285959.bmp_pp93_L1_V2_veridical_freeview_isoFalsemismatch_498253.bmp_L2_fps90.mp4",""
"null","","","html-keyboard-response","66","187492","0.0-66.0","4hptnk60","","<span style=""color:Black; font-size:50px;"">Agent B","null","","","","",""
"null","","","video-keyboard-response","67","190597","0.0-67.0","4hptnk60","","","null","","Agent B","veridical","STIM_SET_1_REAL/498253.bmp_pp67_L2_V1.0_veridical_freeview_isoFalse_fps144.mp4",""
"","","","call-function","68","190597","0.0-68.0","4hptnk60","","","","","","","",""
"4741.059999999998","{""judgement"":1}","[0]","survey-likert","69","195340","0.0-69.0","4hptnk60","","","","","","","","1"
"2040.6699999999837","{""confidence"":1}","[0]","survey-likert","70","197382","0.0-70.0","4hptnk60","","","","","","","",""
"","","","call-function","71","197383","0.0-71.0","4hptnk60","","","","","","","",""
"null","","","html-keyboard-response","72","198885","0.0-72.0","4hptnk60","","<span style=""color:Black; font-size:50px;"">Agent A","null","","","","",""
"null","","","video-keyboard-response","73","201987","0.0-73.0","4hptnk60","","","null","","Agent A","scrambled","STIM_SET_3/107909.bmp_pp95_L2_V2_veridical_freeview_isoFalsemismatch_1592372.bmp_L1_fps90.mp4",""
"null","","","html-keyboard-response","74","203494","0.0-74.0","4hptnk60","","<span style=""color:Black; font-size:50px;"">Agent B","null","","","","",""
"null","","","video-keyboard-response","75","206597","0.0-75.0","4hptnk60","","","null","","Agent B","veridical","STIM_SET_1_REAL/1592372.bmp_pp76_L1_V1.0_veridical_freeview_isoFalse_fps144.mp4",""
"","","","call-function","76","206598","0.0-76.0","4hptnk60","","","","","","","",""
"2689.765000000014","{""judgement"":0}","[0]","survey-likert","77","209288","0.0-77.0","4hptnk60","","","","","","","","1"
"1940.2999999999884","{""confidence"":2}","[0]","survey-likert","78","211230","0.0-78.0","4hptnk60","","","","","","","",""
"","","","call-function","79","211231","0.0-79.0","4hptnk60","","","","","","","",""
"null","","","html-keyboard-response","80","212731","0.0-80.0","4hptnk60","","<span style=""color:Black; font-size:50px;"">Agent A","null","","","","",""
"null","","","video-keyboard-response","81","215829","0.0-81.0","4hptnk60","","","null","","Agent A","veridical","STIM_SET_1_REAL/713796.bmp_pp84_L3_V1.0_veridical_freeview_isoFalse_fps144.mp4",""
"null","","","html-keyboard-response","82","217333","0.0-82.0","4hptnk60","","<span style=""color:Black; font-size:50px;"">Agent B","null","","","","",""
"null","","","video-keyboard-response","83","220409","0.0-83.0","4hptnk60","","","null","","Agent B","scrambled","STIM_SET_3/713633.bmp_pp58_L1_V2_veridical_freeview_isoFalsemismatch_713796.bmp_L3_fps90.mp4",""
"","","","call-function","84","220409","0.0-84.0","4hptnk60","","","","","","","",""
"24502.834999999992","{""judgement"":0}","[0]","survey-likert","85","244913","0.0-85.0","4hptnk60","","","","","","","","0"
"2563.859999999986","{""confidence"":1}","[0]","survey-likert","86","247478","0.0-86.0","4hptnk60","","","","","","","",""
"33370.495000000024","","","instructions","87","280850","0.0-87.0","4hptnk60","[{""page_index"":0,""viewing_time"":1002.2699999999895},{""page_index"":1,""viewing_time"":31349.945000000007},{""page_index"":2,""viewing_time"":1018.070000000007}]","","","","","","",""
"2084.335000000021","","","instructions","88","282936","0.0-88.0","4hptnk60","[{""page_index"":0,""viewing_time"":755.2449999999953},{""page_index"":1,""viewing_time"":684.960000000021},{""page_index"":2,""viewing_time"":644}]","","","","","","",""
"","","","call-function","89","282937","0.0-89.0","4hptnk60","","","","","","","",""
"null","","","html-keyboard-response","90","284442","0.0-90.0","4hptnk60","","<span style=""color:Black; font-size:50px;"">Agent A","null","","","","",""
"null","","","video-keyboard-response","91","287512","0.0-91.0","4hptnk60","","","null","","Agent A","veridical","STIM_SET_1_REAL/285905.bmp_pp57_L1_V1.0_veridical_freeview_isoFalse_fps144.mp4",""
"null","","","html-keyboard-response","92","289016","0.0-92.0","4hptnk60","","<span style=""color:Black; font-size:50px;"">Agent B","null","","","","",""
"null","","","video-keyboard-response","93","292109","0.0-93.0","4hptnk60","","","null","","Agent B","scrambled","STIM_SET_3/1592568.bmp_pp71_L1_V2_veridical_freeview_isoFalsemismatch_285905.bmp_L1_fps90.mp4",""
"","","","call-function","94","292110","0.0-94.0","4hptnk60","","","","","","","",""
"1732.4400000000023","{""judgement"":0}","[0]","survey-likert","95","293843","0.0-95.0","4hptnk60","","","","","","","","0"
"1142.7850000000326","{""confidence"":2}","[0]","survey-likert","96","294988","0.0-96.0","4hptnk60","","","","","","","",""
"","","","call-function","97","294988","0.0-97.0","4hptnk60","","","","","","","",""
"null","","","html-keyboard-response","98","296491","0.0-98.0","4hptnk60","","<span style=""color:Black; font-size:50px;"">Agent A","null","","","","",""
"null","","","video-keyboard-response","99","299558","0.0-99.0","4hptnk60","","","null","","Agent A","scrambled","STIM_SET_3/1592298.bmp_pp56_L3_V2_veridical_freeview_isoFalsemismatch_1593146.bmp_L1_fps90.mp4",""
"null","","","html-keyboard-response","100","301063","0.0-100.0","4hptnk60","","<span style=""color:Black; font-size:50px;"">Agent B","null","","","","",""
"null","","","video-keyboard-response","101","304138","0.0-101.0","4hptnk60","","","null","","Agent B","veridical","STIM_SET_1_REAL/1593146.bmp_pp93_L1_V1.0_veridical_freeview_isoFalse_fps144.mp4",""
"","","","call-function","102","304138","0.0-102.0","4hptnk60","","","","","","","",""
"3527.4199999999837","{""judgement"":1}","[0]","survey-likert","103","307667","0.0-103.0","4hptnk60","","","","","","","","1"
"1897.734999999986","{""confidence"":1}","[0]","survey-likert","104","309566","0.0-104.0","4hptnk60","","","","","","","",""
"","","","call-function","105","309566","0.0-105.0","4hptnk60","","","","","","","",""
"null","","","html-keyboard-response","106","311069","0.0-106.0","4hptnk60","","<span style=""color:Black; font-size:50px;"">Agent A","null","","","","",""
"null","","","video-keyboard-response","107","314171","0.0-107.0","4hptnk60","","","null","","Agent A","veridical","STIM_SET_1_REAL/1159829.bmp_pp91_L3_V1.0_veridical_freeview_isoFalse_fps144.mp4",""
"null","","","html-keyboard-response","108","315674","0.0-108.0","4hptnk60","","<span style=""color:Black; font-size:50px;"">Agent B","null","","","","",""
"null","","","video-keyboard-response","109","318774","0.0-109.0","4hptnk60","","","null","","Agent B","scrambled","STIM_SET_3/1159956.bmp_pp59_L3_V2_veridical_freeview_isoFalsemismatch_1159829.bmp_L3_fps90.mp4",""
"","","","call-function","110","318775","0.0-110.0","4hptnk60","","","","","","","",""
"2171.719999999972","{""judgement"":0}","[0]","survey-likert","111","320947","0.0-111.0","4hptnk60","","","","","","","","0"
"2538.969999999972","{""confidence"":0}","[0]","survey-likert","112","323488","0.0-112.0","4hptnk60","","","","","","","",""
"","","","call-function","113","323488","0.0-113.0","4hptnk60","","","","","","","",""
"null","","","html-keyboard-response","114","324997","0.0-114.0","4hptnk60","","<span style=""color:Black; font-size:50px;"">Agent A","null","","","","",""
"null","","","video-keyboard-response","115","328102","0.0-115.0","4hptnk60","","","null","","Agent A","scrambled","STIM_SET_3/498258.bmp_pp51_L1_V2_veridical_freeview_isoFalsemismatch_498155.bmp_L2_fps90.mp4",""
"null","","","html-keyboard-response","116","329607","0.0-116.0","4hptnk60","","<span style=""color:Black; font-size:50px;"">Agent B","null","","","","",""
"null","","","video-keyboard-response","117","332719","0.0-117.0","4hptnk60","","","null","","Agent B","veridical","STIM_SET_1_REAL/498155.bmp_pp61_L2_V1.0_veridical_freeview_isoFalse_fps144.mp4",""
"","","","call-function","118","332720","0.0-118.0","4hptnk60","","","","","","","",""
"4923.809999999998","{""judgement"":1}","[0]","survey-likert","119","337645","0.0-119.0","4hptnk60","","","","","","","","1"
"1444.4199999999837","{""confidence"":1}","[0]","survey-likert","120","339090","0.0-120.0","4hptnk60","","","","","","","",""
"","","","call-function","121","339091","0.0-121.0","4hptnk60","","","","","","","",""
"null","","","html-keyboard-response","122","340593","0.0-122.0","4hptnk60","","<span style=""color:Black; font-size:50px;"">Agent A","null","","","","",""
"null","","","video-keyboard-response","123","343690","0.0-123.0","4hptnk60","","","null","","Agent A","veridical","STIM_SET_1_REAL/1592727.bmp_pp59_L3_V1.0_veridical_freeview_isoFalse_fps144.mp4",""
"null","","","html-keyboard-response","124","345191","0.0-124.0","4hptnk60","","<span style=""color:Black; font-size:50px;"">Agent B","null","","","","",""
"null","","","video-keyboard-response","125","348292","0.0-125.0","4hptnk60","","","null","","Agent B","scrambled","STIM_SET_3/1592038.bmp_pp79_L2_V2_veridical_freeview_isoFalsemismatch_1592727.bmp_L3_fps90.mp4",""
"","","","call-function","126","348293","0.0-126.0","4hptnk60","","","","","","","",""
"1906.969999999972","{""judgement"":0}","[0]","survey-likert","127","350201","0.0-127.0","4hptnk60","","","","","","","","0"
"1386.2149999999674","{""confidence"":1}","[0]","survey-likert","128","351588","0.0-128.0","4hptnk60","","","","","","","",""
"","","","call-function","129","351589","0.0-129.0","4hptnk60","","","","","","","",""
"null","","","html-keyboard-response","130","353095","0.0-130.0","4hptnk60","","<span style=""color:Black; font-size:50px;"">Agent A","null","","","","",""
"null","","","video-keyboard-response","131","356174","0.0-131.0","4hptnk60","","","null","","Agent A","veridical","STIM_SET_1_REAL/1591954.bmp_pp62_L2_V1.0_veridical_freeview_isoFalse_fps144.mp4",""
"null","","","html-keyboard-response","132","357679","0.0-132.0","4hptnk60","","<span style=""color:Black; font-size:50px;"">Agent B","null","","","","",""
"null","","","video-keyboard-response","133","360743","0.0-133.0","4hptnk60","","","null","","Agent B","scrambled","STIM_SET_3/1160049.bmp_pp53_L2_V2_veridical_freeview_isoFalsemismatch_1591954.bmp_L2_fps90.mp4",""
"","","","call-function","134","360744","0.0-134.0","4hptnk60","","","","","","","",""
"4020.7849999999744","{""judgement"":0}","[0]","survey-likert","135","364765","0.0-135.0","4hptnk60","","","","","","","","0"
"1262.820000000007","{""confidence"":1}","[0]","survey-likert","136","366030","0.0-136.0","4hptnk60","","","","","","","",""
"","","","call-function","137","366030","0.0-137.0","4hptnk60","","","","","","","",""
"null","","","html-keyboard-response","138","367532","0.0-138.0","4hptnk60","","<span style=""color:Black; font-size:50px;"">Agent A","null","","","","",""
"null","","","video-keyboard-response","139","370619","0.0-139.0","4hptnk60","","","null","","Agent A","scrambled","STIM_SET_3/1592921.bmp_pp69_L3_V2_veridical_freeview_isoFalsemismatch_713211.bmp_L3_fps90.mp4",""
"null","","","html-keyboard-response","140","372122","0.0-140.0","4hptnk60","","<span style=""color:Black; font-size:50px;"">Agent B","null","","","","",""
"null","","","video-keyboard-response","141","375199","0.0-141.0","4hptnk60","","","null","","Agent B","veridical","STIM_SET_1_REAL/713211.bmp_pp100_L3_V1.0_veridical_freeview_isoFalse_fps144.mp4",""
"","","","call-function","142","375200","0.0-142.0","4hptnk60","","","","","","","",""
"5447.229999999981","{""judgement"":0}","[0]","survey-likert","143","380649","0.0-143.0","4hptnk60","","","","","","","","1"
"3370.2550000000047","{""confidence"":1}","[0]","survey-likert","144","384022","0.0-144.0","4hptnk60","","","","","","","",""
"","","","call-function","145","384023","0.0-145.0","4hptnk60","","","","","","","",""
"null","","","html-keyboard-response","146","385524","0.0-146.0","4hptnk60","","<span style=""color:Black; font-size:50px;"">Agent A","null","","","","",""
"null","","","video-keyboard-response","147","388587","0.0-147.0","4hptnk60","","","null","","Agent A","scrambled","STIM_SET_3/1592044.bmp_pp94_L2_V2_veridical_freeview_isoFalsemismatch_1159446.bmp_L3_fps90.mp4",""
"null","","","html-keyboard-response","148","390091","0.0-148.0","4hptnk60","","<span style=""color:Black; font-size:50px;"">Agent B","null","","","","",""
"null","","","video-keyboard-response","149","393152","0.0-149.0","4hptnk60","","","null","","Agent B","veridical","STIM_SET_1_REAL/1159446.bmp_pp60_L3_V1.0_veridical_freeview_isoFalse_fps144.mp4",""
"","","","call-function","150","393153","0.0-150.0","4hptnk60","","","","","","","",""
"2227.5499999999884","{""judgement"":1}","[0]","survey-likert","151","395381","0.0-151.0","4hptnk60","","","","","","","","1"
"2410.3450000000303","{""confidence"":1}","[0]","survey-likert","152","397793","0.0-152.0","4hptnk60","","","","","","","",""
"","","","call-function","153","397794","0.0-153.0","4hptnk60","","","","","","","",""
"null","","","html-keyboard-response","154","399295","0.0-154.0","4hptnk60","","<span style=""color:Black; font-size:50px;"">Agent A","null","","","","",""
"null","","","video-keyboard-response","155","402379","0.0-155.0","4hptnk60","","","null","","Agent A","veridical","STIM_SET_1_REAL/1593041.bmp_pp58_L1_V1.0_veridical_freeview_isoFalse_fps144.mp4",""
"null","","","html-keyboard-response","156","403884","0.0-156.0","4hptnk60","","<span style=""color:Black; font-size:50px;"">Agent B","null","","","","",""
"null","","","video-keyboard-response","157","406960","0.0-157.0","4hptnk60","","","null","","Agent B","scrambled","STIM_SET_3/1591781.bmp_pp63_L1_V2_veridical_freeview_isoFalsemismatch_1593041.bmp_L1_fps90.mp4",""
"","","","call-function","158","406961","0.0-158.0","4hptnk60","","","","","","","",""
"2389.6300000000047","{""judgement"":0}","[0]","survey-likert","159","409351","0.0-159.0","4hptnk60","","","","","","","","0"
"1487.8150000000023","{""confidence"":2}","[0]","survey-likert","160","410840","0.0-160.0","4hptnk60","","","","","","","",""
"","","","call-function","161","410841","0.0-161.0","4hptnk60","","","","","","","",""
"null","","","html-keyboard-response","162","412344","0.0-162.0","4hptnk60","","<span style=""color:Black; font-size:50px;"">Agent A","null","","","","",""
"null","","","video-keyboard-response","163","415440","0.0-163.0","4hptnk60","","","null","","Agent A","scrambled","STIM_SET_3/1160204.bmp_pp54_L2_V2_veridical_freeview_isoFalsemismatch_286001.bmp_L2_fps90.mp4",""
"null","","","html-keyboard-response","164","416944","0.0-164.0","4hptnk60","","<span style=""color:Black; font-size:50px;"">Agent B","null","","","","",""
"null","","","video-keyboard-response","165","420031","0.0-165.0","4hptnk60","","","null","","Agent B","veridical","STIM_SET_1_REAL/286001.bmp_pp54_L2_V1.0_veridical_freeview_isoFalse_fps144.mp4",""
"","","","call-function","166","420032","0.0-166.0","4hptnk60","","","","","","","",""
"2066.1199999999953","{""judgement"":0}","[0]","survey-likert","167","422099","0.0-167.0","4hptnk60","","","","","","","","1"
"2034.795000000042","{""confidence"":3}","[0]","survey-likert","168","424135","0.0-168.0","4hptnk60","","","","","","","",""
"235506.94","","","instructions","169","659643","0.0-169.0","4hptnk60","[{""page_index"":0,""viewing_time"":233786.63999999996},{""page_index"":1,""viewing_time"":816.9949999999953},{""page_index"":2,""viewing_time"":903.0800000000745}]","","","","","","",""
"7695.194999999949","","","instructions","170","667339","0.0-170.0","4hptnk60","[{""page_index"":0,""viewing_time"":5775.089999999967},{""page_index"":1,""viewing_time"":1521.9749999999767},{""page_index"":2,""viewing_time"":398.0250000000233}]","","","","","","",""
"","","","call-function","171","667339","0.0-171.0","4hptnk60","","","","","","","",""
"null","","","html-keyboard-response","172","668841","0.0-172.0","4hptnk60","","<span style=""color:Black; font-size:50px;"">Agent A","null","","","","",""
"null","","","video-keyboard-response","173","671905","0.0-173.0","4hptnk60","","","null","","Agent A","veridical","STIM_SET_1_REAL/285994.bmp_pp92_L3_V1.0_veridical_freeview_isoFalse_fps144.mp4",""
"null","","","html-keyboard-response","174","673410","0.0-174.0","4hptnk60","","<span style=""color:Black; font-size:50px;"">Agent B","null","","","","",""
"null","","","video-keyboard-response","175","676486","0.0-175.0","4hptnk60","","","null","","Agent B","scrambled","STIM_SET_3/1159592.bmp_pp91_L3_V2_veridical_freeview_isoFalsemismatch_285994.bmp_L3_fps90.mp4",""
"","","","call-function","176","676487","0.0-176.0","4hptnk60","","","","","","","",""
"1947.3099999999395","{""judgement"":0}","[0]","survey-likert","177","678435","0.0-177.0","4hptnk60","","","","","","","","0"
"1398.9799999999814","{""confidence"":2}","[0]","survey-likert","178","679835","0.0-178.0","4hptnk60","","","","","","","",""
"","","","call-function","179","679836","0.0-179.0","4hptnk60","","","","","","","",""
"null","","","html-keyboard-response","180","681338","0.0-180.0","4hptnk60","","<span style=""color:Black; font-size:50px;"">Agent A","null","","","","",""
"null","","","video-keyboard-response","181","684402","0.0-181.0","4hptnk60","","","null","","Agent A","veridical","STIM_SET_1_REAL/1592890.bmp_pp82_L2_V1.0_veridical_freeview_isoFalse_fps144.mp4",""
"null","","","html-keyboard-response","182","685905","0.0-182.0","4hptnk60","","<span style=""color:Black; font-size:50px;"">Agent B","null","","","","",""
"null","","","video-keyboard-response","183","688982","0.0-183.0","4hptnk60","","","null","","Agent B","scrambled","STIM_SET_3/1592168.bmp_pp71_L1_V2_veridical_freeview_isoFalsemismatch_1592890.bmp_L2_fps90.mp4",""
"","","","call-function","184","688982","0.0-184.0","4hptnk60","","","","","","","",""
"2818.9499999999534","{""judgement"":0}","[0]","survey-likert","185","691802","0.0-185.0","4hptnk60","","","","","","","","0"
"1155.655000000028","{""confidence"":1}","[0]","survey-likert","186","692959","0.0-186.0","4hptnk60","","","","","","","",""
"","","","call-function","187","692960","0.0-187.0","4hptnk60","","","","","","","",""
"null","","","html-keyboard-response","188","694465","0.0-188.0","4hptnk60","","<span style=""color:Black; font-size:50px;"">Agent A","null","","","","",""
"null","","","video-keyboard-response","189","697552","0.0-189.0","4hptnk60","","","null","","Agent A","veridical","STIM_SET_1_REAL/713089.bmp_pp60_L3_V1.0_veridical_freeview_isoFalse_fps144.mp4",""
"null","","","html-keyboard-response","190","699055","0.0-190.0","4hptnk60","","<span style=""color:Black; font-size:50px;"">Agent B","null","","","","",""
"null","","","video-keyboard-response","191","702157","0.0-191.0","4hptnk60","","","null","","Agent B","scrambled","STIM_SET_3/1592201.bmp_pp97_L3_V2_veridical_freeview_isoFalsemismatch_713089.bmp_L3_fps90.mp4",""
"","","","call-function","192","702158","0.0-192.0","4hptnk60","","","","","","","",""
"2480.734999999986","{""judgement"":0}","[0]","survey-likert","193","704640","0.0-193.0","4hptnk60","","","","","","","","0"
"1508.6199999999953","{""confidence"":2}","[0]","survey-likert","194","706151","0.0-194.0","4hptnk60","","","","","","","",""
"","","","call-function","195","706152","0.0-195.0","4hptnk60","","","","","","","",""
"null","","","html-keyboard-response","196","707654","0.0-196.0","4hptnk60","","<span style=""color:Black; font-size:50px;"">Agent A","null","","","","",""
"null","","","video-keyboard-response","197","710726","0.0-197.0","4hptnk60","","","null","","Agent A","scrambled","STIM_SET_3/713274.bmp_pp73_L3_V2_veridical_freeview_isoFalsemismatch_497950.bmp_L1_fps90.mp4",""
"null","","","html-keyboard-response","198","712228","0.0-198.0","4hptnk60","","<span style=""color:Black; font-size:50px;"">Agent B","null","","","","",""
"null","","","video-keyboard-response","199","715291","0.0-199.0","4hptnk60","","","null","","Agent B","veridical","STIM_SET_1_REAL/497950.bmp_pp151_L1_V1.0_veridical_freeview_isoFalse_fps144.mp4",""
"","","","call-function","200","715292","0.0-200.0","4hptnk60","","","","","","","",""
"2715.1049999999814","{""judgement"":1}","[0]","survey-likert","201","718008","0.0-201.0","4hptnk60","","","","","","","","1"
"2152.185000000056","{""confidence"":2}","[0]","survey-likert","202","720161","0.0-202.0","4hptnk60","","","","","","","",""
"","","","call-function","203","720162","0.0-203.0","4hptnk60","","","","","","","",""
"null","","","html-keyboard-response","204","721664","0.0-204.0","4hptnk60","","<span style=""color:Black; font-size:50px;"">Agent A","null","","","","",""
"null","","","video-keyboard-response","205","724760","0.0-205.0","4hptnk60","","","null","","Agent A","veridical","STIM_SET_1_REAL/1159813.bmp_pp79_L2_V1.0_veridical_freeview_isoFalse_fps144.mp4",""
"null","","","html-keyboard-response","206","726262","0.0-206.0","4hptnk60","","<span style=""color:Black; font-size:50px;"">Agent B","null","","","","",""
"null","","","video-keyboard-response","207","729345","0.0-207.0","4hptnk60","","","null","","Agent B","scrambled","STIM_SET_3/1592129.bmp_pp153_L3_V2_veridical_freeview_isoFalsemismatch_1159813.bmp_L2_fps90.mp4",""
"","","","call-function","208","729346","0.0-208.0","4hptnk60","","","","","","","",""
"2794.4199999999255","{""judgement"":0}","[0]","survey-likert","209","732141","0.0-209.0","4hptnk60","","","","","","","","0"
"1679.704999999958","{""confidence"":1}","[0]","survey-likert","210","733822","0.0-210.0","4hptnk60","","","","","","","",""
"","","","call-function","211","733823","0.0-211.0","4hptnk60","","","","","","","",""
"null","","","html-keyboard-response","212","735326","0.0-212.0","4hptnk60","","<span style=""color:Black; font-size:50px;"">Agent A","null","","","","",""
"null","","","video-keyboard-response","213","738432","0.0-213.0","4hptnk60","","","null","","Agent A","scrambled","STIM_SET_3/713788.bmp_pp52_L1_V2_veridical_freeview_isoFalsemismatch_1159768.bmp_L1_fps90.mp4",""
"null","","","html-keyboard-response","214","739935","0.0-214.0","4hptnk60","","<span style=""color:Black; font-size:50px;"">Agent B","null","","","","",""
"null","","","video-keyboard-response","215","743040","0.0-215.0","4hptnk60","","","null","","Agent B","veridical","STIM_SET_1_REAL/1159768.bmp_pp89_L1_V1.0_veridical_freeview_isoFalse_fps144.mp4",""
"","","","call-function","216","743041","0.0-216.0","4hptnk60","","","","","","","",""
"4168.125","{""judgement"":1}","[0]","survey-likert","217","747211","0.0-217.0","4hptnk60","","","","","","","","1"
"1281.0449999999255","{""confidence"":1}","[0]","survey-likert","218","748493","0.0-218.0","4hptnk60","","","","","","","",""
"","","","call-function","219","748494","0.0-219.0","4hptnk60","","","","","","","",""
"null","","","html-keyboard-response","220","749997","0.0-220.0","4hptnk60","","<span style=""color:Black; font-size:50px;"">Agent A","null","","","","",""
"null","","","video-keyboard-response","221","753113","0.0-221.0","4hptnk60","","","null","","Agent A","scrambled","STIM_SET_3/498326.bmp_pp57_L1_V2_veridical_freeview_isoFalsemismatch_1592286.bmp_L1_fps90.mp4",""
"null","","","html-keyboard-response","222","754614","0.0-222.0","4hptnk60","","<span style=""color:Black; font-size:50px;"">Agent B","null","","","","",""
"null","","","video-keyboard-response","223","757712","0.0-223.0","4hptnk60","","","null","","Agent B","veridical","STIM_SET_1_REAL/1592286.bmp_pp52_L1_V1.0_veridical_freeview_isoFalse_fps144.mp4",""
"","","","call-function","224","757713","0.0-224.0","4hptnk60","","","","","","","",""
"2579.0100000000093","{""judgement"":1}","[0]","survey-likert","225","760293","0.0-225.0","4hptnk60","","","","","","","","1"
"1892.484999999986","{""confidence"":2}","[0]","survey-likert","226","762186","0.0-226.0","4hptnk60","","","","","","","",""
"","","","call-function","227","762187","0.0-227.0","4hptnk60","","","","","","","",""
"null","","","html-keyboard-response","228","763690","0.0-228.0","4hptnk60","","<span style=""color:Black; font-size:50px;"">Agent A","null","","","","",""
"null","","","video-keyboard-response","229","766805","0.0-229.0","4hptnk60","","","null","","Agent A","veridical","STIM_SET_1_REAL/1592657.bmp_pp98_L1_V1.0_veridical_freeview_isoFalse_fps144.mp4",""
"null","","","html-keyboard-response","230","768308","0.0-230.0","4hptnk60","","<span style=""color:Black; font-size:50px;"">Agent B","null","","","","",""
"null","","","video-keyboard-response","231","771402","0.0-231.0","4hptnk60","","","null","","Agent B","scrambled","STIM_SET_3/498261.bmp_pp84_L3_V2_veridical_freeview_isoFalsemismatch_1592657.bmp_L1_fps90.mp4",""
"","","","call-function","232","771402","0.0-232.0","4hptnk60","","","","","","","",""
"3769.5849999999627","{""judgement"":0}","[0]","survey-likert","233","775173","0.0-233.0","4hptnk60","","","","","","","","0"
"1588.9949999999953","{""confidence"":2}","[0]","survey-likert","234","776763","0.0-234.0","4hptnk60","","","","","","","",""
"","","","call-function","235","776764","0.0-235.0","4hptnk60","","","","","","","",""
"null","","","html-keyboard-response","236","778265","0.0-236.0","4hptnk60","","<span style=""color:Black; font-size:50px;"">Agent A","null","","","","",""
"null","","","video-keyboard-response","237","781334","0.0-237.0","4hptnk60","","","null","","Agent A","scrambled","STIM_SET_3/1592305.bmp_pp65_L3_V2_veridical_freeview_isoFalsemismatch_713779.bmp_L2_fps90.mp4",""
"null","","","html-keyboard-response","238","782839","0.0-238.0","4hptnk60","","<span style=""color:Black; font-size:50px;"">Agent B","null","","","","",""
"null","","","video-keyboard-response","239","785902","0.0-239.0","4hptnk60","","","null","","Agent B","veridical","STIM_SET_1_REAL/713779.bmp_pp152_L2_V1.0_veridical_freeview_isoFalse_fps144.mp4",""
"","","","call-function","240","785903","0.0-240.0","4hptnk60","","","","","","","",""
"3516.429999999935","{""judgement"":0}","[0]","survey-likert","241","789420","0.0-241.0","4hptnk60","","","","","","","","1"
"1190.0650000000605","{""confidence"":0}","[0]","survey-likert","242","790611","0.0-242.0","4hptnk60","","","","","","","",""
"","","","call-function","243","790612","0.0-243.0","4hptnk60","","","","","","","",""
"null","","","html-keyboard-response","244","792118","0.0-244.0","4hptnk60","","<span style=""color:Black; font-size:50px;"">Agent A","null","","","","",""
"null","","","video-keyboard-response","245","795185","0.0-245.0","4hptnk60","","","null","","Agent A","veridical","STIM_SET_1_REAL/1159515.bmp_pp84_L3_V1.0_veridical_freeview_isoFalse_fps144.mp4",""
"null","","","html-keyboard-response","246","796688","0.0-246.0","4hptnk60","","<span style=""color:Black; font-size:50px;"">Agent B","null","","","","",""
"null","","","video-keyboard-response","247","799771","0.0-247.0","4hptnk60","","","null","","Agent B","scrambled","STIM_SET_3/1159874.bmp_pp96_L2_V2_veridical_freeview_isoFalsemismatch_1159515.bmp_L3_fps90.mp4",""
"","","","call-function","248","799772","0.0-248.0","4hptnk60","","","","","","","",""
"1853.1149999999907","{""judgement"":0}","[0]","survey-likert","249","801626","0.0-249.0","4hptnk60","","","","","","","","0"
"1262.6149999999907","{""confidence"":2}","[0]","survey-likert","250","802890","0.0-250.0","4hptnk60","","","","","","","",""
"4047.7550000000047","","","instructions","251","806938","0.0-251.0","4hptnk60","[{""page_index"":0,""viewing_time"":3169.5100000000093},{""page_index"":1,""viewing_time"":561.5400000000373},{""page_index"":2,""viewing_time"":316.5100000000093}]","","","","","","",""
"1115.2250000000931","","","instructions","252","808054","0.0-252.0","4hptnk60","[{""page_index"":0,""viewing_time"":342.3050000000512},{""page_index"":1,""viewing_time"":402.29000000003725},{""page_index"":2,""viewing_time"":370.5250000000233}]","","","","","","",""
"","","","call-function","253","808055","0.0-253.0","4hptnk60","","","","","","","",""
"null","","","html-keyboard-response","254","809561","0.0-254.0","4hptnk60","","<span style=""color:Black; font-size:50px;"">Agent A","null","","","","",""
"null","","","video-keyboard-response","255","812655","0.0-255.0","4hptnk60","","","null","","Agent A","scrambled","STIM_SET_3/61513.bmp_pp75_L1_V2_veridical_freeview_isoFalsemismatch_1159784.bmp_L3_fps90.mp4",""
"null","","","html-keyboard-response","256","814158","0.0-256.0","4hptnk60","","<span style=""color:Black; font-size:50px;"">Agent B","null","","","","",""
"null","","","video-keyboard-response","257","817263","0.0-257.0","4hptnk60","","","null","","Agent B","veridical","STIM_SET_1_REAL/1159784.bmp_pp73_L3_V1.0_veridical_freeview_isoFalse_fps144.mp4",""
"","","","call-function","258","817264","0.0-258.0","4hptnk60","","","","","","","",""
"4271.229999999981","{""judgement"":0}","[0]","survey-likert","259","821536","0.0-259.0","4hptnk60","","","","","","","","1"
"2026.1350000000093","{""confidence"":1}","[0]","survey-likert","260","823563","0.0-260.0","4hptnk60","","","","","","","",""
"","","","call-function","261","823564","0.0-261.0","4hptnk60","","","","","","","",""
"null","","","html-keyboard-response","262","825069","0.0-262.0","4hptnk60","","<span style=""color:Black; font-size:50px;"">Agent A","null","","","","",""
"null","","","video-keyboard-response","263","828172","0.0-263.0","4hptnk60","","","null","","Agent A","veridical","STIM_SET_1_REAL/1592499.bmp_pp96_L2_V1.0_veridical_freeview_isoFalse_fps144.mp4",""
"null","","","html-keyboard-response","264","829676","0.0-264.0","4hptnk60","","<span style=""color:Black; font-size:50px;"">Agent B","null","","","","",""
"null","","","video-keyboard-response","265","832761","0.0-265.0","4hptnk60","","","null","","Agent B","scrambled","STIM_SET_3/1159819.bmp_pp151_L1_V2_veridical_freeview_isoFalsemismatch_1592499.bmp_L2_fps90.mp4",""
"","","","call-function","266","832762","0.0-266.0","4hptnk60","","","","","","","",""
"2815.295000000042","{""judgement"":0}","[0]","survey-likert","267","835579","0.0-267.0","4hptnk60","","","","","","","","0"
"1463.6199999999953","{""confidence"":2}","[0]","survey-likert","268","837045","0.0-268.0","4hptnk60","","","","","","","",""
"","","","call-function","269","837047","0.0-269.0","4hptnk60","","","","","","","",""
"null","","","html-keyboard-response","270","838552","0.0-270.0","4hptnk60","","<span style=""color:Black; font-size:50px;"">Agent A","null","","","","",""
"null","","","video-keyboard-response","271","841630","0.0-271.0","4hptnk60","","","null","","Agent A","veridical","STIM_SET_1_REAL/1592807.bmp_pp68_L1_V1.0_veridical_freeview_isoFalse_fps144.mp4",""
"null","","","html-keyboard-response","272","843135","0.0-272.0","4hptnk60","","<span style=""color:Black; font-size:50px;"">Agent B","null","","","","",""
"null","","","video-keyboard-response","273","846200","0.0-273.0","4hptnk60","","","null","","Agent B","scrambled","STIM_SET_3/713652.bmp_pp89_L1_V2_veridical_freeview_isoFalsemismatch_1592807.bmp_L1_fps90.mp4",""
"","","","call-function","274","846201","0.0-274.0","4hptnk60","","","","","","","",""
"2492.4000000000233","{""judgement"":0}","[0]","survey-likert","275","848694","0.0-275.0","4hptnk60","","","","","","","","0"
"1786.8049999999348","{""confidence"":1}","[0]","survey-likert","276","850482","0.0-276.0","4hptnk60","","","","","","","",""
"","","","call-function","277","850483","0.0-277.0","4hptnk60","","","","","","","",""
"null","","","html-keyboard-response","278","851989","0.0-278.0","4hptnk60","","<span style=""color:Black; font-size:50px;"">Agent A","null","","","","",""
"null","","","video-keyboard-response","279","855058","0.0-279.0","4hptnk60","","","null","","Agent A","veridical","STIM_SET_1_REAL/713017.bmp_pp152_L2_V1.0_veridical_freeview_isoFalse_fps144.mp4",""
"null","","","html-keyboard-response","280","856561","0.0-280.0","4hptnk60","","<span style=""color:Black; font-size:50px;"">Agent B","null","","","","",""
"null","","","video-keyboard-response","281","859624","0.0-281.0","4hptnk60","","","null","","Agent B","scrambled","STIM_SET_3/1591975.bmp_pp88_L2_V2_veridical_freeview_isoFalsemismatch_713017.bmp_L2_fps90.mp4",""
"","","","call-function","282","859625","0.0-282.0","4hptnk60","","","","","","","",""
"2679.7399999999907","{""judgement"":0}","[0]","survey-likert","283","862305","0.0-283.0","4hptnk60","","","","","","","","0"
"1462.8100000000559","{""confidence"":1}","[0]","survey-likert","284","863769","0.0-284.0","4hptnk60","","","","","","","",""
"","","","call-function","285","863770","0.0-285.0","4hptnk60","","","","","","","",""
"null","","","html-keyboard-response","286","865275","0.0-286.0","4hptnk60","","<span style=""color:Black; font-size:50px;"">Agent A","null","","","","",""
"null","","","video-keyboard-response","287","868385","0.0-287.0","4hptnk60","","","null","","Agent A","veridical","STIM_SET_1_REAL/1159440.bmp_pp98_L1_V1.0_veridical_freeview_isoFalse_fps144.mp4",""
"null","","","html-keyboard-response","288","869889","0.0-288.0","4hptnk60","","<span style=""color:Black; font-size:50px;"">Agent B","null","","","","",""
"null","","","video-keyboard-response","289","872991","0.0-289.0","4hptnk60","","","null","","Agent B","scrambled","STIM_SET_3/713829.bmp_pp60_L3_V2_veridical_freeview_isoFalsemismatch_1159440.bmp_L1_fps90.mp4",""
"","","","call-function","290","872992","0.0-290.0","4hptnk60","","","","","","","",""
"4023.1350000000093","{""judgement"":0}","[0]","survey-likert","291","877016","0.0-291.0","4hptnk60","","","","","","","","0"
"1620.795000000042","{""confidence"":0}","[0]","survey-likert","292","878638","0.0-292.0","4hptnk60","","","","","","","",""
"","","","call-function","293","878639","0.0-293.0","4hptnk60","","","","","","","",""
"null","","","html-keyboard-response","294","880142","0.0-294.0","4hptnk60","","<span style=""color:Black; font-size:50px;"">Agent A","null","","","","",""
"null","","","video-keyboard-response","295","883245","0.0-295.0","4hptnk60","","","null","","Agent A","scrambled","STIM_SET_3/713381.bmp_pp82_L2_V2_veridical_freeview_isoFalsemismatch_1159572.bmp_L1_fps90.mp4",""
"null","","","html-keyboard-response","296","884751","0.0-296.0","4hptnk60","","<span style=""color:Black; font-size:50px;"">Agent B","null","","","","",""
"null","","","video-keyboard-response","297","887843","0.0-297.0","4hptnk60","","","null","","Agent B","veridical","STIM_SET_1_REAL/1159572.bmp_pp71_L1_V1.0_veridical_freeview_isoFalse_fps144.mp4",""
"","","","call-function","298","887844","0.0-298.0","4hptnk60","","","","","","","",""
"2149.204999999958","{""judgement"":1}","[0]","survey-likert","299","889994","0.0-299.0","4hptnk60","","","","","","","","1"
"1319.1649999999208","{""confidence"":2}","[0]","survey-likert","300","891315","0.0-300.0","4hptnk60","","","","","","","",""
"","","","call-function","301","891316","0.0-301.0","4hptnk60","","","","","","","",""
"null","","","html-keyboard-response","302","892822","0.0-302.0","4hptnk60","","<span style=""color:Black; font-size:50px;"">Agent A","null","","","","",""
"null","","","video-keyboard-response","303","895913","0.0-303.0","4hptnk60","","","null","","Agent A","scrambled","STIM_SET_3/1592150.bmp_pp77_L3_V2_veridical_freeview_isoFalsemismatch_1159447.bmp_L2_fps90.mp4",""
"null","","","html-keyboard-response","304","897417","0.0-304.0","4hptnk60","","<span style=""color:Black; font-size:50px;"">Agent B","null","","","","",""
"null","","","video-keyboard-response","305","900509","0.0-305.0","4hptnk60","","","null","","Agent B","veridical","STIM_SET_1_REAL/1159447.bmp_pp70_L2_V1.0_veridical_freeview_isoFalse_fps144.mp4",""
"","","","call-function","306","900510","0.0-306.0","4hptnk60","","","","","","","",""
"5412.170000000042","{""judgement"":0}","[0]","survey-likert","307","905923","0.0-307.0","4hptnk60","","","","","","","","1"
"1550.7550000000047","{""confidence"":0}","[0]","survey-likert","308","907475","0.0-308.0","4hptnk60","","","","","","","",""
"","","","call-function","309","907476","0.0-309.0","4hptnk60","","","","","","","",""
"null","","","html-keyboard-response","310","908978","0.0-310.0","4hptnk60","","<span style=""color:Black; font-size:50px;"">Agent A","null","","","","",""
"null","","","video-keyboard-response","311","912053","0.0-311.0","4hptnk60","","","null","","Agent A","veridical","STIM_SET_1_REAL/61537.bmp_pp73_L3_V1.0_veridical_freeview_isoFalse_fps144.mp4",""
"null","","","html-keyboard-response","312","913558","0.0-312.0","4hptnk60","","<span style=""color:Black; font-size:50px;"">Agent B","null","","","","",""
"null","","","video-keyboard-response","313","916637","0.0-313.0","4hptnk60","","","null","","Agent B","scrambled","STIM_SET_3/713770.bmp_pp89_L1_V2_veridical_freeview_isoFalsemismatch_61537.bmp_L3_fps90.mp4",""
"","","","call-function","314","916638","0.0-314.0","4hptnk60","","","","","","","",""
"2767.655000000028","{""judgement"":0}","[0]","survey-likert","315","919407","0.0-315.0","4hptnk60","","","","","","","","0"
"1822.6300000000047","{""confidence"":2}","[0]","survey-likert","316","921231","0.0-316.0","4hptnk60","","","","","","","",""
"","","","call-function","317","921232","0.0-317.0","4hptnk60","","","","","","","",""
"null","","","html-keyboard-response","318","922733","0.0-318.0","4hptnk60","","<span style=""color:Black; font-size:50px;"">Agent A","null","","","","",""
"null","","","video-keyboard-response","319","925821","0.0-319.0","4hptnk60","","","null","","Agent A","scrambled","STIM_SET_3/150463.bmp_pp55_L3_V2_veridical_freeview_isoFalsemismatch_1592619.bmp_L3_fps90.mp4",""
"null","","","html-keyboard-response","320","927324","0.0-320.0","4hptnk60","","<span style=""color:Black; font-size:50px;"">Agent B","null","","","","",""
"null","","","video-keyboard-response","321","930388","0.0-321.0","4hptnk60","","","null","","Agent B","veridical","STIM_SET_1_REAL/1592619.bmp_pp56_L3_V1.0_veridical_freeview_isoFalse_fps144.mp4",""
"","","","call-function","322","930389","0.0-322.0","4hptnk60","","","","","","","",""
"3432.530000000028","{""judgement"":1}","[0]","survey-likert","323","933822","0.0-323.0","4hptnk60","","","","","","","","1"
"1818.7899999999208","{""confidence"":1}","[0]","survey-likert","324","935642","0.0-324.0","4hptnk60","","","","","","","",""
"","","","call-function","325","935643","0.0-325.0","4hptnk60","","","","","","","",""
"null","","","html-keyboard-response","326","937146","0.0-326.0","4hptnk60","","<span style=""color:Black; font-size:50px;"">Agent A","null","","","","",""
"null","","","video-keyboard-response","327","940258","0.0-327.0","4hptnk60","","","null","","Agent A","veridical","STIM_SET_1_REAL/1160168.bmp_pp53_L2_V1.0_veridical_freeview_isoFalse_fps144.mp4",""
"null","","","html-keyboard-response","328","941761","0.0-328.0","4hptnk60","","<span style=""color:Black; font-size:50px;"">Agent B","null","","","","",""
"null","","","video-keyboard-response","329","944859","0.0-329.0","4hptnk60","","","null","","Agent B","scrambled","STIM_SET_3/1592857.bmp_pp52_L1_V2_veridical_freeview_isoFalsemismatch_1160168.bmp_L2_fps90.mp4",""
"","","","call-function","330","944860","0.0-330.0","4hptnk60","","","","","","","",""
"4138.260000000009","{""judgement"":0}","[0]","survey-likert","331","948999","0.0-331.0","4hptnk60","","","","","","","","0"
"2090.545000000042","{""confidence"":1}","[0]","survey-likert","332","951091","0.0-332.0","4hptnk60","","","","","","","",""
"156952.19999999995","","","instructions","333","1108045","0.0-333.0","4hptnk60","[{""page_index"":0,""viewing_time"":155757.00500000012},{""page_index"":1,""viewing_time"":642.5149999998976},{""page_index"":2,""viewing_time"":552.4699999999721}]","","","","","","",""
"2235.1700000001583","","","instructions","334","1110282","0.0-334.0","4hptnk60","[{""page_index"":0,""viewing_time"":743.0400000000373},{""page_index"":1,""viewing_time"":1058.0150000001304},{""page_index"":2,""viewing_time"":434.0100000000093}]","","","","","","",""
"","","","call-function","335","1110283","0.0-335.0","4hptnk60","","","","","","","",""
"null","","","html-keyboard-response","336","1111789","0.0-336.0","4hptnk60","","<span style=""color:Black; font-size:50px;"">Agent A","null","","","","",""
"null","","","video-keyboard-response","337","1114853","0.0-337.0","4hptnk60","","","null","","Agent A","veridical","STIM_SET_1_REAL/1592817.bmp_pp55_L3_V1.0_veridical_freeview_isoFalse_fps144.mp4",""
"null","","","html-keyboard-response","338","1116360","0.0-338.0","4hptnk60","","<span style=""color:Black; font-size:50px;"">Agent B","null","","","","",""
"null","","","video-keyboard-response","339","1119429","0.0-339.0","4hptnk60","","","null","","Agent B","scrambled","STIM_SET_3/1159329.bmp_pp61_L2_V2_veridical_freeview_isoFalsemismatch_1592817.bmp_L3_fps90.mp4",""
"","","","call-function","340","1119430","0.0-340.0","4hptnk60","","","","","","","",""
"2129.2750000001397","{""judgement"":0}","[0]","survey-likert","341","1121560","0.0-341.0","4hptnk60","","","","","","","","0"
"1302.7400000002235","{""confidence"":1}","[0]","survey-likert","342","1122865","0.0-342.0","4hptnk60","","","","","","","",""
"","","","call-function","343","1122865","0.0-343.0","4hptnk60","","","","","","","",""
"null","","","html-keyboard-response","344","1124370","0.0-344.0","4hptnk60","","<span style=""color:Black; font-size:50px;"">Agent A","null","","","","",""
"null","","","video-keyboard-response","345","1127432","0.0-345.0","4hptnk60","","","null","","Agent A","scrambled","STIM_SET_3/285932.bmp_pp64_L1_V2_veridical_freeview_isoFalsemismatch_1159855.bmp_L2_fps90.mp4",""
"null","","","html-keyboard-response","346","1128936","0.0-346.0","4hptnk60","","<span style=""color:Black; font-size:50px;"">Agent B","null","","","","",""
"null","","","video-keyboard-response","347","1132012","0.0-347.0","4hptnk60","","","null","","Agent B","veridical","STIM_SET_1_REAL/1159855.bmp_pp99_L2_V1.0_veridical_freeview_isoFalse_fps144.mp4",""
"","","","call-function","348","1132013","0.0-348.0","4hptnk60","","","","","","","",""
"1737.6700000001583","{""judgement"":1}","[0]","survey-likert","349","1133751","0.0-349.0","4hptnk60","","","","","","","","1"
"2323.0500000000466","{""confidence"":1}","[0]","survey-likert","350","1136076","0.0-350.0","4hptnk60","","","","","","","",""
"","","","call-function","351","1136076","0.0-351.0","4hptnk60","","","","","","","",""
"null","","","html-keyboard-response","352","1137579","0.0-352.0","4hptnk60","","<span style=""color:Black; font-size:50px;"">Agent A","null","","","","",""
"null","","","video-keyboard-response","353","1140664","0.0-353.0","4hptnk60","","","null","","Agent A","scrambled","STIM_SET_3/285684.bmp_pp80_L3_V2_veridical_freeview_isoFalsemismatch_713760.bmp_L1_fps90.mp4",""
"null","","","html-keyboard-response","354","1142172","0.0-354.0","4hptnk60","","<span style=""color:Black; font-size:50px;"">Agent B","null","","","","",""
"null","","","video-keyboard-response","355","1145275","0.0-355.0","4hptnk60","","","null","","Agent B","veridical","STIM_SET_1_REAL/713760.bmp_pp81_L1_V1.0_veridical_freeview_isoFalse_fps144.mp4",""
"","","","call-function","356","1145276","0.0-356.0","4hptnk60","","","","","","","",""
"5463.510000000009","{""judgement"":1}","[0]","survey-likert","357","1150740","0.0-357.0","4hptnk60","","","","","","","","1"
"1154.6649999998044","{""confidence"":1}","[0]","survey-likert","358","1151896","0.0-358.0","4hptnk60","","","","","","","",""
"","","","call-function","359","1151897","0.0-359.0","4hptnk60","","","","","","","",""
"null","","","html-keyboard-response","360","1153400","0.0-360.0","4hptnk60","","<span style=""color:Black; font-size:50px;"">Agent A","null","","","","",""
"null","","","video-keyboard-response","361","1156511","0.0-361.0","4hptnk60","","","null","","Agent A","veridical","STIM_SET_1_REAL/1160127.bmp_pp90_L2_V1.0_veridical_freeview_isoFalse_fps144.mp4",""
"null","","","html-keyboard-response","362","1158013","0.0-362.0","4hptnk60","","<span style=""color:Black; font-size:50px;"">Agent B","null","","","","",""
"null","","","video-keyboard-response","363","1161119","0.0-363.0","4hptnk60","","","null","","Agent B","scrambled","STIM_SET_3/498372.bmp_pp95_L2_V2_veridical_freeview_isoFalsemismatch_1160127.bmp_L2_fps90.mp4",""
"","","","call-function","364","1161120","0.0-364.0","4hptnk60","","","","","","","",""
"2091.469999999972","{""judgement"":0}","[0]","survey-likert","365","1163212","0.0-365.0","4hptnk60","","","","","","","","0"
"3120.195000000065","{""confidence"":1}","[0]","survey-likert","366","1166334","0.0-366.0","4hptnk60","","","","","","","",""
"","","","call-function","367","1166334","0.0-367.0","4hptnk60","","","","","","","",""
"null","","","html-keyboard-response","368","1167837","0.0-368.0","4hptnk60","","<span style=""color:Black; font-size:50px;"">Agent A","null","","","","",""
"null","","","video-keyboard-response","369","1170926","0.0-369.0","4hptnk60","","","null","","Agent A","scrambled","STIM_SET_3/1592951.bmp_pp80_L3_V2_veridical_freeview_isoFalsemismatch_712977.bmp_L1_fps90.mp4",""
"null","","","html-keyboard-response","370","1172431","0.0-370.0","4hptnk60","","<span style=""color:Black; font-size:50px;"">Agent B","null","","","","",""
"null","","","video-keyboard-response","371","1175532","0.0-371.0","4hptnk60","","","null","","Agent B","veridical","STIM_SET_1_REAL/712977.bmp_pp51_L1_V1.0_veridical_freeview_isoFalse_fps144.mp4",""
"","","","call-function","372","1175533","0.0-372.0","4hptnk60","","","","","","","",""
"1987.8249999999534","{""judgement"":0}","[0]","survey-likert","373","1177521","0.0-373.0","4hptnk60","","","","","","","","1"
"1951.125","{""confidence"":2}","[0]","survey-likert","374","1179474","0.0-374.0","4hptnk60","","","","","","","",""
"","","","call-function","375","1179475","0.0-375.0","4hptnk60","","","","","","","",""
"null","","","html-keyboard-response","376","1180981","0.0-376.0","4hptnk60","","<span style=""color:Black; font-size:50px;"">Agent A","null","","","","",""
"null","","","video-keyboard-response","377","1184056","0.0-377.0","4hptnk60","","","null","","Agent A","veridical","STIM_SET_1_REAL/498175.bmp_pp154_L1_V1.0_veridical_freeview_isoFalse_fps144.mp4",""
"null","","","html-keyboard-response","378","1185558","0.0-378.0","4hptnk60","","<span style=""color:Black; font-size:50px;"">Agent B","null","","","","",""
"null","","","video-keyboard-response","379","1188621","0.0-379.0","4hptnk60","","","null","","Agent B","scrambled","STIM_SET_3/713689.bmp_pp153_L3_V2_veridical_freeview_isoFalsemismatch_498175.bmp_L1_fps90.mp4",""
"","","","call-function","380","1188622","0.0-380.0","4hptnk60","","","","","","","",""
"2275.6999999999534","{""judgement"":0}","[0]","survey-likert","381","1190899","0.0-381.0","4hptnk60","","","","","","","","0"
"2134.435000000056","{""confidence"":3}","[0]","survey-likert","382","1193034","0.0-382.0","4hptnk60","","","","","","","",""
"","","","call-function","383","1193035","0.0-383.0","4hptnk60","","","","","","","",""
"null","","","html-keyboard-response","384","1194537","0.0-384.0","4hptnk60","","<span style=""color:Black; font-size:50px;"">Agent A","null","","","","",""
"null","","","video-keyboard-response","385","1197612","0.0-385.0","4hptnk60","","","null","","Agent A","veridical","STIM_SET_1_REAL/1159777.bmp_pp77_L3_V1.0_veridical_freeview_isoFalse_fps144.mp4",""
"null","","","html-keyboard-response","386","1199118","0.0-386.0","4hptnk60","","<span style=""color:Black; font-size:50px;"">Agent B","null","","","","",""
"null","","","video-keyboard-response","387","1202184","0.0-387.0","4hptnk60","","","null","","Agent B","scrambled","STIM_SET_3/1592017.bmp_pp154_L1_V2_veridical_freeview_isoFalsemismatch_1159777.bmp_L3_fps90.mp4",""
"","","","call-function","388","1202184","0.0-388.0","4hptnk60","","","","","","","",""
"2148.1450000000186","{""judgement"":0}","[0]","survey-likert","389","1204333","0.0-389.0","4hptnk60","","","","","","","","0"
"2390.570000000065","{""confidence"":3}","[0]","survey-likert","390","1206725","0.0-390.0","4hptnk60","","","","","","","",""
"","","","call-function","391","1206726","0.0-391.0","4hptnk60","","","","","","","",""
"null","","","html-keyboard-response","392","1208231","0.0-392.0","4hptnk60","","<span style=""color:Black; font-size:50px;"">Agent A","null","","","","",""
"null","","","video-keyboard-response","393","1211325","0.0-393.0","4hptnk60","","","null","","Agent A","scrambled","STIM_SET_3/1591920.bmp_pp97_L3_V2_veridical_freeview_isoFalsemismatch_1592804.bmp_L3_fps90.mp4",""
"null","","","html-keyboard-response","394","1212832","0.0-394.0","4hptnk60","","<span style=""color:Black; font-size:50px;"">Agent B","null","","","","",""
"null","","","video-keyboard-response","395","1215937","0.0-395.0","4hptnk60","","","null","","Agent B","veridical","STIM_SET_1_REAL/1592804.bmp_pp91_L3_V1.0_veridical_freeview_isoFalse_fps144.mp4",""
"","","","call-function","396","1215938","0.0-396.0","4hptnk60","","","","","","","",""
"1639.8799999998882","{""judgement"":0}","[0]","survey-likert","397","1217578","0.0-397.0","4hptnk60","","","","","","","","1"
"1806.1699999999255","{""confidence"":1}","[0]","survey-likert","398","1219386","0.0-398.0","4hptnk60","","","","","","","",""
"","","","call-function","399","1219387","0.0-399.0","4hptnk60","","","","","","","",""
"null","","","html-keyboard-response","400","1220890","0.0-400.0","4hptnk60","","<span style=""color:Black; font-size:50px;"">Agent A","null","","","","",""
"null","","","video-keyboard-response","401","1224000","0.0-401.0","4hptnk60","","","null","","Agent A","scrambled","STIM_SET_3/285946.bmp_pp79_L2_V2_veridical_freeview_isoFalsemismatch_285751.bmp_L3_fps90.mp4",""
"null","","","html-keyboard-response","402","1225506","0.0-402.0","4hptnk60","","<span style=""color:Black; font-size:50px;"">Agent B","null","","","","",""
"null","","","video-keyboard-response","403","1228607","0.0-403.0","4hptnk60","","","null","","Agent B","veridical","STIM_SET_1_REAL/285751.bmp_pp55_L3_V1.0_veridical_freeview_isoFalse_fps144.mp4",""
"","","","call-function","404","1228607","0.0-404.0","4hptnk60","","","","","","","",""
"1732.5450000001583","{""judgement"":1}","[0]","survey-likert","405","1230341","0.0-405.0","4hptnk60","","","","","","","","1"
"2843.1650000000373","{""confidence"":1}","[0]","survey-likert","406","1233186","0.0-406.0","4hptnk60","","","","","","","",""
"","","","call-function","407","1233187","0.0-407.0","4hptnk60","","","","","","","",""
"null","","","html-keyboard-response","408","1234690","0.0-408.0","4hptnk60","","<span style=""color:Black; font-size:50px;"">Agent A","null","","","","",""
"null","","","video-keyboard-response","409","1237782","0.0-409.0","4hptnk60","","","null","","Agent A","veridical","STIM_SET_1_REAL/1592133.bmp_pp75_L1_V1.0_veridical_freeview_isoFalse_fps144.mp4",""
"null","","","html-keyboard-response","410","1239284","0.0-410.0","4hptnk60","","<span style=""color:Black; font-size:50px;"">Agent B","null","","","","",""
"null","","","video-keyboard-response","411","1242361","0.0-411.0","4hptnk60","","","null","","Agent B","scrambled","STIM_SET_3/1160247.bmp_pp54_L2_V2_veridical_freeview_isoFalsemismatch_1592133.bmp_L1_fps90.mp4",""
"","","","call-function","412","1242362","0.0-412.0","4hptnk60","","","","","","","",""
"1807.8349999999627","{""judgement"":0}","[0]","survey-likert","413","1244172","0.0-413.0","4hptnk60","","","","","","","","0"
"1630.3850000000093","{""confidence"":1}","[0]","survey-likert","414","1245804","0.0-414.0","4hptnk60","","","","","","","",""
"2638.3700000001118","","","instructions","415","1248443","0.0-415.0","4hptnk60","[{""page_index"":0,""viewing_time"":1405.1700000001583},{""page_index"":1,""viewing_time"":619.0349999999162},{""page_index"":2,""viewing_time"":613.9650000000838}]","","","","","","",""
"1371.2299999999814","","","instructions","416","1249815","0.0-416.0","4hptnk60","[{""page_index"":0,""viewing_time"":449.18499999982305},{""page_index"":1,""viewing_time"":458.80000000004657},{""page_index"":2,""viewing_time"":463.1400000001304}]","","","","","","",""
"","","","call-function","417","1249816","0.0-417.0","4hptnk60","","","","","","","",""
"null","","","html-keyboard-response","418","1251319","0.0-418.0","4hptnk60","","<span style=""color:Black; font-size:50px;"">Agent A","null","","","","",""
"null","","","video-keyboard-response","419","1254387","0.0-419.0","4hptnk60","","","null","","Agent A","veridical","STIM_SET_1_REAL/1592397.bmp_pp85_L3_V1.0_veridical_freeview_isoFalse_fps144.mp4",""
"null","","","html-keyboard-response","420","1255890","0.0-420.0","4hptnk60","","<span style=""color:Black; font-size:50px;"">Agent B","null","","","","",""
"null","","","video-keyboard-response","421","1258968","0.0-421.0","4hptnk60","","","null","","Agent B","scrambled","STIM_SET_3/713790.bmp_pp100_L3_V2_veridical_freeview_isoFalsemismatch_1592397.bmp_L3_fps90.mp4",""
"","","","call-function","422","1258969","0.0-422.0","4hptnk60","","","","","","","",""
"2858.9250000000466","{""judgement"":1}","[0]","survey-likert","423","1261829","0.0-423.0","4hptnk60","","","","","","","","0"
"1447.7600000000093","{""confidence"":1}","[0]","survey-likert","424","1263278","0.0-424.0","4hptnk60","","","","","","","",""
"","","","call-function","425","1263278","0.0-425.0","4hptnk60","","","","","","","",""
"null","","","html-keyboard-response","426","1264782","0.0-426.0","4hptnk60","","<span style=""color:Black; font-size:50px;"">Agent A","null","","","","",""
"null","","","video-keyboard-response","427","1267859","0.0-427.0","4hptnk60","","","null","","Agent A","veridical","STIM_SET_1_REAL/713620.bmp_pp65_L3_V1.0_veridical_freeview_isoFalse_fps144.mp4",""
"null","","","html-keyboard-response","428","1269367","0.0-428.0","4hptnk60","","<span style=""color:Black; font-size:50px;"">Agent B","null","","","","",""
"null","","","video-keyboard-response","429","1272454","0.0-429.0","4hptnk60","","","null","","Agent B","scrambled","STIM_SET_3/498398.bmp_pp81_L1_V2_veridical_freeview_isoFalsemismatch_713620.bmp_L3_fps90.mp4",""
"","","","call-function","430","1272455","0.0-430.0","4hptnk60","","","","","","","",""
"1816.6399999998976","{""judgement"":0}","[0]","survey-likert","431","1274272","0.0-431.0","4hptnk60","","","","","","","","0"
"1541.755000000121","{""confidence"":2}","[0]","survey-likert","432","1275815","0.0-432.0","4hptnk60","","","","","","","",""
"","","","call-function","433","1275816","0.0-433.0","4hptnk60","","","","","","","",""
"null","","","html-keyboard-response","434","1277321","0.0-434.0","4hptnk60","","<span style=""color:Black; font-size:50px;"">Agent A","null","","","","",""
"null","","","video-keyboard-response","435","1280415","0.0-435.0","4hptnk60","","","null","","Agent A","scrambled","STIM_SET_3/1159860.bmp_pp152_L2_V2_veridical_freeview_isoFalsemismatch_1159621.bmp_L3_fps90.mp4",""
"null","","","html-keyboard-response","436","1281919","0.0-436.0","4hptnk60","","<span style=""color:Black; font-size:50px;"">Agent B","null","","","","",""
"null","","","video-keyboard-response","437","1285011","0.0-437.0","4hptnk60","","","null","","Agent B","veridical","STIM_SET_1_REAL/1159621.bmp_pp92_L3_V1.0_veridical_freeview_isoFalse_fps144.mp4",""
"","","","call-function","438","1285012","0.0-438.0","4hptnk60","","","","","","","",""
"2470.780000000028","{""judgement"":0}","[0]","survey-likert","439","1287484","0.0-439.0","4hptnk60","","","","","","","","1"
"2158.469999999972","{""confidence"":1}","[0]","survey-likert","440","1289644","0.0-440.0","4hptnk60","","","","","","","",""
"","","","call-function","441","1289644","0.0-441.0","4hptnk60","","","","","","","",""
"null","","","html-keyboard-response","442","1291147","0.0-442.0","4hptnk60","","<span style=""color:Black; font-size:50px;"">Agent A","null","","","","",""
"null","","","video-keyboard-response","443","1294256","0.0-443.0","4hptnk60","","","null","","Agent A","scrambled","STIM_SET_3/1592747.bmp_pp53_L2_V2_veridical_freeview_isoFalsemismatch_713593.bmp_L1_fps90.mp4",""
"null","","","html-keyboard-response","444","1295761","0.0-444.0","4hptnk60","","<span style=""color:Black; font-size:50px;"">Agent B","null","","","","",""
"null","","","video-keyboard-response","445","1298865","0.0-445.0","4hptnk60","","","null","","Agent B","veridical","STIM_SET_1_REAL/713593.bmp_pp64_L1_V1.0_veridical_freeview_isoFalse_fps144.mp4",""
"","","","call-function","446","1298866","0.0-446.0","4hptnk60","","","","","","","",""
"3180.274999999907","{""judgement"":1}","[0]","survey-likert","447","1302048","0.0-447.0","4hptnk60","","","","","","","","1"
"2773.845000000205","{""confidence"":1}","[0]","survey-likert","448","1304823","0.0-448.0","4hptnk60","","","","","","","",""
"","","","call-function","449","1304823","0.0-449.0","4hptnk60","","","","","","","",""
"null","","","html-keyboard-response","450","1306325","0.0-450.0","4hptnk60","","<span style=""color:Black; font-size:50px;"">Agent A","null","","","","",""
"null","","","video-keyboard-response","451","1309399","0.0-451.0","4hptnk60","","","null","","Agent A","scrambled","STIM_SET_3/1592047.bmp_pp51_L1_V2_veridical_freeview_isoFalsemismatch_713513.bmp_L2_fps90.mp4",""
"null","","","html-keyboard-response","452","1310902","0.0-452.0","4hptnk60","","<span style=""color:Black; font-size:50px;"">Agent B","null","","","","",""
"null","","","video-keyboard-response","453","1313994","0.0-453.0","4hptnk60","","","null","","Agent B","veridical","STIM_SET_1_REAL/713513.bmp_pp62_L2_V1.0_veridical_freeview_isoFalse_fps144.mp4",""
"","","","call-function","454","1313995","0.0-454.0","4hptnk60","","","","","","","",""
"2115.1149999999907","{""judgement"":1}","[0]","survey-likert","455","1316111","0.0-455.0","4hptnk60","","","","","","","","1"
"3070.100000000093","{""confidence"":1}","[0]","survey-likert","456","1319183","0.0-456.0","4hptnk60","","","","","","","",""
"","","","call-function","457","1319183","0.0-457.0","4hptnk60","","","","","","","",""
"null","","","html-keyboard-response","458","1320687","0.0-458.0","4hptnk60","","<span style=""color:Black; font-size:50px;"">Agent A","null","","","","",""
"null","","","video-keyboard-response","459","1323750","0.0-459.0","4hptnk60","","","null","","Agent A","veridical","STIM_SET_1_REAL/1593035.bmp_pp94_L2_V1.0_veridical_freeview_isoFalse_fps144.mp4",""
"null","","","html-keyboard-response","460","1325253","0.0-460.0","4hptnk60","","<span style=""color:Black; font-size:50px;"">Agent B","null","","","","",""
"null","","","video-keyboard-response","461","1328331","0.0-461.0","4hptnk60","","","null","","Agent B","scrambled","STIM_SET_3/1159325.bmp_pp67_L2_V2_veridical_freeview_isoFalsemismatch_1593035.bmp_L2_fps90.mp4",""
"","","","call-function","462","1328332","0.0-462.0","4hptnk60","","","","","","","",""
"1763.1350000000093","{""judgement"":0}","[0]","survey-likert","463","1330096","0.0-463.0","4hptnk60","","","","","","","","0"
"1922.6049999999814","{""confidence"":3}","[0]","survey-likert","464","1332020","0.0-464.0","4hptnk60","","","","","","","",""
"","","","call-function","465","1332020","0.0-465.0","4hptnk60","","","","","","","",""
"null","","","html-keyboard-response","466","1333523","0.0-466.0","4hptnk60","","<span style=""color:Black; font-size:50px;"">Agent A","null","","","","",""
"null","","","video-keyboard-response","467","1336599","0.0-467.0","4hptnk60","","","null","","Agent A","veridical","STIM_SET_1_REAL/713684.bmp_pp85_L3_V1.0_veridical_freeview_isoFalse_fps144.mp4",""
"null","","","html-keyboard-response","468","1338106","0.0-468.0","4hptnk60","","<span style=""color:Black; font-size:50px;"">Agent B","null","","","","",""
"null","","","video-keyboard-response","469","1341216","0.0-469.0","4hptnk60","","","null","","Agent B","scrambled","STIM_SET_3/713920.bmp_pp76_L1_V2_veridical_freeview_isoFalsemismatch_713684.bmp_L3_fps90.mp4",""
"","","","call-function","470","1341217","0.0-470.0","4hptnk60","","","","","","","",""
"3055.0999999998603","{""judgement"":0}","[0]","survey-likert","471","1344273","0.0-471.0","4hptnk60","","","","","","","","0"
"3117.5100000000093","{""confidence"":2}","[0]","survey-likert","472","1347392","0.0-472.0","4hptnk60","","","","","","","",""
"","","","call-function","473","1347392","0.0-473.0","4hptnk60","","","","","","","",""
"null","","","html-keyboard-response","474","1348894","0.0-474.0","4hptnk60","","<span style=""color:Black; font-size:50px;"">Agent A","null","","","","",""
"null","","","video-keyboard-response","475","1351980","0.0-475.0","4hptnk60","","","null","","Agent A","veridical","STIM_SET_1_REAL/713403.bmp_pp80_L3_V1.0_veridical_freeview_isoFalse_fps144.mp4",""
"null","","","html-keyboard-response","476","1353485","0.0-476.0","4hptnk60","","<span style=""color:Black; font-size:50px;"">Agent B","null","","","","",""
"null","","","video-keyboard-response","477","1356575","0.0-477.0","4hptnk60","","","null","","Agent B","scrambled","STIM_SET_3/286034.bmp_pp69_L3_V2_veridical_freeview_isoFalsemismatch_713403.bmp_L3_fps90.mp4",""
"","","","call-function","478","1356577","0.0-478.0","4hptnk60","","","","","","","",""
"3553.195000000065","{""judgement"":0}","[0]","survey-likert","479","1360132","0.0-479.0","4hptnk60","","","","","","","","0"
"2417.619999999879","{""confidence"":1}","[0]","survey-likert","480","1362552","0.0-480.0","4hptnk60","","","","","","","",""
"","","","call-function","481","1362553","0.0-481.0","4hptnk60","","","","","","","",""
"null","","","html-keyboard-response","482","1364056","0.0-482.0","4hptnk60","","<span style=""color:Black; font-size:50px;"">Agent A","null","","","","",""
"null","","","video-keyboard-response","483","1367118","0.0-483.0","4hptnk60","","","null","","Agent A","scrambled","STIM_SET_3/285715.bmp_pp67_L2_V2_veridical_freeview_isoFalsemismatch_1159882.bmp_L2_fps90.mp4",""
"null","","","html-keyboard-response","484","1368623","0.0-484.0","4hptnk60","","<span style=""color:Black; font-size:50px;"">Agent B","null","","","","",""
"null","","","video-keyboard-response","485","1371686","0.0-485.0","4hptnk60","","","null","","Agent B","veridical","STIM_SET_1_REAL/1159882.bmp_pp61_L2_V1.0_veridical_freeview_isoFalse_fps144.mp4",""
"","","","call-function","486","1371687","0.0-486.0","4hptnk60","","","","","","","",""
"1833.5","{""judgement"":0}","[0]","survey-likert","487","1373521","0.0-487.0","4hptnk60","","","","","","","","1"
"1680.3249999999534","{""confidence"":1}","[0]","survey-likert","488","1375203","0.0-488.0","4hptnk60","","","","","","","",""
"","","","call-function","489","1375204","0.0-489.0","4hptnk60","","","","","","","",""
"null","","","html-keyboard-response","490","1376707","0.0-490.0","4hptnk60","","<span style=""color:Black; font-size:50px;"">Agent A","null","","","","",""
"null","","","video-keyboard-response","491","1379771","0.0-491.0","4hptnk60","","","null","","Agent A","veridical","STIM_SET_1_REAL/498170.bmp_pp153_L3_V1.0_veridical_freeview_isoFalse_fps144.mp4",""
"null","","","html-keyboard-response","492","1381277","0.0-492.0","4hptnk60","","<span style=""color:Black; font-size:50px;"">Agent B","null","","","","",""
"null","","","video-keyboard-response","493","1384355","0.0-493.0","4hptnk60","","","null","","Agent B","scrambled","STIM_SET_3/713742.bmp_pp91_L3_V2_veridical_freeview_isoFalsemismatch_498170.bmp_L3_fps90.mp4",""
"","","","call-function","494","1384356","0.0-494.0","4hptnk60","","","","","","","",""
"1743.6749999998137","{""judgement"":0}","[0]","survey-likert","495","1386100","0.0-495.0","4hptnk60","","","","","","","","0"
"1425.779999999795","{""confidence"":2}","[0]","survey-likert","496","1387527","0.0-496.0","4hptnk60","","","","","","","",""
"4025.3000000000466","","","instructions","497","1391553","0.0-497.0","4hptnk60","[{""page_index"":0,""viewing_time"":2825.5250000001397},{""page_index"":1,""viewing_time"":773.559999999823},{""page_index"":2,""viewing_time"":426.0150000001304}]","","","","","","",""
"1294.2849999999162","","","instructions","498","1392848","0.0-498.0","4hptnk60","[{""page_index"":0,""viewing_time"":434.18499999982305},{""page_index"":1,""viewing_time"":438.90500000002794},{""page_index"":2,""viewing_time"":420.9799999999814}]","","","","","","",""
"","","","call-function","499","1392849","0.0-499.0","4hptnk60","","","","","","","",""
"null","","","html-keyboard-response","500","1394354","0.0-500.0","4hptnk60","","<span style=""color:Black; font-size:50px;"">Agent A","null","","","","",""
"null","","","video-keyboard-response","501","1397456","0.0-501.0","4hptnk60","","","null","","Agent A","veridical","STIM_SET_1_REAL/1159675.bmp_pp77_L3_V1.0_veridical_freeview_isoFalse_fps144.mp4",""
"null","","","html-keyboard-response","502","1398962","0.0-502.0","4hptnk60","","<span style=""color:Black; font-size:50px;"">Agent B","null","","","","",""
"null","","","video-keyboard-response","503","1402056","0.0-503.0","4hptnk60","","","null","","Agent B","scrambled","STIM_SET_3/1159508.bmp_pp151_L1_V2_veridical_freeview_isoFalsemismatch_1159675.bmp_L3_fps90.mp4",""
"","","","call-function","504","1402057","0.0-504.0","4hptnk60","","","","","","","",""
"1629.6899999999441","{""judgement"":0}","[0]","survey-likert","505","1403687","0.0-505.0","4hptnk60","","","","","","","","0"
"1717.7900000000373","{""confidence"":3}","[0]","survey-likert","506","1405406","0.0-506.0","4hptnk60","","","","","","","",""
"","","","call-function","507","1405407","0.0-507.0","4hptnk60","","","","","","","",""
"null","","","html-keyboard-response","508","1406908","0.0-508.0","4hptnk60","","<span style=""color:Black; font-size:50px;"">Agent A","null","","","","",""
"null","","","video-keyboard-response","509","1410013","0.0-509.0","4hptnk60","","","null","","Agent A","veridical","STIM_SET_1_REAL/1591876.bmp_pp63_L1_V1.0_veridical_freeview_isoFalse_fps144.mp4",""
"null","","","html-keyboard-response","510","1411517","0.0-510.0","4hptnk60","","<span style=""color:Black; font-size:50px;"">Agent B","null","","","","",""
"null","","","video-keyboard-response","511","1414603","0.0-511.0","4hptnk60","","","null","","Agent B","scrambled","STIM_SET_3/1159427.bmp_pp98_L1_V2_veridical_freeview_isoFalsemismatch_1591876.bmp_L1_fps90.mp4",""
"","","","call-function","512","1414604","0.0-512.0","4hptnk60","","","","","","","",""
"1886.3049999999348","{""judgement"":0}","[0]","survey-likert","513","1416491","0.0-513.0","4hptnk60","","","","","","","","0"
"2146.4150000000373","{""confidence"":1}","[0]","survey-likert","514","1418639","0.0-514.0","4hptnk60","","","","","","","",""
"","","","call-function","515","1418640","0.0-515.0","4hptnk60","","","","","","","",""
"null","","","html-keyboard-response","516","1420144","0.0-516.0","4hptnk60","","<span style=""color:Black; font-size:50px;"">Agent A","null","","","","",""
"null","","","video-keyboard-response","517","1423245","0.0-517.0","4hptnk60","","","null","","Agent A","scrambled","STIM_SET_3/1592567.bmp_pp70_L2_V2_veridical_freeview_isoFalsemismatch_713135.bmp_L2_fps90.mp4",""
"null","","","html-keyboard-response","518","1424748","0.0-518.0","4hptnk60","","<span style=""color:Black; font-size:50px;"">Agent B","null","","","","",""
"null","","","video-keyboard-response","519","1427856","0.0-519.0","4hptnk60","","","null","","Agent B","veridical","STIM_SET_1_REAL/713135.bmp_pp54_L2_V1.0_veridical_freeview_isoFalse_fps144.mp4",""
"","","","call-function","520","1427857","0.0-520.0","4hptnk60","","","","","","","",""
"2792.994999999879","{""judgement"":1}","[0]","survey-likert","521","1430650","0.0-521.0","4hptnk60","","","","","","","","1"
"1154.4499999999534","{""confidence"":1}","[0]","survey-likert","522","1431806","0.0-522.0","4hptnk60","","","","","","","",""
"","","","call-function","523","1431807","0.0-523.0","4hptnk60","","","","","","","",""
"null","","","html-keyboard-response","524","1433313","0.0-524.0","4hptnk60","","<span style=""color:Black; font-size:50px;"">Agent A","null","","","","",""
"null","","","video-keyboard-response","525","1436385","0.0-525.0","4hptnk60","","","null","","Agent A","scrambled","STIM_SET_3/1160189.bmp_pp64_L1_V2_veridical_freeview_isoFalsemismatch_1592581.bmp_L3_fps90.mp4",""
"null","","","html-keyboard-response","526","1437886","0.0-526.0","4hptnk60","","<span style=""color:Black; font-size:50px;"">Agent B","null","","","","",""
"null","","","video-keyboard-response","527","1440954","0.0-527.0","4hptnk60","","","null","","Agent B","veridical","STIM_SET_1_REAL/1592581.bmp_pp100_L3_V1.0_veridical_freeview_isoFalse_fps144.mp4",""
"","","","call-function","528","1440955","0.0-528.0","4hptnk60","","","","","","","",""
"1538.0150000001304","{""judgement"":1}","[0]","survey-likert","529","1442493","0.0-529.0","4hptnk60","","","","","","","","1"
"1348.5849999999627","{""confidence"":2}","[0]","survey-likert","530","1443843","0.0-530.0","4hptnk60","","","","","","","",""
"","","","call-function","531","1443844","0.0-531.0","4hptnk60","","","","","","","",""
"null","","","html-keyboard-response","532","1445351","0.0-532.0","4hptnk60","","<span style=""color:Black; font-size:50px;"">Agent A","null","","","","",""
"null","","","video-keyboard-response","533","1448418","0.0-533.0","4hptnk60","","","null","","Agent A","scrambled","STIM_SET_3/1592289.bmp_pp92_L3_V2_veridical_freeview_isoFalsemismatch_713666.bmp_L3_fps90.mp4",""
"null","","","html-keyboard-response","534","1449924","0.0-534.0","4hptnk60","","<span style=""color:Black; font-size:50px;"">Agent B","null","","","","",""
"null","","","video-keyboard-response","535","1453003","0.0-535.0","4hptnk60","","","null","","Agent B","veridical","STIM_SET_1_REAL/713666.bmp_pp97_L3_V1.0_veridical_freeview_isoFalse_fps144.mp4",""
"","","","call-function","536","1453003","0.0-536.0","4hptnk60","","","","","","","",""
"2222.2000000001863","{""judgement"":0}","[0]","survey-likert","537","1455226","0.0-537.0","4hptnk60","","","","","","","","1"
"1440.7949999999255","{""confidence"":1}","[0]","survey-likert","538","1456668","0.0-538.0","4hptnk60","","","","","","","",""
"","","","call-function","539","1456669","0.0-539.0","4hptnk60","","","","","","","",""
"null","","","html-keyboard-response","540","1458171","0.0-540.0","4hptnk60","","<span style=""color:Black; font-size:50px;"">Agent A","null","","","","",""
"null","","","video-keyboard-response","541","1461266","0.0-541.0","4hptnk60","","","null","","Agent A","scrambled","STIM_SET_3/150277.bmp_pp65_L3_V2_veridical_freeview_isoFalsemismatch_1592362.bmp_L2_fps90.mp4",""
"null","","","html-keyboard-response","542","1462769","0.0-542.0","4hptnk60","","<span style=""color:Black; font-size:50px;"">Agent B","null","","","","",""
"null","","","video-keyboard-response","543","1465867","0.0-543.0","4hptnk60","","","null","","Agent B","veridical","STIM_SET_1_REAL/1592362.bmp_pp95_L2_V1.0_veridical_freeview_isoFalse_fps144.mp4",""
"","","","call-function","544","1465868","0.0-544.0","4hptnk60","","","","","","","",""
"3345.0800000000745","{""judgement"":0}","[0]","survey-likert","545","1469214","0.0-545.0","4hptnk60","","","","","","","","1"
"2264.6450000000186","{""confidence"":0}","[0]","survey-likert","546","1471481","0.0-546.0","4hptnk60","","","","","","","",""
"","","","call-function","547","1471482","0.0-547.0","4hptnk60","","","","","","","",""
"null","","","html-keyboard-response","548","1472986","0.0-548.0","4hptnk60","","<span style=""color:Black; font-size:50px;"">Agent A","null","","","","",""
"null","","","video-keyboard-response","549","1476092","0.0-549.0","4hptnk60","","","null","","Agent A","scrambled","STIM_SET_3/1592530.bmp_pp75_L1_V2_veridical_freeview_isoFalsemismatch_1591961.bmp_L2_fps90.mp4",""
"null","","","html-keyboard-response","550","1477597","0.0-550.0","4hptnk60","","<span style=""color:Black; font-size:50px;"">Agent B","null","","","","",""
"null","","","video-keyboard-response","551","1480703","0.0-551.0","4hptnk60","","","null","","Agent B","veridical","STIM_SET_1_REAL/1591961.bmp_pp67_L2_V1.0_veridical_freeview_isoFalse_fps144.mp4",""
"","","","call-function","552","1480704","0.0-552.0","4hptnk60","","","","","","","",""
"1839.6500000001397","{""judgement"":1}","[0]","survey-likert","553","1482545","0.0-553.0","4hptnk60","","","","","","","","1"
"1165.5049999998882","{""confidence"":2}","[0]","survey-likert","554","1483711","0.0-554.0","4hptnk60","","","","","","","",""
"","","","call-function","555","1483712","0.0-555.0","4hptnk60","","","","","","","",""
"null","","","html-keyboard-response","556","1485217","0.0-556.0","4hptnk60","","<span style=""color:Black; font-size:50px;"">Agent A","null","","","","",""
"null","","","video-keyboard-response","557","1488321","0.0-557.0","4hptnk60","","","null","","Agent A","scrambled","STIM_SET_3/713858.bmp_pp57_L1_V2_veridical_freeview_isoFalsemismatch_713749.bmp_L2_fps90.mp4",""
"null","","","html-keyboard-response","558","1489828","0.0-558.0","4hptnk60","","<span style=""color:Black; font-size:50px;"">Agent B","null","","","","",""
"null","","","video-keyboard-response","559","1492929","0.0-559.0","4hptnk60","","","null","","Agent B","veridical","STIM_SET_1_REAL/713749.bmp_pp88_L2_V1.0_veridical_freeview_isoFalse_fps144.mp4",""
"","","","call-function","560","1492930","0.0-560.0","4hptnk60","","","","","","","",""
"1707.2299999999814","{""judgement"":1}","[0]","survey-likert","561","1494639","0.0-561.0","4hptnk60","","","","","","","","1"
"1265.3349999999627","{""confidence"":2}","[0]","survey-likert","562","1495907","0.0-562.0","4hptnk60","","","","","","","",""
"","","","call-function","563","1495908","0.0-563.0","4hptnk60","","","","","","","",""
"null","","","html-keyboard-response","564","1497411","0.0-564.0","4hptnk60","","<span style=""color:Black; font-size:50px;"">Agent A","null","","","","",""
"null","","","video-keyboard-response","565","1500473","0.0-565.0","4hptnk60","","","null","","Agent A","veridical","STIM_SET_1_REAL/1592351.bmp_pp51_L1_V1.0_veridical_freeview_isoFalse_fps144.mp4",""
"null","","","html-keyboard-response","566","1501978","0.0-566.0","4hptnk60","","<span style=""color:Black; font-size:50px;"">Agent B","null","","","","",""
"null","","","video-keyboard-response","567","1505047","0.0-567.0","4hptnk60","","","null","","Agent B","scrambled","STIM_SET_3/1592025.bmp_pp68_L1_V2_veridical_freeview_isoFalsemismatch_1592351.bmp_L1_fps90.mp4",""
"","","","call-function","568","1505048","0.0-568.0","4hptnk60","","","","","","","",""
"1596.4749999998603","{""judgement"":0}","[0]","survey-likert","569","1506646","0.0-569.0","4hptnk60","","","","","","","","0"
"1158.309999999823","{""confidence"":2}","[0]","survey-likert","570","1507806","0.0-570.0","4hptnk60","","","","","","","",""
"","","","call-function","571","1507807","0.0-571.0","4hptnk60","","","","","","","",""
"null","","","html-keyboard-response","572","1509309","0.0-572.0","4hptnk60","","<span style=""color:Black; font-size:50px;"">Agent A","null","","","","",""
"null","","","video-keyboard-response","573","1512386","0.0-573.0","4hptnk60","","","null","","Agent A","veridical","STIM_SET_1_REAL/1591994.bmp_pp69_L3_V1.0_veridical_freeview_isoFalse_fps144.mp4",""
"null","","","html-keyboard-response","574","1513889","0.0-574.0","4hptnk60","","<span style=""color:Black; font-size:50px;"">Agent B","null","","","","",""
"null","","","video-keyboard-response","575","1516953","0.0-575.0","4hptnk60","","","null","","Agent B","scrambled","STIM_SET_3/713328.bmp_pp86_L2_V2_veridical_freeview_isoFalsemismatch_1591994.bmp_L3_fps90.mp4",""
"","","","call-function","576","1516953","0.0-576.0","4hptnk60","","","","","","","",""
"3012.25","{""judgement"":1}","[0]","survey-likert","577","1519966","0.0-577.0","4hptnk60","","","","","","","","0"
"1676.8500000000931","{""confidence"":1}","[0]","survey-likert","578","1521645","0.0-578.0","4hptnk60","","","","","","","",""
"2585.5200000000186","","","instructions","579","1524231","0.0-579.0","4hptnk60","[{""page_index"":0,""viewing_time"":2585.310000000056}]","","","","","","",""
"1172.6899999999441","","","instructions","580","1525404","0.0-580.0","4hptnk60","[{""page_index"":0,""viewing_time"":1172.4399999999441}]","","","","","","",""
"4955.300000000047","{""post-1"":2}","[0]","survey-likert","581","1530363","0.0-581.0","4hptnk60","","","","","","","",""
"5898.479999999981","{""post-1"":0}","[0]","survey-likert","582","1536262","0.0-582.0","4hptnk60","","","","","","","",""
"4686.125","{""post-2"":2}","[0]","survey-likert","583","1540950","0.0-583.0","4hptnk60","","","","","","","",""
"3700.4549999998417","{""post-2"":0}","[0]","survey-likert","584","1544652","0.0-584.0","4hptnk60","","","","","","","",""
"51899.429999999935","{""post-3"":2}","[0]","survey-likert","585","1596553","0.0-585.0","4hptnk60","","","","","","","",""
"10107.199999999953","{""post-3"":0}","[0]","survey-likert","586","1606661","0.0-586.0","4hptnk60","","","","","","","",""
"3366.119999999879","{""post-4"":1}","[0]","survey-likert","587","1610029","0.0-587.0","4hptnk60","","","","","","","",""
"3306.4300000001676","{""post-4"":0}","[0]","survey-likert","588","1613337","0.0-588.0","4hptnk60","","","","","","","",""
"9534.590000000084","{""post-5"":1}","[0]","survey-likert","589","1622873","0.0-589.0","4hptnk60","","","","","","","",""
"5953.790000000037","{""post-5"":3}","[0]","survey-likert","590","1628829","0.0-590.0","4hptnk60","","","","","","","",""
"60010.43499999982","{""Q0"":""Some of the videos were difficult to discern which was the real person and which was the robot. At a few points, I briefly zoned out and did not have a confident answer.""}","","survey-text","591","1688847","0.0-591.0","4hptnk60","","","","","","","",""
"47800.65500000003","{""Q0"":""It was helpful to think about where I might look at the picture.""}","","survey-text","592","1736651","0.0-592.0","4hptnk60","","","","","","","",""
"40897.61499999999","{""Q0"":""Some of the images/videos seemed very similar. Sometimes I could not tell which one was the real person and which one was the robot.""}","","survey-text","593","1777552","0.0-593.0","4hptnk60","","","","","","","",""
"67746.27000000002","","","instructions","594","1845300","0.0-594.0","4hptnk60","[{""page_index"":0,""viewing_time"":67745.71999999997}]","","","","","","",""
"67010.28499999992","{""Experimenter_end"":[""Printed ID# 4hptnk60 on consent form"",""Given subject SONA credit or payment"",""Given the subject debrief form""]}","[0]","survey-multi-select","595","1912313","0.0-595.0","4hptnk60","","","","","","","",""
