"rt","responses","question_order","trial_type","trial_index","time_elapsed","internal_node_id","ID","view_history","stimulus","key_press","value","agent","condition","image","correct_answer"
"71348.345","{""Experimenter"":[""Confirmed subject's identity (ID card)"",""Confirmed normal or corrected-to-normal vision"",""Obtained consent (signature and date)"",""Checked the test room lighting"",""Checked computer screen lighting"",""Checked distance from screen to chin rest (50cm)"",""Cleaned and adjusted chin rest"",""Counterbalanced the order of the tasks"",""Opened the experiment in Firefox"",""Made the experiment full screen"",""Encouraged subject to silence phone, put away distractors, etc.""]}","[0]","survey-multi-select","0","71356","0.0-0.0","4noq933n","","","","","","","",""
"23593.119999999995","","","instructions","1","94950","0.0-1.0","4noq933n","[{""page_index"":0,""viewing_time"":23592.969999999987}]","","","","","","",""
"22579.51000000001","","","instructions","2","117531","0.0-2.0","4noq933n","[{""page_index"":0,""viewing_time"":5840.955000000002},{""page_index"":1,""viewing_time"":11898.085000000006},{""page_index"":2,""viewing_time"":4840.264999999999}]","","","","","","",""
"4104.990000000005","","","instructions","3","121636","0.0-3.0","4noq933n","[{""page_index"":0,""viewing_time"":4104.895000000004}]","","","","","","",""
"null","","","video-keyboard-response","4","124711","0.0-4.0","4noq933n","","","null","","","","",""
"21869.065000000017","","","instructions","5","146582","0.0-5.0","4noq933n","[{""page_index"":0,""viewing_time"":4041.895000000004},{""page_index"":1,""viewing_time"":4428.024999999994},{""page_index"":2,""viewing_time"":1325.8699999999953},{""page_index"":3,""viewing_time"":4532.325000000012},{""page_index"":4,""viewing_time"":7540.755000000005}]","","","","","","",""
"5188.945000000007","","","instructions","6","151771","0.0-6.0","4noq933n","[{""page_index"":0,""viewing_time"":5188.834999999992}]","","","","","","",""
"","","","call-function","7","151772","0.0-7.0","4noq933n","","","","","","","",""
"null","","","html-keyboard-response","8","153274","0.0-8.0","4noq933n","","<span style=""color:Black; font-size:50px;"">Agent A","null","","","","",""
"null","","","video-keyboard-response","9","156035","0.0-9.0","4noq933n","","","null","","Agent A","scrambled","FOR_REV_BLOBBY_STIM/1592804.bmp_pp91_L3_V1.0_veridical_freeview_isoFalse_fps144_reversed_REAL.mp4",""
"null","","","html-keyboard-response","10","157541","0.0-10.0","4noq933n","","<span style=""color:Black; font-size:50px;"">Agent B","null","","","","",""
"null","","","video-keyboard-response","11","160299","0.0-11.0","4noq933n","","","null","","Agent B","veridical","FOR_REV_BLOBBY_STIM/1592804.bmp_pp91_L3_V1.0_veridical_freeview_isoFalse_fps144.mp4",""
"","","","call-function","12","160299","0.0-12.0","4noq933n","","","","","","","",""
"5285.525000000023","{""judgement"":0}","[0]","survey-likert","13","165586","0.0-13.0","4noq933n","","","","","","","","1"
"4244.169999999984","{""confidence"":1}","[0]","survey-likert","14","169831","0.0-14.0","4noq933n","","","","","","","",""
"","","","call-function","15","169832","0.0-15.0","4noq933n","","","","","","","",""
"null","","","html-keyboard-response","16","171333","0.0-16.0","4noq933n","","<span style=""color:Black; font-size:50px;"">Agent A","null","","","","",""
"null","","","video-keyboard-response","17","174065","0.0-17.0","4noq933n","","","null","","Agent A","veridical","FOR_REV_BLOBBY_STIM/713749.bmp_pp88_L2_V1.0_veridical_freeview_isoFalse_fps144.mp4",""
"null","","","html-keyboard-response","18","175567","0.0-18.0","4noq933n","","<span style=""color:Black; font-size:50px;"">Agent B","null","","","","",""
"null","","","video-keyboard-response","19","178323","0.0-19.0","4noq933n","","","null","","Agent B","scrambled","FOR_REV_BLOBBY_STIM/713749.bmp_pp88_L2_V1.0_veridical_freeview_isoFalse_fps144_reversed_REAL.mp4",""
"","","","call-function","20","178323","0.0-20.0","4noq933n","","","","","","","",""
"4800.859999999986","{""judgement"":1}","[0]","survey-likert","21","183126","0.0-21.0","4noq933n","","","","","","","","0"
"2372.459999999992","{""confidence"":1}","[0]","survey-likert","22","185500","0.0-22.0","4noq933n","","","","","","","",""
"","","","call-function","23","185500","0.0-23.0","4noq933n","","","","","","","",""
"null","","","html-keyboard-response","24","187004","0.0-24.0","4noq933n","","<span style=""color:Black; font-size:50px;"">Agent A","null","","","","",""
"null","","","video-keyboard-response","25","189768","0.0-25.0","4noq933n","","","null","","Agent A","veridical","FOR_REV_BLOBBY_STIM/1592499.bmp_pp96_L2_V1.0_veridical_freeview_isoFalse_fps144.mp4",""
"null","","","html-keyboard-response","26","191272","0.0-26.0","4noq933n","","<span style=""color:Black; font-size:50px;"">Agent B","null","","","","",""
"null","","","video-keyboard-response","27","194062","0.0-27.0","4noq933n","","","null","","Agent B","scrambled","FOR_REV_BLOBBY_STIM/1592499.bmp_pp96_L2_V1.0_veridical_freeview_isoFalse_fps144_reversed_REAL.mp4",""
"","","","call-function","28","194062","0.0-28.0","4noq933n","","","","","","","",""
"2078.5750000000116","{""judgement"":0}","[0]","survey-likert","29","196141","0.0-29.0","4noq933n","","","","","","","","0"
"2070.079999999987","{""confidence"":2}","[0]","survey-likert","30","198213","0.0-30.0","4noq933n","","","","","","","",""
"","","","call-function","31","198213","0.0-31.0","4noq933n","","","","","","","",""
"null","","","html-keyboard-response","32","199718","0.0-32.0","4noq933n","","<span style=""color:Black; font-size:50px;"">Agent A","null","","","","",""
"null","","","video-keyboard-response","33","202577","0.0-33.0","4noq933n","","","null","","Agent A","scrambled","FOR_REV_BLOBBY_STIM/1160127.bmp_pp90_L2_V1.0_veridical_freeview_isoFalse_fps144_reversed_REAL.mp4",""
"null","","","html-keyboard-response","34","204080","0.0-34.0","4noq933n","","<span style=""color:Black; font-size:50px;"">Agent B","null","","","","",""
"null","","","video-keyboard-response","35","206940","0.0-35.0","4noq933n","","","null","","Agent B","veridical","FOR_REV_BLOBBY_STIM/1160127.bmp_pp90_L2_V1.0_veridical_freeview_isoFalse_fps144.mp4",""
"","","","call-function","36","206941","0.0-36.0","4noq933n","","","","","","","",""
"3369.6849999999977","{""judgement"":0}","[0]","survey-likert","37","210311","0.0-37.0","4noq933n","","","","","","","","1"
"2157.054999999993","{""confidence"":1}","[0]","survey-likert","38","212469","0.0-38.0","4noq933n","","","","","","","",""
"","","","call-function","39","212470","0.0-39.0","4noq933n","","","","","","","",""
"null","","","html-keyboard-response","40","213972","0.0-40.0","4noq933n","","<span style=""color:Black; font-size:50px;"">Agent A","null","","","","",""
"null","","","video-keyboard-response","41","216831","0.0-41.0","4noq933n","","","null","","Agent A","veridical","FOR_REV_BLOBBY_STIM/713017.bmp_pp152_L2_V1.0_veridical_freeview_isoFalse_fps144.mp4",""
"null","","","html-keyboard-response","42","218336","0.0-42.0","4noq933n","","<span style=""color:Black; font-size:50px;"">Agent B","null","","","","",""
"null","","","video-keyboard-response","43","221167","0.0-43.0","4noq933n","","","null","","Agent B","scrambled","FOR_REV_BLOBBY_STIM/713017.bmp_pp152_L2_V1.0_veridical_freeview_isoFalse_fps144_reversed_REAL.mp4",""
"","","","call-function","44","221168","0.0-44.0","4noq933n","","","","","","","",""
"4375.970000000001","{""judgement"":0}","[0]","survey-likert","45","225544","0.0-45.0","4noq933n","","","","","","","","0"
"3645.929999999993","{""confidence"":0}","[0]","survey-likert","46","229192","0.0-46.0","4noq933n","","","","","","","",""
"","","","call-function","47","229192","0.0-47.0","4noq933n","","","","","","","",""
"null","","","html-keyboard-response","48","230697","0.0-48.0","4noq933n","","<span style=""color:Black; font-size:50px;"">Agent A","null","","","","",""
"null","","","video-keyboard-response","49","233224","0.0-49.0","4noq933n","","","null","","Agent A","veridical","FOR_REV_BLOBBY_STIM/1591876.bmp_pp63_L1_V1.0_veridical_freeview_isoFalse_fps144.mp4",""
"null","","","html-keyboard-response","50","234727","0.0-50.0","4noq933n","","<span style=""color:Black; font-size:50px;"">Agent B","null","","","","",""
"null","","","video-keyboard-response","51","237255","0.0-51.0","4noq933n","","","null","","Agent B","scrambled","FOR_REV_BLOBBY_STIM/1591876.bmp_pp63_L1_V1.0_veridical_freeview_isoFalse_fps144_reversed_REAL.mp4",""
"","","","call-function","52","237255","0.0-52.0","4noq933n","","","","","","","",""
"1850.2999999999884","{""judgement"":0}","[0]","survey-likert","53","239106","0.0-53.0","4noq933n","","","","","","","","0"
"3116.4550000000163","{""confidence"":3}","[0]","survey-likert","54","242224","0.0-54.0","4noq933n","","","","","","","",""
"","","","call-function","55","242224","0.0-55.0","4noq933n","","","","","","","",""
"null","","","html-keyboard-response","56","243727","0.0-56.0","4noq933n","","<span style=""color:Black; font-size:50px;"">Agent A","null","","","","",""
"null","","","video-keyboard-response","57","246539","0.0-57.0","4noq933n","","","null","","Agent A","veridical","FOR_REV_BLOBBY_STIM/1159777.bmp_pp77_L3_V1.0_veridical_freeview_isoFalse_fps144.mp4",""
"null","","","html-keyboard-response","58","248043","0.0-58.0","4noq933n","","<span style=""color:Black; font-size:50px;"">Agent B","null","","","","",""
"null","","","video-keyboard-response","59","250826","0.0-59.0","4noq933n","","","null","","Agent B","scrambled","FOR_REV_BLOBBY_STIM/1159777.bmp_pp77_L3_V1.0_veridical_freeview_isoFalse_fps144_reversed_REAL.mp4",""
"","","","call-function","60","250827","0.0-60.0","4noq933n","","","","","","","",""
"1721.9599999999919","{""judgement"":0}","[0]","survey-likert","61","252550","0.0-61.0","4noq933n","","","","","","","","0"
"1587.9150000000081","{""confidence"":3}","[0]","survey-likert","62","254139","0.0-62.0","4noq933n","","","","","","","",""
"","","","call-function","63","254140","0.0-63.0","4noq933n","","","","","","","",""
"null","","","html-keyboard-response","64","255641","0.0-64.0","4noq933n","","<span style=""color:Black; font-size:50px;"">Agent A","null","","","","",""
"null","","","video-keyboard-response","65","258340","0.0-65.0","4noq933n","","","null","","Agent A","scrambled","FOR_REV_BLOBBY_STIM/1592817.bmp_pp55_L3_V1.0_veridical_freeview_isoFalse_fps144_reversed_REAL.mp4",""
"null","","","html-keyboard-response","66","259846","0.0-66.0","4noq933n","","<span style=""color:Black; font-size:50px;"">Agent B","null","","","","",""
"null","","","video-keyboard-response","67","262546","0.0-67.0","4noq933n","","","null","","Agent B","veridical","FOR_REV_BLOBBY_STIM/1592817.bmp_pp55_L3_V1.0_veridical_freeview_isoFalse_fps144.mp4",""
"","","","call-function","68","262546","0.0-68.0","4noq933n","","","","","","","",""
"1983.4400000000023","{""judgement"":1}","[0]","survey-likert","69","264531","0.0-69.0","4noq933n","","","","","","","","1"
"1450.9650000000256","{""confidence"":2}","[0]","survey-likert","70","265983","0.0-70.0","4noq933n","","","","","","","",""
"","","","call-function","71","265984","0.0-71.0","4noq933n","","","","","","","",""
"null","","","html-keyboard-response","72","267484","0.0-72.0","4noq933n","","<span style=""color:Black; font-size:50px;"">Agent A","null","","","","",""
"null","","","video-keyboard-response","73","270294","0.0-73.0","4noq933n","","","null","","Agent A","scrambled","FOR_REV_BLOBBY_STIM/1159882.bmp_pp61_L2_V1.0_veridical_freeview_isoFalse_fps144_reversed_REAL.mp4",""
"null","","","html-keyboard-response","74","271799","0.0-74.0","4noq933n","","<span style=""color:Black; font-size:50px;"">Agent B","null","","","","",""
"null","","","video-keyboard-response","75","274636","0.0-75.0","4noq933n","","","null","","Agent B","veridical","FOR_REV_BLOBBY_STIM/1159882.bmp_pp61_L2_V1.0_veridical_freeview_isoFalse_fps144.mp4",""
"","","","call-function","76","274636","0.0-76.0","4noq933n","","","","","","","",""
"2055.1699999999837","{""judgement"":1}","[0]","survey-likert","77","276692","0.0-77.0","4noq933n","","","","","","","","1"
"2305.375","{""confidence"":2}","[0]","survey-likert","78","278998","0.0-78.0","4noq933n","","","","","","","",""
"","","","call-function","79","279000","0.0-79.0","4noq933n","","","","","","","",""
"null","","","html-keyboard-response","80","280505","0.0-80.0","4noq933n","","<span style=""color:Black; font-size:50px;"">Agent A","null","","","","",""
"null","","","video-keyboard-response","81","283281","0.0-81.0","4noq933n","","","null","","Agent A","veridical","FOR_REV_BLOBBY_STIM/1593041.bmp_pp58_L1_V1.0_veridical_freeview_isoFalse_fps144.mp4",""
"null","","","html-keyboard-response","82","284784","0.0-82.0","4noq933n","","<span style=""color:Black; font-size:50px;"">Agent B","null","","","","",""
"null","","","video-keyboard-response","83","287561","0.0-83.0","4noq933n","","","null","","Agent B","scrambled","FOR_REV_BLOBBY_STIM/1593041.bmp_pp58_L1_V1.0_veridical_freeview_isoFalse_fps144_reversed_REAL.mp4",""
"","","","call-function","84","287562","0.0-84.0","4noq933n","","","","","","","",""
"1865.4250000000466","{""judgement"":0}","[0]","survey-likert","85","289428","0.0-85.0","4noq933n","","","","","","","","0"
"2649.8499999999767","{""confidence"":0}","[0]","survey-likert","86","292079","0.0-86.0","4noq933n","","","","","","","",""
"17452.090000000026","","","instructions","87","309531","0.0-87.0","4noq933n","[{""page_index"":0,""viewing_time"":14032.275000000023},{""page_index"":1,""viewing_time"":2115.5499999999884},{""page_index"":2,""viewing_time"":1304.1149999999907}]","","","","","","",""
"5734.919999999984","","","instructions","88","315267","0.0-88.0","4noq933n","[{""page_index"":0,""viewing_time"":1134.5},{""page_index"":1,""viewing_time"":3702.9199999999837},{""page_index"":2,""viewing_time"":897.3950000000186}]","","","","","","",""
"","","","call-function","89","315267","0.0-89.0","4noq933n","","","","","","","",""
"null","","","html-keyboard-response","90","316769","0.0-90.0","4noq933n","","<span style=""color:Black; font-size:50px;"">Agent A","null","","","","",""
"null","","","video-keyboard-response","91","319464","0.0-91.0","4noq933n","","","null","","Agent A","veridical","FOR_REV_BLOBBY_STIM/1592934.bmp_pp63_L1_V1.0_veridical_freeview_isoFalse_fps144.mp4",""
"null","","","html-keyboard-response","92","320968","0.0-92.0","4noq933n","","<span style=""color:Black; font-size:50px;"">Agent B","null","","","","",""
"null","","","video-keyboard-response","93","323659","0.0-93.0","4noq933n","","","null","","Agent B","scrambled","FOR_REV_BLOBBY_STIM/1592934.bmp_pp63_L1_V1.0_veridical_freeview_isoFalse_fps144_reversed_REAL.mp4",""
"","","","call-function","94","323660","0.0-94.0","4noq933n","","","","","","","",""
"2911.039999999979","{""judgement"":0}","[0]","survey-likert","95","326571","0.0-95.0","4noq933n","","","","","","","","0"
"1429.335000000021","{""confidence"":2}","[0]","survey-likert","96","328002","0.0-96.0","4noq933n","","","","","","","",""
"","","","call-function","97","328002","0.0-97.0","4noq933n","","","","","","","",""
"null","","","html-keyboard-response","98","329504","0.0-98.0","4noq933n","","<span style=""color:Black; font-size:50px;"">Agent A","null","","","","",""
"null","","","video-keyboard-response","99","332234","0.0-99.0","4noq933n","","","null","","Agent A","veridical","FOR_REV_BLOBBY_STIM/1592619.bmp_pp56_L3_V1.0_veridical_freeview_isoFalse_fps144.mp4",""
"null","","","html-keyboard-response","100","333740","0.0-100.0","4noq933n","","<span style=""color:Black; font-size:50px;"">Agent B","null","","","","",""
"null","","","video-keyboard-response","101","336468","0.0-101.0","4noq933n","","","null","","Agent B","scrambled","FOR_REV_BLOBBY_STIM/1592619.bmp_pp56_L3_V1.0_veridical_freeview_isoFalse_fps144_reversed_REAL.mp4",""
"","","","call-function","102","336469","0.0-102.0","4noq933n","","","","","","","",""
"2936.609999999986","{""judgement"":0}","[0]","survey-likert","103","339407","0.0-103.0","4noq933n","","","","","","","","0"
"2062.4199999999837","{""confidence"":3}","[0]","survey-likert","104","341470","0.0-104.0","4noq933n","","","","","","","",""
"","","","call-function","105","341470","0.0-105.0","4noq933n","","","","","","","",""
"null","","","html-keyboard-response","106","342973","0.0-106.0","4noq933n","","<span style=""color:Black; font-size:50px;"">Agent A","null","","","","",""
"null","","","video-keyboard-response","107","345793","0.0-107.0","4noq933n","","","null","","Agent A","scrambled","FOR_REV_BLOBBY_STIM/1592362.bmp_pp95_L2_V1.0_veridical_freeview_isoFalse_fps144_reversed_REAL.mp4",""
"null","","","html-keyboard-response","108","347295","0.0-108.0","4noq933n","","<span style=""color:Black; font-size:50px;"">Agent B","null","","","","",""
"null","","","video-keyboard-response","109","350116","0.0-109.0","4noq933n","","","null","","Agent B","veridical","FOR_REV_BLOBBY_STIM/1592362.bmp_pp95_L2_V1.0_veridical_freeview_isoFalse_fps144.mp4",""
"","","","call-function","110","350117","0.0-110.0","4noq933n","","","","","","","",""
"1794.5950000000303","{""judgement"":1}","[0]","survey-likert","111","351913","0.0-111.0","4noq933n","","","","","","","","1"
"1610.5800000000163","{""confidence"":3}","[0]","survey-likert","112","353526","0.0-112.0","4noq933n","","","","","","","",""
"","","","call-function","113","353527","0.0-113.0","4noq933n","","","","","","","",""
"null","","","html-keyboard-response","114","355028","0.0-114.0","4noq933n","","<span style=""color:Black; font-size:50px;"">Agent A","null","","","","",""
"null","","","video-keyboard-response","115","357873","0.0-115.0","4noq933n","","","null","","Agent A","scrambled","FOR_REV_BLOBBY_STIM/1159572.bmp_pp71_L1_V1.0_veridical_freeview_isoFalse_fps144_reversed_REAL.mp4",""
"null","","","html-keyboard-response","116","359378","0.0-116.0","4noq933n","","<span style=""color:Black; font-size:50px;"">Agent B","null","","","","",""
"null","","","video-keyboard-response","117","362221","0.0-117.0","4noq933n","","","null","","Agent B","veridical","FOR_REV_BLOBBY_STIM/1159572.bmp_pp71_L1_V1.0_veridical_freeview_isoFalse_fps144.mp4",""
"","","","call-function","118","362222","0.0-118.0","4noq933n","","","","","","","",""
"1755.835000000021","{""judgement"":1}","[0]","survey-likert","119","363979","0.0-119.0","4noq933n","","","","","","","","1"
"1777.5500000000466","{""confidence"":2}","[0]","survey-likert","120","365757","0.0-120.0","4noq933n","","","","","","","",""
"","","","call-function","121","365758","0.0-121.0","4noq933n","","","","","","","",""
"null","","","html-keyboard-response","122","367264","0.0-122.0","4noq933n","","<span style=""color:Black; font-size:50px;"">Agent A","null","","","","",""
"null","","","video-keyboard-response","123","370133","0.0-123.0","4noq933n","","","null","","Agent A","veridical","FOR_REV_BLOBBY_STIM/285905.bmp_pp57_L1_V1.0_veridical_freeview_isoFalse_fps144.mp4",""
"null","","","html-keyboard-response","124","371639","0.0-124.0","4noq933n","","<span style=""color:Black; font-size:50px;"">Agent B","null","","","","",""
"null","","","video-keyboard-response","125","374541","0.0-125.0","4noq933n","","","null","","Agent B","scrambled","FOR_REV_BLOBBY_STIM/285905.bmp_pp57_L1_V1.0_veridical_freeview_isoFalse_fps144_reversed_REAL.mp4",""
"","","","call-function","126","374542","0.0-126.0","4noq933n","","","","","","","",""
"2154.5499999999884","{""judgement"":0}","[0]","survey-likert","127","376697","0.0-127.0","4noq933n","","","","","","","","0"
"1581.5449999999837","{""confidence"":3}","[0]","survey-likert","128","378280","0.0-128.0","4noq933n","","","","","","","",""
"","","","call-function","129","378281","0.0-129.0","4noq933n","","","","","","","",""
"null","","","html-keyboard-response","130","379784","0.0-130.0","4noq933n","","<span style=""color:Black; font-size:50px;"">Agent A","null","","","","",""
"null","","","video-keyboard-response","131","382494","0.0-131.0","4noq933n","","","null","","Agent A","scrambled","FOR_REV_BLOBBY_STIM/1160168.bmp_pp53_L2_V1.0_veridical_freeview_isoFalse_fps144_reversed_REAL.mp4",""
"null","","","html-keyboard-response","132","383997","0.0-132.0","4noq933n","","<span style=""color:Black; font-size:50px;"">Agent B","null","","","","",""
"null","","","video-keyboard-response","133","386702","0.0-133.0","4noq933n","","","null","","Agent B","veridical","FOR_REV_BLOBBY_STIM/1160168.bmp_pp53_L2_V1.0_veridical_freeview_isoFalse_fps144.mp4",""
"","","","call-function","134","386702","0.0-134.0","4noq933n","","","","","","","",""
"1453.0599999999977","{""judgement"":1}","[0]","survey-likert","135","388156","0.0-135.0","4noq933n","","","","","","","","1"
"2038.030000000028","{""confidence"":3}","[0]","survey-likert","136","390195","0.0-136.0","4noq933n","","","","","","","",""
"","","","call-function","137","390196","0.0-137.0","4noq933n","","","","","","","",""
"null","","","html-keyboard-response","138","391699","0.0-138.0","4noq933n","","<span style=""color:Black; font-size:50px;"">Agent A","null","","","","",""
"null","","","video-keyboard-response","139","394389","0.0-139.0","4noq933n","","","null","","Agent A","veridical","FOR_REV_BLOBBY_STIM/1592133.bmp_pp75_L1_V1.0_veridical_freeview_isoFalse_fps144.mp4",""
"null","","","html-keyboard-response","140","395895","0.0-140.0","4noq933n","","<span style=""color:Black; font-size:50px;"">Agent B","null","","","","",""
"null","","","video-keyboard-response","141","398586","0.0-141.0","4noq933n","","","null","","Agent B","scrambled","FOR_REV_BLOBBY_STIM/1592133.bmp_pp75_L1_V1.0_veridical_freeview_isoFalse_fps144_reversed_REAL.mp4",""
"","","","call-function","142","398586","0.0-142.0","4noq933n","","","","","","","",""
"1729.8499999999767","{""judgement"":1}","[0]","survey-likert","143","400317","0.0-143.0","4noq933n","","","","","","","","0"
"1456.4899999999907","{""confidence"":1}","[0]","survey-likert","144","401774","0.0-144.0","4noq933n","","","","","","","",""
"","","","call-function","145","401775","0.0-145.0","4noq933n","","","","","","","",""
"null","","","html-keyboard-response","146","403278","0.0-146.0","4noq933n","","<span style=""color:Black; font-size:50px;"">Agent A","null","","","","",""
"null","","","video-keyboard-response","147","406078","0.0-147.0","4noq933n","","","null","","Agent A","veridical","FOR_REV_BLOBBY_STIM/1591994.bmp_pp69_L3_V1.0_veridical_freeview_isoFalse_fps144.mp4",""
"null","","","html-keyboard-response","148","407583","0.0-148.0","4noq933n","","<span style=""color:Black; font-size:50px;"">Agent B","null","","","","",""
"null","","","video-keyboard-response","149","410381","0.0-149.0","4noq933n","","","null","","Agent B","scrambled","FOR_REV_BLOBBY_STIM/1591994.bmp_pp69_L3_V1.0_veridical_freeview_isoFalse_fps144_reversed_REAL.mp4",""
"","","","call-function","150","410382","0.0-150.0","4noq933n","","","","","","","",""
"2364.2299999999814","{""judgement"":0}","[0]","survey-likert","151","412748","0.0-151.0","4noq933n","","","","","","","","0"
"1479.3850000000093","{""confidence"":0}","[0]","survey-likert","152","414229","0.0-152.0","4noq933n","","","","","","","",""
"","","","call-function","153","414229","0.0-153.0","4noq933n","","","","","","","",""
"null","","","html-keyboard-response","154","415736","0.0-154.0","4noq933n","","<span style=""color:Black; font-size:50px;"">Agent A","null","","","","",""
"null","","","video-keyboard-response","155","418515","0.0-155.0","4noq933n","","","null","","Agent A","scrambled","FOR_REV_BLOBBY_STIM/713620.bmp_pp65_L3_V1.0_veridical_freeview_isoFalse_fps144_reversed_REAL.mp4",""
"null","","","html-keyboard-response","156","420020","0.0-156.0","4noq933n","","<span style=""color:Black; font-size:50px;"">Agent B","null","","","","",""
"null","","","video-keyboard-response","157","422813","0.0-157.0","4noq933n","","","null","","Agent B","veridical","FOR_REV_BLOBBY_STIM/713620.bmp_pp65_L3_V1.0_veridical_freeview_isoFalse_fps144.mp4",""
"","","","call-function","158","422814","0.0-158.0","4noq933n","","","","","","","",""
"1579.7600000000093","{""judgement"":0}","[0]","survey-likert","159","424394","0.0-159.0","4noq933n","","","","","","","","1"
"1255.5650000000023","{""confidence"":2}","[0]","survey-likert","160","425651","0.0-160.0","4noq933n","","","","","","","",""
"","","","call-function","161","425652","0.0-161.0","4noq933n","","","","","","","",""
"null","","","html-keyboard-response","162","427156","0.0-162.0","4noq933n","","<span style=""color:Black; font-size:50px;"">Agent A","null","","","","",""
"null","","","video-keyboard-response","163","429925","0.0-163.0","4noq933n","","","null","","Agent A","veridical","FOR_REV_BLOBBY_STIM/1592890.bmp_pp82_L2_V1.0_veridical_freeview_isoFalse_fps144.mp4",""
"null","","","html-keyboard-response","164","431430","0.0-164.0","4noq933n","","<span style=""color:Black; font-size:50px;"">Agent B","null","","","","",""
"null","","","video-keyboard-response","165","434200","0.0-165.0","4noq933n","","","null","","Agent B","scrambled","FOR_REV_BLOBBY_STIM/1592890.bmp_pp82_L2_V1.0_veridical_freeview_isoFalse_fps144_reversed_REAL.mp4",""
"","","","call-function","166","434200","0.0-166.0","4noq933n","","","","","","","",""
"2222.1749999999884","{""judgement"":0}","[0]","survey-likert","167","436423","0.0-167.0","4noq933n","","","","","","","","0"
"1529.0199999999604","{""confidence"":3}","[0]","survey-likert","168","437954","0.0-168.0","4noq933n","","","","","","","",""
"48294.53500000003","","","instructions","169","486249","0.0-169.0","4noq933n","[{""page_index"":0,""viewing_time"":46947.57000000001},{""page_index"":1,""viewing_time"":695.9249999999884},{""page_index"":2,""viewing_time"":650.890000000014}]","","","","","","",""
"2992.625","","","instructions","170","489242","0.0-170.0","4noq933n","[{""page_index"":0,""viewing_time"":867.484999999986},{""page_index"":1,""viewing_time"":1411.0499999999884},{""page_index"":2,""viewing_time"":713.8300000000163}]","","","","","","",""
"","","","call-function","171","489242","0.0-171.0","4noq933n","","","","","","","",""
"null","","","html-keyboard-response","172","490743","0.0-172.0","4noq933n","","<span style=""color:Black; font-size:50px;"">Agent A","null","","","","",""
"null","","","video-keyboard-response","173","493321","0.0-173.0","4noq933n","","","null","","Agent A","scrambled","FOR_REV_BLOBBY_STIM/1592397.bmp_pp85_L3_V1.0_veridical_freeview_isoFalse_fps144_reversed_REAL.mp4",""
"null","","","html-keyboard-response","174","494824","0.0-174.0","4noq933n","","<span style=""color:Black; font-size:50px;"">Agent B","null","","","","",""
"null","","","video-keyboard-response","175","497383","0.0-175.0","4noq933n","","","null","","Agent B","veridical","FOR_REV_BLOBBY_STIM/1592397.bmp_pp85_L3_V1.0_veridical_freeview_isoFalse_fps144.mp4",""
"","","","call-function","176","497383","0.0-176.0","4noq933n","","","","","","","",""
"1663.8499999999767","{""judgement"":0}","[0]","survey-likert","177","499048","0.0-177.0","4noq933n","","","","","","","","1"
"1815.4899999999907","{""confidence"":2}","[0]","survey-likert","178","500865","0.0-178.0","4noq933n","","","","","","","",""
"","","","call-function","179","500865","0.0-179.0","4noq933n","","","","","","","",""
"null","","","html-keyboard-response","180","502371","0.0-180.0","4noq933n","","<span style=""color:Black; font-size:50px;"">Agent A","null","","","","",""
"null","","","video-keyboard-response","181","505182","0.0-181.0","4noq933n","","","null","","Agent A","veridical","FOR_REV_BLOBBY_STIM/712977.bmp_pp51_L1_V1.0_veridical_freeview_isoFalse_fps144.mp4",""
"null","","","html-keyboard-response","182","506683","0.0-182.0","4noq933n","","<span style=""color:Black; font-size:50px;"">Agent B","null","","","","",""
"null","","","video-keyboard-response","183","509491","0.0-183.0","4noq933n","","","null","","Agent B","scrambled","FOR_REV_BLOBBY_STIM/712977.bmp_pp51_L1_V1.0_veridical_freeview_isoFalse_fps144_reversed_REAL.mp4",""
"","","","call-function","184","509492","0.0-184.0","4noq933n","","","","","","","",""
"1883.3649999999907","{""judgement"":0}","[0]","survey-likert","185","511376","0.0-185.0","4noq933n","","","","","","","","0"
"1156.9899999999907","{""confidence"":2}","[0]","survey-likert","186","512534","0.0-186.0","4noq933n","","","","","","","",""
"","","","call-function","187","512535","0.0-187.0","4noq933n","","","","","","","",""
"null","","","html-keyboard-response","188","514036","0.0-188.0","4noq933n","","<span style=""color:Black; font-size:50px;"">Agent A","null","","","","",""
"null","","","video-keyboard-response","189","516744","0.0-189.0","4noq933n","","","null","","Agent A","veridical","FOR_REV_BLOBBY_STIM/1592372.bmp_pp76_L1_V1.0_veridical_freeview_isoFalse_fps144.mp4",""
"null","","","html-keyboard-response","190","518248","0.0-190.0","4noq933n","","<span style=""color:Black; font-size:50px;"">Agent B","null","","","","",""
"null","","","video-keyboard-response","191","520951","0.0-191.0","4noq933n","","","null","","Agent B","scrambled","FOR_REV_BLOBBY_STIM/1592372.bmp_pp76_L1_V1.0_veridical_freeview_isoFalse_fps144_reversed_REAL.mp4",""
"","","","call-function","192","520951","0.0-192.0","4noq933n","","","","","","","",""
"1605.8199999999488","{""judgement"":0}","[0]","survey-likert","193","522558","0.0-193.0","4noq933n","","","","","","","","0"
"1449.1500000000233","{""confidence"":3}","[0]","survey-likert","194","524008","0.0-194.0","4noq933n","","","","","","","",""
"","","","call-function","195","524009","0.0-195.0","4noq933n","","","","","","","",""
"null","","","html-keyboard-response","196","525511","0.0-196.0","4noq933n","","<span style=""color:Black; font-size:50px;"">Agent A","null","","","","",""
"null","","","video-keyboard-response","197","528391","0.0-197.0","4noq933n","","","null","","Agent A","veridical","FOR_REV_BLOBBY_STIM/1593035.bmp_pp94_L2_V1.0_veridical_freeview_isoFalse_fps144.mp4",""
"null","","","html-keyboard-response","198","529897","0.0-198.0","4noq933n","","<span style=""color:Black; font-size:50px;"">Agent B","null","","","","",""
"null","","","video-keyboard-response","199","532779","0.0-199.0","4noq933n","","","null","","Agent B","scrambled","FOR_REV_BLOBBY_STIM/1593035.bmp_pp94_L2_V1.0_veridical_freeview_isoFalse_fps144_reversed_REAL.mp4",""
"","","","call-function","200","532781","0.0-200.0","4noq933n","","","","","","","",""
"1467.3649999999907","{""judgement"":1}","[0]","survey-likert","201","534249","0.0-201.0","4noq933n","","","","","","","","0"
"2299.1049999999814","{""confidence"":1}","[0]","survey-likert","202","536550","0.0-202.0","4noq933n","","","","","","","",""
"","","","call-function","203","536550","0.0-203.0","4noq933n","","","","","","","",""
"null","","","html-keyboard-response","204","538053","0.0-204.0","4noq933n","","<span style=""color:Black; font-size:50px;"">Agent A","null","","","","",""
"null","","","video-keyboard-response","205","540883","0.0-205.0","4noq933n","","","null","","Agent A","scrambled","FOR_REV_BLOBBY_STIM/497950.bmp_pp151_L1_V1.0_veridical_freeview_isoFalse_fps144_reversed_REAL.mp4",""
"null","","","html-keyboard-response","206","542388","0.0-206.0","4noq933n","","<span style=""color:Black; font-size:50px;"">Agent B","null","","","","",""
"null","","","video-keyboard-response","207","545220","0.0-207.0","4noq933n","","","null","","Agent B","veridical","FOR_REV_BLOBBY_STIM/497950.bmp_pp151_L1_V1.0_veridical_freeview_isoFalse_fps144.mp4",""
"","","","call-function","208","545220","0.0-208.0","4noq933n","","","","","","","",""
"1794.280000000028","{""judgement"":1}","[0]","survey-likert","209","547016","0.0-209.0","4noq933n","","","","","","","","1"
"1458.8649999999907","{""confidence"":2}","[0]","survey-likert","210","548476","0.0-210.0","4noq933n","","","","","","","",""
"","","","call-function","211","548476","0.0-211.0","4noq933n","","","","","","","",""
"null","","","html-keyboard-response","212","549979","0.0-212.0","4noq933n","","<span style=""color:Black; font-size:50px;"">Agent A","null","","","","",""
"null","","","video-keyboard-response","213","552636","0.0-213.0","4noq933n","","","null","","Agent A","veridical","FOR_REV_BLOBBY_STIM/713211.bmp_pp100_L3_V1.0_veridical_freeview_isoFalse_fps144.mp4",""
"null","","","html-keyboard-response","214","554138","0.0-214.0","4noq933n","","<span style=""color:Black; font-size:50px;"">Agent B","null","","","","",""
"null","","","video-keyboard-response","215","556795","0.0-215.0","4noq933n","","","null","","Agent B","scrambled","FOR_REV_BLOBBY_STIM/713211.bmp_pp100_L3_V1.0_veridical_freeview_isoFalse_fps144_reversed_REAL.mp4",""
"","","","call-function","216","556795","0.0-216.0","4noq933n","","","","","","","",""
"1855.204999999958","{""judgement"":0}","[0]","survey-likert","217","558651","0.0-217.0","4noq933n","","","","","","","","0"
"1236.3099999999395","{""confidence"":2}","[0]","survey-likert","218","559889","0.0-218.0","4noq933n","","","","","","","",""
"","","","call-function","219","559889","0.0-219.0","4noq933n","","","","","","","",""
"null","","","html-keyboard-response","220","561392","0.0-220.0","4noq933n","","<span style=""color:Black; font-size:50px;"">Agent A","null","","","","",""
"null","","","video-keyboard-response","221","564081","0.0-221.0","4noq933n","","","null","","Agent A","veridical","FOR_REV_BLOBBY_STIM/713707.bmp_pp154_L1_V1.0_veridical_freeview_isoFalse_fps144.mp4",""
"null","","","html-keyboard-response","222","565584","0.0-222.0","4noq933n","","<span style=""color:Black; font-size:50px;"">Agent B","null","","","","",""
"null","","","video-keyboard-response","223","568238","0.0-223.0","4noq933n","","","null","","Agent B","scrambled","FOR_REV_BLOBBY_STIM/713707.bmp_pp154_L1_V1.0_veridical_freeview_isoFalse_fps144_reversed_REAL.mp4",""
"","","","call-function","224","568238","0.0-224.0","4noq933n","","","","","","","",""
"2466.25","{""judgement"":1}","[0]","survey-likert","225","570706","0.0-225.0","4noq933n","","","","","","","","0"
"1422.4600000000792","{""confidence"":0}","[0]","survey-likert","226","572129","0.0-226.0","4noq933n","","","","","","","",""
"","","","call-function","227","572130","0.0-227.0","4noq933n","","","","","","","",""
"null","","","html-keyboard-response","228","573634","0.0-228.0","4noq933n","","<span style=""color:Black; font-size:50px;"">Agent A","null","","","","",""
"null","","","video-keyboard-response","229","576472","0.0-229.0","4noq933n","","","null","","Agent A","veridical","FOR_REV_BLOBBY_STIM/1159675.bmp_pp77_L3_V1.0_veridical_freeview_isoFalse_fps144.mp4",""
"null","","","html-keyboard-response","230","577977","0.0-230.0","4noq933n","","<span style=""color:Black; font-size:50px;"">Agent B","null","","","","",""
"null","","","video-keyboard-response","231","580815","0.0-231.0","4noq933n","","","null","","Agent B","scrambled","FOR_REV_BLOBBY_STIM/1159675.bmp_pp77_L3_V1.0_veridical_freeview_isoFalse_fps144_reversed_REAL.mp4",""
"","","","call-function","232","580815","0.0-232.0","4noq933n","","","","","","","",""
"2315.3549999999814","{""judgement"":0}","[0]","survey-likert","233","583131","0.0-233.0","4noq933n","","","","","","","","0"
"1337.670000000042","{""confidence"":0}","[0]","survey-likert","234","584470","0.0-234.0","4noq933n","","","","","","","",""
"","","","call-function","235","584471","0.0-235.0","4noq933n","","","","","","","",""
"null","","","html-keyboard-response","236","585973","0.0-236.0","4noq933n","","<span style=""color:Black; font-size:50px;"">Agent A","null","","","","",""
"null","","","video-keyboard-response","237","588539","0.0-237.0","4noq933n","","","null","","Agent A","veridical","FOR_REV_BLOBBY_STIM/713760.bmp_pp81_L1_V1.0_veridical_freeview_isoFalse_fps144.mp4",""
"null","","","html-keyboard-response","238","590046","0.0-238.0","4noq933n","","<span style=""color:Black; font-size:50px;"">Agent B","null","","","","",""
"null","","","video-keyboard-response","239","592608","0.0-239.0","4noq933n","","","null","","Agent B","scrambled","FOR_REV_BLOBBY_STIM/713760.bmp_pp81_L1_V1.0_veridical_freeview_isoFalse_fps144_reversed_REAL.mp4",""
"","","","call-function","240","592609","0.0-240.0","4noq933n","","","","","","","",""
"1546.2399999999907","{""judgement"":0}","[0]","survey-likert","241","594156","0.0-241.0","4noq933n","","","","","","","","0"
"1282.1049999999814","{""confidence"":2}","[0]","survey-likert","242","595439","0.0-242.0","4noq933n","","","","","","","",""
"","","","call-function","243","595440","0.0-243.0","4noq933n","","","","","","","",""
"null","","","html-keyboard-response","244","596941","0.0-244.0","4noq933n","","<span style=""color:Black; font-size:50px;"">Agent A","null","","","","",""
"null","","","video-keyboard-response","245","599825","0.0-245.0","4noq933n","","","null","","Agent A","veridical","FOR_REV_BLOBBY_STIM/1159447.bmp_pp70_L2_V1.0_veridical_freeview_isoFalse_fps144.mp4",""
"null","","","html-keyboard-response","246","601328","0.0-246.0","4noq933n","","<span style=""color:Black; font-size:50px;"">Agent B","null","","","","",""
"null","","","video-keyboard-response","247","604179","0.0-247.0","4noq933n","","","null","","Agent B","scrambled","FOR_REV_BLOBBY_STIM/1159447.bmp_pp70_L2_V1.0_veridical_freeview_isoFalse_fps144_reversed_REAL.mp4",""
"","","","call-function","248","604179","0.0-248.0","4noq933n","","","","","","","",""
"1326.859999999986","{""judgement"":0}","[0]","survey-likert","249","605507","0.0-249.0","4noq933n","","","","","","","","0"
"1369.8950000000186","{""confidence"":3}","[0]","survey-likert","250","606878","0.0-250.0","4noq933n","","","","","","","",""
"4737.389999999898","","","instructions","251","611616","0.0-251.0","4noq933n","[{""page_index"":0,""viewing_time"":1621.4499999999534},{""page_index"":1,""viewing_time"":2159.8649999999907},{""page_index"":2,""viewing_time"":955.9300000000512}]","","","","","","",""
"2494.5999999999767","","","instructions","252","614111","0.0-252.0","4noq933n","[{""page_index"":0,""viewing_time"":589.2799999999115},{""page_index"":1,""viewing_time"":932.0600000000559},{""page_index"":2,""viewing_time"":973.1550000000279}]","","","","","","",""
"","","","call-function","253","614112","0.0-253.0","4noq933n","","","","","","","",""
"null","","","html-keyboard-response","254","615613","0.0-254.0","4noq933n","","<span style=""color:Black; font-size:50px;"">Agent A","null","","","","",""
"null","","","video-keyboard-response","255","618389","0.0-255.0","4noq933n","","","null","","Agent A","scrambled","FOR_REV_BLOBBY_STIM/1159768.bmp_pp89_L1_V1.0_veridical_freeview_isoFalse_fps144_reversed_REAL.mp4",""
"null","","","html-keyboard-response","256","619892","0.0-256.0","4noq933n","","<span style=""color:Black; font-size:50px;"">Agent B","null","","","","",""
"null","","","video-keyboard-response","257","622664","0.0-257.0","4noq933n","","","null","","Agent B","veridical","FOR_REV_BLOBBY_STIM/1159768.bmp_pp89_L1_V1.0_veridical_freeview_isoFalse_fps144.mp4",""
"","","","call-function","258","622665","0.0-258.0","4noq933n","","","","","","","",""
"1467.0800000000745","{""judgement"":0}","[0]","survey-likert","259","624134","0.0-259.0","4noq933n","","","","","","","","1"
"1549.4449999999488","{""confidence"":2}","[0]","survey-likert","260","625685","0.0-260.0","4noq933n","","","","","","","",""
"","","","call-function","261","625686","0.0-261.0","4noq933n","","","","","","","",""
"null","","","html-keyboard-response","262","627190","0.0-262.0","4noq933n","","<span style=""color:Black; font-size:50px;"">Agent A","null","","","","",""
"null","","","video-keyboard-response","263","629772","0.0-263.0","4noq933n","","","null","","Agent A","scrambled","FOR_REV_BLOBBY_STIM/286001.bmp_pp54_L2_V1.0_veridical_freeview_isoFalse_fps144_reversed_REAL.mp4",""
"null","","","html-keyboard-response","264","631274","0.0-264.0","4noq933n","","<span style=""color:Black; font-size:50px;"">Agent B","null","","","","",""
"null","","","video-keyboard-response","265","633856","0.0-265.0","4noq933n","","","null","","Agent B","veridical","FOR_REV_BLOBBY_STIM/286001.bmp_pp54_L2_V1.0_veridical_freeview_isoFalse_fps144.mp4",""
"","","","call-function","266","633856","0.0-266.0","4noq933n","","","","","","","",""
"2600.670000000042","{""judgement"":1}","[0]","survey-likert","267","636458","0.0-267.0","4noq933n","","","","","","","","1"
"1354.2249999999767","{""confidence"":3}","[0]","survey-likert","268","637814","0.0-268.0","4noq933n","","","","","","","",""
"","","","call-function","269","637815","0.0-269.0","4noq933n","","","","","","","",""
"null","","","html-keyboard-response","270","639318","0.0-270.0","4noq933n","","<span style=""color:Black; font-size:50px;"">Agent A","null","","","","",""
"null","","","video-keyboard-response","271","642134","0.0-271.0","4noq933n","","","null","","Agent A","veridical","FOR_REV_BLOBBY_STIM/713371.bmp_pp68_L1_V1.0_veridical_freeview_isoFalse_fps144.mp4",""
"null","","","html-keyboard-response","272","643636","0.0-272.0","4noq933n","","<span style=""color:Black; font-size:50px;"">Agent B","null","","","","",""
"null","","","video-keyboard-response","273","646476","0.0-273.0","4noq933n","","","null","","Agent B","scrambled","FOR_REV_BLOBBY_STIM/713371.bmp_pp68_L1_V1.0_veridical_freeview_isoFalse_fps144_reversed_REAL.mp4",""
"","","","call-function","274","646477","0.0-274.0","4noq933n","","","","","","","",""
"1488.9949999999953","{""judgement"":0}","[0]","survey-likert","275","647967","0.0-275.0","4noq933n","","","","","","","","0"
"1346.905000000028","{""confidence"":3}","[0]","survey-likert","276","649314","0.0-276.0","4noq933n","","","","","","","",""
"","","","call-function","277","649316","0.0-277.0","4noq933n","","","","","","","",""
"null","","","html-keyboard-response","278","650821","0.0-278.0","4noq933n","","<span style=""color:Black; font-size:50px;"">Agent A","null","","","","",""
"null","","","video-keyboard-response","279","652427","0.0-279.0","4noq933n","","","null","","Agent A","veridical","FOR_REV_BLOBBY_STIM/713684.bmp_pp85_L3_V1.0_veridical_freeview_isoFalse_fps144.mp4",""
"null","","","html-keyboard-response","280","653930","0.0-280.0","4noq933n","","<span style=""color:Black; font-size:50px;"">Agent B","null","","","","",""
"null","","","video-keyboard-response","281","655539","0.0-281.0","4noq933n","","","null","","Agent B","scrambled","FOR_REV_BLOBBY_STIM/713684.bmp_pp85_L3_V1.0_veridical_freeview_isoFalse_fps144_reversed_REAL.mp4",""
"","","","call-function","282","655539","0.0-282.0","4noq933n","","","","","","","",""
"2855.390000000014","{""judgement"":0}","[0]","survey-likert","283","658396","0.0-283.0","4noq933n","","","","","","","","0"
"1572.0849999999627","{""confidence"":0}","[0]","survey-likert","284","659969","0.0-284.0","4noq933n","","","","","","","",""
"","","","call-function","285","659969","0.0-285.0","4noq933n","","","","","","","",""
"null","","","html-keyboard-response","286","661473","0.0-286.0","4noq933n","","<span style=""color:Black; font-size:50px;"">Agent A","null","","","","",""
"null","","","video-keyboard-response","287","664215","0.0-287.0","4noq933n","","","null","","Agent A","veridical","FOR_REV_BLOBBY_STIM/498170.bmp_pp153_L3_V1.0_veridical_freeview_isoFalse_fps144.mp4",""
"null","","","html-keyboard-response","288","665718","0.0-288.0","4noq933n","","<span style=""color:Black; font-size:50px;"">Agent B","null","","","","",""
"null","","","video-keyboard-response","289","668470","0.0-289.0","4noq933n","","","null","","Agent B","scrambled","FOR_REV_BLOBBY_STIM/498170.bmp_pp153_L3_V1.0_veridical_freeview_isoFalse_fps144_reversed_REAL.mp4",""
"","","","call-function","290","668471","0.0-290.0","4noq933n","","","","","","","",""
"1973.0349999999162","{""judgement"":0}","[0]","survey-likert","291","670445","0.0-291.0","4noq933n","","","","","","","","0"
"2074.2449999999953","{""confidence"":1}","[0]","survey-likert","292","672520","0.0-292.0","4noq933n","","","","","","","",""
"","","","call-function","293","672521","0.0-293.0","4noq933n","","","","","","","",""
"null","","","html-keyboard-response","294","674026","0.0-294.0","4noq933n","","<span style=""color:Black; font-size:50px;"">Agent A","null","","","","",""
"null","","","video-keyboard-response","295","676848","0.0-295.0","4noq933n","","","null","","Agent A","scrambled","FOR_REV_BLOBBY_STIM/285751.bmp_pp55_L3_V1.0_veridical_freeview_isoFalse_fps144_reversed_REAL.mp4",""
"null","","","html-keyboard-response","296","678351","0.0-296.0","4noq933n","","<span style=""color:Black; font-size:50px;"">Agent B","null","","","","",""
"null","","","video-keyboard-response","297","681171","0.0-297.0","4noq933n","","","null","","Agent B","veridical","FOR_REV_BLOBBY_STIM/285751.bmp_pp55_L3_V1.0_veridical_freeview_isoFalse_fps144.mp4",""
"","","","call-function","298","681172","0.0-298.0","4noq933n","","","","","","","",""
"1497.0600000000559","{""judgement"":1}","[0]","survey-likert","299","682670","0.0-299.0","4noq933n","","","","","","","","1"
"2393.844999999972","{""confidence"":2}","[0]","survey-likert","300","685065","0.0-300.0","4noq933n","","","","","","","",""
"","","","call-function","301","685066","0.0-301.0","4noq933n","","","","","","","",""
"null","","","html-keyboard-response","302","686569","0.0-302.0","4noq933n","","<span style=""color:Black; font-size:50px;"">Agent A","null","","","","",""
"null","","","video-keyboard-response","303","689381","0.0-303.0","4noq933n","","","null","","Agent A","veridical","FOR_REV_BLOBBY_STIM/1591961.bmp_pp67_L2_V1.0_veridical_freeview_isoFalse_fps144.mp4",""
"null","","","html-keyboard-response","304","690887","0.0-304.0","4noq933n","","<span style=""color:Black; font-size:50px;"">Agent B","null","","","","",""
"null","","","video-keyboard-response","305","693699","0.0-305.0","4noq933n","","","null","","Agent B","scrambled","FOR_REV_BLOBBY_STIM/1591961.bmp_pp67_L2_V1.0_veridical_freeview_isoFalse_fps144_reversed_REAL.mp4",""
"","","","call-function","306","693699","0.0-306.0","4noq933n","","","","","","","",""
"1473.0549999999348","{""judgement"":1}","[0]","survey-likert","307","695173","0.0-307.0","4noq933n","","","","","","","","0"
"1820.0050000000047","{""confidence"":3}","[0]","survey-likert","308","696996","0.0-308.0","4noq933n","","","","","","","",""
"","","","call-function","309","696996","0.0-309.0","4noq933n","","","","","","","",""
"null","","","html-keyboard-response","310","698498","0.0-310.0","4noq933n","","<span style=""color:Black; font-size:50px;"">Agent A","null","","","","",""
"null","","","video-keyboard-response","311","701333","0.0-311.0","4noq933n","","","null","","Agent A","veridical","FOR_REV_BLOBBY_STIM/498253.bmp_pp67_L2_V1.0_veridical_freeview_isoFalse_fps144.mp4",""
"null","","","html-keyboard-response","312","702838","0.0-312.0","4noq933n","","<span style=""color:Black; font-size:50px;"">Agent B","null","","","","",""
"null","","","video-keyboard-response","313","705674","0.0-313.0","4noq933n","","","null","","Agent B","scrambled","FOR_REV_BLOBBY_STIM/498253.bmp_pp67_L2_V1.0_veridical_freeview_isoFalse_fps144_reversed_REAL.mp4",""
"","","","call-function","314","705675","0.0-314.0","4noq933n","","","","","","","",""
"1441.765000000014","{""judgement"":0}","[0]","survey-likert","315","707118","0.0-315.0","4noq933n","","","","","","","","0"
"1082.7949999999255","{""confidence"":3}","[0]","survey-likert","316","708202","0.0-316.0","4noq933n","","","","","","","",""
"","","","call-function","317","708203","0.0-317.0","4noq933n","","","","","","","",""
"null","","","html-keyboard-response","318","709706","0.0-318.0","4noq933n","","<span style=""color:Black; font-size:50px;"">Agent A","null","","","","",""
"null","","","video-keyboard-response","319","712555","0.0-319.0","4noq933n","","","null","","Agent A","scrambled","FOR_REV_BLOBBY_STIM/713403.bmp_pp80_L3_V1.0_veridical_freeview_isoFalse_fps144_reversed_REAL.mp4",""
"null","","","html-keyboard-response","320","714059","0.0-320.0","4noq933n","","<span style=""color:Black; font-size:50px;"">Agent B","null","","","","",""
"null","","","video-keyboard-response","321","716889","0.0-321.0","4noq933n","","","null","","Agent B","veridical","FOR_REV_BLOBBY_STIM/713403.bmp_pp80_L3_V1.0_veridical_freeview_isoFalse_fps144.mp4",""
"","","","call-function","322","716890","0.0-322.0","4noq933n","","","","","","","",""
"2119.7299999999814","{""judgement"":1}","[0]","survey-likert","323","719011","0.0-323.0","4noq933n","","","","","","","","1"
"2225.170000000042","{""confidence"":3}","[0]","survey-likert","324","721237","0.0-324.0","4noq933n","","","","","","","",""
"","","","call-function","325","721238","0.0-325.0","4noq933n","","","","","","","",""
"null","","","html-keyboard-response","326","722741","0.0-326.0","4noq933n","","<span style=""color:Black; font-size:50px;"">Agent A","null","","","","",""
"null","","","video-keyboard-response","327","725561","0.0-327.0","4noq933n","","","null","","Agent A","scrambled","FOR_REV_BLOBBY_STIM/1159784.bmp_pp73_L3_V1.0_veridical_freeview_isoFalse_fps144_reversed_REAL.mp4",""
"null","","","html-keyboard-response","328","727064","0.0-328.0","4noq933n","","<span style=""color:Black; font-size:50px;"">Agent B","null","","","","",""
"null","","","video-keyboard-response","329","729875","0.0-329.0","4noq933n","","","null","","Agent B","veridical","FOR_REV_BLOBBY_STIM/1159784.bmp_pp73_L3_V1.0_veridical_freeview_isoFalse_fps144.mp4",""
"","","","call-function","330","729875","0.0-330.0","4noq933n","","","","","","","",""
"1196.1649999999208","{""judgement"":1}","[0]","survey-likert","331","731074","0.0-331.0","4noq933n","","","","","","","","1"
"1364.8350000000792","{""confidence"":3}","[0]","survey-likert","332","732440","0.0-332.0","4noq933n","","","","","","","",""
"8104.649999999907","","","instructions","333","740545","0.0-333.0","4noq933n","[{""page_index"":0,""viewing_time"":2317.4749999999767},{""page_index"":1,""viewing_time"":4997.849999999977},{""page_index"":2,""viewing_time"":789.0699999999488}]","","","","","","",""
"4928.354999999981","","","instructions","334","745474","0.0-334.0","4noq933n","[{""page_index"":0,""viewing_time"":3623.405000000028},{""page_index"":1,""viewing_time"":929.8899999998976},{""page_index"":2,""viewing_time"":374.96000000007916}]","","","","","","",""
"","","","call-function","335","745474","0.0-335.0","4noq933n","","","","","","","",""
"null","","","html-keyboard-response","336","746979","0.0-336.0","4noq933n","","<span style=""color:Black; font-size:50px;"">Agent A","null","","","","",""
"null","","","video-keyboard-response","337","749768","0.0-337.0","4noq933n","","","null","","Agent A","veridical","FOR_REV_BLOBBY_STIM/1159621.bmp_pp92_L3_V1.0_veridical_freeview_isoFalse_fps144.mp4",""
"null","","","html-keyboard-response","338","751270","0.0-338.0","4noq933n","","<span style=""color:Black; font-size:50px;"">Agent B","null","","","","",""
"null","","","video-keyboard-response","339","754061","0.0-339.0","4noq933n","","","null","","Agent B","scrambled","FOR_REV_BLOBBY_STIM/1159621.bmp_pp92_L3_V1.0_veridical_freeview_isoFalse_fps144_reversed_REAL.mp4",""
"","","","call-function","340","754062","0.0-340.0","4noq933n","","","","","","","",""
"1644.109999999986","{""judgement"":1}","[0]","survey-likert","341","755707","0.0-341.0","4noq933n","","","","","","","","0"
"1049.9300000000512","{""confidence"":2}","[0]","survey-likert","342","756758","0.0-342.0","4noq933n","","","","","","","",""
"","","","call-function","343","756758","0.0-343.0","4noq933n","","","","","","","",""
"null","","","html-keyboard-response","344","758260","0.0-344.0","4noq933n","","<span style=""color:Black; font-size:50px;"">Agent A","null","","","","",""
"null","","","video-keyboard-response","345","761099","0.0-345.0","4noq933n","","","null","","Agent A","scrambled","FOR_REV_BLOBBY_STIM/1592657.bmp_pp98_L1_V1.0_veridical_freeview_isoFalse_fps144_reversed_REAL.mp4",""
"null","","","html-keyboard-response","346","762601","0.0-346.0","4noq933n","","<span style=""color:Black; font-size:50px;"">Agent B","null","","","","",""
"null","","","video-keyboard-response","347","765418","0.0-347.0","4noq933n","","","null","","Agent B","veridical","FOR_REV_BLOBBY_STIM/1592657.bmp_pp98_L1_V1.0_veridical_freeview_isoFalse_fps144.mp4",""
"","","","call-function","348","765419","0.0-348.0","4noq933n","","","","","","","",""
"1391.204999999958","{""judgement"":1}","[0]","survey-likert","349","766811","0.0-349.0","4noq933n","","","","","","","","1"
"1363.25","{""confidence"":3}","[0]","survey-likert","350","768176","0.0-350.0","4noq933n","","","","","","","",""
"","","","call-function","351","768176","0.0-351.0","4noq933n","","","","","","","",""
"null","","","html-keyboard-response","352","769683","0.0-352.0","4noq933n","","<span style=""color:Black; font-size:50px;"">Agent A","null","","","","",""
"null","","","video-keyboard-response","353","772401","0.0-353.0","4noq933n","","","null","","Agent A","veridical","FOR_REV_BLOBBY_STIM/1159446.bmp_pp60_L3_V1.0_veridical_freeview_isoFalse_fps144.mp4",""
"null","","","html-keyboard-response","354","773905","0.0-354.0","4noq933n","","<span style=""color:Black; font-size:50px;"">Agent B","null","","","","",""
"null","","","video-keyboard-response","355","776618","0.0-355.0","4noq933n","","","null","","Agent B","scrambled","FOR_REV_BLOBBY_STIM/1159446.bmp_pp60_L3_V1.0_veridical_freeview_isoFalse_fps144_reversed_REAL.mp4",""
"","","","call-function","356","776619","0.0-356.0","4noq933n","","","","","","","",""
"1386.079999999958","{""judgement"":0}","[0]","survey-likert","357","778006","0.0-357.0","4noq933n","","","","","","","","0"
"1378.375","{""confidence"":2}","[0]","survey-likert","358","779385","0.0-358.0","4noq933n","","","","","","","",""
"","","","call-function","359","779386","0.0-359.0","4noq933n","","","","","","","",""
"null","","","html-keyboard-response","360","780888","0.0-360.0","4noq933n","","<span style=""color:Black; font-size:50px;"">Agent A","null","","","","",""
"null","","","video-keyboard-response","361","783687","0.0-361.0","4noq933n","","","null","","Agent A","veridical","FOR_REV_BLOBBY_STIM/713666.bmp_pp97_L3_V1.0_veridical_freeview_isoFalse_fps144.mp4",""
"null","","","html-keyboard-response","362","785191","0.0-362.0","4noq933n","","<span style=""color:Black; font-size:50px;"">Agent B","null","","","","",""
"null","","","video-keyboard-response","363","787988","0.0-363.0","4noq933n","","","null","","Agent B","scrambled","FOR_REV_BLOBBY_STIM/713666.bmp_pp97_L3_V1.0_veridical_freeview_isoFalse_fps144_reversed_REAL.mp4",""
"","","","call-function","364","787989","0.0-364.0","4noq933n","","","","","","","",""
"1701.6199999999953","{""judgement"":1}","[0]","survey-likert","365","789692","0.0-365.0","4noq933n","","","","","","","","0"
"1299.0850000000792","{""confidence"":3}","[0]","survey-likert","366","790992","0.0-366.0","4noq933n","","","","","","","",""
"","","","call-function","367","790992","0.0-367.0","4noq933n","","","","","","","",""
"null","","","html-keyboard-response","368","792495","0.0-368.0","4noq933n","","<span style=""color:Black; font-size:50px;"">Agent A","null","","","","",""
"null","","","video-keyboard-response","369","795250","0.0-369.0","4noq933n","","","null","","Agent A","scrambled","FOR_REV_BLOBBY_STIM/285933.bmp_pp81_L1_V1.0_veridical_freeview_isoFalse_fps144_reversed_REAL.mp4",""
"null","","","html-keyboard-response","370","796751","0.0-370.0","4noq933n","","<span style=""color:Black; font-size:50px;"">Agent B","null","","","","",""
"null","","","video-keyboard-response","371","799498","0.0-371.0","4noq933n","","","null","","Agent B","veridical","FOR_REV_BLOBBY_STIM/285933.bmp_pp81_L1_V1.0_veridical_freeview_isoFalse_fps144.mp4",""
"","","","call-function","372","799499","0.0-372.0","4noq933n","","","","","","","",""
"1822.3549999999814","{""judgement"":0}","[0]","survey-likert","373","801322","0.0-373.0","4noq933n","","","","","","","","1"
"1199.1450000000186","{""confidence"":1}","[0]","survey-likert","374","802522","0.0-374.0","4noq933n","","","","","","","",""
"","","","call-function","375","802523","0.0-375.0","4noq933n","","","","","","","",""
"null","","","html-keyboard-response","376","804030","0.0-376.0","4noq933n","","<span style=""color:Black; font-size:50px;"">Agent A","null","","","","",""
"null","","","video-keyboard-response","377","806824","0.0-377.0","4noq933n","","","null","","Agent A","scrambled","FOR_REV_BLOBBY_STIM/1159855.bmp_pp99_L2_V1.0_veridical_freeview_isoFalse_fps144_reversed_REAL.mp4",""
"null","","","html-keyboard-response","378","808326","0.0-378.0","4noq933n","","<span style=""color:Black; font-size:50px;"">Agent B","null","","","","",""
"null","","","video-keyboard-response","379","811120","0.0-379.0","4noq933n","","","null","","Agent B","veridical","FOR_REV_BLOBBY_STIM/1159855.bmp_pp99_L2_V1.0_veridical_freeview_isoFalse_fps144.mp4",""
"","","","call-function","380","811121","0.0-380.0","4noq933n","","","","","","","",""
"1733.0849999999627","{""judgement"":1}","[0]","survey-likert","381","812854","0.0-381.0","4noq933n","","","","","","","","1"
"1883.6899999999441","{""confidence"":2}","[0]","survey-likert","382","814739","0.0-382.0","4noq933n","","","","","","","",""
"","","","call-function","383","814740","0.0-383.0","4noq933n","","","","","","","",""
"null","","","html-keyboard-response","384","816247","0.0-384.0","4noq933n","","<span style=""color:Black; font-size:50px;"">Agent A","null","","","","",""
"null","","","video-keyboard-response","385","818791","0.0-385.0","4noq933n","","","null","","Agent A","veridical","FOR_REV_BLOBBY_STIM/713796.bmp_pp84_L3_V1.0_veridical_freeview_isoFalse_fps144.mp4",""
"null","","","html-keyboard-response","386","820298","0.0-386.0","4noq933n","","<span style=""color:Black; font-size:50px;"">Agent B","null","","","","",""
"null","","","video-keyboard-response","387","822842","0.0-387.0","4noq933n","","","null","","Agent B","scrambled","FOR_REV_BLOBBY_STIM/713796.bmp_pp84_L3_V1.0_veridical_freeview_isoFalse_fps144_reversed_REAL.mp4",""
"","","","call-function","388","822842","0.0-388.0","4noq933n","","","","","","","",""
"1865.4700000000885","{""judgement"":0}","[0]","survey-likert","389","824709","0.0-389.0","4noq933n","","","","","","","","0"
"1913.8349999999627","{""confidence"":3}","[0]","survey-likert","390","826624","0.0-390.0","4noq933n","","","","","","","",""
"","","","call-function","391","826624","0.0-391.0","4noq933n","","","","","","","",""
"null","","","html-keyboard-response","392","828129","0.0-392.0","4noq933n","","<span style=""color:Black; font-size:50px;"">Agent A","null","","","","",""
"null","","","video-keyboard-response","393","830936","0.0-393.0","4noq933n","","","null","","Agent A","scrambled","FOR_REV_BLOBBY_STIM/713135.bmp_pp54_L2_V1.0_veridical_freeview_isoFalse_fps144_reversed_REAL.mp4",""
"null","","","html-keyboard-response","394","832440","0.0-394.0","4noq933n","","<span style=""color:Black; font-size:50px;"">Agent B","null","","","","",""
"null","","","video-keyboard-response","395","835211","0.0-395.0","4noq933n","","","null","","Agent B","veridical","FOR_REV_BLOBBY_STIM/713135.bmp_pp54_L2_V1.0_veridical_freeview_isoFalse_fps144.mp4",""
"","","","call-function","396","835212","0.0-396.0","4noq933n","","","","","","","",""
"1634.155000000028","{""judgement"":1}","[0]","survey-likert","397","836847","0.0-397.0","4noq933n","","","","","","","","1"
"1958.829999999958","{""confidence"":3}","[0]","survey-likert","398","838807","0.0-398.0","4noq933n","","","","","","","",""
"","","","call-function","399","838808","0.0-399.0","4noq933n","","","","","","","",""
"null","","","html-keyboard-response","400","840309","0.0-400.0","4noq933n","","<span style=""color:Black; font-size:50px;"">Agent A","null","","","","",""
"null","","","video-keyboard-response","401","843037","0.0-401.0","4noq933n","","","null","","Agent A","veridical","FOR_REV_BLOBBY_STIM/498111.bmp_pp88_L2_V1.0_veridical_freeview_isoFalse_fps144.mp4",""
"null","","","html-keyboard-response","402","844539","0.0-402.0","4noq933n","","<span style=""color:Black; font-size:50px;"">Agent B","null","","","","",""
"null","","","video-keyboard-response","403","847258","0.0-403.0","4noq933n","","","null","","Agent B","scrambled","FOR_REV_BLOBBY_STIM/498111.bmp_pp88_L2_V1.0_veridical_freeview_isoFalse_fps144_reversed_REAL.mp4",""
"","","","call-function","404","847259","0.0-404.0","4noq933n","","","","","","","",""
"1594.844999999972","{""judgement"":1}","[0]","survey-likert","405","848855","0.0-405.0","4noq933n","","","","","","","","0"
"1132.5650000000605","{""confidence"":3}","[0]","survey-likert","406","849990","0.0-406.0","4noq933n","","","","","","","",""
"","","","call-function","407","849990","0.0-407.0","4noq933n","","","","","","","",""
"null","","","html-keyboard-response","408","851491","0.0-408.0","4noq933n","","<span style=""color:Black; font-size:50px;"">Agent A","null","","","","",""
"null","","","video-keyboard-response","409","854104","0.0-409.0","4noq933n","","","null","","Agent A","veridical","FOR_REV_BLOBBY_STIM/61537.bmp_pp73_L3_V1.0_veridical_freeview_isoFalse_fps144.mp4",""
"null","","","html-keyboard-response","410","855607","0.0-410.0","4noq933n","","<span style=""color:Black; font-size:50px;"">Agent B","null","","","","",""
"null","","","video-keyboard-response","411","858241","0.0-411.0","4noq933n","","","null","","Agent B","scrambled","FOR_REV_BLOBBY_STIM/61537.bmp_pp73_L3_V1.0_veridical_freeview_isoFalse_fps144_reversed_REAL.mp4",""
"","","","call-function","412","858241","0.0-412.0","4noq933n","","","","","","","",""
"1354.2550000000047","{""judgement"":0}","[0]","survey-likert","413","859596","0.0-413.0","4noq933n","","","","","","","","0"
"958.859999999986","{""confidence"":2}","[0]","survey-likert","414","860556","0.0-414.0","4noq933n","","","","","","","",""
"22479.744999999995","","","instructions","415","883036","0.0-415.0","4noq933n","[{""page_index"":0,""viewing_time"":2118.7399999999907},{""page_index"":1,""viewing_time"":19602.73999999999},{""page_index"":2,""viewing_time"":758}]","","","","","","",""
"1756.4150000000373","","","instructions","416","884793","0.0-416.0","4noq933n","[{""page_index"":0,""viewing_time"":669.2800000000279},{""page_index"":1,""viewing_time"":516.0549999999348},{""page_index"":2,""viewing_time"":570.9799999999814}]","","","","","","",""
"","","","call-function","417","884794","0.0-417.0","4noq933n","","","","","","","",""
"null","","","html-keyboard-response","418","886295","0.0-418.0","4noq933n","","<span style=""color:Black; font-size:50px;"">Agent A","null","","","","",""
"null","","","video-keyboard-response","419","889101","0.0-419.0","4noq933n","","","null","","Agent A","scrambled","FOR_REV_BLOBBY_STIM/1159829.bmp_pp91_L3_V1.0_veridical_freeview_isoFalse_fps144_reversed_REAL.mp4",""
"null","","","html-keyboard-response","420","890603","0.0-420.0","4noq933n","","<span style=""color:Black; font-size:50px;"">Agent B","null","","","","",""
"null","","","video-keyboard-response","421","893409","0.0-421.0","4noq933n","","","null","","Agent B","veridical","FOR_REV_BLOBBY_STIM/1159829.bmp_pp91_L3_V1.0_veridical_freeview_isoFalse_fps144.mp4",""
"","","","call-function","422","893409","0.0-422.0","4noq933n","","","","","","","",""
"1451.9750000000931","{""judgement"":1}","[0]","survey-likert","423","894862","0.0-423.0","4noq933n","","","","","","","","1"
"1437.4949999999953","{""confidence"":3}","[0]","survey-likert","424","896301","0.0-424.0","4noq933n","","","","","","","",""
"","","","call-function","425","896301","0.0-425.0","4noq933n","","","","","","","",""
"null","","","html-keyboard-response","426","897805","0.0-426.0","4noq933n","","<span style=""color:Black; font-size:50px;"">Agent A","null","","","","",""
"null","","","video-keyboard-response","427","900623","0.0-427.0","4noq933n","","","null","","Agent A","veridical","FOR_REV_BLOBBY_STIM/1592286.bmp_pp52_L1_V1.0_veridical_freeview_isoFalse_fps144.mp4",""
"null","","","html-keyboard-response","428","902128","0.0-428.0","4noq933n","","<span style=""color:Black; font-size:50px;"">Agent B","null","","","","",""
"null","","","video-keyboard-response","429","904967","0.0-429.0","4noq933n","","","null","","Agent B","scrambled","FOR_REV_BLOBBY_STIM/1592286.bmp_pp52_L1_V1.0_veridical_freeview_isoFalse_fps144_reversed_REAL.mp4",""
"","","","call-function","430","904968","0.0-430.0","4noq933n","","","","","","","",""
"1889.634999999893","{""judgement"":0}","[0]","survey-likert","431","906859","0.0-431.0","4noq933n","","","","","","","","0"
"1276.905000000028","{""confidence"":3}","[0]","survey-likert","432","908137","0.0-432.0","4noq933n","","","","","","","",""
"","","","call-function","433","908137","0.0-433.0","4noq933n","","","","","","","",""
"null","","","html-keyboard-response","434","909638","0.0-434.0","4noq933n","","<span style=""color:Black; font-size:50px;"">Agent A","null","","","","",""
"null","","","video-keyboard-response","435","912373","0.0-435.0","4noq933n","","","null","","Agent A","scrambled","FOR_REV_BLOBBY_STIM/1592581.bmp_pp100_L3_V1.0_veridical_freeview_isoFalse_fps144_reversed_REAL.mp4",""
"null","","","html-keyboard-response","436","913875","0.0-436.0","4noq933n","","<span style=""color:Black; font-size:50px;"">Agent B","null","","","","",""
"null","","","video-keyboard-response","437","916609","0.0-437.0","4noq933n","","","null","","Agent B","veridical","FOR_REV_BLOBBY_STIM/1592581.bmp_pp100_L3_V1.0_veridical_freeview_isoFalse_fps144.mp4",""
"","","","call-function","438","916610","0.0-438.0","4noq933n","","","","","","","",""
"1342.5449999999255","{""judgement"":1}","[0]","survey-likert","439","917953","0.0-439.0","4noq933n","","","","","","","","1"
"1182.670000000042","{""confidence"":3}","[0]","survey-likert","440","919137","0.0-440.0","4noq933n","","","","","","","",""
"","","","call-function","441","919137","0.0-441.0","4noq933n","","","","","","","",""
"null","","","html-keyboard-response","442","920641","0.0-442.0","4noq933n","","<span style=""color:Black; font-size:50px;"">Agent A","null","","","","",""
"null","","","video-keyboard-response","443","923145","0.0-443.0","4noq933n","","","null","","Agent A","veridical","FOR_REV_BLOBBY_STIM/713513.bmp_pp62_L2_V1.0_veridical_freeview_isoFalse_fps144.mp4",""
"null","","","html-keyboard-response","444","924653","0.0-444.0","4noq933n","","<span style=""color:Black; font-size:50px;"">Agent B","null","","","","",""
"null","","","video-keyboard-response","445","927161","0.0-445.0","4noq933n","","","null","","Agent B","scrambled","FOR_REV_BLOBBY_STIM/713513.bmp_pp62_L2_V1.0_veridical_freeview_isoFalse_fps144_reversed_REAL.mp4",""
"","","","call-function","446","927162","0.0-446.0","4noq933n","","","","","","","",""
"2699.530000000028","{""judgement"":0}","[0]","survey-likert","447","929862","0.0-447.0","4noq933n","","","","","","","","0"
"1156.2600000000093","{""confidence"":2}","[0]","survey-likert","448","931021","0.0-448.0","4noq933n","","","","","","","",""
"","","","call-function","449","931022","0.0-449.0","4noq933n","","","","","","","",""
"null","","","html-keyboard-response","450","932525","0.0-450.0","4noq933n","","<span style=""color:Black; font-size:50px;"">Agent A","null","","","","",""
"null","","","video-keyboard-response","451","935316","0.0-451.0","4noq933n","","","null","","Agent A","scrambled","FOR_REV_BLOBBY_STIM/1592351.bmp_pp51_L1_V1.0_veridical_freeview_isoFalse_fps144_reversed_REAL.mp4",""
"null","","","html-keyboard-response","452","936823","0.0-452.0","4noq933n","","<span style=""color:Black; font-size:50px;"">Agent B","null","","","","",""
"null","","","video-keyboard-response","453","939615","0.0-453.0","4noq933n","","","null","","Agent B","veridical","FOR_REV_BLOBBY_STIM/1592351.bmp_pp51_L1_V1.0_veridical_freeview_isoFalse_fps144.mp4",""
"","","","call-function","454","939616","0.0-454.0","4noq933n","","","","","","","",""
"1464.7300000000978","{""judgement"":0}","[0]","survey-likert","455","941082","0.0-455.0","4noq933n","","","","","","","","1"
"2620.9150000000373","{""confidence"":0}","[0]","survey-likert","456","943704","0.0-456.0","4noq933n","","","","","","","",""
"","","","call-function","457","943705","0.0-457.0","4noq933n","","","","","","","",""
"null","","","html-keyboard-response","458","945210","0.0-458.0","4noq933n","","<span style=""color:Black; font-size:50px;"">Agent A","null","","","","",""
"null","","","video-keyboard-response","459","947879","0.0-459.0","4noq933n","","","null","","Agent A","veridical","FOR_REV_BLOBBY_STIM/1592727.bmp_pp59_L3_V1.0_veridical_freeview_isoFalse_fps144.mp4",""
"null","","","html-keyboard-response","460","949382","0.0-460.0","4noq933n","","<span style=""color:Black; font-size:50px;"">Agent B","null","","","","",""
"null","","","video-keyboard-response","461","952054","0.0-461.0","4noq933n","","","null","","Agent B","scrambled","FOR_REV_BLOBBY_STIM/1592727.bmp_pp59_L3_V1.0_veridical_freeview_isoFalse_fps144_reversed_REAL.mp4",""
"","","","call-function","462","952054","0.0-462.0","4noq933n","","","","","","","",""
"1700.9450000000652","{""judgement"":0}","[0]","survey-likert","463","953756","0.0-463.0","4noq933n","","","","","","","","0"
"980.8449999999721","{""confidence"":2}","[0]","survey-likert","464","954738","0.0-464.0","4noq933n","","","","","","","",""
"","","","call-function","465","954739","0.0-465.0","4noq933n","","","","","","","",""
"null","","","html-keyboard-response","466","956243","0.0-466.0","4noq933n","","<span style=""color:Black; font-size:50px;"">Agent A","null","","","","",""
"null","","","video-keyboard-response","467","959097","0.0-467.0","4noq933n","","","null","","Agent A","scrambled","FOR_REV_BLOBBY_STIM/713593.bmp_pp64_L1_V1.0_veridical_freeview_isoFalse_fps144_reversed_REAL.mp4",""
"null","","","html-keyboard-response","468","960604","0.0-468.0","4noq933n","","<span style=""color:Black; font-size:50px;"">Agent B","null","","","","",""
"null","","","video-keyboard-response","469","963443","0.0-469.0","4noq933n","","","null","","Agent B","veridical","FOR_REV_BLOBBY_STIM/713593.bmp_pp64_L1_V1.0_veridical_freeview_isoFalse_fps144.mp4",""
"","","","call-function","470","963443","0.0-470.0","4noq933n","","","","","","","",""
"1597.0200000000186","{""judgement"":1}","[0]","survey-likert","471","965041","0.0-471.0","4noq933n","","","","","","","","1"
"1164.9150000000373","{""confidence"":1}","[0]","survey-likert","472","966207","0.0-472.0","4noq933n","","","","","","","",""
"","","","call-function","473","966208","0.0-473.0","4noq933n","","","","","","","",""
"null","","","html-keyboard-response","474","967710","0.0-474.0","4noq933n","","<span style=""color:Black; font-size:50px;"">Agent A","null","","","","",""
"null","","","video-keyboard-response","475","970319","0.0-475.0","4noq933n","","","null","","Agent A","scrambled","FOR_REV_BLOBBY_STIM/1593146.bmp_pp93_L1_V1.0_veridical_freeview_isoFalse_fps144_reversed_REAL.mp4",""
"null","","","html-keyboard-response","476","971821","0.0-476.0","4noq933n","","<span style=""color:Black; font-size:50px;"">Agent B","null","","","","",""
"null","","","video-keyboard-response","477","974428","0.0-477.0","4noq933n","","","null","","Agent B","veridical","FOR_REV_BLOBBY_STIM/1593146.bmp_pp93_L1_V1.0_veridical_freeview_isoFalse_fps144.mp4",""
"","","","call-function","478","974428","0.0-478.0","4noq933n","","","","","","","",""
"2232.8800000000047","{""judgement"":0}","[0]","survey-likert","479","976662","0.0-479.0","4noq933n","","","","","","","","1"
"1485.8399999999674","{""confidence"":0}","[0]","survey-likert","480","978149","0.0-480.0","4noq933n","","","","","","","",""
"","","","call-function","481","978150","0.0-481.0","4noq933n","","","","","","","",""
"null","","","html-keyboard-response","482","979652","0.0-482.0","4noq933n","","<span style=""color:Black; font-size:50px;"">Agent A","null","","","","",""
"null","","","video-keyboard-response","483","982290","0.0-483.0","4noq933n","","","null","","Agent A","scrambled","FOR_REV_BLOBBY_STIM/713779.bmp_pp152_L2_V1.0_veridical_freeview_isoFalse_fps144_reversed_REAL.mp4",""
"null","","","html-keyboard-response","484","983793","0.0-484.0","4noq933n","","<span style=""color:Black; font-size:50px;"">Agent B","null","","","","",""
"null","","","video-keyboard-response","485","986432","0.0-485.0","4noq933n","","","null","","Agent B","veridical","FOR_REV_BLOBBY_STIM/713779.bmp_pp152_L2_V1.0_veridical_freeview_isoFalse_fps144.mp4",""
"","","","call-function","486","986433","0.0-486.0","4noq933n","","","","","","","",""
"2449.8399999999674","{""judgement"":0}","[0]","survey-likert","487","988884","0.0-487.0","4noq933n","","","","","","","","1"
"1753.2050000000745","{""confidence"":3}","[0]","survey-likert","488","990638","0.0-488.0","4noq933n","","","","","","","",""
"","","","call-function","489","990639","0.0-489.0","4noq933n","","","","","","","",""
"null","","","html-keyboard-response","490","992144","0.0-490.0","4noq933n","","<span style=""color:Black; font-size:50px;"">Agent A","null","","","","",""
"null","","","video-keyboard-response","491","994796","0.0-491.0","4noq933n","","","null","","Agent A","scrambled","FOR_REV_BLOBBY_STIM/498149.bmp_pp99_L2_V1.0_veridical_freeview_isoFalse_fps144_reversed_REAL.mp4",""
"null","","","html-keyboard-response","492","996299","0.0-492.0","4noq933n","","<span style=""color:Black; font-size:50px;"">Agent B","null","","","","",""
"null","","","video-keyboard-response","493","998927","0.0-493.0","4noq933n","","","null","","Agent B","veridical","FOR_REV_BLOBBY_STIM/498149.bmp_pp99_L2_V1.0_veridical_freeview_isoFalse_fps144.mp4",""
"","","","call-function","494","998927","0.0-494.0","4noq933n","","","","","","","",""
"3231.515000000014","{""judgement"":1}","[0]","survey-likert","495","1002160","0.0-495.0","4noq933n","","","","","","","","1"
"1777.8850000000093","{""confidence"":1}","[0]","survey-likert","496","1003939","0.0-496.0","4noq933n","","","","","","","",""
"2413.2600000000093","","","instructions","497","1006352","0.0-497.0","4noq933n","[{""page_index"":0,""viewing_time"":1705.2149999999674},{""page_index"":1,""viewing_time"":396.9450000000652},{""page_index"":2,""viewing_time"":310.9549999999581}]","","","","","","",""
"1119.5650000000605","","","instructions","498","1007473","0.0-498.0","4noq933n","[{""page_index"":0,""viewing_time"":296.4650000000838},{""page_index"":1,""viewing_time"":401.92499999993015},{""page_index"":2,""viewing_time"":421.07500000006985}]","","","","","","",""
"","","","call-function","499","1007473","0.0-499.0","4noq933n","","","","","","","",""
"null","","","html-keyboard-response","500","1008981","0.0-500.0","4noq933n","","<span style=""color:Black; font-size:50px;"">Agent A","null","","","","",""
"null","","","video-keyboard-response","501","1011842","0.0-501.0","4noq933n","","","null","","Agent A","veridical","FOR_REV_BLOBBY_STIM/713089.bmp_pp60_L3_V1.0_veridical_freeview_isoFalse_fps144.mp4",""
"null","","","html-keyboard-response","502","1013349","0.0-502.0","4noq933n","","<span style=""color:Black; font-size:50px;"">Agent B","null","","","","",""
"null","","","video-keyboard-response","503","1016207","0.0-503.0","4noq933n","","","null","","Agent B","scrambled","FOR_REV_BLOBBY_STIM/713089.bmp_pp60_L3_V1.0_veridical_freeview_isoFalse_fps144_reversed_REAL.mp4",""
"","","","call-function","504","1016209","0.0-504.0","4noq933n","","","","","","","",""
"1382.829999999958","{""judgement"":0}","[0]","survey-likert","505","1017593","0.0-505.0","4noq933n","","","","","","","","0"
"1187.5500000000466","{""confidence"":3}","[0]","survey-likert","506","1018782","0.0-506.0","4noq933n","","","","","","","",""
"","","","call-function","507","1018783","0.0-507.0","4noq933n","","","","","","","",""
"null","","","html-keyboard-response","508","1020286","0.0-508.0","4noq933n","","<span style=""color:Black; font-size:50px;"">Agent A","null","","","","",""
"null","","","video-keyboard-response","509","1023086","0.0-509.0","4noq933n","","","null","","Agent A","scrambled","FOR_REV_BLOBBY_STIM/498175.bmp_pp154_L1_V1.0_veridical_freeview_isoFalse_fps144_reversed_REAL.mp4",""
"null","","","html-keyboard-response","510","1024592","0.0-510.0","4noq933n","","<span style=""color:Black; font-size:50px;"">Agent B","null","","","","",""
"null","","","video-keyboard-response","511","1027387","0.0-511.0","4noq933n","","","null","","Agent B","veridical","FOR_REV_BLOBBY_STIM/498175.bmp_pp154_L1_V1.0_veridical_freeview_isoFalse_fps144.mp4",""
"","","","call-function","512","1027387","0.0-512.0","4noq933n","","","","","","","",""
"2179.0350000000326","{""judgement"":1}","[0]","survey-likert","513","1029567","0.0-513.0","4noq933n","","","","","","","","1"
"1428.6199999999953","{""confidence"":3}","[0]","survey-likert","514","1030998","0.0-514.0","4noq933n","","","","","","","",""
"","","","call-function","515","1030998","0.0-515.0","4noq933n","","","","","","","",""
"null","","","html-keyboard-response","516","1032499","0.0-516.0","4noq933n","","<span style=""color:Black; font-size:50px;"">Agent A","null","","","","",""
"null","","","video-keyboard-response","517","1035318","0.0-517.0","4noq933n","","","null","","Agent A","scrambled","FOR_REV_BLOBBY_STIM/1592807.bmp_pp68_L1_V1.0_veridical_freeview_isoFalse_fps144_reversed_REAL.mp4",""
"null","","","html-keyboard-response","518","1036822","0.0-518.0","4noq933n","","<span style=""color:Black; font-size:50px;"">Agent B","null","","","","",""
"null","","","video-keyboard-response","519","1039671","0.0-519.0","4noq933n","","","null","","Agent B","veridical","FOR_REV_BLOBBY_STIM/1592807.bmp_pp68_L1_V1.0_veridical_freeview_isoFalse_fps144.mp4",""
"","","","call-function","520","1039672","0.0-520.0","4noq933n","","","","","","","",""
"1599.719999999972","{""judgement"":1}","[0]","survey-likert","521","1041273","0.0-521.0","4noq933n","","","","","","","","1"
"1268.4000000000233","{""confidence"":2}","[0]","survey-likert","522","1042542","0.0-522.0","4noq933n","","","","","","","",""
"","","","call-function","523","1042543","0.0-523.0","4noq933n","","","","","","","",""
"null","","","html-keyboard-response","524","1044050","0.0-524.0","4noq933n","","<span style=""color:Black; font-size:50px;"">Agent A","null","","","","",""
"null","","","video-keyboard-response","525","1046821","0.0-525.0","4noq933n","","","null","","Agent A","scrambled","FOR_REV_BLOBBY_STIM/498155.bmp_pp61_L2_V1.0_veridical_freeview_isoFalse_fps144_reversed_REAL.mp4",""
"null","","","html-keyboard-response","526","1048324","0.0-526.0","4noq933n","","<span style=""color:Black; font-size:50px;"">Agent B","null","","","","",""
"null","","","video-keyboard-response","527","1051097","0.0-527.0","4noq933n","","","null","","Agent B","veridical","FOR_REV_BLOBBY_STIM/498155.bmp_pp61_L2_V1.0_veridical_freeview_isoFalse_fps144.mp4",""
"","","","call-function","528","1051098","0.0-528.0","4noq933n","","","","","","","",""
"1570.3950000000186","{""judgement"":1}","[0]","survey-likert","529","1052669","0.0-529.0","4noq933n","","","","","","","","1"
"2028.1149999999907","{""confidence"":2}","[0]","survey-likert","530","1054698","0.0-530.0","4noq933n","","","","","","","",""
"","","","call-function","531","1054699","0.0-531.0","4noq933n","","","","","","","",""
"null","","","html-keyboard-response","532","1056203","0.0-532.0","4noq933n","","<span style=""color:Black; font-size:50px;"">Agent A","null","","","","",""
"null","","","video-keyboard-response","533","1058754","0.0-533.0","4noq933n","","","null","","Agent A","veridical","FOR_REV_BLOBBY_STIM/1159813.bmp_pp79_L2_V1.0_veridical_freeview_isoFalse_fps144.mp4",""
"null","","","html-keyboard-response","534","1060259","0.0-534.0","4noq933n","","<span style=""color:Black; font-size:50px;"">Agent B","null","","","","",""
"null","","","video-keyboard-response","535","1062805","0.0-535.0","4noq933n","","","null","","Agent B","scrambled","FOR_REV_BLOBBY_STIM/1159813.bmp_pp79_L2_V1.0_veridical_freeview_isoFalse_fps144_reversed_REAL.mp4",""
"","","","call-function","536","1062805","0.0-536.0","4noq933n","","","","","","","",""
"2978.684999999823","{""judgement"":0}","[0]","survey-likert","537","1065785","0.0-537.0","4noq933n","","","","","","","","0"
"1981.255000000121","{""confidence"":0}","[0]","survey-likert","538","1067767","0.0-538.0","4noq933n","","","","","","","",""
"","","","call-function","539","1067768","0.0-539.0","4noq933n","","","","","","","",""
"null","","","html-keyboard-response","540","1069272","0.0-540.0","4noq933n","","<span style=""color:Black; font-size:50px;"">Agent A","null","","","","",""
"null","","","video-keyboard-response","541","1072082","0.0-541.0","4noq933n","","","null","","Agent A","veridical","FOR_REV_BLOBBY_STIM/713681.bmp_pp86_L2_V1.0_veridical_freeview_isoFalse_fps144.mp4",""
"null","","","html-keyboard-response","542","1073584","0.0-542.0","4noq933n","","<span style=""color:Black; font-size:50px;"">Agent B","null","","","","",""
"null","","","video-keyboard-response","543","1076394","0.0-543.0","4noq933n","","","null","","Agent B","scrambled","FOR_REV_BLOBBY_STIM/713681.bmp_pp86_L2_V1.0_veridical_freeview_isoFalse_fps144_reversed_REAL.mp4",""
"","","","call-function","544","1076394","0.0-544.0","4noq933n","","","","","","","",""
"1592.5249999999069","{""judgement"":0}","[0]","survey-likert","545","1077988","0.0-545.0","4noq933n","","","","","","","","0"
"1695.8999999999069","{""confidence"":3}","[0]","survey-likert","546","1079686","0.0-546.0","4noq933n","","","","","","","",""
"","","","call-function","547","1079686","0.0-547.0","4noq933n","","","","","","","",""
"null","","","html-keyboard-response","548","1081188","0.0-548.0","4noq933n","","<span style=""color:Black; font-size:50px;"">Agent A","null","","","","",""
"null","","","video-keyboard-response","549","1083715","0.0-549.0","4noq933n","","","null","","Agent A","scrambled","FOR_REV_BLOBBY_STIM/1159515.bmp_pp84_L3_V1.0_veridical_freeview_isoFalse_fps144_reversed_REAL.mp4",""
"null","","","html-keyboard-response","550","1085222","0.0-550.0","4noq933n","","<span style=""color:Black; font-size:50px;"">Agent B","null","","","","",""
"null","","","video-keyboard-response","551","1087749","0.0-551.0","4noq933n","","","null","","Agent B","veridical","FOR_REV_BLOBBY_STIM/1159515.bmp_pp84_L3_V1.0_veridical_freeview_isoFalse_fps144.mp4",""
"","","","call-function","552","1087750","0.0-552.0","4noq933n","","","","","","","",""
"3950.4950000001118","{""judgement"":0}","[0]","survey-likert","553","1091701","0.0-553.0","4noq933n","","","","","","","","1"
"1603.6999999999534","{""confidence"":0}","[0]","survey-likert","554","1093306","0.0-554.0","4noq933n","","","","","","","",""
"","","","call-function","555","1093307","0.0-555.0","4noq933n","","","","","","","",""
"null","","","html-keyboard-response","556","1094812","0.0-556.0","4noq933n","","<span style=""color:Black; font-size:50px;"">Agent A","null","","","","",""
"null","","","video-keyboard-response","557","1097595","0.0-557.0","4noq933n","","","null","","Agent A","scrambled","FOR_REV_BLOBBY_STIM/1159440.bmp_pp98_L1_V1.0_veridical_freeview_isoFalse_fps144_reversed_REAL.mp4",""
"null","","","html-keyboard-response","558","1099097","0.0-558.0","4noq933n","","<span style=""color:Black; font-size:50px;"">Agent B","null","","","","",""
"null","","","video-keyboard-response","559","1101881","0.0-559.0","4noq933n","","","null","","Agent B","veridical","FOR_REV_BLOBBY_STIM/1159440.bmp_pp98_L1_V1.0_veridical_freeview_isoFalse_fps144.mp4",""
"","","","call-function","560","1101883","0.0-560.0","4noq933n","","","","","","","",""
"2074.679999999935","{""judgement"":1}","[0]","survey-likert","561","1103959","0.0-561.0","4noq933n","","","","","","","","1"
"1124.9799999999814","{""confidence"":2}","[0]","survey-likert","562","1105085","0.0-562.0","4noq933n","","","","","","","",""
"","","","call-function","563","1105086","0.0-563.0","4noq933n","","","","","","","",""
"null","","","html-keyboard-response","564","1106589","0.0-564.0","4noq933n","","<span style=""color:Black; font-size:50px;"">Agent A","null","","","","",""
"null","","","video-keyboard-response","565","1109314","0.0-565.0","4noq933n","","","null","","Agent A","veridical","FOR_REV_BLOBBY_STIM/1591954.bmp_pp62_L2_V1.0_veridical_freeview_isoFalse_fps144.mp4",""
"null","","","html-keyboard-response","566","1110819","0.0-566.0","4noq933n","","<span style=""color:Black; font-size:50px;"">Agent B","null","","","","",""
"null","","","video-keyboard-response","567","1113542","0.0-567.0","4noq933n","","","null","","Agent B","scrambled","FOR_REV_BLOBBY_STIM/1591954.bmp_pp62_L2_V1.0_veridical_freeview_isoFalse_fps144_reversed_REAL.mp4",""
"","","","call-function","568","1113543","0.0-568.0","4noq933n","","","","","","","",""
"4048.75","{""judgement"":1}","[0]","survey-likert","569","1117592","0.0-569.0","4noq933n","","","","","","","","0"
"1534.9200000001583","{""confidence"":0}","[0]","survey-likert","570","1119128","0.0-570.0","4noq933n","","","","","","","",""
"","","","call-function","571","1119129","0.0-571.0","4noq933n","","","","","","","",""
"null","","","html-keyboard-response","572","1120630","0.0-572.0","4noq933n","","<span style=""color:Black; font-size:50px;"">Agent A","null","","","","",""
"null","","","video-keyboard-response","573","1123310","0.0-573.0","4noq933n","","","null","","Agent A","scrambled","FOR_REV_BLOBBY_STIM/285994.bmp_pp92_L3_V1.0_veridical_freeview_isoFalse_fps144_reversed_REAL.mp4",""
"null","","","html-keyboard-response","574","1124811","0.0-574.0","4noq933n","","<span style=""color:Black; font-size:50px;"">Agent B","null","","","","",""
"null","","","video-keyboard-response","575","1127491","0.0-575.0","4noq933n","","","null","","Agent B","veridical","FOR_REV_BLOBBY_STIM/285994.bmp_pp92_L3_V1.0_veridical_freeview_isoFalse_fps144.mp4",""
"","","","call-function","576","1127492","0.0-576.0","4noq933n","","","","","","","",""
"3663.7700000000186","{""judgement"":0}","[0]","survey-likert","577","1131156","0.0-577.0","4noq933n","","","","","","","","1"
"1846.6649999998044","{""confidence"":1}","[0]","survey-likert","578","1133004","0.0-578.0","4noq933n","","","","","","","",""
"3398.0250000001397","","","instructions","579","1136403","0.0-579.0","4noq933n","[{""page_index"":0,""viewing_time"":3397.8950000000186}]","","","","","","",""
"3207.3950000000186","","","instructions","580","1139611","0.0-580.0","4noq933n","[{""page_index"":0,""viewing_time"":3207.2950000001583}]","","","","","","",""
"12096.284999999916","{""post-1"":1}","[0]","survey-likert","581","1151708","0.0-581.0","4noq933n","","","","","","","",""
"5899.935000000056","{""post-1"":0}","[0]","survey-likert","582","1157609","0.0-582.0","4noq933n","","","","","","","",""
"6678.800000000047","{""post-2"":2}","[0]","survey-likert","583","1164289","0.0-583.0","4noq933n","","","","","","","",""
"3405.719999999972","{""post-2"":0}","[0]","survey-likert","584","1167696","0.0-584.0","4noq933n","","","","","","","",""
"5739.840000000084","{""post-3"":3}","[0]","survey-likert","585","1173437","0.0-585.0","4noq933n","","","","","","","",""
"3987.8549999999814","{""post-3"":1}","[0]","survey-likert","586","1177426","0.0-586.0","4noq933n","","","","","","","",""
"5149.84999999986","{""post-4"":1}","[0]","survey-likert","587","1182577","0.0-587.0","4noq933n","","","","","","","",""
"4531.685000000056","{""post-4"":1}","[0]","survey-likert","588","1187110","0.0-588.0","4noq933n","","","","","","","",""
"4982.324999999953","{""post-5"":2}","[0]","survey-likert","589","1192095","0.0-589.0","4noq933n","","","","","","","",""
"2316.4899999999907","{""post-5"":1}","[0]","survey-likert","590","1194413","0.0-590.0","4noq933n","","","","","","","",""
"63543.77499999991","{""Q0"":""I tried to answer which agent was the human by comparing the hotspots to what I focused on when I saw the images.""}","","survey-text","591","1257962","0.0-591.0","4noq933n","","","","","","","",""
"59444.28500000015","{""Q0"":""Certain images had obvious subjects that stood out more than other things in the background. For images like these, I feel like it was easier to answer which agent was the real human. ""}","","survey-text","592","1317410","0.0-592.0","4noq933n","","","","","","","",""
"48984.965000000084","{""Q0"":""When there wasn't a glaring obvious subject in the image, I found it difficult to figure out which agent was the real human. Sometimes the hotspots for both agents A and B also just didn't seem to align with what I focused on in the images. ""}","","survey-text","593","1366399","0.0-593.0","4noq933n","","","","","","","",""
"31130.570000000065","","","instructions","594","1397531","0.0-594.0","4noq933n","[{""page_index"":0,""viewing_time"":31130.435000000056}]","","","","","","",""
"31960.355000000214","{""Experimenter_end"":[""Printed ID# 4noq933n on consent form"",""Given subject SONA credit or payment"",""Given the subject debrief form""]}","[0]","survey-multi-select","595","1429494","0.0-595.0","4noq933n","","","","","","","",""
