"rt","responses","question_order","trial_type","trial_index","time_elapsed","internal_node_id","ID","view_history","stimulus","key_press","value","agent","condition","image","correct_answer"
"6961.54","{""Experimenter"":[""Confirmed subject's identity (ID card)"",""Confirmed normal or corrected-to-normal vision"",""Obtained consent (signature and date)"",""Checked the test room lighting"",""Checked computer screen lighting"",""Checked distance from screen to chin rest (50cm)"",""Cleaned and adjusted chin rest"",""Counterbalanced the order of the tasks"",""Opened the experiment in Firefox"",""Made the experiment full screen"",""Encouraged subject to silence phone, put away distractors, etc.""]}","[0]","survey-multi-select","0","6970","0.0-0.0","51yo2pet","","","","","","","",""
"27089.120000000003","","","instructions","1","34062","0.0-1.0","51yo2pet","[{""page_index"":0,""viewing_time"":27088.565000000002}]","","","","","","",""
"8613.435000000005","","","instructions","2","42677","0.0-2.0","51yo2pet","[{""page_index"":0,""viewing_time"":1041.395000000004},{""page_index"":1,""viewing_time"":4767},{""page_index"":2,""viewing_time"":2804.9199999999983}]","","","","","","",""
"2391.425000000003","","","instructions","3","45070","0.0-3.0","51yo2pet","[{""page_index"":0,""viewing_time"":2391.3150000000023}]","","","","","","",""
"null","","","video-keyboard-response","4","48145","0.0-4.0","51yo2pet","","","null","","","","",""
"15691.224999999999","","","instructions","5","63838","0.0-5.0","51yo2pet","[{""page_index"":0,""viewing_time"":1790.3199999999997},{""page_index"":1,""viewing_time"":3608.7050000000017},{""page_index"":2,""viewing_time"":1033.9400000000023},{""page_index"":3,""viewing_time"":3352.040000000001},{""page_index"":4,""viewing_time"":5906.0899999999965}]","","","","","","",""
"9261.299999999996","","","instructions","6","73100","0.0-6.0","51yo2pet","[{""page_index"":0,""viewing_time"":9261.165}]","","","","","","",""
"","","","call-function","7","73101","0.0-7.0","51yo2pet","","","","","","","",""
"null","","","html-keyboard-response","8","74605","0.0-8.0","51yo2pet","","<span style=""color:Black; font-size:50px;"">Agent A","null","","","","",""
"null","","","video-keyboard-response","9","77682","0.0-9.0","51yo2pet","","","null","","Agent A","veridical","STIM_SET_1_REAL/712977.bmp_pp51_L1_V1.0_veridical_freeview_isoFalse_fps144.mp4",""
"null","","","html-keyboard-response","10","79184","0.0-10.0","51yo2pet","","<span style=""color:Black; font-size:50px;"">Agent B","null","","","","",""
"null","","","video-keyboard-response","11","82287","0.0-11.0","51yo2pet","","","null","","Agent B","scrambled","STIM_SET_3/1592951.bmp_pp80_L3_V2_veridical_freeview_isoFalsemismatch_712977.bmp_L1_fps90.mp4",""
"","","","call-function","12","82288","0.0-12.0","51yo2pet","","","","","","","",""
"1856.7900000000081","{""judgement"":1}","[0]","survey-likert","13","84146","0.0-13.0","51yo2pet","","","","","","","","0"
"2751.300000000003","{""confidence"":2}","[0]","survey-likert","14","86899","0.0-14.0","51yo2pet","","","","","","","",""
"","","","call-function","15","86900","0.0-15.0","51yo2pet","","","","","","","",""
"null","","","html-keyboard-response","16","88401","0.0-16.0","51yo2pet","","<span style=""color:Black; font-size:50px;"">Agent A","null","","","","",""
"null","","","video-keyboard-response","17","91479","0.0-17.0","51yo2pet","","","null","","Agent A","veridical","STIM_SET_1_REAL/498253.bmp_pp67_L2_V1.0_veridical_freeview_isoFalse_fps144.mp4",""
"null","","","html-keyboard-response","18","92986","0.0-18.0","51yo2pet","","<span style=""color:Black; font-size:50px;"">Agent B","null","","","","",""
"null","","","video-keyboard-response","19","96099","0.0-19.0","51yo2pet","","","null","","Agent B","scrambled","STIM_SET_3/285959.bmp_pp93_L1_V2_veridical_freeview_isoFalsemismatch_498253.bmp_L2_fps90.mp4",""
"","","","call-function","20","96100","0.0-20.0","51yo2pet","","","","","","","",""
"2132.179999999993","{""judgement"":0}","[0]","survey-likert","21","98234","0.0-21.0","51yo2pet","","","","","","","","0"
"1630.6899999999878","{""confidence"":2}","[0]","survey-likert","22","99867","0.0-22.0","51yo2pet","","","","","","","",""
"","","","call-function","23","99868","0.0-23.0","51yo2pet","","","","","","","",""
"null","","","html-keyboard-response","24","101369","0.0-24.0","51yo2pet","","<span style=""color:Black; font-size:50px;"">Agent A","null","","","","",""
"null","","","video-keyboard-response","25","104472","0.0-25.0","51yo2pet","","","null","","Agent A","scrambled","STIM_SET_3/1592044.bmp_pp94_L2_V2_veridical_freeview_isoFalsemismatch_1159446.bmp_L3_fps90.mp4",""
"null","","","html-keyboard-response","26","105975","0.0-26.0","51yo2pet","","<span style=""color:Black; font-size:50px;"">Agent B","null","","","","",""
"null","","","video-keyboard-response","27","109064","0.0-27.0","51yo2pet","","","null","","Agent B","veridical","STIM_SET_1_REAL/1159446.bmp_pp60_L3_V1.0_veridical_freeview_isoFalse_fps144.mp4",""
"","","","call-function","28","109065","0.0-28.0","51yo2pet","","","","","","","",""
"2214.7000000000116","{""judgement"":1}","[0]","survey-likert","29","111280","0.0-29.0","51yo2pet","","","","","","","","1"
"1408.0599999999977","{""confidence"":2}","[0]","survey-likert","30","112690","0.0-30.0","51yo2pet","","","","","","","",""
"","","","call-function","31","112691","0.0-31.0","51yo2pet","","","","","","","",""
"null","","","html-keyboard-response","32","114193","0.0-32.0","51yo2pet","","<span style=""color:Black; font-size:50px;"">Agent A","null","","","","",""
"null","","","video-keyboard-response","33","117298","0.0-33.0","51yo2pet","","","null","","Agent A","scrambled","STIM_SET_3/1592025.bmp_pp68_L1_V2_veridical_freeview_isoFalsemismatch_1592351.bmp_L1_fps90.mp4",""
"null","","","html-keyboard-response","34","118804","0.0-34.0","51yo2pet","","<span style=""color:Black; font-size:50px;"">Agent B","null","","","","",""
"null","","","video-keyboard-response","35","121889","0.0-35.0","51yo2pet","","","null","","Agent B","veridical","STIM_SET_1_REAL/1592351.bmp_pp51_L1_V1.0_veridical_freeview_isoFalse_fps144.mp4",""
"","","","call-function","36","121890","0.0-36.0","51yo2pet","","","","","","","",""
"3557.300000000003","{""judgement"":0}","[0]","survey-likert","37","125448","0.0-37.0","51yo2pet","","","","","","","","1"
"1764.3350000000064","{""confidence"":0}","[0]","survey-likert","38","127213","0.0-38.0","51yo2pet","","","","","","","",""
"","","","call-function","39","127214","0.0-39.0","51yo2pet","","","","","","","",""
"null","","","html-keyboard-response","40","128716","0.0-40.0","51yo2pet","","<span style=""color:Black; font-size:50px;"">Agent A","null","","","","",""
"null","","","video-keyboard-response","41","131833","0.0-41.0","51yo2pet","","","null","","Agent A","scrambled","STIM_SET_3/1592298.bmp_pp56_L3_V2_veridical_freeview_isoFalsemismatch_1593146.bmp_L1_fps90.mp4",""
"null","","","html-keyboard-response","42","133339","0.0-42.0","51yo2pet","","<span style=""color:Black; font-size:50px;"">Agent B","null","","","","",""
"null","","","video-keyboard-response","43","136442","0.0-43.0","51yo2pet","","","null","","Agent B","veridical","STIM_SET_1_REAL/1593146.bmp_pp93_L1_V1.0_veridical_freeview_isoFalse_fps144.mp4",""
"","","","call-function","44","136443","0.0-44.0","51yo2pet","","","","","","","",""
"2562.1750000000175","{""judgement"":1}","[0]","survey-likert","45","139006","0.0-45.0","51yo2pet","","","","","","","","1"
"1296.4249999999884","{""confidence"":1}","[0]","survey-likert","46","140304","0.0-46.0","51yo2pet","","","","","","","",""
"","","","call-function","47","140305","0.0-47.0","51yo2pet","","","","","","","",""
"null","","","html-keyboard-response","48","141810","0.0-48.0","51yo2pet","","<span style=""color:Black; font-size:50px;"">Agent A","null","","","","",""
"null","","","video-keyboard-response","49","144893","0.0-49.0","51yo2pet","","","null","","Agent A","scrambled","STIM_SET_3/498396.bmp_pp99_L2_V2_veridical_freeview_isoFalsemismatch_713371.bmp_L1_fps90.mp4",""
"null","","","html-keyboard-response","50","146400","0.0-50.0","51yo2pet","","<span style=""color:Black; font-size:50px;"">Agent B","null","","","","",""
"null","","","video-keyboard-response","51","149476","0.0-51.0","51yo2pet","","","null","","Agent B","veridical","STIM_SET_1_REAL/713371.bmp_pp68_L1_V1.0_veridical_freeview_isoFalse_fps144.mp4",""
"","","","call-function","52","149477","0.0-52.0","51yo2pet","","","","","","","",""
"1847.4399999999732","{""judgement"":1}","[0]","survey-likert","53","151325","0.0-53.0","51yo2pet","","","","","","","","1"
"4583.645000000019","{""confidence"":3}","[0]","survey-likert","54","155911","0.0-54.0","51yo2pet","","","","","","","",""
"","","","call-function","55","155912","0.0-55.0","51yo2pet","","","","","","","",""
"null","","","html-keyboard-response","56","157413","0.0-56.0","51yo2pet","","<span style=""color:Black; font-size:50px;"">Agent A","null","","","","",""
"null","","","video-keyboard-response","57","160506","0.0-57.0","51yo2pet","","","null","","Agent A","scrambled","STIM_SET_3/713790.bmp_pp100_L3_V2_veridical_freeview_isoFalsemismatch_1592397.bmp_L3_fps90.mp4",""
"null","","","html-keyboard-response","58","162010","0.0-58.0","51yo2pet","","<span style=""color:Black; font-size:50px;"">Agent B","null","","","","",""
"null","","","video-keyboard-response","59","165107","0.0-59.0","51yo2pet","","","null","","Agent B","veridical","STIM_SET_1_REAL/1592397.bmp_pp85_L3_V1.0_veridical_freeview_isoFalse_fps144.mp4",""
"","","","call-function","60","165109","0.0-60.0","51yo2pet","","","","","","","",""
"4079.0500000000175","{""judgement"":1}","[0]","survey-likert","61","169190","0.0-61.0","51yo2pet","","","","","","","","1"
"1137.234999999986","{""confidence"":2}","[0]","survey-likert","62","170329","0.0-62.0","51yo2pet","","","","","","","",""
"","","","call-function","63","170331","0.0-63.0","51yo2pet","","","","","","","",""
"null","","","html-keyboard-response","64","171838","0.0-64.0","51yo2pet","","<span style=""color:Black; font-size:50px;"">Agent A","null","","","","",""
"null","","","video-keyboard-response","65","174919","0.0-65.0","51yo2pet","","","null","","Agent A","scrambled","STIM_SET_3/713788.bmp_pp52_L1_V2_veridical_freeview_isoFalsemismatch_1159768.bmp_L1_fps90.mp4",""
"null","","","html-keyboard-response","66","176427","0.0-66.0","51yo2pet","","<span style=""color:Black; font-size:50px;"">Agent B","null","","","","",""
"null","","","video-keyboard-response","67","179497","0.0-67.0","51yo2pet","","","null","","Agent B","veridical","STIM_SET_1_REAL/1159768.bmp_pp89_L1_V1.0_veridical_freeview_isoFalse_fps144.mp4",""
"","","","call-function","68","179498","0.0-68.0","51yo2pet","","","","","","","",""
"1607.0899999999965","{""judgement"":0}","[0]","survey-likert","69","181106","0.0-69.0","51yo2pet","","","","","","","","1"
"1754.8399999999965","{""confidence"":2}","[0]","survey-likert","70","182863","0.0-70.0","51yo2pet","","","","","","","",""
"","","","call-function","71","182864","0.0-71.0","51yo2pet","","","","","","","",""
"null","","","html-keyboard-response","72","184366","0.0-72.0","51yo2pet","","<span style=""color:Black; font-size:50px;"">Agent A","null","","","","",""
"null","","","video-keyboard-response","73","187443","0.0-73.0","51yo2pet","","","null","","Agent A","veridical","STIM_SET_1_REAL/713749.bmp_pp88_L2_V1.0_veridical_freeview_isoFalse_fps144.mp4",""
"null","","","html-keyboard-response","74","188949","0.0-74.0","51yo2pet","","<span style=""color:Black; font-size:50px;"">Agent B","null","","","","",""
"null","","","video-keyboard-response","75","192041","0.0-75.0","51yo2pet","","","null","","Agent B","scrambled","STIM_SET_3/713858.bmp_pp57_L1_V2_veridical_freeview_isoFalsemismatch_713749.bmp_L2_fps90.mp4",""
"","","","call-function","76","192042","0.0-76.0","51yo2pet","","","","","","","",""
"2483.7050000000163","{""judgement"":0}","[0]","survey-likert","77","194526","0.0-77.0","51yo2pet","","","","","","","","0"
"1212.039999999979","{""confidence"":2}","[0]","survey-likert","78","195740","0.0-78.0","51yo2pet","","","","","","","",""
"","","","call-function","79","195741","0.0-79.0","51yo2pet","","","","","","","",""
"null","","","html-keyboard-response","80","197242","0.0-80.0","51yo2pet","","<span style=""color:Black; font-size:50px;"">Agent A","null","","","","",""
"null","","","video-keyboard-response","81","200335","0.0-81.0","51yo2pet","","","null","","Agent A","veridical","STIM_SET_1_REAL/1592817.bmp_pp55_L3_V1.0_veridical_freeview_isoFalse_fps144.mp4",""
"null","","","html-keyboard-response","82","201841","0.0-82.0","51yo2pet","","<span style=""color:Black; font-size:50px;"">Agent B","null","","","","",""
"null","","","video-keyboard-response","83","204950","0.0-83.0","51yo2pet","","","null","","Agent B","scrambled","STIM_SET_3/1159329.bmp_pp61_L2_V2_veridical_freeview_isoFalsemismatch_1592817.bmp_L3_fps90.mp4",""
"","","","call-function","84","204951","0.0-84.0","51yo2pet","","","","","","","",""
"2129.345000000001","{""judgement"":0}","[0]","survey-likert","85","207081","0.0-85.0","51yo2pet","","","","","","","","0"
"1632.8699999999953","{""confidence"":1}","[0]","survey-likert","86","208716","0.0-86.0","51yo2pet","","","","","","","",""
"25873.51999999999","","","instructions","87","234590","0.0-87.0","51yo2pet","[{""page_index"":0,""viewing_time"":1925.6199999999953},{""page_index"":1,""viewing_time"":23235.954999999987},{""page_index"":2,""viewing_time"":711.7850000000035}]","","","","","","",""
"3031.290000000008","","","instructions","88","237622","0.0-88.0","51yo2pet","[{""page_index"":0,""viewing_time"":807.1000000000058},{""page_index"":1,""viewing_time"":1691.8999999999942},{""page_index"":2,""viewing_time"":532.1700000000128}]","","","","","","",""
"","","","call-function","89","237623","0.0-89.0","51yo2pet","","","","","","","",""
"null","","","html-keyboard-response","90","239130","0.0-90.0","51yo2pet","","<span style=""color:Black; font-size:50px;"">Agent A","null","","","","",""
"null","","","video-keyboard-response","91","242231","0.0-91.0","51yo2pet","","","null","","Agent A","scrambled","STIM_SET_3/498372.bmp_pp95_L2_V2_veridical_freeview_isoFalsemismatch_1160127.bmp_L2_fps90.mp4",""
"null","","","html-keyboard-response","92","243735","0.0-92.0","51yo2pet","","<span style=""color:Black; font-size:50px;"">Agent B","null","","","","",""
"null","","","video-keyboard-response","93","246813","0.0-93.0","51yo2pet","","","null","","Agent B","veridical","STIM_SET_1_REAL/1160127.bmp_pp90_L2_V1.0_veridical_freeview_isoFalse_fps144.mp4",""
"","","","call-function","94","246814","0.0-94.0","51yo2pet","","","","","","","",""
"3649.350000000006","{""judgement"":1}","[0]","survey-likert","95","250464","0.0-95.0","51yo2pet","","","","","","","","1"
"1411.6900000000023","{""confidence"":0}","[0]","survey-likert","96","251877","0.0-96.0","51yo2pet","","","","","","","",""
"","","","call-function","97","251878","0.0-97.0","51yo2pet","","","","","","","",""
"null","","","html-keyboard-response","98","253383","0.0-98.0","51yo2pet","","<span style=""color:Black; font-size:50px;"">Agent A","null","","","","",""
"null","","","video-keyboard-response","99","256471","0.0-99.0","51yo2pet","","","null","","Agent A","scrambled","STIM_SET_3/1159874.bmp_pp96_L2_V2_veridical_freeview_isoFalsemismatch_1159515.bmp_L3_fps90.mp4",""
"null","","","html-keyboard-response","100","257974","0.0-100.0","51yo2pet","","<span style=""color:Black; font-size:50px;"">Agent B","null","","","","",""
"null","","","video-keyboard-response","101","261047","0.0-101.0","51yo2pet","","","null","","Agent B","veridical","STIM_SET_1_REAL/1159515.bmp_pp84_L3_V1.0_veridical_freeview_isoFalse_fps144.mp4",""
"","","","call-function","102","261048","0.0-102.0","51yo2pet","","","","","","","",""
"1763.1399999999849","{""judgement"":0}","[0]","survey-likert","103","262812","0.0-103.0","51yo2pet","","","","","","","","1"
"1795.3050000000512","{""confidence"":2}","[0]","survey-likert","104","264609","0.0-104.0","51yo2pet","","","","","","","",""
"","","","call-function","105","264610","0.0-105.0","51yo2pet","","","","","","","",""
"null","","","html-keyboard-response","106","266111","0.0-106.0","51yo2pet","","<span style=""color:Black; font-size:50px;"">Agent A","null","","","","",""
"null","","","video-keyboard-response","107","269207","0.0-107.0","51yo2pet","","","null","","Agent A","veridical","STIM_SET_1_REAL/285933.bmp_pp81_L1_V1.0_veridical_freeview_isoFalse_fps144.mp4",""
"null","","","html-keyboard-response","108","270709","0.0-108.0","51yo2pet","","<span style=""color:Black; font-size:50px;"">Agent B","null","","","","",""
"null","","","video-keyboard-response","109","273825","0.0-109.0","51yo2pet","","","null","","Agent B","scrambled","STIM_SET_3/1159973.bmp_pp98_L1_V2_veridical_freeview_isoFalsemismatch_285933.bmp_L1_fps90.mp4",""
"","","","call-function","110","273826","0.0-110.0","51yo2pet","","","","","","","",""
"2763.8850000000093","{""judgement"":0}","[0]","survey-likert","111","276590","0.0-111.0","51yo2pet","","","","","","","","0"
"1198.5699999999488","{""confidence"":2}","[0]","survey-likert","112","277791","0.0-112.0","51yo2pet","","","","","","","",""
"","","","call-function","113","277792","0.0-113.0","51yo2pet","","","","","","","",""
"null","","","html-keyboard-response","114","279298","0.0-114.0","51yo2pet","","<span style=""color:Black; font-size:50px;"">Agent A","null","","","","",""
"null","","","video-keyboard-response","115","282386","0.0-115.0","51yo2pet","","","null","","Agent A","veridical","STIM_SET_1_REAL/713681.bmp_pp86_L2_V1.0_veridical_freeview_isoFalse_fps144.mp4",""
"null","","","html-keyboard-response","116","283889","0.0-116.0","51yo2pet","","<span style=""color:Black; font-size:50px;"">Agent B","null","","","","",""
"null","","","video-keyboard-response","117","287017","0.0-117.0","51yo2pet","","","null","","Agent B","scrambled","STIM_SET_3/498025.bmp_pp81_L1_V2_veridical_freeview_isoFalsemismatch_713681.bmp_L2_fps90.mp4",""
"","","","call-function","118","287018","0.0-118.0","51yo2pet","","","","","","","",""
"1461.7550000000047","{""judgement"":0}","[0]","survey-likert","119","288481","0.0-119.0","51yo2pet","","","","","","","","0"
"1565.530000000028","{""confidence"":3}","[0]","survey-likert","120","290048","0.0-120.0","51yo2pet","","","","","","","",""
"","","","call-function","121","290049","0.0-121.0","51yo2pet","","","","","","","",""
"null","","","html-keyboard-response","122","291555","0.0-122.0","51yo2pet","","<span style=""color:Black; font-size:50px;"">Agent A","null","","","","",""
"null","","","video-keyboard-response","123","294663","0.0-123.0","51yo2pet","","","null","","Agent A","scrambled","STIM_SET_3/1591975.bmp_pp88_L2_V2_veridical_freeview_isoFalsemismatch_713017.bmp_L2_fps90.mp4",""
"null","","","html-keyboard-response","124","296172","0.0-124.0","51yo2pet","","<span style=""color:Black; font-size:50px;"">Agent B","null","","","","",""
"null","","","video-keyboard-response","125","299260","0.0-125.0","51yo2pet","","","null","","Agent B","veridical","STIM_SET_1_REAL/713017.bmp_pp152_L2_V1.0_veridical_freeview_isoFalse_fps144.mp4",""
"","","","call-function","126","299261","0.0-126.0","51yo2pet","","","","","","","",""
"2765.4550000000163","{""judgement"":1}","[0]","survey-likert","127","302028","0.0-127.0","51yo2pet","","","","","","","","1"
"3261.1450000000186","{""confidence"":2}","[0]","survey-likert","128","305292","0.0-128.0","51yo2pet","","","","","","","",""
"","","","call-function","129","305294","0.0-129.0","51yo2pet","","","","","","","",""
"null","","","html-keyboard-response","130","306795","0.0-130.0","51yo2pet","","<span style=""color:Black; font-size:50px;"">Agent A","null","","","","",""
"null","","","video-keyboard-response","131","309880","0.0-131.0","51yo2pet","","","null","","Agent A","veridical","STIM_SET_1_REAL/713593.bmp_pp64_L1_V1.0_veridical_freeview_isoFalse_fps144.mp4",""
"null","","","html-keyboard-response","132","311384","0.0-132.0","51yo2pet","","<span style=""color:Black; font-size:50px;"">Agent B","null","","","","",""
"null","","","video-keyboard-response","133","314477","0.0-133.0","51yo2pet","","","null","","Agent B","scrambled","STIM_SET_3/1592747.bmp_pp53_L2_V2_veridical_freeview_isoFalsemismatch_713593.bmp_L1_fps90.mp4",""
"","","","call-function","134","314478","0.0-134.0","51yo2pet","","","","","","","",""
"2062.344999999972","{""judgement"":0}","[0]","survey-likert","135","316542","0.0-135.0","51yo2pet","","","","","","","","0"
"2028.2750000000233","{""confidence"":2}","[0]","survey-likert","136","318571","0.0-136.0","51yo2pet","","","","","","","",""
"","","","call-function","137","318573","0.0-137.0","51yo2pet","","","","","","","",""
"null","","","html-keyboard-response","138","320074","0.0-138.0","51yo2pet","","<span style=""color:Black; font-size:50px;"">Agent A","null","","","","",""
"null","","","video-keyboard-response","139","323151","0.0-139.0","51yo2pet","","","null","","Agent A","veridical","STIM_SET_1_REAL/713666.bmp_pp97_L3_V1.0_veridical_freeview_isoFalse_fps144.mp4",""
"null","","","html-keyboard-response","140","324654","0.0-140.0","51yo2pet","","<span style=""color:Black; font-size:50px;"">Agent B","null","","","","",""
"null","","","video-keyboard-response","141","327739","0.0-141.0","51yo2pet","","","null","","Agent B","scrambled","STIM_SET_3/1592289.bmp_pp92_L3_V2_veridical_freeview_isoFalsemismatch_713666.bmp_L3_fps90.mp4",""
"","","","call-function","142","327739","0.0-142.0","51yo2pet","","","","","","","",""
"2954.195000000007","{""judgement"":1}","[0]","survey-likert","143","330695","0.0-143.0","51yo2pet","","","","","","","","0"
"1409.3399999999674","{""confidence"":1}","[0]","survey-likert","144","332105","0.0-144.0","51yo2pet","","","","","","","",""
"","","","call-function","145","332106","0.0-145.0","51yo2pet","","","","","","","",""
"null","","","html-keyboard-response","146","333613","0.0-146.0","51yo2pet","","<span style=""color:Black; font-size:50px;"">Agent A","null","","","","",""
"null","","","video-keyboard-response","147","336716","0.0-147.0","51yo2pet","","","null","","Agent A","scrambled","STIM_SET_3/1591920.bmp_pp97_L3_V2_veridical_freeview_isoFalsemismatch_1592804.bmp_L3_fps90.mp4",""
"null","","","html-keyboard-response","148","338220","0.0-148.0","51yo2pet","","<span style=""color:Black; font-size:50px;"">Agent B","null","","","","",""
"null","","","video-keyboard-response","149","341324","0.0-149.0","51yo2pet","","","null","","Agent B","veridical","STIM_SET_1_REAL/1592804.bmp_pp91_L3_V1.0_veridical_freeview_isoFalse_fps144.mp4",""
"","","","call-function","150","341325","0.0-150.0","51yo2pet","","","","","","","",""
"1619.9599999999627","{""judgement"":0}","[0]","survey-likert","151","342946","0.0-151.0","51yo2pet","","","","","","","","1"
"1533.6300000000047","{""confidence"":0}","[0]","survey-likert","152","344481","0.0-152.0","51yo2pet","","","","","","","",""
"","","","call-function","153","344482","0.0-153.0","51yo2pet","","","","","","","",""
"null","","","html-keyboard-response","154","345984","0.0-154.0","51yo2pet","","<span style=""color:Black; font-size:50px;"">Agent A","null","","","","",""
"null","","","video-keyboard-response","155","349121","0.0-155.0","51yo2pet","","","null","","Agent A","scrambled","STIM_SET_3/285715.bmp_pp67_L2_V2_veridical_freeview_isoFalsemismatch_1159882.bmp_L2_fps90.mp4",""
"null","","","html-keyboard-response","156","350627","0.0-156.0","51yo2pet","","<span style=""color:Black; font-size:50px;"">Agent B","null","","","","",""
"null","","","video-keyboard-response","157","353718","0.0-157.0","51yo2pet","","","null","","Agent B","veridical","STIM_SET_1_REAL/1159882.bmp_pp61_L2_V1.0_veridical_freeview_isoFalse_fps144.mp4",""
"","","","call-function","158","353719","0.0-158.0","51yo2pet","","","","","","","",""
"3586.2000000000116","{""judgement"":0}","[0]","survey-likert","159","357306","0.0-159.0","51yo2pet","","","","","","","","1"
"1779.570000000007","{""confidence"":0}","[0]","survey-likert","160","359087","0.0-160.0","51yo2pet","","","","","","","",""
"","","","call-function","161","359088","0.0-161.0","51yo2pet","","","","","","","",""
"null","","","html-keyboard-response","162","360590","0.0-162.0","51yo2pet","","<span style=""color:Black; font-size:50px;"">Agent A","null","","","","",""
"null","","","video-keyboard-response","163","363680","0.0-163.0","51yo2pet","","","null","","Agent A","veridical","STIM_SET_1_REAL/713089.bmp_pp60_L3_V1.0_veridical_freeview_isoFalse_fps144.mp4",""
"null","","","html-keyboard-response","164","365187","0.0-164.0","51yo2pet","","<span style=""color:Black; font-size:50px;"">Agent B","null","","","","",""
"null","","","video-keyboard-response","165","368301","0.0-165.0","51yo2pet","","","null","","Agent B","scrambled","STIM_SET_3/1592201.bmp_pp97_L3_V2_veridical_freeview_isoFalsemismatch_713089.bmp_L3_fps90.mp4",""
"","","","call-function","166","368302","0.0-166.0","51yo2pet","","","","","","","",""
"2768.1450000000186","{""judgement"":1}","[0]","survey-likert","167","371071","0.0-167.0","51yo2pet","","","","","","","","0"
"1155.524999999965","{""confidence"":1}","[0]","survey-likert","168","372228","0.0-168.0","51yo2pet","","","","","","","",""
"10035.5","","","instructions","169","382265","0.0-169.0","51yo2pet","[{""page_index"":0,""viewing_time"":9098.255000000005},{""page_index"":1,""viewing_time"":531.7399999999907},{""page_index"":2,""viewing_time"":405.25500000000466}]","","","","","","",""
"2527.6149999999907","","","instructions","170","384793","0.0-170.0","51yo2pet","[{""page_index"":0,""viewing_time"":469.375},{""page_index"":1,""viewing_time"":1510.2449999999953},{""page_index"":2,""viewing_time"":547.890000000014}]","","","","","","",""
"","","","call-function","171","384794","0.0-171.0","51yo2pet","","","","","","","",""
"null","","","html-keyboard-response","172","386296","0.0-172.0","51yo2pet","","<span style=""color:Black; font-size:50px;"">Agent A","null","","","","",""
"null","","","video-keyboard-response","173","389370","0.0-173.0","51yo2pet","","","null","","Agent A","veridical","STIM_SET_1_REAL/713513.bmp_pp62_L2_V1.0_veridical_freeview_isoFalse_fps144.mp4",""
"null","","","html-keyboard-response","174","390877","0.0-174.0","51yo2pet","","<span style=""color:Black; font-size:50px;"">Agent B","null","","","","",""
"null","","","video-keyboard-response","175","393973","0.0-175.0","51yo2pet","","","null","","Agent B","scrambled","STIM_SET_3/1592047.bmp_pp51_L1_V2_veridical_freeview_isoFalsemismatch_713513.bmp_L2_fps90.mp4",""
"","","","call-function","176","393974","0.0-176.0","51yo2pet","","","","","","","",""
"4719.619999999995","{""judgement"":0}","[0]","survey-likert","177","398694","0.0-177.0","51yo2pet","","","","","","","","0"
"3189.554999999993","{""confidence"":1}","[0]","survey-likert","178","401886","0.0-178.0","51yo2pet","","","","","","","",""
"","","","call-function","179","401887","0.0-179.0","51yo2pet","","","","","","","",""
"null","","","html-keyboard-response","180","403388","0.0-180.0","51yo2pet","","<span style=""color:Black; font-size:50px;"">Agent A","null","","","","",""
"null","","","video-keyboard-response","181","406466","0.0-181.0","51yo2pet","","","null","","Agent A","veridical","STIM_SET_1_REAL/498175.bmp_pp154_L1_V1.0_veridical_freeview_isoFalse_fps144.mp4",""
"null","","","html-keyboard-response","182","407972","0.0-182.0","51yo2pet","","<span style=""color:Black; font-size:50px;"">Agent B","null","","","","",""
"null","","","video-keyboard-response","183","411067","0.0-183.0","51yo2pet","","","null","","Agent B","scrambled","STIM_SET_3/713689.bmp_pp153_L3_V2_veridical_freeview_isoFalsemismatch_498175.bmp_L1_fps90.mp4",""
"","","","call-function","184","411069","0.0-184.0","51yo2pet","","","","","","","",""
"1639.350000000035","{""judgement"":0}","[0]","survey-likert","185","412710","0.0-185.0","51yo2pet","","","","","","","","0"
"935.710000000021","{""confidence"":1}","[0]","survey-likert","186","413648","0.0-186.0","51yo2pet","","","","","","","",""
"","","","call-function","187","413649","0.0-187.0","51yo2pet","","","","","","","",""
"null","","","html-keyboard-response","188","415152","0.0-188.0","51yo2pet","","<span style=""color:Black; font-size:50px;"">Agent A","null","","","","",""
"null","","","video-keyboard-response","189","418227","0.0-189.0","51yo2pet","","","null","","Agent A","veridical","STIM_SET_1_REAL/1159855.bmp_pp99_L2_V1.0_veridical_freeview_isoFalse_fps144.mp4",""
"null","","","html-keyboard-response","190","419735","0.0-190.0","51yo2pet","","<span style=""color:Black; font-size:50px;"">Agent B","null","","","","",""
"null","","","video-keyboard-response","191","422820","0.0-191.0","51yo2pet","","","null","","Agent B","scrambled","STIM_SET_3/285932.bmp_pp64_L1_V2_veridical_freeview_isoFalsemismatch_1159855.bmp_L2_fps90.mp4",""
"","","","call-function","192","422821","0.0-192.0","51yo2pet","","","","","","","",""
"2236.4599999999627","{""judgement"":1}","[0]","survey-likert","193","425059","0.0-193.0","51yo2pet","","","","","","","","0"
"1015.2849999999744","{""confidence"":1}","[0]","survey-likert","194","426076","0.0-194.0","51yo2pet","","","","","","","",""
"","","","call-function","195","426077","0.0-195.0","51yo2pet","","","","","","","",""
"null","","","html-keyboard-response","196","427580","0.0-196.0","51yo2pet","","<span style=""color:Black; font-size:50px;"">Agent A","null","","","","",""
"null","","","video-keyboard-response","197","430647","0.0-197.0","51yo2pet","","","null","","Agent A","veridical","STIM_SET_1_REAL/713135.bmp_pp54_L2_V1.0_veridical_freeview_isoFalse_fps144.mp4",""
"null","","","html-keyboard-response","198","432152","0.0-198.0","51yo2pet","","<span style=""color:Black; font-size:50px;"">Agent B","null","","","","",""
"null","","","video-keyboard-response","199","435273","0.0-199.0","51yo2pet","","","null","","Agent B","scrambled","STIM_SET_3/1592567.bmp_pp70_L2_V2_veridical_freeview_isoFalsemismatch_713135.bmp_L2_fps90.mp4",""
"","","","call-function","200","435274","0.0-200.0","51yo2pet","","","","","","","",""
"1984.7799999999697","{""judgement"":0}","[0]","survey-likert","201","437260","0.0-201.0","51yo2pet","","","","","","","","0"
"1012.875","{""confidence"":0}","[0]","survey-likert","202","438274","0.0-202.0","51yo2pet","","","","","","","",""
"","","","call-function","203","438276","0.0-203.0","51yo2pet","","","","","","","",""
"null","","","html-keyboard-response","204","439778","0.0-204.0","51yo2pet","","<span style=""color:Black; font-size:50px;"">Agent A","null","","","","",""
"null","","","video-keyboard-response","205","442871","0.0-205.0","51yo2pet","","","null","","Agent A","veridical","STIM_SET_1_REAL/497950.bmp_pp151_L1_V1.0_veridical_freeview_isoFalse_fps144.mp4",""
"null","","","html-keyboard-response","206","444378","0.0-206.0","51yo2pet","","<span style=""color:Black; font-size:50px;"">Agent B","null","","","","",""
"null","","","video-keyboard-response","207","447513","0.0-207.0","51yo2pet","","","null","","Agent B","scrambled","STIM_SET_3/713274.bmp_pp73_L3_V2_veridical_freeview_isoFalsemismatch_497950.bmp_L1_fps90.mp4",""
"","","","call-function","208","447514","0.0-208.0","51yo2pet","","","","","","","",""
"9487.179999999993","{""judgement"":0}","[0]","survey-likert","209","457002","0.0-209.0","51yo2pet","","","","","","","","0"
"3617.7150000000256","{""confidence"":1}","[0]","survey-likert","210","460621","0.0-210.0","51yo2pet","","","","","","","",""
"","","","call-function","211","460622","0.0-211.0","51yo2pet","","","","","","","",""
"null","","","html-keyboard-response","212","462123","0.0-212.0","51yo2pet","","<span style=""color:Black; font-size:50px;"">Agent A","null","","","","",""
"null","","","video-keyboard-response","213","465238","0.0-213.0","51yo2pet","","","null","","Agent A","scrambled","STIM_SET_3/713652.bmp_pp89_L1_V2_veridical_freeview_isoFalsemismatch_1592807.bmp_L1_fps90.mp4",""
"null","","","html-keyboard-response","214","466741","0.0-214.0","51yo2pet","","<span style=""color:Black; font-size:50px;"">Agent B","null","","","","",""
"null","","","video-keyboard-response","215","469850","0.0-215.0","51yo2pet","","","null","","Agent B","veridical","STIM_SET_1_REAL/1592807.bmp_pp68_L1_V1.0_veridical_freeview_isoFalse_fps144.mp4",""
"","","","call-function","216","469851","0.0-216.0","51yo2pet","","","","","","","",""
"1984.960000000021","{""judgement"":1}","[0]","survey-likert","217","471837","0.0-217.0","51yo2pet","","","","","","","","1"
"1175.5650000000023","{""confidence"":1}","[0]","survey-likert","218","473014","0.0-218.0","51yo2pet","","","","","","","",""
"","","","call-function","219","473015","0.0-219.0","51yo2pet","","","","","","","",""
"null","","","html-keyboard-response","220","474517","0.0-220.0","51yo2pet","","<span style=""color:Black; font-size:50px;"">Agent A","null","","","","",""
"null","","","video-keyboard-response","221","477634","0.0-221.0","51yo2pet","","","null","","Agent A","scrambled","STIM_SET_3/1592168.bmp_pp71_L1_V2_veridical_freeview_isoFalsemismatch_1592890.bmp_L2_fps90.mp4",""
"null","","","html-keyboard-response","222","479138","0.0-222.0","51yo2pet","","<span style=""color:Black; font-size:50px;"">Agent B","null","","","","",""
"null","","","video-keyboard-response","223","482201","0.0-223.0","51yo2pet","","","null","","Agent B","veridical","STIM_SET_1_REAL/1592890.bmp_pp82_L2_V1.0_veridical_freeview_isoFalse_fps144.mp4",""
"","","","call-function","224","482202","0.0-224.0","51yo2pet","","","","","","","",""
"2071.054999999993","{""judgement"":0}","[0]","survey-likert","225","484274","0.0-225.0","51yo2pet","","","","","","","","1"
"1923.7550000000047","{""confidence"":0}","[0]","survey-likert","226","486199","0.0-226.0","51yo2pet","","","","","","","",""
"","","","call-function","227","486200","0.0-227.0","51yo2pet","","","","","","","",""
"null","","","html-keyboard-response","228","487705","0.0-228.0","51yo2pet","","<span style=""color:Black; font-size:50px;"">Agent A","null","","","","",""
"null","","","video-keyboard-response","229","490770","0.0-229.0","51yo2pet","","","null","","Agent A","veridical","STIM_SET_1_REAL/1159572.bmp_pp71_L1_V1.0_veridical_freeview_isoFalse_fps144.mp4",""
"null","","","html-keyboard-response","230","492274","0.0-230.0","51yo2pet","","<span style=""color:Black; font-size:50px;"">Agent B","null","","","","",""
"null","","","video-keyboard-response","231","495368","0.0-231.0","51yo2pet","","","null","","Agent B","scrambled","STIM_SET_3/713381.bmp_pp82_L2_V2_veridical_freeview_isoFalsemismatch_1159572.bmp_L1_fps90.mp4",""
"","","","call-function","232","495369","0.0-232.0","51yo2pet","","","","","","","",""
"1861.3300000000163","{""judgement"":0}","[0]","survey-likert","233","497231","0.0-233.0","51yo2pet","","","","","","","","0"
"2841.8699999999953","{""confidence"":1}","[0]","survey-likert","234","500074","0.0-234.0","51yo2pet","","","","","","","",""
"","","","call-function","235","500075","0.0-235.0","51yo2pet","","","","","","","",""
"null","","","html-keyboard-response","236","501579","0.0-236.0","51yo2pet","","<span style=""color:Black; font-size:50px;"">Agent A","null","","","","",""
"null","","","video-keyboard-response","237","504690","0.0-237.0","51yo2pet","","","null","","Agent A","scrambled","STIM_SET_3/107955.bmp_pp90_L2_V2_veridical_freeview_isoFalsemismatch_498149.bmp_L2_fps90.mp4",""
"null","","","html-keyboard-response","238","506197","0.0-238.0","51yo2pet","","<span style=""color:Black; font-size:50px;"">Agent B","null","","","","",""
"null","","","video-keyboard-response","239","509288","0.0-239.0","51yo2pet","","","null","","Agent B","veridical","STIM_SET_1_REAL/498149.bmp_pp99_L2_V1.0_veridical_freeview_isoFalse_fps144.mp4",""
"","","","call-function","240","509290","0.0-240.0","51yo2pet","","","","","","","",""
"1899.134999999951","{""judgement"":1}","[0]","survey-likert","241","511191","0.0-241.0","51yo2pet","","","","","","","","1"
"1390.329999999958","{""confidence"":1}","[0]","survey-likert","242","512583","0.0-242.0","51yo2pet","","","","","","","",""
"","","","call-function","243","512584","0.0-243.0","51yo2pet","","","","","","","",""
"null","","","html-keyboard-response","244","514087","0.0-244.0","51yo2pet","","<span style=""color:Black; font-size:50px;"">Agent A","null","","","","",""
"null","","","video-keyboard-response","245","517168","0.0-245.0","51yo2pet","","","null","","Agent A","scrambled","STIM_SET_3/286034.bmp_pp69_L3_V2_veridical_freeview_isoFalsemismatch_713403.bmp_L3_fps90.mp4",""
"null","","","html-keyboard-response","246","518673","0.0-246.0","51yo2pet","","<span style=""color:Black; font-size:50px;"">Agent B","null","","","","",""
"null","","","video-keyboard-response","247","521736","0.0-247.0","51yo2pet","","","null","","Agent B","veridical","STIM_SET_1_REAL/713403.bmp_pp80_L3_V1.0_veridical_freeview_isoFalse_fps144.mp4",""
"","","","call-function","248","521737","0.0-248.0","51yo2pet","","","","","","","",""
"1304.1149999999907","{""judgement"":1}","[0]","survey-likert","249","523042","0.0-249.0","51yo2pet","","","","","","","","1"
"757.1699999999837","{""confidence"":2}","[0]","survey-likert","250","523802","0.0-250.0","51yo2pet","","","","","","","",""
"15886.479999999981","","","instructions","251","539689","0.0-251.0","51yo2pet","[{""page_index"":0,""viewing_time"":15192.540000000037},{""page_index"":1,""viewing_time"":154.02500000002328},{""page_index"":2,""viewing_time"":539.7550000000047}]","","","","","","",""
"2053.9599999999627","","","instructions","252","541744","0.0-252.0","51yo2pet","[{""page_index"":0,""viewing_time"":466.85999999998603},{""page_index"":1,""viewing_time"":963.9299999999348},{""page_index"":2,""viewing_time"":623.0600000000559}]","","","","","","",""
"","","","call-function","253","541745","0.0-253.0","51yo2pet","","","","","","","",""
"null","","","html-keyboard-response","254","543248","0.0-254.0","51yo2pet","","<span style=""color:Black; font-size:50px;"">Agent A","null","","","","",""
"null","","","video-keyboard-response","255","546313","0.0-255.0","51yo2pet","","","null","","Agent A","veridical","STIM_SET_1_REAL/285994.bmp_pp92_L3_V1.0_veridical_freeview_isoFalse_fps144.mp4",""
"null","","","html-keyboard-response","256","547820","0.0-256.0","51yo2pet","","<span style=""color:Black; font-size:50px;"">Agent B","null","","","","",""
"null","","","video-keyboard-response","257","550914","0.0-257.0","51yo2pet","","","null","","Agent B","scrambled","STIM_SET_3/1159592.bmp_pp91_L3_V2_veridical_freeview_isoFalsemismatch_285994.bmp_L3_fps90.mp4",""
"","","","call-function","258","550915","0.0-258.0","51yo2pet","","","","","","","",""
"2730.189999999944","{""judgement"":0}","[0]","survey-likert","259","553646","0.0-259.0","51yo2pet","","","","","","","","0"
"1515.4749999999767","{""confidence"":1}","[0]","survey-likert","260","555163","0.0-260.0","51yo2pet","","","","","","","",""
"","","","call-function","261","555164","0.0-261.0","51yo2pet","","","","","","","",""
"null","","","html-keyboard-response","262","556667","0.0-262.0","51yo2pet","","<span style=""color:Black; font-size:50px;"">Agent A","null","","","","",""
"null","","","video-keyboard-response","263","559772","0.0-263.0","51yo2pet","","","null","","Agent A","veridical","STIM_SET_1_REAL/1159777.bmp_pp77_L3_V1.0_veridical_freeview_isoFalse_fps144.mp4",""
"null","","","html-keyboard-response","264","561276","0.0-264.0","51yo2pet","","<span style=""color:Black; font-size:50px;"">Agent B","null","","","","",""
"null","","","video-keyboard-response","265","564405","0.0-265.0","51yo2pet","","","null","","Agent B","scrambled","STIM_SET_3/1592017.bmp_pp154_L1_V2_veridical_freeview_isoFalsemismatch_1159777.bmp_L3_fps90.mp4",""
"","","","call-function","266","564406","0.0-266.0","51yo2pet","","","","","","","",""
"2391.0950000000885","{""judgement"":0}","[0]","survey-likert","267","566798","0.0-267.0","51yo2pet","","","","","","","","0"
"5019.360000000102","{""confidence"":2}","[0]","survey-likert","268","571820","0.0-268.0","51yo2pet","","","","","","","",""
"","","","call-function","269","571821","0.0-269.0","51yo2pet","","","","","","","",""
"null","","","html-keyboard-response","270","573325","0.0-270.0","51yo2pet","","<span style=""color:Black; font-size:50px;"">Agent A","null","","","","",""
"null","","","video-keyboard-response","271","576442","0.0-271.0","51yo2pet","","","null","","Agent A","scrambled","STIM_SET_3/713829.bmp_pp60_L3_V2_veridical_freeview_isoFalsemismatch_1159440.bmp_L1_fps90.mp4",""
"null","","","html-keyboard-response","272","577949","0.0-272.0","51yo2pet","","<span style=""color:Black; font-size:50px;"">Agent B","null","","","","",""
"null","","","video-keyboard-response","273","581019","0.0-273.0","51yo2pet","","","null","","Agent B","veridical","STIM_SET_1_REAL/1159440.bmp_pp98_L1_V1.0_veridical_freeview_isoFalse_fps144.mp4",""
"","","","call-function","274","581020","0.0-274.0","51yo2pet","","","","","","","",""
"1643.594999999972","{""judgement"":1}","[0]","survey-likert","275","582665","0.0-275.0","51yo2pet","","","","","","","","1"
"1454.5550000000512","{""confidence"":2}","[0]","survey-likert","276","584121","0.0-276.0","51yo2pet","","","","","","","",""
"","","","call-function","277","584122","0.0-277.0","51yo2pet","","","","","","","",""
"null","","","html-keyboard-response","278","585624","0.0-278.0","51yo2pet","","<span style=""color:Black; font-size:50px;"">Agent A","null","","","","",""
"null","","","video-keyboard-response","279","588718","0.0-279.0","51yo2pet","","","null","","Agent A","scrambled","STIM_SET_3/1160204.bmp_pp54_L2_V2_veridical_freeview_isoFalsemismatch_286001.bmp_L2_fps90.mp4",""
"null","","","html-keyboard-response","280","590221","0.0-280.0","51yo2pet","","<span style=""color:Black; font-size:50px;"">Agent B","null","","","","",""
"null","","","video-keyboard-response","281","593308","0.0-281.0","51yo2pet","","","null","","Agent B","veridical","STIM_SET_1_REAL/286001.bmp_pp54_L2_V1.0_veridical_freeview_isoFalse_fps144.mp4",""
"","","","call-function","282","593309","0.0-282.0","51yo2pet","","","","","","","",""
"3903.085000000079","{""judgement"":0}","[0]","survey-likert","283","597213","0.0-283.0","51yo2pet","","","","","","","","1"
"1724.8199999999488","{""confidence"":0}","[0]","survey-likert","284","598939","0.0-284.0","51yo2pet","","","","","","","",""
"","","","call-function","285","598940","0.0-285.0","51yo2pet","","","","","","","",""
"null","","","html-keyboard-response","286","600446","0.0-286.0","51yo2pet","","<span style=""color:Black; font-size:50px;"">Agent A","null","","","","",""
"null","","","video-keyboard-response","287","603551","0.0-287.0","51yo2pet","","","null","","Agent A","veridical","STIM_SET_1_REAL/498111.bmp_pp88_L2_V1.0_veridical_freeview_isoFalse_fps144.mp4",""
"null","","","html-keyboard-response","288","605053","0.0-288.0","51yo2pet","","<span style=""color:Black; font-size:50px;"">Agent B","null","","","","",""
"null","","","video-keyboard-response","289","608182","0.0-289.0","51yo2pet","","","null","","Agent B","scrambled","STIM_SET_3/1592350.bmp_pp55_L3_V2_veridical_freeview_isoFalsemismatch_498111.bmp_L2_fps90.mp4",""
"","","","call-function","290","608183","0.0-290.0","51yo2pet","","","","","","","",""
"3036.6900000000605","{""judgement"":0}","[0]","survey-likert","291","611221","0.0-291.0","51yo2pet","","","","","","","","0"
"958.0450000000419","{""confidence"":1}","[0]","survey-likert","292","612180","0.0-292.0","51yo2pet","","","","","","","",""
"","","","call-function","293","612181","0.0-293.0","51yo2pet","","","","","","","",""
"null","","","html-keyboard-response","294","613683","0.0-294.0","51yo2pet","","<span style=""color:Black; font-size:50px;"">Agent A","null","","","","",""
"null","","","video-keyboard-response","295","616753","0.0-295.0","51yo2pet","","","null","","Agent A","veridical","STIM_SET_1_REAL/1592286.bmp_pp52_L1_V1.0_veridical_freeview_isoFalse_fps144.mp4",""
"null","","","html-keyboard-response","296","618257","0.0-296.0","51yo2pet","","<span style=""color:Black; font-size:50px;"">Agent B","null","","","","",""
"null","","","video-keyboard-response","297","621336","0.0-297.0","51yo2pet","","","null","","Agent B","scrambled","STIM_SET_3/498326.bmp_pp57_L1_V2_veridical_freeview_isoFalsemismatch_1592286.bmp_L1_fps90.mp4",""
"","","","call-function","298","621338","0.0-298.0","51yo2pet","","","","","","","",""
"1610.4150000000373","{""judgement"":1}","[0]","survey-likert","299","622950","0.0-299.0","51yo2pet","","","","","","","","0"
"1394.9599999999627","{""confidence"":2}","[0]","survey-likert","300","624348","0.0-300.0","51yo2pet","","","","","","","",""
"","","","call-function","301","624350","0.0-301.0","51yo2pet","","","","","","","",""
"null","","","html-keyboard-response","302","625853","0.0-302.0","51yo2pet","","<span style=""color:Black; font-size:50px;"">Agent A","null","","","","",""
"null","","","video-keyboard-response","303","628938","0.0-303.0","51yo2pet","","","null","","Agent A","scrambled","STIM_SET_3/150277.bmp_pp65_L3_V2_veridical_freeview_isoFalsemismatch_1592362.bmp_L2_fps90.mp4",""
"null","","","html-keyboard-response","304","630441","0.0-304.0","51yo2pet","","<span style=""color:Black; font-size:50px;"">Agent B","null","","","","",""
"null","","","video-keyboard-response","305","633510","0.0-305.0","51yo2pet","","","null","","Agent B","veridical","STIM_SET_1_REAL/1592362.bmp_pp95_L2_V1.0_veridical_freeview_isoFalse_fps144.mp4",""
"","","","call-function","306","633511","0.0-306.0","51yo2pet","","","","","","","",""
"3720.234999999986","{""judgement"":0}","[0]","survey-likert","307","637232","0.0-307.0","51yo2pet","","","","","","","","1"
"1612.579999999958","{""confidence"":1}","[0]","survey-likert","308","638846","0.0-308.0","51yo2pet","","","","","","","",""
"","","","call-function","309","638847","0.0-309.0","51yo2pet","","","","","","","",""
"null","","","html-keyboard-response","310","640348","0.0-310.0","51yo2pet","","<span style=""color:Black; font-size:50px;"">Agent A","null","","","","",""
"null","","","video-keyboard-response","311","643425","0.0-311.0","51yo2pet","","","null","","Agent A","veridical","STIM_SET_1_REAL/285751.bmp_pp55_L3_V1.0_veridical_freeview_isoFalse_fps144.mp4",""
"null","","","html-keyboard-response","312","644929","0.0-312.0","51yo2pet","","<span style=""color:Black; font-size:50px;"">Agent B","null","","","","",""
"null","","","video-keyboard-response","313","648030","0.0-313.0","51yo2pet","","","null","","Agent B","scrambled","STIM_SET_3/285946.bmp_pp79_L2_V2_veridical_freeview_isoFalsemismatch_285751.bmp_L3_fps90.mp4",""
"","","","call-function","314","648031","0.0-314.0","51yo2pet","","","","","","","",""
"1633.515000000014","{""judgement"":0}","[0]","survey-likert","315","649665","0.0-315.0","51yo2pet","","","","","","","","0"
"949.3800000000047","{""confidence"":1}","[0]","survey-likert","316","650617","0.0-316.0","51yo2pet","","","","","","","",""
"","","","call-function","317","650617","0.0-317.0","51yo2pet","","","","","","","",""
"null","","","html-keyboard-response","318","652120","0.0-318.0","51yo2pet","","<span style=""color:Black; font-size:50px;"">Agent A","null","","","","",""
"null","","","video-keyboard-response","319","655210","0.0-319.0","51yo2pet","","","null","","Agent A","veridical","STIM_SET_1_REAL/1592619.bmp_pp56_L3_V1.0_veridical_freeview_isoFalse_fps144.mp4",""
"null","","","html-keyboard-response","320","656715","0.0-320.0","51yo2pet","","<span style=""color:Black; font-size:50px;"">Agent B","null","","","","",""
"null","","","video-keyboard-response","321","659821","0.0-321.0","51yo2pet","","","null","","Agent B","scrambled","STIM_SET_3/150463.bmp_pp55_L3_V2_veridical_freeview_isoFalsemismatch_1592619.bmp_L3_fps90.mp4",""
"","","","call-function","322","659822","0.0-322.0","51yo2pet","","","","","","","",""
"1847.6750000000466","{""judgement"":1}","[0]","survey-likert","323","661670","0.0-323.0","51yo2pet","","","","","","","","0"
"1923.8800000000047","{""confidence"":2}","[0]","survey-likert","324","663596","0.0-324.0","51yo2pet","","","","","","","",""
"","","","call-function","325","663597","0.0-325.0","51yo2pet","","","","","","","",""
"null","","","html-keyboard-response","326","665099","0.0-326.0","51yo2pet","","<span style=""color:Black; font-size:50px;"">Agent A","null","","","","",""
"null","","","video-keyboard-response","327","668204","0.0-327.0","51yo2pet","","","null","","Agent A","veridical","STIM_SET_1_REAL/1160168.bmp_pp53_L2_V1.0_veridical_freeview_isoFalse_fps144.mp4",""
"null","","","html-keyboard-response","328","669707","0.0-328.0","51yo2pet","","<span style=""color:Black; font-size:50px;"">Agent B","null","","","","",""
"null","","","video-keyboard-response","329","672815","0.0-329.0","51yo2pet","","","null","","Agent B","scrambled","STIM_SET_3/1592857.bmp_pp52_L1_V2_veridical_freeview_isoFalsemismatch_1160168.bmp_L2_fps90.mp4",""
"","","","call-function","330","672816","0.0-330.0","51yo2pet","","","","","","","",""
"1430.8949999999022","{""judgement"":0}","[0]","survey-likert","331","674247","0.0-331.0","51yo2pet","","","","","","","","0"
"1054.795000000042","{""confidence"":2}","[0]","survey-likert","332","675304","0.0-332.0","51yo2pet","","","","","","","",""
"21089.639999999898","","","instructions","333","696395","0.0-333.0","51yo2pet","[{""page_index"":0,""viewing_time"":1806.2749999999069},{""page_index"":1,""viewing_time"":18522.09500000009},{""page_index"":2,""viewing_time"":761.0899999999674}]","","","","","","",""
"2219.9199999999255","","","instructions","334","698615","0.0-334.0","51yo2pet","[{""page_index"":0,""viewing_time"":518.8549999999814},{""page_index"":1,""viewing_time"":1134.655000000028},{""page_index"":2,""viewing_time"":566.2999999999302}]","","","","","","",""
"","","","call-function","335","698616","0.0-335.0","51yo2pet","","","","","","","",""
"null","","","html-keyboard-response","336","700117","0.0-336.0","51yo2pet","","<span style=""color:Black; font-size:50px;"">Agent A","null","","","","",""
"null","","","video-keyboard-response","337","703185","0.0-337.0","51yo2pet","","","null","","Agent A","veridical","STIM_SET_1_REAL/1592934.bmp_pp63_L1_V1.0_veridical_freeview_isoFalse_fps144.mp4",""
"null","","","html-keyboard-response","338","704687","0.0-338.0","51yo2pet","","<span style=""color:Black; font-size:50px;"">Agent B","null","","","","",""
"null","","","video-keyboard-response","339","707763","0.0-339.0","51yo2pet","","","null","","Agent B","scrambled","STIM_SET_3/1159392.bmp_pp96_L2_V2_veridical_freeview_isoFalsemismatch_1592934.bmp_L1_fps90.mp4",""
"","","","call-function","340","707764","0.0-340.0","51yo2pet","","","","","","","",""
"2141.9550000000745","{""judgement"":0}","[0]","survey-likert","341","709907","0.0-341.0","51yo2pet","","","","","","","","0"
"1490.8549999999814","{""confidence"":0}","[0]","survey-likert","342","711399","0.0-342.0","51yo2pet","","","","","","","",""
"","","","call-function","343","711400","0.0-343.0","51yo2pet","","","","","","","",""
"null","","","html-keyboard-response","344","712901","0.0-344.0","51yo2pet","","<span style=""color:Black; font-size:50px;"">Agent A","null","","","","",""
"null","","","video-keyboard-response","345","715981","0.0-345.0","51yo2pet","","","null","","Agent A","veridical","STIM_SET_1_REAL/1159784.bmp_pp73_L3_V1.0_veridical_freeview_isoFalse_fps144.mp4",""
"null","","","html-keyboard-response","346","717484","0.0-346.0","51yo2pet","","<span style=""color:Black; font-size:50px;"">Agent B","null","","","","",""
"null","","","video-keyboard-response","347","720598","0.0-347.0","51yo2pet","","","null","","Agent B","scrambled","STIM_SET_3/61513.bmp_pp75_L1_V2_veridical_freeview_isoFalsemismatch_1159784.bmp_L3_fps90.mp4",""
"","","","call-function","348","720599","0.0-348.0","51yo2pet","","","","","","","",""
"1252.0199999999022","{""judgement"":0}","[0]","survey-likert","349","721852","0.0-349.0","51yo2pet","","","","","","","","0"
"3934.469999999972","{""confidence"":3}","[0]","survey-likert","350","725788","0.0-350.0","51yo2pet","","","","","","","",""
"","","","call-function","351","725789","0.0-351.0","51yo2pet","","","","","","","",""
"null","","","html-keyboard-response","352","727294","0.0-352.0","51yo2pet","","<span style=""color:Black; font-size:50px;"">Agent A","null","","","","",""
"null","","","video-keyboard-response","353","730401","0.0-353.0","51yo2pet","","","null","","Agent A","scrambled","STIM_SET_3/1159325.bmp_pp67_L2_V2_veridical_freeview_isoFalsemismatch_1593035.bmp_L2_fps90.mp4",""
"null","","","html-keyboard-response","354","731904","0.0-354.0","51yo2pet","","<span style=""color:Black; font-size:50px;"">Agent B","null","","","","",""
"null","","","video-keyboard-response","355","734996","0.0-355.0","51yo2pet","","","null","","Agent B","veridical","STIM_SET_1_REAL/1593035.bmp_pp94_L2_V1.0_veridical_freeview_isoFalse_fps144.mp4",""
"","","","call-function","356","734997","0.0-356.0","51yo2pet","","","","","","","",""
"2550.3800000000047","{""judgement"":1}","[0]","survey-likert","357","737549","0.0-357.0","51yo2pet","","","","","","","","1"
"2300.094999999972","{""confidence"":1}","[0]","survey-likert","358","739850","0.0-358.0","51yo2pet","","","","","","","",""
"","","","call-function","359","739851","0.0-359.0","51yo2pet","","","","","","","",""
"null","","","html-keyboard-response","360","741355","0.0-360.0","51yo2pet","","<span style=""color:Black; font-size:50px;"">Agent A","null","","","","",""
"null","","","video-keyboard-response","361","744492","0.0-361.0","51yo2pet","","","null","","Agent A","scrambled","STIM_SET_3/713920.bmp_pp76_L1_V2_veridical_freeview_isoFalsemismatch_713684.bmp_L3_fps90.mp4",""
"null","","","html-keyboard-response","362","745997","0.0-362.0","51yo2pet","","<span style=""color:Black; font-size:50px;"">Agent B","null","","","","",""
"null","","","video-keyboard-response","363","749102","0.0-363.0","51yo2pet","","","null","","Agent B","veridical","STIM_SET_1_REAL/713684.bmp_pp85_L3_V1.0_veridical_freeview_isoFalse_fps144.mp4",""
"","","","call-function","364","749104","0.0-364.0","51yo2pet","","","","","","","",""
"1915.6900000000605","{""judgement"":1}","[0]","survey-likert","365","751021","0.0-365.0","51yo2pet","","","","","","","","1"
"1473.4199999999255","{""confidence"":1}","[0]","survey-likert","366","752497","0.0-366.0","51yo2pet","","","","","","","",""
"","","","call-function","367","752498","0.0-367.0","51yo2pet","","","","","","","",""
"null","","","html-keyboard-response","368","753999","0.0-368.0","51yo2pet","","<span style=""color:Black; font-size:50px;"">Agent A","null","","","","",""
"null","","","video-keyboard-response","369","757073","0.0-369.0","51yo2pet","","","null","","Agent A","veridical","STIM_SET_1_REAL/1592581.bmp_pp100_L3_V1.0_veridical_freeview_isoFalse_fps144.mp4",""
"null","","","html-keyboard-response","370","758577","0.0-370.0","51yo2pet","","<span style=""color:Black; font-size:50px;"">Agent B","null","","","","",""
"null","","","video-keyboard-response","371","761666","0.0-371.0","51yo2pet","","","null","","Agent B","scrambled","STIM_SET_3/1160189.bmp_pp64_L1_V2_veridical_freeview_isoFalsemismatch_1592581.bmp_L3_fps90.mp4",""
"","","","call-function","372","761668","0.0-372.0","51yo2pet","","","","","","","",""
"3022.054999999935","{""judgement"":1}","[0]","survey-likert","373","764691","0.0-373.0","51yo2pet","","","","","","","","0"
"1109.6799999999348","{""confidence"":2}","[0]","survey-likert","374","765802","0.0-374.0","51yo2pet","","","","","","","",""
"","","","call-function","375","765803","0.0-375.0","51yo2pet","","","","","","","",""
"null","","","html-keyboard-response","376","767308","0.0-376.0","51yo2pet","","<span style=""color:Black; font-size:50px;"">Agent A","null","","","","",""
"null","","","video-keyboard-response","377","770378","0.0-377.0","51yo2pet","","","null","","Agent A","veridical","STIM_SET_1_REAL/1592727.bmp_pp59_L3_V1.0_veridical_freeview_isoFalse_fps144.mp4",""
"null","","","html-keyboard-response","378","771880","0.0-378.0","51yo2pet","","<span style=""color:Black; font-size:50px;"">Agent B","null","","","","",""
"null","","","video-keyboard-response","379","774984","0.0-379.0","51yo2pet","","","null","","Agent B","scrambled","STIM_SET_3/1592038.bmp_pp79_L2_V2_veridical_freeview_isoFalsemismatch_1592727.bmp_L3_fps90.mp4",""
"","","","call-function","380","774985","0.0-380.0","51yo2pet","","","","","","","",""
"1513.3250000000698","{""judgement"":0}","[0]","survey-likert","381","776500","0.0-381.0","51yo2pet","","","","","","","","0"
"1584.4499999999534","{""confidence"":2}","[0]","survey-likert","382","778086","0.0-382.0","51yo2pet","","","","","","","",""
"","","","call-function","383","778087","0.0-383.0","51yo2pet","","","","","","","",""
"null","","","html-keyboard-response","384","779590","0.0-384.0","51yo2pet","","<span style=""color:Black; font-size:50px;"">Agent A","null","","","","",""
"null","","","video-keyboard-response","385","782696","0.0-385.0","51yo2pet","","","null","","Agent A","veridical","STIM_SET_1_REAL/285905.bmp_pp57_L1_V1.0_veridical_freeview_isoFalse_fps144.mp4",""
"null","","","html-keyboard-response","386","784200","0.0-386.0","51yo2pet","","<span style=""color:Black; font-size:50px;"">Agent B","null","","","","",""
"null","","","video-keyboard-response","387","787340","0.0-387.0","51yo2pet","","","null","","Agent B","scrambled","STIM_SET_3/1592568.bmp_pp71_L1_V2_veridical_freeview_isoFalsemismatch_285905.bmp_L1_fps90.mp4",""
"","","","call-function","388","787341","0.0-388.0","51yo2pet","","","","","","","",""
"1115.390000000014","{""judgement"":0}","[0]","survey-likert","389","788457","0.0-389.0","51yo2pet","","","","","","","","0"
"1126.4949999999953","{""confidence"":1}","[0]","survey-likert","390","789585","0.0-390.0","51yo2pet","","","","","","","",""
"","","","call-function","391","789586","0.0-391.0","51yo2pet","","","","","","","",""
"null","","","html-keyboard-response","392","791092","0.0-392.0","51yo2pet","","<span style=""color:Black; font-size:50px;"">Agent A","null","","","","",""
"null","","","video-keyboard-response","393","794199","0.0-393.0","51yo2pet","","","null","","Agent A","veridical","STIM_SET_1_REAL/713760.bmp_pp81_L1_V1.0_veridical_freeview_isoFalse_fps144.mp4",""
"null","","","html-keyboard-response","394","795703","0.0-394.0","51yo2pet","","<span style=""color:Black; font-size:50px;"">Agent B","null","","","","",""
"null","","","video-keyboard-response","395","798806","0.0-395.0","51yo2pet","","","null","","Agent B","scrambled","STIM_SET_3/285684.bmp_pp80_L3_V2_veridical_freeview_isoFalsemismatch_713760.bmp_L1_fps90.mp4",""
"","","","call-function","396","798807","0.0-396.0","51yo2pet","","","","","","","",""
"2413.5449999999255","{""judgement"":1}","[0]","survey-likert","397","801222","0.0-397.0","51yo2pet","","","","","","","","0"
"2078.930000000051","{""confidence"":2}","[0]","survey-likert","398","803302","0.0-398.0","51yo2pet","","","","","","","",""
"","","","call-function","399","803303","0.0-399.0","51yo2pet","","","","","","","",""
"null","","","html-keyboard-response","400","804805","0.0-400.0","51yo2pet","","<span style=""color:Black; font-size:50px;"">Agent A","null","","","","",""
"null","","","video-keyboard-response","401","807917","0.0-401.0","51yo2pet","","","null","","Agent A","scrambled","STIM_SET_3/107909.bmp_pp95_L2_V2_veridical_freeview_isoFalsemismatch_1592372.bmp_L1_fps90.mp4",""
"null","","","html-keyboard-response","402","809422","0.0-402.0","51yo2pet","","<span style=""color:Black; font-size:50px;"">Agent B","null","","","","",""
"null","","","video-keyboard-response","403","812526","0.0-403.0","51yo2pet","","","null","","Agent B","veridical","STIM_SET_1_REAL/1592372.bmp_pp76_L1_V1.0_veridical_freeview_isoFalse_fps144.mp4",""
"","","","call-function","404","812527","0.0-404.0","51yo2pet","","","","","","","",""
"2002.5650000000605","{""judgement"":1}","[0]","survey-likert","405","814531","0.0-405.0","51yo2pet","","","","","","","","1"
"2281.064999999944","{""confidence"":2}","[0]","survey-likert","406","816814","0.0-406.0","51yo2pet","","","","","","","",""
"","","","call-function","407","816815","0.0-407.0","51yo2pet","","","","","","","",""
"null","","","html-keyboard-response","408","818318","0.0-408.0","51yo2pet","","<span style=""color:Black; font-size:50px;"">Agent A","null","","","","",""
"null","","","video-keyboard-response","409","821388","0.0-409.0","51yo2pet","","","null","","Agent A","veridical","STIM_SET_1_REAL/713796.bmp_pp84_L3_V1.0_veridical_freeview_isoFalse_fps144.mp4",""
"null","","","html-keyboard-response","410","822891","0.0-410.0","51yo2pet","","<span style=""color:Black; font-size:50px;"">Agent B","null","","","","",""
"null","","","video-keyboard-response","411","825983","0.0-411.0","51yo2pet","","","null","","Agent B","scrambled","STIM_SET_3/713633.bmp_pp58_L1_V2_veridical_freeview_isoFalsemismatch_713796.bmp_L3_fps90.mp4",""
"","","","call-function","412","825984","0.0-412.0","51yo2pet","","","","","","","",""
"2997.0999999999767","{""judgement"":0}","[0]","survey-likert","413","828983","0.0-413.0","51yo2pet","","","","","","","","0"
"1767.2449999999953","{""confidence"":1}","[0]","survey-likert","414","830752","0.0-414.0","51yo2pet","","","","","","","",""
"24433.859999999986","","","instructions","415","855187","0.0-415.0","51yo2pet","[{""page_index"":0,""viewing_time"":1134.094999999972},{""page_index"":1,""viewing_time"":22566.650000000023},{""page_index"":2,""viewing_time"":732.9399999999441}]","","","","","","",""
"1540.1000000000931","","","instructions","416","856728","0.0-416.0","51yo2pet","[{""page_index"":0,""viewing_time"":521.9300000000512},{""page_index"":1,""viewing_time"":517.875},{""page_index"":2,""viewing_time"":500.1899999999441}]","","","","","","",""
"","","","call-function","417","856729","0.0-417.0","51yo2pet","","","","","","","",""
"null","","","html-keyboard-response","418","858233","0.0-418.0","51yo2pet","","<span style=""color:Black; font-size:50px;"">Agent A","null","","","","",""
"null","","","video-keyboard-response","419","861317","0.0-419.0","51yo2pet","","","null","","Agent A","scrambled","STIM_SET_3/1159860.bmp_pp152_L2_V2_veridical_freeview_isoFalsemismatch_1159621.bmp_L3_fps90.mp4",""
"null","","","html-keyboard-response","420","862821","0.0-420.0","51yo2pet","","<span style=""color:Black; font-size:50px;"">Agent B","null","","","","",""
"null","","","video-keyboard-response","421","865886","0.0-421.0","51yo2pet","","","null","","Agent B","veridical","STIM_SET_1_REAL/1159621.bmp_pp92_L3_V1.0_veridical_freeview_isoFalse_fps144.mp4",""
"","","","call-function","422","865887","0.0-422.0","51yo2pet","","","","","","","",""
"1882.670000000042","{""judgement"":0}","[0]","survey-likert","423","867770","0.0-423.0","51yo2pet","","","","","","","","1"
"1542.8499999999767","{""confidence"":0}","[0]","survey-likert","424","869315","0.0-424.0","51yo2pet","","","","","","","",""
"","","","call-function","425","869316","0.0-425.0","51yo2pet","","","","","","","",""
"null","","","html-keyboard-response","426","870817","0.0-426.0","51yo2pet","","<span style=""color:Black; font-size:50px;"">Agent A","null","","","","",""
"null","","","video-keyboard-response","427","873931","0.0-427.0","51yo2pet","","","null","","Agent A","veridical","STIM_SET_1_REAL/1591954.bmp_pp62_L2_V1.0_veridical_freeview_isoFalse_fps144.mp4",""
"null","","","html-keyboard-response","428","875433","0.0-428.0","51yo2pet","","<span style=""color:Black; font-size:50px;"">Agent B","null","","","","",""
"null","","","video-keyboard-response","429","878548","0.0-429.0","51yo2pet","","","null","","Agent B","scrambled","STIM_SET_3/1160049.bmp_pp53_L2_V2_veridical_freeview_isoFalsemismatch_1591954.bmp_L2_fps90.mp4",""
"","","","call-function","430","878549","0.0-430.0","51yo2pet","","","","","","","",""
"2121.7600000000093","{""judgement"":1}","[0]","survey-likert","431","880672","0.0-431.0","51yo2pet","","","","","","","","0"
"2175.4199999999255","{""confidence"":1}","[0]","survey-likert","432","882849","0.0-432.0","51yo2pet","","","","","","","",""
"","","","call-function","433","882850","0.0-433.0","51yo2pet","","","","","","","",""
"null","","","html-keyboard-response","434","884351","0.0-434.0","51yo2pet","","<span style=""color:Black; font-size:50px;"">Agent A","null","","","","",""
"null","","","video-keyboard-response","435","887440","0.0-435.0","51yo2pet","","","null","","Agent A","scrambled","STIM_SET_3/1592305.bmp_pp65_L3_V2_veridical_freeview_isoFalsemismatch_713779.bmp_L2_fps90.mp4",""
"null","","","html-keyboard-response","436","888947","0.0-436.0","51yo2pet","","<span style=""color:Black; font-size:50px;"">Agent B","null","","","","",""
"null","","","video-keyboard-response","437","892011","0.0-437.0","51yo2pet","","","null","","Agent B","veridical","STIM_SET_1_REAL/713779.bmp_pp152_L2_V1.0_veridical_freeview_isoFalse_fps144.mp4",""
"","","","call-function","438","892012","0.0-438.0","51yo2pet","","","","","","","",""
"1560.6900000000605","{""judgement"":0}","[0]","survey-likert","439","893575","0.0-439.0","51yo2pet","","","","","","","","1"
"1260.015000000014","{""confidence"":1}","[0]","survey-likert","440","894838","0.0-440.0","51yo2pet","","","","","","","",""
"","","","call-function","441","894839","0.0-441.0","51yo2pet","","","","","","","",""
"null","","","html-keyboard-response","442","896342","0.0-442.0","51yo2pet","","<span style=""color:Black; font-size:50px;"">Agent A","null","","","","",""
"null","","","video-keyboard-response","443","899417","0.0-443.0","51yo2pet","","","null","","Agent A","veridical","STIM_SET_1_REAL/713211.bmp_pp100_L3_V1.0_veridical_freeview_isoFalse_fps144.mp4",""
"null","","","html-keyboard-response","444","900920","0.0-444.0","51yo2pet","","<span style=""color:Black; font-size:50px;"">Agent B","null","","","","",""
"null","","","video-keyboard-response","445","904024","0.0-445.0","51yo2pet","","","null","","Agent B","scrambled","STIM_SET_3/1592921.bmp_pp69_L3_V2_veridical_freeview_isoFalsemismatch_713211.bmp_L3_fps90.mp4",""
"","","","call-function","446","904025","0.0-446.0","51yo2pet","","","","","","","",""
"1815.4449999999488","{""judgement"":0}","[0]","survey-likert","447","905841","0.0-447.0","51yo2pet","","","","","","","","0"
"1390.3100000000559","{""confidence"":2}","[0]","survey-likert","448","907233","0.0-448.0","51yo2pet","","","","","","","",""
"","","","call-function","449","907234","0.0-449.0","51yo2pet","","","","","","","",""
"null","","","html-keyboard-response","450","908739","0.0-450.0","51yo2pet","","<span style=""color:Black; font-size:50px;"">Agent A","null","","","","",""
"null","","","video-keyboard-response","451","911818","0.0-451.0","51yo2pet","","","null","","Agent A","scrambled","STIM_SET_3/1591781.bmp_pp63_L1_V2_veridical_freeview_isoFalsemismatch_1593041.bmp_L1_fps90.mp4",""
"null","","","html-keyboard-response","452","913322","0.0-452.0","51yo2pet","","<span style=""color:Black; font-size:50px;"">Agent B","null","","","","",""
"null","","","video-keyboard-response","453","916428","0.0-453.0","51yo2pet","","","null","","Agent B","veridical","STIM_SET_1_REAL/1593041.bmp_pp58_L1_V1.0_veridical_freeview_isoFalse_fps144.mp4",""
"","","","call-function","454","916429","0.0-454.0","51yo2pet","","","","","","","",""
"3034.2550000000047","{""judgement"":0}","[0]","survey-likert","455","919464","0.0-455.0","51yo2pet","","","","","","","","1"
"1287.0299999999115","{""confidence"":2}","[0]","survey-likert","456","920753","0.0-456.0","51yo2pet","","","","","","","",""
"","","","call-function","457","920754","0.0-457.0","51yo2pet","","","","","","","",""
"null","","","html-keyboard-response","458","922259","0.0-458.0","51yo2pet","","<span style=""color:Black; font-size:50px;"">Agent A","null","","","","",""
"null","","","video-keyboard-response","459","925372","0.0-459.0","51yo2pet","","","null","","Agent A","scrambled","STIM_SET_3/1159427.bmp_pp98_L1_V2_veridical_freeview_isoFalsemismatch_1591876.bmp_L1_fps90.mp4",""
"null","","","html-keyboard-response","460","926876","0.0-460.0","51yo2pet","","<span style=""color:Black; font-size:50px;"">Agent B","null","","","","",""
"null","","","video-keyboard-response","461","929977","0.0-461.0","51yo2pet","","","null","","Agent B","veridical","STIM_SET_1_REAL/1591876.bmp_pp63_L1_V1.0_veridical_freeview_isoFalse_fps144.mp4",""
"","","","call-function","462","929978","0.0-462.0","51yo2pet","","","","","","","",""
"2077.219999999972","{""judgement"":0}","[0]","survey-likert","463","932056","0.0-463.0","51yo2pet","","","","","","","","1"
"1406.6350000000093","{""confidence"":0}","[0]","survey-likert","464","933465","0.0-464.0","51yo2pet","","","","","","","",""
"","","","call-function","465","933466","0.0-465.0","51yo2pet","","","","","","","",""
"null","","","html-keyboard-response","466","934967","0.0-466.0","51yo2pet","","<span style=""color:Black; font-size:50px;"">Agent A","null","","","","",""
"null","","","video-keyboard-response","467","938083","0.0-467.0","51yo2pet","","","null","","Agent A","scrambled","STIM_SET_3/1159508.bmp_pp151_L1_V2_veridical_freeview_isoFalsemismatch_1159675.bmp_L3_fps90.mp4",""
"null","","","html-keyboard-response","468","939588","0.0-468.0","51yo2pet","","<span style=""color:Black; font-size:50px;"">Agent B","null","","","","",""
"null","","","video-keyboard-response","469","942694","0.0-469.0","51yo2pet","","","null","","Agent B","veridical","STIM_SET_1_REAL/1159675.bmp_pp77_L3_V1.0_veridical_freeview_isoFalse_fps144.mp4",""
"","","","call-function","470","942695","0.0-470.0","51yo2pet","","","","","","","",""
"1743.8649999999907","{""judgement"":0}","[0]","survey-likert","471","944439","0.0-471.0","51yo2pet","","","","","","","","1"
"1671.9149999999208","{""confidence"":2}","[0]","survey-likert","472","946113","0.0-472.0","51yo2pet","","","","","","","",""
"","","","call-function","473","946114","0.0-473.0","51yo2pet","","","","","","","",""
"null","","","html-keyboard-response","474","947618","0.0-474.0","51yo2pet","","<span style=""color:Black; font-size:50px;"">Agent A","null","","","","",""
"null","","","video-keyboard-response","475","950727","0.0-475.0","51yo2pet","","","null","","Agent A","veridical","STIM_SET_1_REAL/713707.bmp_pp154_L1_V1.0_veridical_freeview_isoFalse_fps144.mp4",""
"null","","","html-keyboard-response","476","952230","0.0-476.0","51yo2pet","","<span style=""color:Black; font-size:50px;"">Agent B","null","","","","",""
"null","","","video-keyboard-response","477","955310","0.0-477.0","51yo2pet","","","null","","Agent B","scrambled","STIM_SET_3/1592314.bmp_pp100_L3_V2_veridical_freeview_isoFalsemismatch_713707.bmp_L1_fps90.mp4",""
"","","","call-function","478","955311","0.0-478.0","51yo2pet","","","","","","","",""
"1395.3499999999767","{""judgement"":0}","[0]","survey-likert","479","956707","0.0-479.0","51yo2pet","","","","","","","","0"
"1493.6300000000047","{""confidence"":3}","[0]","survey-likert","480","958202","0.0-480.0","51yo2pet","","","","","","","",""
"","","","call-function","481","958204","0.0-481.0","51yo2pet","","","","","","","",""
"null","","","html-keyboard-response","482","959706","0.0-482.0","51yo2pet","","<span style=""color:Black; font-size:50px;"">Agent A","null","","","","",""
"null","","","video-keyboard-response","483","962786","0.0-483.0","51yo2pet","","","null","","Agent A","scrambled","STIM_SET_3/498398.bmp_pp81_L1_V2_veridical_freeview_isoFalsemismatch_713620.bmp_L3_fps90.mp4",""
"null","","","html-keyboard-response","484","964289","0.0-484.0","51yo2pet","","<span style=""color:Black; font-size:50px;"">Agent B","null","","","","",""
"null","","","video-keyboard-response","485","967363","0.0-485.0","51yo2pet","","","null","","Agent B","veridical","STIM_SET_1_REAL/713620.bmp_pp65_L3_V1.0_veridical_freeview_isoFalse_fps144.mp4",""
"","","","call-function","486","967364","0.0-486.0","51yo2pet","","","","","","","",""
"1312.0699999999488","{""judgement"":1}","[0]","survey-likert","487","968677","0.0-487.0","51yo2pet","","","","","","","","1"
"1068.2399999999907","{""confidence"":1}","[0]","survey-likert","488","969747","0.0-488.0","51yo2pet","","","","","","","",""
"","","","call-function","489","969748","0.0-489.0","51yo2pet","","","","","","","",""
"null","","","html-keyboard-response","490","971249","0.0-490.0","51yo2pet","","<span style=""color:Black; font-size:50px;"">Agent A","null","","","","",""
"null","","","video-keyboard-response","491","974355","0.0-491.0","51yo2pet","","","null","","Agent A","scrambled","STIM_SET_3/1159956.bmp_pp59_L3_V2_veridical_freeview_isoFalsemismatch_1159829.bmp_L3_fps90.mp4",""
"null","","","html-keyboard-response","492","975861","0.0-492.0","51yo2pet","","<span style=""color:Black; font-size:50px;"">Agent B","null","","","","",""
"null","","","video-keyboard-response","493","978929","0.0-493.0","51yo2pet","","","null","","Agent B","veridical","STIM_SET_1_REAL/1159829.bmp_pp91_L3_V1.0_veridical_freeview_isoFalse_fps144.mp4",""
"","","","call-function","494","978930","0.0-494.0","51yo2pet","","","","","","","",""
"2006.0050000000047","{""judgement"":1}","[0]","survey-likert","495","980937","0.0-495.0","51yo2pet","","","","","","","","1"
"1104.3649999999907","{""confidence"":0}","[0]","survey-likert","496","982043","0.0-496.0","51yo2pet","","","","","","","",""
"19652.079999999958","","","instructions","497","1001697","0.0-497.0","51yo2pet","[{""page_index"":0,""viewing_time"":1970.9649999999674},{""page_index"":1,""viewing_time"":16961.834999999963},{""page_index"":2,""viewing_time"":719.1100000001024}]","","","","","","",""
"2640.9599999999627","","","instructions","498","1004340","0.0-498.0","51yo2pet","[{""page_index"":0,""viewing_time"":840.5200000000186},{""page_index"":1,""viewing_time"":1364.9949999999953},{""page_index"":2,""viewing_time"":435.3199999999488}]","","","","","","",""
"","","","call-function","499","1004342","0.0-499.0","51yo2pet","","","","","","","",""
"null","","","html-keyboard-response","500","1005845","0.0-500.0","51yo2pet","","<span style=""color:Black; font-size:50px;"">Agent A","null","","","","",""
"null","","","video-keyboard-response","501","1008936","0.0-501.0","51yo2pet","","","null","","Agent A","scrambled","STIM_SET_3/1159819.bmp_pp151_L1_V2_veridical_freeview_isoFalsemismatch_1592499.bmp_L2_fps90.mp4",""
"null","","","html-keyboard-response","502","1010439","0.0-502.0","51yo2pet","","<span style=""color:Black; font-size:50px;"">Agent B","null","","","","",""
"null","","","video-keyboard-response","503","1013508","0.0-503.0","51yo2pet","","","null","","Agent B","veridical","STIM_SET_1_REAL/1592499.bmp_pp96_L2_V1.0_veridical_freeview_isoFalse_fps144.mp4",""
"","","","call-function","504","1013509","0.0-504.0","51yo2pet","","","","","","","",""
"4113.064999999944","{""judgement"":1}","[0]","survey-likert","505","1017623","0.0-505.0","51yo2pet","","","","","","","","1"
"937.4499999999534","{""confidence"":0}","[0]","survey-likert","506","1018562","0.0-506.0","51yo2pet","","","","","","","",""
"","","","call-function","507","1018564","0.0-507.0","51yo2pet","","","","","","","",""
"null","","","html-keyboard-response","508","1020066","0.0-508.0","51yo2pet","","<span style=""color:Black; font-size:50px;"">Agent A","null","","","","",""
"null","","","video-keyboard-response","509","1023130","0.0-509.0","51yo2pet","","","null","","Agent A","veridical","STIM_SET_1_REAL/498170.bmp_pp153_L3_V1.0_veridical_freeview_isoFalse_fps144.mp4",""
"null","","","html-keyboard-response","510","1024636","0.0-510.0","51yo2pet","","<span style=""color:Black; font-size:50px;"">Agent B","null","","","","",""
"null","","","video-keyboard-response","511","1027727","0.0-511.0","51yo2pet","","","null","","Agent B","scrambled","STIM_SET_3/713742.bmp_pp91_L3_V2_veridical_freeview_isoFalsemismatch_498170.bmp_L3_fps90.mp4",""
"","","","call-function","512","1027728","0.0-512.0","51yo2pet","","","","","","","",""
"1579.5350000000326","{""judgement"":0}","[0]","survey-likert","513","1029309","0.0-513.0","51yo2pet","","","","","","","","0"
"1222.9749999999767","{""confidence"":3}","[0]","survey-likert","514","1030534","0.0-514.0","51yo2pet","","","","","","","",""
"","","","call-function","515","1030534","0.0-515.0","51yo2pet","","","","","","","",""
"null","","","html-keyboard-response","516","1032036","0.0-516.0","51yo2pet","","<span style=""color:Black; font-size:50px;"">Agent A","null","","","","",""
"null","","","video-keyboard-response","517","1035139","0.0-517.0","51yo2pet","","","null","","Agent A","scrambled","STIM_SET_3/1592150.bmp_pp77_L3_V2_veridical_freeview_isoFalsemismatch_1159447.bmp_L2_fps90.mp4",""
"null","","","html-keyboard-response","518","1036642","0.0-518.0","51yo2pet","","<span style=""color:Black; font-size:50px;"">Agent B","null","","","","",""
"null","","","video-keyboard-response","519","1039732","0.0-519.0","51yo2pet","","","null","","Agent B","veridical","STIM_SET_1_REAL/1159447.bmp_pp70_L2_V1.0_veridical_freeview_isoFalse_fps144.mp4",""
"","","","call-function","520","1039733","0.0-520.0","51yo2pet","","","","","","","",""
"2943.4349999999395","{""judgement"":0}","[0]","survey-likert","521","1042677","0.0-521.0","51yo2pet","","","","","","","","1"
"1186.8050000000512","{""confidence"":1}","[0]","survey-likert","522","1043866","0.0-522.0","51yo2pet","","","","","","","",""
"","","","call-function","523","1043867","0.0-523.0","51yo2pet","","","","","","","",""
"null","","","html-keyboard-response","524","1045369","0.0-524.0","51yo2pet","","<span style=""color:Black; font-size:50px;"">Agent A","null","","","","",""
"null","","","video-keyboard-response","525","1048473","0.0-525.0","51yo2pet","","","null","","Agent A","veridical","STIM_SET_1_REAL/1591961.bmp_pp67_L2_V1.0_veridical_freeview_isoFalse_fps144.mp4",""
"null","","","html-keyboard-response","526","1049978","0.0-526.0","51yo2pet","","<span style=""color:Black; font-size:50px;"">Agent B","null","","","","",""
"null","","","video-keyboard-response","527","1053113","0.0-527.0","51yo2pet","","","null","","Agent B","scrambled","STIM_SET_3/1592530.bmp_pp75_L1_V2_veridical_freeview_isoFalsemismatch_1591961.bmp_L2_fps90.mp4",""
"","","","call-function","528","1053114","0.0-528.0","51yo2pet","","","","","","","",""
"2118.274999999907","{""judgement"":0}","[0]","survey-likert","529","1055233","0.0-529.0","51yo2pet","","","","","","","","0"
"1175.464999999851","{""confidence"":2}","[0]","survey-likert","530","1056410","0.0-530.0","51yo2pet","","","","","","","",""
"","","","call-function","531","1056411","0.0-531.0","51yo2pet","","","","","","","",""
"null","","","html-keyboard-response","532","1057914","0.0-532.0","51yo2pet","","<span style=""color:Black; font-size:50px;"">Agent A","null","","","","",""
"null","","","video-keyboard-response","533","1061029","0.0-533.0","51yo2pet","","","null","","Agent A","veridical","STIM_SET_1_REAL/1159813.bmp_pp79_L2_V1.0_veridical_freeview_isoFalse_fps144.mp4",""
"null","","","html-keyboard-response","534","1062534","0.0-534.0","51yo2pet","","<span style=""color:Black; font-size:50px;"">Agent B","null","","","","",""
"null","","","video-keyboard-response","535","1065633","0.0-535.0","51yo2pet","","","null","","Agent B","scrambled","STIM_SET_3/1592129.bmp_pp153_L3_V2_veridical_freeview_isoFalsemismatch_1159813.bmp_L2_fps90.mp4",""
"","","","call-function","536","1065635","0.0-536.0","51yo2pet","","","","","","","",""
"1392.3700000001118","{""judgement"":0}","[0]","survey-likert","537","1067029","0.0-537.0","51yo2pet","","","","","","","","0"
"985.315000000177","{""confidence"":1}","[0]","survey-likert","538","1068016","0.0-538.0","51yo2pet","","","","","","","",""
"","","","call-function","539","1068017","0.0-539.0","51yo2pet","","","","","","","",""
"null","","","html-keyboard-response","540","1069519","0.0-540.0","51yo2pet","","<span style=""color:Black; font-size:50px;"">Agent A","null","","","","",""
"null","","","video-keyboard-response","541","1072594","0.0-541.0","51yo2pet","","","null","","Agent A","veridical","STIM_SET_1_REAL/498155.bmp_pp61_L2_V1.0_veridical_freeview_isoFalse_fps144.mp4",""
"null","","","html-keyboard-response","542","1074097","0.0-542.0","51yo2pet","","<span style=""color:Black; font-size:50px;"">Agent B","null","","","","",""
"null","","","video-keyboard-response","543","1077180","0.0-543.0","51yo2pet","","","null","","Agent B","scrambled","STIM_SET_3/498258.bmp_pp51_L1_V2_veridical_freeview_isoFalsemismatch_498155.bmp_L2_fps90.mp4",""
"","","","call-function","544","1077181","0.0-544.0","51yo2pet","","","","","","","",""
"1921.4550000000745","{""judgement"":0}","[0]","survey-likert","545","1079104","0.0-545.0","51yo2pet","","","","","","","","0"
"1964.1649999998044","{""confidence"":1}","[0]","survey-likert","546","1081070","0.0-546.0","51yo2pet","","","","","","","",""
"","","","call-function","547","1081071","0.0-547.0","51yo2pet","","","","","","","",""
"null","","","html-keyboard-response","548","1082573","0.0-548.0","51yo2pet","","<span style=""color:Black; font-size:50px;"">Agent A","null","","","","",""
"null","","","video-keyboard-response","549","1085663","0.0-549.0","51yo2pet","","","null","","Agent A","veridical","STIM_SET_1_REAL/1592133.bmp_pp75_L1_V1.0_veridical_freeview_isoFalse_fps144.mp4",""
"null","","","html-keyboard-response","550","1087171","0.0-550.0","51yo2pet","","<span style=""color:Black; font-size:50px;"">Agent B","null","","","","",""
"null","","","video-keyboard-response","551","1090260","0.0-551.0","51yo2pet","","","null","","Agent B","scrambled","STIM_SET_3/1160247.bmp_pp54_L2_V2_veridical_freeview_isoFalsemismatch_1592133.bmp_L1_fps90.mp4",""
"","","","call-function","552","1090261","0.0-552.0","51yo2pet","","","","","","","",""
"2264.2600000000093","{""judgement"":0}","[0]","survey-likert","553","1092527","0.0-553.0","51yo2pet","","","","","","","","0"
"1336.1450000000186","{""confidence"":0}","[0]","survey-likert","554","1093864","0.0-554.0","51yo2pet","","","","","","","",""
"","","","call-function","555","1093865","0.0-555.0","51yo2pet","","","","","","","",""
"null","","","html-keyboard-response","556","1095369","0.0-556.0","51yo2pet","","<span style=""color:Black; font-size:50px;"">Agent A","null","","","","",""
"null","","","video-keyboard-response","557","1098449","0.0-557.0","51yo2pet","","","null","","Agent A","veridical","STIM_SET_1_REAL/1591994.bmp_pp69_L3_V1.0_veridical_freeview_isoFalse_fps144.mp4",""
"null","","","html-keyboard-response","558","1099953","0.0-558.0","51yo2pet","","<span style=""color:Black; font-size:50px;"">Agent B","null","","","","",""
"null","","","video-keyboard-response","559","1103037","0.0-559.0","51yo2pet","","","null","","Agent B","scrambled","STIM_SET_3/713328.bmp_pp86_L2_V2_veridical_freeview_isoFalsemismatch_1591994.bmp_L3_fps90.mp4",""
"","","","call-function","560","1103040","0.0-560.0","51yo2pet","","","","","","","",""
"1826.7549999998882","{""judgement"":1}","[0]","survey-likert","561","1104868","0.0-561.0","51yo2pet","","","","","","","","0"
"1085.619999999879","{""confidence"":1}","[0]","survey-likert","562","1105956","0.0-562.0","51yo2pet","","","","","","","",""
"","","","call-function","563","1105957","0.0-563.0","51yo2pet","","","","","","","",""
"null","","","html-keyboard-response","564","1107460","0.0-564.0","51yo2pet","","<span style=""color:Black; font-size:50px;"">Agent A","null","","","","",""
"null","","","video-keyboard-response","565","1110543","0.0-565.0","51yo2pet","","","null","","Agent A","scrambled","STIM_SET_3/498261.bmp_pp84_L3_V2_veridical_freeview_isoFalsemismatch_1592657.bmp_L1_fps90.mp4",""
"null","","","html-keyboard-response","566","1112047","0.0-566.0","51yo2pet","","<span style=""color:Black; font-size:50px;"">Agent B","null","","","","",""
"null","","","video-keyboard-response","567","1115124","0.0-567.0","51yo2pet","","","null","","Agent B","veridical","STIM_SET_1_REAL/1592657.bmp_pp98_L1_V1.0_veridical_freeview_isoFalse_fps144.mp4",""
"","","","call-function","568","1115125","0.0-568.0","51yo2pet","","","","","","","",""
"1353.3850000000093","{""judgement"":1}","[0]","survey-likert","569","1116480","0.0-569.0","51yo2pet","","","","","","","","1"
"1112.0250000001397","{""confidence"":2}","[0]","survey-likert","570","1117594","0.0-570.0","51yo2pet","","","","","","","",""
"","","","call-function","571","1117595","0.0-571.0","51yo2pet","","","","","","","",""
"null","","","html-keyboard-response","572","1119097","0.0-572.0","51yo2pet","","<span style=""color:Black; font-size:50px;"">Agent A","null","","","","",""
"null","","","video-keyboard-response","573","1122174","0.0-573.0","51yo2pet","","","null","","Agent A","veridical","STIM_SET_1_REAL/61537.bmp_pp73_L3_V1.0_veridical_freeview_isoFalse_fps144.mp4",""
"null","","","html-keyboard-response","574","1123679","0.0-574.0","51yo2pet","","<span style=""color:Black; font-size:50px;"">Agent B","null","","","","",""
"null","","","video-keyboard-response","575","1126798","0.0-575.0","51yo2pet","","","null","","Agent B","scrambled","STIM_SET_3/713770.bmp_pp89_L1_V2_veridical_freeview_isoFalsemismatch_61537.bmp_L3_fps90.mp4",""
"","","","call-function","576","1126799","0.0-576.0","51yo2pet","","","","","","","",""
"1411.4750000000931","{""judgement"":0}","[0]","survey-likert","577","1128212","0.0-577.0","51yo2pet","","","","","","","","0"
"1383.1299999998882","{""confidence"":3}","[0]","survey-likert","578","1129597","0.0-578.0","51yo2pet","","","","","","","",""
"1417.6049999999814","","","instructions","579","1131016","0.0-579.0","51yo2pet","[{""page_index"":0,""viewing_time"":1417.4450000000652}]","","","","","","",""
"951.9150000000373","","","instructions","580","1131969","0.0-580.0","51yo2pet","[{""page_index"":0,""viewing_time"":951.6950000000652}]","","","","","","",""
"6988.915000000037","{""post-1"":1}","[0]","survey-likert","581","1138959","0.0-581.0","51yo2pet","","","","","","","",""
"2127.5449999999255","{""post-1"":1}","[0]","survey-likert","582","1141089","0.0-582.0","51yo2pet","","","","","","","",""
"4359.47499999986","{""post-2"":1}","[0]","survey-likert","583","1145450","0.0-583.0","51yo2pet","","","","","","","",""
"3945.280000000028","{""post-2"":1}","[0]","survey-likert","584","1149397","0.0-584.0","51yo2pet","","","","","","","",""
"4812.260000000009","{""post-3"":3}","[0]","survey-likert","585","1154211","0.0-585.0","51yo2pet","","","","","","","",""
"4901.244999999879","{""post-3"":1}","[0]","survey-likert","586","1159114","0.0-586.0","51yo2pet","","","","","","","",""
"7404.159999999916","{""post-4"":0}","[0]","survey-likert","587","1166521","0.0-587.0","51yo2pet","","","","","","","",""
"1990.4350000000559","{""post-4"":0}","[0]","survey-likert","588","1168514","0.0-588.0","51yo2pet","","","","","","","",""
"5683.164999999804","{""post-5"":1}","[0]","survey-likert","589","1174200","0.0-589.0","51yo2pet","","","","","","","",""
"2304.0400000000373","{""post-5"":2}","[0]","survey-likert","590","1176506","0.0-590.0","51yo2pet","","","","","","","",""
"52469.97999999998","{""Q0"":""Perhaps for future experiments, use different images for each trial -- seeing a picture before might have influenced what my gaze tended to the second time around since I'd seen some parts of the picture already.""}","","survey-text","591","1228984","0.0-591.0","51yo2pet","","","","","","","",""
"36452.75","{""Q0"":""The second time around, I found it easier to see if an Agent's eye movements matched my own. If that was the case, I often put that Agent down as the real person.""}","","survey-text","592","1265441","0.0-592.0","51yo2pet","","","","","","","",""
"30491.860000000102","{""Q0"":""Some of the eye movements this time around were choppy, so I found it hard to make judgements. Overall, I still found it hard to make judgements as to whether the Agent was a real person or not.""}","","survey-text","593","1295939","0.0-593.0","51yo2pet","","","","","","","",""
"1122.5349999999162","","","instructions","594","1297063","0.0-594.0","51yo2pet","[{""page_index"":0,""viewing_time"":1121.9799999999814}]","","","","","","",""
"56887.61499999999","{""Experimenter_end"":[""Printed ID# 51yo2pet on consent form"",""Given subject SONA credit or payment"",""Given the subject debrief form""]}","[0]","survey-multi-select","595","1353953","0.0-595.0","51yo2pet","","","","","","","",""
