"rt","responses","question_order","trial_type","trial_index","time_elapsed","internal_node_id","ID","view_history","stimulus","key_press","value","agent","condition","image","correct_answer"
"10417.34","{""Experimenter"":[""Confirmed subject's identity (ID card)"",""Confirmed normal or corrected-to-normal vision"",""Obtained consent (signature and date)"",""Checked the test room lighting"",""Checked computer screen lighting"",""Checked distance from screen to chin rest (50cm)"",""Cleaned and adjusted chin rest"",""Counterbalanced the order of the tasks"",""Opened the experiment in Firefox"",""Made the experiment full screen"",""Encouraged subject to silence phone, put away distractors, etc.""]}","[0]","survey-multi-select","0","10426","0.0-0.0","5xcenl4v","","","","","","","",""
"17338.265","","","instructions","1","27766","0.0-1.0","5xcenl4v","[{""page_index"":0,""viewing_time"":17337.71}]","","","","","","",""
"11318.82","","","instructions","2","39086","0.0-2.0","5xcenl4v","[{""page_index"":0,""viewing_time"":650.7649999999994},{""page_index"":1,""viewing_time"":1077.949999999997},{""page_index"":0,""viewing_time"":998.0400000000009},{""page_index"":1,""viewing_time"":3897.9449999999997},{""page_index"":2,""viewing_time"":4693.989999999998}]","","","","","","",""
"3066.8399999999965","","","instructions","3","42154","0.0-3.0","5xcenl4v","[{""page_index"":0,""viewing_time"":3066.7350000000006}]","","","","","","",""
"null","","","video-keyboard-response","4","45226","0.0-4.0","5xcenl4v","","","null","","","","",""
"14394.5","","","instructions","5","59621","0.0-5.0","5xcenl4v","[{""page_index"":0,""viewing_time"":2408.5550000000003},{""page_index"":1,""viewing_time"":2413.010000000002},{""page_index"":2,""viewing_time"":1564.9249999999956},{""page_index"":3,""viewing_time"":5050.1600000000035},{""page_index"":4,""viewing_time"":2957.709999999999}]","","","","","","",""
"3907.840000000004","","","instructions","6","63529","0.0-6.0","5xcenl4v","[{""page_index"":0,""viewing_time"":3907.7100000000064}]","","","","","","",""
"","","","call-function","7","63530","0.0-7.0","5xcenl4v","","","","","","","",""
"null","","","html-keyboard-response","8","65034","0.0-8.0","5xcenl4v","","<span style=""color:Black; font-size:50px;"">Agent A","null","","","","",""
"null","","","video-keyboard-response","9","68103","0.0-9.0","5xcenl4v","","","null","","Agent A","scrambled","STIM_SET_1/1159572.bmp_pp71_L1_V1.0_scrambled_freeview_isoFalse.mp4",""
"null","","","html-keyboard-response","10","69605","0.0-10.0","5xcenl4v","","<span style=""color:Black; font-size:50px;"">Agent B","null","","","","",""
"null","","","video-keyboard-response","11","72676","0.0-11.0","5xcenl4v","","","null","","Agent B","veridical","STIM_SET_1/1159572.bmp_pp71_L1_V1.0_veridical_freeview_isoFalse.mp4",""
"","","","call-function","12","72677","0.0-12.0","5xcenl4v","","","","","","","",""
"7983.815000000002","{""judgement"":1}","[0]","survey-likert","13","80662","0.0-13.0","5xcenl4v","","","","","","","","1"
"1319.7750000000087","{""confidence"":1}","[0]","survey-likert","14","81983","0.0-14.0","5xcenl4v","","","","","","","",""
"","","","call-function","15","81984","0.0-15.0","5xcenl4v","","","","","","","",""
"null","","","html-keyboard-response","16","83487","0.0-16.0","5xcenl4v","","<span style=""color:Black; font-size:50px;"">Agent A","null","","","","",""
"null","","","video-keyboard-response","17","86564","0.0-17.0","5xcenl4v","","","null","","Agent A","veridical","STIM_SET_1/1159768.bmp_pp89_L1_V1.0_veridical_freeview_isoFalse.mp4",""
"null","","","html-keyboard-response","18","88066","0.0-18.0","5xcenl4v","","<span style=""color:Black; font-size:50px;"">Agent B","null","","","","",""
"null","","","video-keyboard-response","19","91182","0.0-19.0","5xcenl4v","","","null","","Agent B","scrambled","STIM_SET_1/1159768.bmp_pp89_L1_V1.0_scrambled_freeview_isoFalse.mp4",""
"","","","call-function","20","91182","0.0-20.0","5xcenl4v","","","","","","","",""
"7498.479999999996","{""judgement"":1}","[0]","survey-likert","21","98683","0.0-21.0","5xcenl4v","","","","","","","","0"
"1087.090000000011","{""confidence"":1}","[0]","survey-likert","22","99771","0.0-22.0","5xcenl4v","","","","","","","",""
"","","","call-function","23","99772","0.0-23.0","5xcenl4v","","","","","","","",""
"null","","","html-keyboard-response","24","101274","0.0-24.0","5xcenl4v","","<span style=""color:Black; font-size:50px;"">Agent A","null","","","","",""
"null","","","video-keyboard-response","25","104362","0.0-25.0","5xcenl4v","","","null","","Agent A","scrambled","STIM_SET_1/713779.bmp_pp152_L2_V1.0_scrambled_freeview_isoFalse.mp4",""
"null","","","html-keyboard-response","26","105866","0.0-26.0","5xcenl4v","","<span style=""color:Black; font-size:50px;"">Agent B","null","","","","",""
"null","","","video-keyboard-response","27","108927","0.0-27.0","5xcenl4v","","","null","","Agent B","veridical","STIM_SET_1/713779.bmp_pp152_L2_V1.0_veridical_freeview_isoFalse.mp4",""
"","","","call-function","28","108928","0.0-28.0","5xcenl4v","","","","","","","",""
"3805.1949999999924","{""judgement"":1}","[0]","survey-likert","29","112734","0.0-29.0","5xcenl4v","","","","","","","","1"
"1982.8349999999919","{""confidence"":2}","[0]","survey-likert","30","114718","0.0-30.0","5xcenl4v","","","","","","","",""
"","","","call-function","31","114719","0.0-31.0","5xcenl4v","","","","","","","",""
"null","","","html-keyboard-response","32","116222","0.0-32.0","5xcenl4v","","<span style=""color:Black; font-size:50px;"">Agent A","null","","","","",""
"null","","","video-keyboard-response","33","119348","0.0-33.0","5xcenl4v","","","null","","Agent A","scrambled","STIM_SET_1/713707.bmp_pp154_L1_V1.0_scrambled_freeview_isoFalse.mp4",""
"null","","","html-keyboard-response","34","120851","0.0-34.0","5xcenl4v","","<span style=""color:Black; font-size:50px;"">Agent B","null","","","","",""
"null","","","video-keyboard-response","35","123975","0.0-35.0","5xcenl4v","","","null","","Agent B","veridical","STIM_SET_1/713707.bmp_pp154_L1_V1.0_veridical_freeview_isoFalse.mp4",""
"","","","call-function","36","123976","0.0-36.0","5xcenl4v","","","","","","","",""
"4565.615000000005","{""judgement"":1}","[0]","survey-likert","37","128542","0.0-37.0","5xcenl4v","","","","","","","","1"
"1851.4300000000076","{""confidence"":2}","[0]","survey-likert","38","130395","0.0-38.0","5xcenl4v","","","","","","","",""
"","","","call-function","39","130395","0.0-39.0","5xcenl4v","","","","","","","",""
"null","","","html-keyboard-response","40","131899","0.0-40.0","5xcenl4v","","<span style=""color:Black; font-size:50px;"">Agent A","null","","","","",""
"null","","","video-keyboard-response","41","134977","0.0-41.0","5xcenl4v","","","null","","Agent A","veridical","STIM_SET_1/1592657.bmp_pp98_L1_V1.0_veridical_freeview_isoFalse.mp4",""
"null","","","html-keyboard-response","42","136482","0.0-42.0","5xcenl4v","","<span style=""color:Black; font-size:50px;"">Agent B","null","","","","",""
"null","","","video-keyboard-response","43","139566","0.0-43.0","5xcenl4v","","","null","","Agent B","scrambled","STIM_SET_1/1592657.bmp_pp98_L1_V1.0_scrambled_freeview_isoFalse.mp4",""
"","","","call-function","44","139567","0.0-44.0","5xcenl4v","","","","","","","",""
"2527.6350000000093","{""judgement"":0}","[0]","survey-likert","45","142096","0.0-45.0","5xcenl4v","","","","","","","","0"
"2810.4899999999907","{""confidence"":2}","[0]","survey-likert","46","144908","0.0-46.0","5xcenl4v","","","","","","","",""
"","","","call-function","47","144909","0.0-47.0","5xcenl4v","","","","","","","",""
"null","","","html-keyboard-response","48","146412","0.0-48.0","5xcenl4v","","<span style=""color:Black; font-size:50px;"">Agent A","null","","","","",""
"null","","","video-keyboard-response","49","149483","0.0-49.0","5xcenl4v","","","null","","Agent A","scrambled","STIM_SET_1/1159621.bmp_pp92_L3_V1.0_scrambled_freeview_isoFalse.mp4",""
"null","","","html-keyboard-response","50","150985","0.0-50.0","5xcenl4v","","<span style=""color:Black; font-size:50px;"">Agent B","null","","","","",""
"null","","","video-keyboard-response","51","154056","0.0-51.0","5xcenl4v","","","null","","Agent B","veridical","STIM_SET_1/1159621.bmp_pp92_L3_V1.0_veridical_freeview_isoFalse.mp4",""
"","","","call-function","52","154057","0.0-52.0","5xcenl4v","","","","","","","",""
"1759.8000000000175","{""judgement"":1}","[0]","survey-likert","53","155817","0.0-53.0","5xcenl4v","","","","","","","","1"
"1732.4800000000105","{""confidence"":2}","[0]","survey-likert","54","157551","0.0-54.0","5xcenl4v","","","","","","","",""
"","","","call-function","55","157552","0.0-55.0","5xcenl4v","","","","","","","",""
"null","","","html-keyboard-response","56","159057","0.0-56.0","5xcenl4v","","<span style=""color:Black; font-size:50px;"">Agent A","null","","","","",""
"null","","","video-keyboard-response","57","162129","0.0-57.0","5xcenl4v","","","null","","Agent A","scrambled","STIM_SET_1/1159515.bmp_pp84_L3_V1.0_scrambled_freeview_isoFalse.mp4",""
"null","","","html-keyboard-response","58","163633","0.0-58.0","5xcenl4v","","<span style=""color:Black; font-size:50px;"">Agent B","null","","","","",""
"null","","","video-keyboard-response","59","166708","0.0-59.0","5xcenl4v","","","null","","Agent B","veridical","STIM_SET_1/1159515.bmp_pp84_L3_V1.0_veridical_freeview_isoFalse.mp4",""
"","","","call-function","60","166708","0.0-60.0","5xcenl4v","","","","","","","",""
"2567.75","{""judgement"":1}","[0]","survey-likert","61","169277","0.0-61.0","5xcenl4v","","","","","","","","1"
"1960.5950000000012","{""confidence"":2}","[0]","survey-likert","62","171240","0.0-62.0","5xcenl4v","","","","","","","",""
"","","","call-function","63","171240","0.0-63.0","5xcenl4v","","","","","","","",""
"null","","","html-keyboard-response","64","172741","0.0-64.0","5xcenl4v","","<span style=""color:Black; font-size:50px;"">Agent A","null","","","","",""
"null","","","video-keyboard-response","65","175854","0.0-65.0","5xcenl4v","","","null","","Agent A","scrambled","STIM_SET_1/713796.bmp_pp84_L3_V1.0_scrambled_freeview_isoFalse.mp4",""
"null","","","html-keyboard-response","66","177361","0.0-66.0","5xcenl4v","","<span style=""color:Black; font-size:50px;"">Agent B","null","","","","",""
"null","","","video-keyboard-response","67","180471","0.0-67.0","5xcenl4v","","","null","","Agent B","veridical","STIM_SET_1/713796.bmp_pp84_L3_V1.0_veridical_freeview_isoFalse.mp4",""
"","","","call-function","68","180472","0.0-68.0","5xcenl4v","","","","","","","",""
"1960.5","{""judgement"":1}","[0]","survey-likert","69","182433","0.0-69.0","5xcenl4v","","","","","","","","1"
"1644.8600000000151","{""confidence"":2}","[0]","survey-likert","70","184079","0.0-70.0","5xcenl4v","","","","","","","",""
"","","","call-function","71","184080","0.0-71.0","5xcenl4v","","","","","","","",""
"null","","","html-keyboard-response","72","185583","0.0-72.0","5xcenl4v","","<span style=""color:Black; font-size:50px;"">Agent A","null","","","","",""
"null","","","video-keyboard-response","73","188678","0.0-73.0","5xcenl4v","","","null","","Agent A","veridical","STIM_SET_1/286001.bmp_pp54_L2_V1.0_veridical_freeview_isoFalse.mp4",""
"null","","","html-keyboard-response","74","190181","0.0-74.0","5xcenl4v","","<span style=""color:Black; font-size:50px;"">Agent B","null","","","","",""
"null","","","video-keyboard-response","75","193277","0.0-75.0","5xcenl4v","","","null","","Agent B","scrambled","STIM_SET_1/286001.bmp_pp54_L2_V1.0_scrambled_freeview_isoFalse.mp4",""
"","","","call-function","76","193278","0.0-76.0","5xcenl4v","","","","","","","",""
"3421.970000000001","{""judgement"":0}","[0]","survey-likert","77","196700","0.0-77.0","5xcenl4v","","","","","","","","0"
"3673.3800000000047","{""confidence"":1}","[0]","survey-likert","78","200375","0.0-78.0","5xcenl4v","","","","","","","",""
"","","","call-function","79","200376","0.0-79.0","5xcenl4v","","","","","","","",""
"null","","","html-keyboard-response","80","201881","0.0-80.0","5xcenl4v","","<span style=""color:Black; font-size:50px;"">Agent A","null","","","","",""
"null","","","video-keyboard-response","81","204965","0.0-81.0","5xcenl4v","","","null","","Agent A","scrambled","STIM_SET_1/1591961.bmp_pp67_L2_V1.0_scrambled_freeview_isoFalse.mp4",""
"null","","","html-keyboard-response","82","206468","0.0-82.0","5xcenl4v","","<span style=""color:Black; font-size:50px;"">Agent B","null","","","","",""
"null","","","video-keyboard-response","83","209549","0.0-83.0","5xcenl4v","","","null","","Agent B","veridical","STIM_SET_1/1591961.bmp_pp67_L2_V1.0_veridical_freeview_isoFalse.mp4",""
"","","","call-function","84","209549","0.0-84.0","5xcenl4v","","","","","","","",""
"2031.0050000000047","{""judgement"":0}","[0]","survey-likert","85","211581","0.0-85.0","5xcenl4v","","","","","","","","1"
"2130.829999999987","{""confidence"":1}","[0]","survey-likert","86","213713","0.0-86.0","5xcenl4v","","","","","","","",""
"2377.6849999999977","","","instructions","87","216092","0.0-87.0","5xcenl4v","[{""page_index"":0,""viewing_time"":996.5249999999942},{""page_index"":1,""viewing_time"":902.8050000000221},{""page_index"":2,""viewing_time"":478.0649999999732}]","","","","","","",""
"916.054999999993","","","instructions","88","217008","0.0-88.0","5xcenl4v","[{""page_index"":0,""viewing_time"":117.38500000000931},{""page_index"":1,""viewing_time"":82.23999999999069},{""page_index"":2,""viewing_time"":716.320000000007}]","","","","","","",""
"","","","call-function","89","217009","0.0-89.0","5xcenl4v","","","","","","","",""
"null","","","html-keyboard-response","90","218512","0.0-90.0","5xcenl4v","","<span style=""color:Black; font-size:50px;"">Agent A","null","","","","",""
"null","","","video-keyboard-response","91","221593","0.0-91.0","5xcenl4v","","","null","","Agent A","scrambled","STIM_SET_1/713371.bmp_pp68_L1_V1.0_scrambled_freeview_isoFalse.mp4",""
"null","","","html-keyboard-response","92","223095","0.0-92.0","5xcenl4v","","<span style=""color:Black; font-size:50px;"">Agent B","null","","","","",""
"null","","","video-keyboard-response","93","226176","0.0-93.0","5xcenl4v","","","null","","Agent B","veridical","STIM_SET_1/713371.bmp_pp68_L1_V1.0_veridical_freeview_isoFalse.mp4",""
"","","","call-function","94","226177","0.0-94.0","5xcenl4v","","","","","","","",""
"2166.5499999999884","{""judgement"":1}","[0]","survey-likert","95","228344","0.0-95.0","5xcenl4v","","","","","","","","1"
"1800.4649999999965","{""confidence"":2}","[0]","survey-likert","96","230146","0.0-96.0","5xcenl4v","","","","","","","",""
"","","","call-function","97","230147","0.0-97.0","5xcenl4v","","","","","","","",""
"null","","","html-keyboard-response","98","231650","0.0-98.0","5xcenl4v","","<span style=""color:Black; font-size:50px;"">Agent A","null","","","","",""
"null","","","video-keyboard-response","99","234719","0.0-99.0","5xcenl4v","","","null","","Agent A","scrambled","STIM_SET_1/285994.bmp_pp92_L3_V1.0_scrambled_freeview_isoFalse.mp4",""
"null","","","html-keyboard-response","100","236244","0.0-100.0","5xcenl4v","","<span style=""color:Black; font-size:50px;"">Agent B","null","","","","",""
"null","","","video-keyboard-response","101","239316","0.0-101.0","5xcenl4v","","","null","","Agent B","veridical","STIM_SET_1/285994.bmp_pp92_L3_V1.0_veridical_freeview_isoFalse.mp4",""
"","","","call-function","102","239317","0.0-102.0","5xcenl4v","","","","","","","",""
"1437.554999999993","{""judgement"":0}","[0]","survey-likert","103","240756","0.0-103.0","5xcenl4v","","","","","","","","1"
"1445.7900000000081","{""confidence"":2}","[0]","survey-likert","104","242204","0.0-104.0","5xcenl4v","","","","","","","",""
"","","","call-function","105","242204","0.0-105.0","5xcenl4v","","","","","","","",""
"null","","","html-keyboard-response","106","243706","0.0-106.0","5xcenl4v","","<span style=""color:Black; font-size:50px;"">Agent A","null","","","","",""
"null","","","video-keyboard-response","107","246784","0.0-107.0","5xcenl4v","","","null","","Agent A","veridical","STIM_SET_1/1591994.bmp_pp69_L3_V1.0_veridical_freeview_isoFalse.mp4",""
"null","","","html-keyboard-response","108","248289","0.0-108.0","5xcenl4v","","<span style=""color:Black; font-size:50px;"">Agent B","null","","","","",""
"null","","","video-keyboard-response","109","251371","0.0-109.0","5xcenl4v","","","null","","Agent B","scrambled","STIM_SET_1/1591994.bmp_pp69_L3_V1.0_scrambled_freeview_isoFalse.mp4",""
"","","","call-function","110","251372","0.0-110.0","5xcenl4v","","","","","","","",""
"2655.1450000000186","{""judgement"":1}","[0]","survey-likert","111","254029","0.0-111.0","5xcenl4v","","","","","","","","0"
"1263.5400000000081","{""confidence"":2}","[0]","survey-likert","112","255293","0.0-112.0","5xcenl4v","","","","","","","",""
"","","","call-function","113","255294","0.0-113.0","5xcenl4v","","","","","","","",""
"null","","","html-keyboard-response","114","256798","0.0-114.0","5xcenl4v","","<span style=""color:Black; font-size:50px;"">Agent A","null","","","","",""
"null","","","video-keyboard-response","115","259878","0.0-115.0","5xcenl4v","","","null","","Agent A","veridical","STIM_SET_1/713593.bmp_pp64_L1_V1.0_veridical_freeview_isoFalse.mp4",""
"null","","","html-keyboard-response","116","261382","0.0-116.0","5xcenl4v","","<span style=""color:Black; font-size:50px;"">Agent B","null","","","","",""
"null","","","video-keyboard-response","117","264461","0.0-117.0","5xcenl4v","","","null","","Agent B","scrambled","STIM_SET_1/713593.bmp_pp64_L1_V1.0_scrambled_freeview_isoFalse.mp4",""
"","","","call-function","118","264462","0.0-118.0","5xcenl4v","","","","","","","",""
"2177.680000000051","{""judgement"":1}","[0]","survey-likert","119","266640","0.0-119.0","5xcenl4v","","","","","","","","0"
"2722.9799999999814","{""confidence"":2}","[0]","survey-likert","120","269365","0.0-120.0","5xcenl4v","","","","","","","",""
"","","","call-function","121","269365","0.0-121.0","5xcenl4v","","","","","","","",""
"null","","","html-keyboard-response","122","270868","0.0-122.0","5xcenl4v","","<span style=""color:Black; font-size:50px;"">Agent A","null","","","","",""
"null","","","video-keyboard-response","123","273943","0.0-123.0","5xcenl4v","","","null","","Agent A","veridical","STIM_SET_1/497950.bmp_pp151_L1_V1.0_veridical_freeview_isoFalse.mp4",""
"null","","","html-keyboard-response","124","275446","0.0-124.0","5xcenl4v","","<span style=""color:Black; font-size:50px;"">Agent B","null","","","","",""
"null","","","video-keyboard-response","125","278520","0.0-125.0","5xcenl4v","","","null","","Agent B","scrambled","STIM_SET_1/497950.bmp_pp151_L1_V1.0_scrambled_freeview_isoFalse.mp4",""
"","","","call-function","126","278520","0.0-126.0","5xcenl4v","","","","","","","",""
"1316.9899999999907","{""judgement"":0}","[0]","survey-likert","127","279839","0.0-127.0","5xcenl4v","","","","","","","","0"
"1864.289999999979","{""confidence"":2}","[0]","survey-likert","128","281705","0.0-128.0","5xcenl4v","","","","","","","",""
"","","","call-function","129","281705","0.0-129.0","5xcenl4v","","","","","","","",""
"null","","","html-keyboard-response","130","283211","0.0-130.0","5xcenl4v","","<span style=""color:Black; font-size:50px;"">Agent A","null","","","","",""
"null","","","video-keyboard-response","131","286338","0.0-131.0","5xcenl4v","","","null","","Agent A","scrambled","STIM_SET_1/1160168.bmp_pp53_L2_V1.0_scrambled_freeview_isoFalse.mp4",""
"null","","","html-keyboard-response","132","287842","0.0-132.0","5xcenl4v","","<span style=""color:Black; font-size:50px;"">Agent B","null","","","","",""
"null","","","video-keyboard-response","133","290927","0.0-133.0","5xcenl4v","","","null","","Agent B","veridical","STIM_SET_1/1160168.bmp_pp53_L2_V1.0_veridical_freeview_isoFalse.mp4",""
"","","","call-function","134","290927","0.0-134.0","5xcenl4v","","","","","","","",""
"2067.3850000000093","{""judgement"":1}","[0]","survey-likert","135","292996","0.0-135.0","5xcenl4v","","","","","","","","1"
"1556.280000000028","{""confidence"":2}","[0]","survey-likert","136","294553","0.0-136.0","5xcenl4v","","","","","","","",""
"","","","call-function","137","294554","0.0-137.0","5xcenl4v","","","","","","","",""
"null","","","html-keyboard-response","138","296057","0.0-138.0","5xcenl4v","","<span style=""color:Black; font-size:50px;"">Agent A","null","","","","",""
"null","","","video-keyboard-response","139","299174","0.0-139.0","5xcenl4v","","","null","","Agent A","veridical","STIM_SET_1/1159855.bmp_pp99_L2_V1.0_veridical_freeview_isoFalse.mp4",""
"null","","","html-keyboard-response","140","300676","0.0-140.0","5xcenl4v","","<span style=""color:Black; font-size:50px;"">Agent B","null","","","","",""
"null","","","video-keyboard-response","141","303797","0.0-141.0","5xcenl4v","","","null","","Agent B","scrambled","STIM_SET_1/1159855.bmp_pp99_L2_V1.0_scrambled_freeview_isoFalse.mp4",""
"","","","call-function","142","303797","0.0-142.0","5xcenl4v","","","","","","","",""
"8383.25","{""judgement"":0}","[0]","survey-likert","143","312182","0.0-143.0","5xcenl4v","","","","","","","","0"
"1491.0050000000047","{""confidence"":2}","[0]","survey-likert","144","313674","0.0-144.0","5xcenl4v","","","","","","","",""
"","","","call-function","145","313675","0.0-145.0","5xcenl4v","","","","","","","",""
"null","","","html-keyboard-response","146","315175","0.0-146.0","5xcenl4v","","<span style=""color:Black; font-size:50px;"">Agent A","null","","","","",""
"null","","","video-keyboard-response","147","318247","0.0-147.0","5xcenl4v","","","null","","Agent A","veridical","STIM_SET_1/1592499.bmp_pp96_L2_V1.0_veridical_freeview_isoFalse.mp4",""
"null","","","html-keyboard-response","148","319750","0.0-148.0","5xcenl4v","","<span style=""color:Black; font-size:50px;"">Agent B","null","","","","",""
"null","","","video-keyboard-response","149","322825","0.0-149.0","5xcenl4v","","","null","","Agent B","scrambled","STIM_SET_1/1592499.bmp_pp96_L2_V1.0_scrambled_freeview_isoFalse.mp4",""
"","","","call-function","150","322825","0.0-150.0","5xcenl4v","","","","","","","",""
"2200.1749999999884","{""judgement"":0}","[0]","survey-likert","151","325026","0.0-151.0","5xcenl4v","","","","","","","","0"
"1246.2900000000373","{""confidence"":2}","[0]","survey-likert","152","326274","0.0-152.0","5xcenl4v","","","","","","","",""
"","","","call-function","153","326274","0.0-153.0","5xcenl4v","","","","","","","",""
"null","","","html-keyboard-response","154","327777","0.0-154.0","5xcenl4v","","<span style=""color:Black; font-size:50px;"">Agent A","null","","","","",""
"null","","","video-keyboard-response","155","330842","0.0-155.0","5xcenl4v","","","null","","Agent A","scrambled","STIM_SET_1/1159446.bmp_pp60_L3_V1.0_scrambled_freeview_isoFalse.mp4",""
"null","","","html-keyboard-response","156","332347","0.0-156.0","5xcenl4v","","<span style=""color:Black; font-size:50px;"">Agent B","null","","","","",""
"null","","","video-keyboard-response","157","335414","0.0-157.0","5xcenl4v","","","null","","Agent B","veridical","STIM_SET_1/1159446.bmp_pp60_L3_V1.0_veridical_freeview_isoFalse.mp4",""
"","","","call-function","158","335415","0.0-158.0","5xcenl4v","","","","","","","",""
"1381.6449999999604","{""judgement"":1}","[0]","survey-likert","159","336797","0.0-159.0","5xcenl4v","","","","","","","","1"
"1901","{""confidence"":3}","[0]","survey-likert","160","338699","0.0-160.0","5xcenl4v","","","","","","","",""
"","","","call-function","161","338700","0.0-161.0","5xcenl4v","","","","","","","",""
"null","","","html-keyboard-response","162","340202","0.0-162.0","5xcenl4v","","<span style=""color:Black; font-size:50px;"">Agent A","null","","","","",""
"null","","","video-keyboard-response","163","343310","0.0-163.0","5xcenl4v","","","null","","Agent A","veridical","STIM_SET_1/498111.bmp_pp88_L2_V1.0_veridical_freeview_isoFalse.mp4",""
"null","","","html-keyboard-response","164","344818","0.0-164.0","5xcenl4v","","<span style=""color:Black; font-size:50px;"">Agent B","null","","","","",""
"null","","","video-keyboard-response","165","347924","0.0-165.0","5xcenl4v","","","null","","Agent B","scrambled","STIM_SET_1/498111.bmp_pp88_L2_V1.0_scrambled_freeview_isoFalse.mp4",""
"","","","call-function","166","347925","0.0-166.0","5xcenl4v","","","","","","","",""
"5273.639999999956","{""judgement"":0}","[0]","survey-likert","167","353199","0.0-167.0","5xcenl4v","","","","","","","","0"
"1876.6749999999884","{""confidence"":1}","[0]","survey-likert","168","355077","0.0-168.0","5xcenl4v","","","","","","","",""
"2560.9649999999674","","","instructions","169","357639","0.0-169.0","5xcenl4v","[{""page_index"":0,""viewing_time"":1193.8199999999488},{""page_index"":1,""viewing_time"":763.9050000000279},{""page_index"":2,""viewing_time"":603.0349999999744}]","","","","","","",""
"1111.625","","","instructions","170","358751","0.0-170.0","5xcenl4v","[{""page_index"":0,""viewing_time"":505.1149999999907},{""page_index"":1,""viewing_time"":440.10999999998603},{""page_index"":2,""viewing_time"":166.2849999999744}]","","","","","","",""
"","","","call-function","171","358752","0.0-171.0","5xcenl4v","","","","","","","",""
"null","","","html-keyboard-response","172","360255","0.0-172.0","5xcenl4v","","<span style=""color:Black; font-size:50px;"">Agent A","null","","","","",""
"null","","","video-keyboard-response","173","363372","0.0-173.0","5xcenl4v","","","null","","Agent A","veridical","STIM_SET_1/713513.bmp_pp62_L2_V1.0_veridical_freeview_isoFalse.mp4",""
"null","","","html-keyboard-response","174","364877","0.0-174.0","5xcenl4v","","<span style=""color:Black; font-size:50px;"">Agent B","null","","","","",""
"null","","","video-keyboard-response","175","367951","0.0-175.0","5xcenl4v","","","null","","Agent B","scrambled","STIM_SET_1/713513.bmp_pp62_L2_V1.0_scrambled_freeview_isoFalse.mp4",""
"","","","call-function","176","367952","0.0-176.0","5xcenl4v","","","","","","","",""
"2079.6900000000023","{""judgement"":1}","[0]","survey-likert","177","370034","0.0-177.0","5xcenl4v","","","","","","","","0"
"1398.6149999999907","{""confidence"":2}","[0]","survey-likert","178","371434","0.0-178.0","5xcenl4v","","","","","","","",""
"","","","call-function","179","371436","0.0-179.0","5xcenl4v","","","","","","","",""
"null","","","html-keyboard-response","180","372938","0.0-180.0","5xcenl4v","","<span style=""color:Black; font-size:50px;"">Agent A","null","","","","",""
"null","","","video-keyboard-response","181","376019","0.0-181.0","5xcenl4v","","","null","","Agent A","scrambled","STIM_SET_1/713666.bmp_pp97_L3_V1.0_scrambled_freeview_isoFalse.mp4",""
"null","","","html-keyboard-response","182","377525","0.0-182.0","5xcenl4v","","<span style=""color:Black; font-size:50px;"">Agent B","null","","","","",""
"null","","","video-keyboard-response","183","380604","0.0-183.0","5xcenl4v","","","null","","Agent B","veridical","STIM_SET_1/713666.bmp_pp97_L3_V1.0_veridical_freeview_isoFalse.mp4",""
"","","","call-function","184","380604","0.0-184.0","5xcenl4v","","","","","","","",""
"4540.099999999977","{""judgement"":0}","[0]","survey-likert","185","385145","0.0-185.0","5xcenl4v","","","","","","","","1"
"1306.070000000007","{""confidence"":2}","[0]","survey-likert","186","386453","0.0-186.0","5xcenl4v","","","","","","","",""
"","","","call-function","187","386454","0.0-187.0","5xcenl4v","","","","","","","",""
"null","","","html-keyboard-response","188","387955","0.0-188.0","5xcenl4v","","<span style=""color:Black; font-size:50px;"">Agent A","null","","","","",""
"null","","","video-keyboard-response","189","391037","0.0-189.0","5xcenl4v","","","null","","Agent A","scrambled","STIM_SET_1/498155.bmp_pp61_L2_V1.0_scrambled_freeview_isoFalse.mp4",""
"null","","","html-keyboard-response","190","392540","0.0-190.0","5xcenl4v","","<span style=""color:Black; font-size:50px;"">Agent B","null","","","","",""
"null","","","video-keyboard-response","191","395658","0.0-191.0","5xcenl4v","","","null","","Agent B","veridical","STIM_SET_1/498155.bmp_pp61_L2_V1.0_veridical_freeview_isoFalse.mp4",""
"","","","call-function","192","395658","0.0-192.0","5xcenl4v","","","","","","","",""
"6209.765000000014","{""judgement"":1}","[0]","survey-likert","193","401869","0.0-193.0","5xcenl4v","","","","","","","","1"
"1702.5100000000093","{""confidence"":1}","[0]","survey-likert","194","403573","0.0-194.0","5xcenl4v","","","","","","","",""
"","","","call-function","195","403573","0.0-195.0","5xcenl4v","","","","","","","",""
"null","","","html-keyboard-response","196","405074","0.0-196.0","5xcenl4v","","<span style=""color:Black; font-size:50px;"">Agent A","null","","","","",""
"null","","","video-keyboard-response","197","408152","0.0-197.0","5xcenl4v","","","null","","Agent A","scrambled","STIM_SET_1/713681.bmp_pp86_L2_V1.0_scrambled_freeview_isoFalse.mp4",""
"null","","","html-keyboard-response","198","409655","0.0-198.0","5xcenl4v","","<span style=""color:Black; font-size:50px;"">Agent B","null","","","","",""
"null","","","video-keyboard-response","199","412773","0.0-199.0","5xcenl4v","","","null","","Agent B","veridical","STIM_SET_1/713681.bmp_pp86_L2_V1.0_veridical_freeview_isoFalse.mp4",""
"","","","call-function","200","412773","0.0-200.0","5xcenl4v","","","","","","","",""
"2951.8300000000163","{""judgement"":1}","[0]","survey-likert","201","415726","0.0-201.0","5xcenl4v","","","","","","","","1"
"2178.625","{""confidence"":1}","[0]","survey-likert","202","417906","0.0-202.0","5xcenl4v","","","","","","","",""
"","","","call-function","203","417906","0.0-203.0","5xcenl4v","","","","","","","",""
"null","","","html-keyboard-response","204","419412","0.0-204.0","5xcenl4v","","<span style=""color:Black; font-size:50px;"">Agent A","null","","","","",""
"null","","","video-keyboard-response","205","422505","0.0-205.0","5xcenl4v","","","null","","Agent A","scrambled","STIM_SET_1/713684.bmp_pp85_L3_V1.0_scrambled_freeview_isoFalse.mp4",""
"null","","","html-keyboard-response","206","424009","0.0-206.0","5xcenl4v","","<span style=""color:Black; font-size:50px;"">Agent B","null","","","","",""
"null","","","video-keyboard-response","207","427105","0.0-207.0","5xcenl4v","","","null","","Agent B","veridical","STIM_SET_1/713684.bmp_pp85_L3_V1.0_veridical_freeview_isoFalse.mp4",""
"","","","call-function","208","427106","0.0-208.0","5xcenl4v","","","","","","","",""
"7355.390000000014","{""judgement"":1}","[0]","survey-likert","209","434462","0.0-209.0","5xcenl4v","","","","","","","","1"
"2814.3800000000047","{""confidence"":1}","[0]","survey-likert","210","437277","0.0-210.0","5xcenl4v","","","","","","","",""
"","","","call-function","211","437278","0.0-211.0","5xcenl4v","","","","","","","",""
"null","","","html-keyboard-response","212","438780","0.0-212.0","5xcenl4v","","<span style=""color:Black; font-size:50px;"">Agent A","null","","","","",""
"null","","","video-keyboard-response","213","441848","0.0-213.0","5xcenl4v","","","null","","Agent A","scrambled","STIM_SET_1/1593035.bmp_pp94_L2_V1.0_scrambled_freeview_isoFalse.mp4",""
"null","","","html-keyboard-response","214","443351","0.0-214.0","5xcenl4v","","<span style=""color:Black; font-size:50px;"">Agent B","null","","","","",""
"null","","","video-keyboard-response","215","446419","0.0-215.0","5xcenl4v","","","null","","Agent B","veridical","STIM_SET_1/1593035.bmp_pp94_L2_V1.0_veridical_freeview_isoFalse.mp4",""
"","","","call-function","216","446419","0.0-216.0","5xcenl4v","","","","","","","",""
"2099.5400000000373","{""judgement"":0}","[0]","survey-likert","217","448520","0.0-217.0","5xcenl4v","","","","","","","","1"
"2542.0050000000047","{""confidence"":1}","[0]","survey-likert","218","451063","0.0-218.0","5xcenl4v","","","","","","","",""
"","","","call-function","219","451064","0.0-219.0","5xcenl4v","","","","","","","",""
"null","","","html-keyboard-response","220","452565","0.0-220.0","5xcenl4v","","<span style=""color:Black; font-size:50px;"">Agent A","null","","","","",""
"null","","","video-keyboard-response","221","455637","0.0-221.0","5xcenl4v","","","null","","Agent A","veridical","STIM_SET_1/713135.bmp_pp54_L2_V1.0_veridical_freeview_isoFalse.mp4",""
"null","","","html-keyboard-response","222","457144","0.0-222.0","5xcenl4v","","<span style=""color:Black; font-size:50px;"">Agent B","null","","","","",""
"null","","","video-keyboard-response","223","460226","0.0-223.0","5xcenl4v","","","null","","Agent B","scrambled","STIM_SET_1/713135.bmp_pp54_L2_V1.0_scrambled_freeview_isoFalse.mp4",""
"","","","call-function","224","460227","0.0-224.0","5xcenl4v","","","","","","","",""
"1797.1599999999744","{""judgement"":1}","[0]","survey-likert","225","462026","0.0-225.0","5xcenl4v","","","","","","","","0"
"1698.2999999999884","{""confidence"":1}","[0]","survey-likert","226","463727","0.0-226.0","5xcenl4v","","","","","","","",""
"","","","call-function","227","463728","0.0-227.0","5xcenl4v","","","","","","","",""
"null","","","html-keyboard-response","228","465230","0.0-228.0","5xcenl4v","","<span style=""color:Black; font-size:50px;"">Agent A","null","","","","",""
"null","","","video-keyboard-response","229","468305","0.0-229.0","5xcenl4v","","","null","","Agent A","scrambled","STIM_SET_1/1159440.bmp_pp98_L1_V1.0_scrambled_freeview_isoFalse.mp4",""
"null","","","html-keyboard-response","230","469812","0.0-230.0","5xcenl4v","","<span style=""color:Black; font-size:50px;"">Agent B","null","","","","",""
"null","","","video-keyboard-response","231","472887","0.0-231.0","5xcenl4v","","","null","","Agent B","veridical","STIM_SET_1/1159440.bmp_pp98_L1_V1.0_veridical_freeview_isoFalse.mp4",""
"","","","call-function","232","472887","0.0-232.0","5xcenl4v","","","","","","","",""
"2007.7699999999604","{""judgement"":0}","[0]","survey-likert","233","474896","0.0-233.0","5xcenl4v","","","","","","","","1"
"1134.9700000000303","{""confidence"":2}","[0]","survey-likert","234","476032","0.0-234.0","5xcenl4v","","","","","","","",""
"","","","call-function","235","476033","0.0-235.0","5xcenl4v","","","","","","","",""
"null","","","html-keyboard-response","236","477536","0.0-236.0","5xcenl4v","","<span style=""color:Black; font-size:50px;"">Agent A","null","","","","",""
"null","","","video-keyboard-response","237","480610","0.0-237.0","5xcenl4v","","","null","","Agent A","scrambled","STIM_SET_1/1592397.bmp_pp85_L3_V1.0_scrambled_freeview_isoFalse.mp4",""
"null","","","html-keyboard-response","238","482113","0.0-238.0","5xcenl4v","","<span style=""color:Black; font-size:50px;"">Agent B","null","","","","",""
"null","","","video-keyboard-response","239","485187","0.0-239.0","5xcenl4v","","","null","","Agent B","veridical","STIM_SET_1/1592397.bmp_pp85_L3_V1.0_veridical_freeview_isoFalse.mp4",""
"","","","call-function","240","485188","0.0-240.0","5xcenl4v","","","","","","","",""
"4874.099999999977","{""judgement"":0}","[0]","survey-likert","241","490063","0.0-241.0","5xcenl4v","","","","","","","","1"
"1839.6149999999907","{""confidence"":2}","[0]","survey-likert","242","491904","0.0-242.0","5xcenl4v","","","","","","","",""
"","","","call-function","243","491904","0.0-243.0","5xcenl4v","","","","","","","",""
"null","","","html-keyboard-response","244","493406","0.0-244.0","5xcenl4v","","<span style=""color:Black; font-size:50px;"">Agent A","null","","","","",""
"null","","","video-keyboard-response","245","496518","0.0-245.0","5xcenl4v","","","null","","Agent A","veridical","STIM_SET_1/1159882.bmp_pp61_L2_V1.0_veridical_freeview_isoFalse.mp4",""
"null","","","html-keyboard-response","246","498024","0.0-246.0","5xcenl4v","","<span style=""color:Black; font-size:50px;"">Agent B","null","","","","",""
"null","","","video-keyboard-response","247","501135","0.0-247.0","5xcenl4v","","","null","","Agent B","scrambled","STIM_SET_1/1159882.bmp_pp61_L2_V1.0_scrambled_freeview_isoFalse.mp4",""
"","","","call-function","248","501135","0.0-248.0","5xcenl4v","","","","","","","",""
"1679.039999999979","{""judgement"":0}","[0]","survey-likert","249","502815","0.0-249.0","5xcenl4v","","","","","","","","0"
"1335.4150000000373","{""confidence"":2}","[0]","survey-likert","250","504152","0.0-250.0","5xcenl4v","","","","","","","",""
"2586.6050000000396","","","instructions","251","506739","0.0-251.0","5xcenl4v","[{""page_index"":0,""viewing_time"":1337.2700000000186},{""page_index"":1,""viewing_time"":929.0599999999977},{""page_index"":2,""viewing_time"":319.9650000000256}]","","","","","","",""
"732.4749999999767","","","instructions","252","507472","0.0-252.0","5xcenl4v","[{""page_index"":0,""viewing_time"":165.3299999999581},{""page_index"":1,""viewing_time"":414.820000000007},{""page_index"":2,""viewing_time"":152.2150000000256}]","","","","","","",""
"","","","call-function","253","507473","0.0-253.0","5xcenl4v","","","","","","","",""
"null","","","html-keyboard-response","254","508976","0.0-254.0","5xcenl4v","","<span style=""color:Black; font-size:50px;"">Agent A","null","","","","",""
"null","","","video-keyboard-response","255","512086","0.0-255.0","5xcenl4v","","","null","","Agent A","veridical","STIM_SET_1/1592351.bmp_pp51_L1_V1.0_veridical_freeview_isoFalse.mp4",""
"null","","","html-keyboard-response","256","513587","0.0-256.0","5xcenl4v","","<span style=""color:Black; font-size:50px;"">Agent B","null","","","","",""
"null","","","video-keyboard-response","257","516695","0.0-257.0","5xcenl4v","","","null","","Agent B","scrambled","STIM_SET_1/1592351.bmp_pp51_L1_V1.0_scrambled_freeview_isoFalse.mp4",""
"","","","call-function","258","516695","0.0-258.0","5xcenl4v","","","","","","","",""
"2590.2550000000047","{""judgement"":1}","[0]","survey-likert","259","519286","0.0-259.0","5xcenl4v","","","","","","","","0"
"1533.6900000000023","{""confidence"":1}","[0]","survey-likert","260","520821","0.0-260.0","5xcenl4v","","","","","","","",""
"","","","call-function","261","520822","0.0-261.0","5xcenl4v","","","","","","","",""
"null","","","html-keyboard-response","262","522323","0.0-262.0","5xcenl4v","","<span style=""color:Black; font-size:50px;"">Agent A","null","","","","",""
"null","","","video-keyboard-response","263","525431","0.0-263.0","5xcenl4v","","","null","","Agent A","scrambled","STIM_SET_1/1592817.bmp_pp55_L3_V1.0_scrambled_freeview_isoFalse.mp4",""
"null","","","html-keyboard-response","264","526934","0.0-264.0","5xcenl4v","","<span style=""color:Black; font-size:50px;"">Agent B","null","","","","",""
"null","","","video-keyboard-response","265","530039","0.0-265.0","5xcenl4v","","","null","","Agent B","veridical","STIM_SET_1/1592817.bmp_pp55_L3_V1.0_veridical_freeview_isoFalse.mp4",""
"","","","call-function","266","530040","0.0-266.0","5xcenl4v","","","","","","","",""
"1530.4899999999907","{""judgement"":1}","[0]","survey-likert","267","531571","0.0-267.0","5xcenl4v","","","","","","","","1"
"1404.9399999999441","{""confidence"":1}","[0]","survey-likert","268","532978","0.0-268.0","5xcenl4v","","","","","","","",""
"","","","call-function","269","532979","0.0-269.0","5xcenl4v","","","","","","","",""
"null","","","html-keyboard-response","270","534482","0.0-270.0","5xcenl4v","","<span style=""color:Black; font-size:50px;"">Agent A","null","","","","",""
"null","","","video-keyboard-response","271","537550","0.0-271.0","5xcenl4v","","","null","","Agent A","veridical","STIM_SET_1/1592133.bmp_pp75_L1_V1.0_veridical_freeview_isoFalse.mp4",""
"null","","","html-keyboard-response","272","539053","0.0-272.0","5xcenl4v","","<span style=""color:Black; font-size:50px;"">Agent B","null","","","","",""
"null","","","video-keyboard-response","273","542125","0.0-273.0","5xcenl4v","","","null","","Agent B","scrambled","STIM_SET_1/1592133.bmp_pp75_L1_V1.0_scrambled_freeview_isoFalse.mp4",""
"","","","call-function","274","542125","0.0-274.0","5xcenl4v","","","","","","","",""
"1347.3800000000047","{""judgement"":1}","[0]","survey-likert","275","543474","0.0-275.0","5xcenl4v","","","","","","","","0"
"1249.1699999999255","{""confidence"":2}","[0]","survey-likert","276","544724","0.0-276.0","5xcenl4v","","","","","","","",""
"","","","call-function","277","544725","0.0-277.0","5xcenl4v","","","","","","","",""
"null","","","html-keyboard-response","278","546228","0.0-278.0","5xcenl4v","","<span style=""color:Black; font-size:50px;"">Agent A","null","","","","",""
"null","","","video-keyboard-response","279","549299","0.0-279.0","5xcenl4v","","","null","","Agent A","scrambled","STIM_SET_1/1592362.bmp_pp95_L2_V1.0_scrambled_freeview_isoFalse.mp4",""
"null","","","html-keyboard-response","280","550801","0.0-280.0","5xcenl4v","","<span style=""color:Black; font-size:50px;"">Agent B","null","","","","",""
"null","","","video-keyboard-response","281","553879","0.0-281.0","5xcenl4v","","","null","","Agent B","veridical","STIM_SET_1/1592362.bmp_pp95_L2_V1.0_veridical_freeview_isoFalse.mp4",""
"","","","call-function","282","553880","0.0-282.0","5xcenl4v","","","","","","","",""
"1913.6600000000326","{""judgement"":1}","[0]","survey-likert","283","555794","0.0-283.0","5xcenl4v","","","","","","","","1"
"1456.829999999958","{""confidence"":2}","[0]","survey-likert","284","557252","0.0-284.0","5xcenl4v","","","","","","","",""
"","","","call-function","285","557253","0.0-285.0","5xcenl4v","","","","","","","",""
"null","","","html-keyboard-response","286","558754","0.0-286.0","5xcenl4v","","<span style=""color:Black; font-size:50px;"">Agent A","null","","","","",""
"null","","","video-keyboard-response","287","561835","0.0-287.0","5xcenl4v","","","null","","Agent A","scrambled","STIM_SET_1/1159675.bmp_pp77_L3_V1.0_scrambled_freeview_isoFalse.mp4",""
"null","","","html-keyboard-response","288","563340","0.0-288.0","5xcenl4v","","<span style=""color:Black; font-size:50px;"">Agent B","null","","","","",""
"null","","","video-keyboard-response","289","566423","0.0-289.0","5xcenl4v","","","null","","Agent B","veridical","STIM_SET_1/1159675.bmp_pp77_L3_V1.0_veridical_freeview_isoFalse.mp4",""
"","","","call-function","290","566424","0.0-290.0","5xcenl4v","","","","","","","",""
"2929.164999999921","{""judgement"":0}","[0]","survey-likert","291","569354","0.0-291.0","5xcenl4v","","","","","","","","1"
"1874.5050000000047","{""confidence"":2}","[0]","survey-likert","292","571230","0.0-292.0","5xcenl4v","","","","","","","",""
"","","","call-function","293","571230","0.0-293.0","5xcenl4v","","","","","","","",""
"null","","","html-keyboard-response","294","572737","0.0-294.0","5xcenl4v","","<span style=""color:Black; font-size:50px;"">Agent A","null","","","","",""
"null","","","video-keyboard-response","295","575818","0.0-295.0","5xcenl4v","","","null","","Agent A","scrambled","STIM_SET_1/1592890.bmp_pp82_L2_V1.0_scrambled_freeview_isoFalse.mp4",""
"null","","","html-keyboard-response","296","577324","0.0-296.0","5xcenl4v","","<span style=""color:Black; font-size:50px;"">Agent B","null","","","","",""
"null","","","video-keyboard-response","297","580403","0.0-297.0","5xcenl4v","","","null","","Agent B","veridical","STIM_SET_1/1592890.bmp_pp82_L2_V1.0_veridical_freeview_isoFalse.mp4",""
"","","","call-function","298","580404","0.0-298.0","5xcenl4v","","","","","","","",""
"2879.8850000000093","{""judgement"":1}","[0]","survey-likert","299","583285","0.0-299.0","5xcenl4v","","","","","","","","1"
"2444.8499999999767","{""confidence"":1}","[0]","survey-likert","300","585731","0.0-300.0","5xcenl4v","","","","","","","",""
"","","","call-function","301","585732","0.0-301.0","5xcenl4v","","","","","","","",""
"null","","","html-keyboard-response","302","587234","0.0-302.0","5xcenl4v","","<span style=""color:Black; font-size:50px;"">Agent A","null","","","","",""
"null","","","video-keyboard-response","303","590363","0.0-303.0","5xcenl4v","","","null","","Agent A","scrambled","STIM_SET_1/1591954.bmp_pp62_L2_V1.0_scrambled_freeview_isoFalse.mp4",""
"null","","","html-keyboard-response","304","591865","0.0-304.0","5xcenl4v","","<span style=""color:Black; font-size:50px;"">Agent B","null","","","","",""
"null","","","video-keyboard-response","305","594944","0.0-305.0","5xcenl4v","","","null","","Agent B","veridical","STIM_SET_1/1591954.bmp_pp62_L2_V1.0_veridical_freeview_isoFalse.mp4",""
"","","","call-function","306","594946","0.0-306.0","5xcenl4v","","","","","","","",""
"2853.4499999999534","{""judgement"":0}","[0]","survey-likert","307","597801","0.0-307.0","5xcenl4v","","","","","","","","1"
"1102.719999999972","{""confidence"":1}","[0]","survey-likert","308","598905","0.0-308.0","5xcenl4v","","","","","","","",""
"","","","call-function","309","598906","0.0-309.0","5xcenl4v","","","","","","","",""
"null","","","html-keyboard-response","310","600408","0.0-310.0","5xcenl4v","","<span style=""color:Black; font-size:50px;"">Agent A","null","","","","",""
"null","","","video-keyboard-response","311","603478","0.0-311.0","5xcenl4v","","","null","","Agent A","scrambled","STIM_SET_1/713403.bmp_pp80_L3_V1.0_scrambled_freeview_isoFalse.mp4",""
"null","","","html-keyboard-response","312","604982","0.0-312.0","5xcenl4v","","<span style=""color:Black; font-size:50px;"">Agent B","null","","","","",""
"null","","","video-keyboard-response","313","608052","0.0-313.0","5xcenl4v","","","null","","Agent B","veridical","STIM_SET_1/713403.bmp_pp80_L3_V1.0_veridical_freeview_isoFalse.mp4",""
"","","","call-function","314","608052","0.0-314.0","5xcenl4v","","","","","","","",""
"1684.7099999999627","{""judgement"":1}","[0]","survey-likert","315","609738","0.0-315.0","5xcenl4v","","","","","","","","1"
"1222.0399999999208","{""confidence"":2}","[0]","survey-likert","316","610962","0.0-316.0","5xcenl4v","","","","","","","",""
"","","","call-function","317","610962","0.0-317.0","5xcenl4v","","","","","","","",""
"null","","","html-keyboard-response","318","612464","0.0-318.0","5xcenl4v","","<span style=""color:Black; font-size:50px;"">Agent A","null","","","","",""
"null","","","video-keyboard-response","319","615536","0.0-319.0","5xcenl4v","","","null","","Agent A","scrambled","STIM_SET_1/1159813.bmp_pp79_L2_V1.0_scrambled_freeview_isoFalse.mp4",""
"null","","","html-keyboard-response","320","617038","0.0-320.0","5xcenl4v","","<span style=""color:Black; font-size:50px;"">Agent B","null","","","","",""
"null","","","video-keyboard-response","321","620146","0.0-321.0","5xcenl4v","","","null","","Agent B","veridical","STIM_SET_1/1159813.bmp_pp79_L2_V1.0_veridical_freeview_isoFalse.mp4",""
"","","","call-function","322","620146","0.0-322.0","5xcenl4v","","","","","","","",""
"5427.160000000033","{""judgement"":1}","[0]","survey-likert","323","625574","0.0-323.0","5xcenl4v","","","","","","","","1"
"2953.6600000000326","{""confidence"":1}","[0]","survey-likert","324","628530","0.0-324.0","5xcenl4v","","","","","","","",""
"","","","call-function","325","628530","0.0-325.0","5xcenl4v","","","","","","","",""
"null","","","html-keyboard-response","326","630031","0.0-326.0","5xcenl4v","","<span style=""color:Black; font-size:50px;"">Agent A","null","","","","",""
"null","","","video-keyboard-response","327","633103","0.0-327.0","5xcenl4v","","","null","","Agent A","veridical","STIM_SET_1/498170.bmp_pp153_L3_V1.0_veridical_freeview_isoFalse.mp4",""
"null","","","html-keyboard-response","328","634607","0.0-328.0","5xcenl4v","","<span style=""color:Black; font-size:50px;"">Agent B","null","","","","",""
"null","","","video-keyboard-response","329","637678","0.0-329.0","5xcenl4v","","","null","","Agent B","scrambled","STIM_SET_1/498170.bmp_pp153_L3_V1.0_scrambled_freeview_isoFalse.mp4",""
"","","","call-function","330","637678","0.0-330.0","5xcenl4v","","","","","","","",""
"1851.8000000000466","{""judgement"":1}","[0]","survey-likert","331","639531","0.0-331.0","5xcenl4v","","","","","","","","0"
"1258.8450000000885","{""confidence"":2}","[0]","survey-likert","332","640791","0.0-332.0","5xcenl4v","","","","","","","",""
"2169.179999999935","","","instructions","333","642961","0.0-333.0","5xcenl4v","[{""page_index"":0,""viewing_time"":1579.75},{""page_index"":1,""viewing_time"":429.02499999990687},{""page_index"":2,""viewing_time"":160.18500000005588}]","","","","","","",""
"710.1299999998882","","","instructions","334","643672","0.0-334.0","5xcenl4v","[{""page_index"":0,""viewing_time"":139.30999999993946},{""page_index"":1,""viewing_time"":138.9899999999907},{""page_index"":2,""viewing_time"":431.71999999997206}]","","","","","","",""
"","","","call-function","335","643672","0.0-335.0","5xcenl4v","","","","","","","",""
"null","","","html-keyboard-response","336","645176","0.0-336.0","5xcenl4v","","<span style=""color:Black; font-size:50px;"">Agent A","null","","","","",""
"null","","","video-keyboard-response","337","648293","0.0-337.0","5xcenl4v","","","null","","Agent A","scrambled","STIM_SET_1/713749.bmp_pp88_L2_V1.0_scrambled_freeview_isoFalse.mp4",""
"null","","","html-keyboard-response","338","649796","0.0-338.0","5xcenl4v","","<span style=""color:Black; font-size:50px;"">Agent B","null","","","","",""
"null","","","video-keyboard-response","339","652913","0.0-339.0","5xcenl4v","","","null","","Agent B","veridical","STIM_SET_1/713749.bmp_pp88_L2_V1.0_veridical_freeview_isoFalse.mp4",""
"","","","call-function","340","652914","0.0-340.0","5xcenl4v","","","","","","","",""
"1771.9100000000326","{""judgement"":1}","[0]","survey-likert","341","654686","0.0-341.0","5xcenl4v","","","","","","","","1"
"1052.8249999999534","{""confidence"":2}","[0]","survey-likert","342","655740","0.0-342.0","5xcenl4v","","","","","","","",""
"","","","call-function","343","655741","0.0-343.0","5xcenl4v","","","","","","","",""
"null","","","html-keyboard-response","344","657243","0.0-344.0","5xcenl4v","","<span style=""color:Black; font-size:50px;"">Agent A","null","","","","",""
"null","","","video-keyboard-response","345","660305","0.0-345.0","5xcenl4v","","","null","","Agent A","scrambled","STIM_SET_1/713760.bmp_pp81_L1_V1.0_scrambled_freeview_isoFalse.mp4",""
"null","","","html-keyboard-response","346","661809","0.0-346.0","5xcenl4v","","<span style=""color:Black; font-size:50px;"">Agent B","null","","","","",""
"null","","","video-keyboard-response","347","664919","0.0-347.0","5xcenl4v","","","null","","Agent B","veridical","STIM_SET_1/713760.bmp_pp81_L1_V1.0_veridical_freeview_isoFalse.mp4",""
"","","","call-function","348","664920","0.0-348.0","5xcenl4v","","","","","","","",""
"2378.9649999999674","{""judgement"":0}","[0]","survey-likert","349","667300","0.0-349.0","5xcenl4v","","","","","","","","1"
"1616.1350000000093","{""confidence"":2}","[0]","survey-likert","350","668917","0.0-350.0","5xcenl4v","","","","","","","",""
"","","","call-function","351","668918","0.0-351.0","5xcenl4v","","","","","","","",""
"null","","","html-keyboard-response","352","670420","0.0-352.0","5xcenl4v","","<span style=""color:Black; font-size:50px;"">Agent A","null","","","","",""
"null","","","video-keyboard-response","353","673499","0.0-353.0","5xcenl4v","","","null","","Agent A","veridical","STIM_SET_1/1159777.bmp_pp77_L3_V1.0_veridical_freeview_isoFalse.mp4",""
"null","","","html-keyboard-response","354","675003","0.0-354.0","5xcenl4v","","<span style=""color:Black; font-size:50px;"">Agent B","null","","","","",""
"null","","","video-keyboard-response","355","678084","0.0-355.0","5xcenl4v","","","null","","Agent B","scrambled","STIM_SET_1/1159777.bmp_pp77_L3_V1.0_scrambled_freeview_isoFalse.mp4",""
"","","","call-function","356","678085","0.0-356.0","5xcenl4v","","","","","","","",""
"3189.8700000001118","{""judgement"":1}","[0]","survey-likert","357","681275","0.0-357.0","5xcenl4v","","","","","","","","0"
"2034.1450000000186","{""confidence"":1}","[0]","survey-likert","358","683311","0.0-358.0","5xcenl4v","","","","","","","",""
"","","","call-function","359","683311","0.0-359.0","5xcenl4v","","","","","","","",""
"null","","","html-keyboard-response","360","684814","0.0-360.0","5xcenl4v","","<span style=""color:Black; font-size:50px;"">Agent A","null","","","","",""
"null","","","video-keyboard-response","361","687890","0.0-361.0","5xcenl4v","","","null","","Agent A","veridical","STIM_SET_1/285905.bmp_pp57_L1_V1.0_veridical_freeview_isoFalse.mp4",""
"null","","","html-keyboard-response","362","689396","0.0-362.0","5xcenl4v","","<span style=""color:Black; font-size:50px;"">Agent B","null","","","","",""
"null","","","video-keyboard-response","363","692516","0.0-363.0","5xcenl4v","","","null","","Agent B","scrambled","STIM_SET_1/285905.bmp_pp57_L1_V1.0_scrambled_freeview_isoFalse.mp4",""
"","","","call-function","364","692517","0.0-364.0","5xcenl4v","","","","","","","",""
"4629.140000000014","{""judgement"":1}","[0]","survey-likert","365","697147","0.0-365.0","5xcenl4v","","","","","","","","0"
"1089.1199999999953","{""confidence"":2}","[0]","survey-likert","366","698237","0.0-366.0","5xcenl4v","","","","","","","",""
"","","","call-function","367","698238","0.0-367.0","5xcenl4v","","","","","","","",""
"null","","","html-keyboard-response","368","699740","0.0-368.0","5xcenl4v","","<span style=""color:Black; font-size:50px;"">Agent A","null","","","","",""
"null","","","video-keyboard-response","369","702855","0.0-369.0","5xcenl4v","","","null","","Agent A","scrambled","STIM_SET_1/713089.bmp_pp60_L3_V1.0_scrambled_freeview_isoFalse.mp4",""
"null","","","html-keyboard-response","370","704358","0.0-370.0","5xcenl4v","","<span style=""color:Black; font-size:50px;"">Agent B","null","","","","",""
"null","","","video-keyboard-response","371","707424","0.0-371.0","5xcenl4v","","","null","","Agent B","veridical","STIM_SET_1/713089.bmp_pp60_L3_V1.0_veridical_freeview_isoFalse.mp4",""
"","","","call-function","372","707426","0.0-372.0","5xcenl4v","","","","","","","",""
"3016.920000000042","{""judgement"":1}","[0]","survey-likert","373","710444","0.0-373.0","5xcenl4v","","","","","","","","1"
"1647.9100000000326","{""confidence"":2}","[0]","survey-likert","374","712094","0.0-374.0","5xcenl4v","","","","","","","",""
"","","","call-function","375","712094","0.0-375.0","5xcenl4v","","","","","","","",""
"null","","","html-keyboard-response","376","713598","0.0-376.0","5xcenl4v","","<span style=""color:Black; font-size:50px;"">Agent A","null","","","","",""
"null","","","video-keyboard-response","377","716673","0.0-377.0","5xcenl4v","","","null","","Agent A","veridical","STIM_SET_1/1593041.bmp_pp58_L1_V1.0_veridical_freeview_isoFalse.mp4",""
"null","","","html-keyboard-response","378","718177","0.0-378.0","5xcenl4v","","<span style=""color:Black; font-size:50px;"">Agent B","null","","","","",""
"null","","","video-keyboard-response","379","721253","0.0-379.0","5xcenl4v","","","null","","Agent B","scrambled","STIM_SET_1/1593041.bmp_pp58_L1_V1.0_scrambled_freeview_isoFalse.mp4",""
"","","","call-function","380","721254","0.0-380.0","5xcenl4v","","","","","","","",""
"2297.75","{""judgement"":1}","[0]","survey-likert","381","723553","0.0-381.0","5xcenl4v","","","","","","","","0"
"1916.2149999999674","{""confidence"":1}","[0]","survey-likert","382","725471","0.0-382.0","5xcenl4v","","","","","","","",""
"","","","call-function","383","725471","0.0-383.0","5xcenl4v","","","","","","","",""
"null","","","html-keyboard-response","384","726978","0.0-384.0","5xcenl4v","","<span style=""color:Black; font-size:50px;"">Agent A","null","","","","",""
"null","","","video-keyboard-response","385","730055","0.0-385.0","5xcenl4v","","","null","","Agent A","veridical","STIM_SET_1/1160127.bmp_pp90_L2_V1.0_veridical_freeview_isoFalse.mp4",""
"null","","","html-keyboard-response","386","731558","0.0-386.0","5xcenl4v","","<span style=""color:Black; font-size:50px;"">Agent B","null","","","","",""
"null","","","video-keyboard-response","387","734663","0.0-387.0","5xcenl4v","","","null","","Agent B","scrambled","STIM_SET_1/1160127.bmp_pp90_L2_V1.0_scrambled_freeview_isoFalse.mp4",""
"","","","call-function","388","734664","0.0-388.0","5xcenl4v","","","","","","","",""
"1776.3150000000605","{""judgement"":1}","[0]","survey-likert","389","736441","0.0-389.0","5xcenl4v","","","","","","","","0"
"2037.75","{""confidence"":1}","[0]","survey-likert","390","738480","0.0-390.0","5xcenl4v","","","","","","","",""
"","","","call-function","391","738481","0.0-391.0","5xcenl4v","","","","","","","",""
"null","","","html-keyboard-response","392","739983","0.0-392.0","5xcenl4v","","<span style=""color:Black; font-size:50px;"">Agent A","null","","","","",""
"null","","","video-keyboard-response","393","743100","0.0-393.0","5xcenl4v","","","null","","Agent A","scrambled","STIM_SET_1/498253.bmp_pp67_L2_V1.0_scrambled_freeview_isoFalse.mp4",""
"null","","","html-keyboard-response","394","744602","0.0-394.0","5xcenl4v","","<span style=""color:Black; font-size:50px;"">Agent B","null","","","","",""
"null","","","video-keyboard-response","395","747718","0.0-395.0","5xcenl4v","","","null","","Agent B","veridical","STIM_SET_1/498253.bmp_pp67_L2_V1.0_veridical_freeview_isoFalse.mp4",""
"","","","call-function","396","747718","0.0-396.0","5xcenl4v","","","","","","","",""
"1355.4450000000652","{""judgement"":0}","[0]","survey-likert","397","749074","0.0-397.0","5xcenl4v","","","","","","","","1"
"1219.0550000000512","{""confidence"":2}","[0]","survey-likert","398","750295","0.0-398.0","5xcenl4v","","","","","","","",""
"","","","call-function","399","750295","0.0-399.0","5xcenl4v","","","","","","","",""
"null","","","html-keyboard-response","400","751800","0.0-400.0","5xcenl4v","","<span style=""color:Black; font-size:50px;"">Agent A","null","","","","",""
"null","","","video-keyboard-response","401","754921","0.0-401.0","5xcenl4v","","","null","","Agent A","veridical","STIM_SET_1/1592807.bmp_pp68_L1_V1.0_veridical_freeview_isoFalse.mp4",""
"null","","","html-keyboard-response","402","756428","0.0-402.0","5xcenl4v","","<span style=""color:Black; font-size:50px;"">Agent B","null","","","","",""
"null","","","video-keyboard-response","403","759553","0.0-403.0","5xcenl4v","","","null","","Agent B","scrambled","STIM_SET_1/1592807.bmp_pp68_L1_V1.0_scrambled_freeview_isoFalse.mp4",""
"","","","call-function","404","759553","0.0-404.0","5xcenl4v","","","","","","","",""
"2782.9749999999767","{""judgement"":0}","[0]","survey-likert","405","762337","0.0-405.0","5xcenl4v","","","","","","","","0"
"1486.984999999986","{""confidence"":2}","[0]","survey-likert","406","763826","0.0-406.0","5xcenl4v","","","","","","","",""
"","","","call-function","407","763826","0.0-407.0","5xcenl4v","","","","","","","",""
"null","","","html-keyboard-response","408","765327","0.0-408.0","5xcenl4v","","<span style=""color:Black; font-size:50px;"">Agent A","null","","","","",""
"null","","","video-keyboard-response","409","768445","0.0-409.0","5xcenl4v","","","null","","Agent A","scrambled","STIM_SET_1/1593146.bmp_pp93_L1_V1.0_scrambled_freeview_isoFalse.mp4",""
"null","","","html-keyboard-response","410","769952","0.0-410.0","5xcenl4v","","<span style=""color:Black; font-size:50px;"">Agent B","null","","","","",""
"null","","","video-keyboard-response","411","773032","0.0-411.0","5xcenl4v","","","null","","Agent B","veridical","STIM_SET_1/1593146.bmp_pp93_L1_V1.0_veridical_freeview_isoFalse.mp4",""
"","","","call-function","412","773033","0.0-412.0","5xcenl4v","","","","","","","",""
"2711.859999999986","{""judgement"":0}","[0]","survey-likert","413","775746","0.0-413.0","5xcenl4v","","","","","","","","1"
"1760.1899999999441","{""confidence"":1}","[0]","survey-likert","414","777508","0.0-414.0","5xcenl4v","","","","","","","",""
"2275.969999999972","","","instructions","415","779784","0.0-415.0","5xcenl4v","[{""page_index"":0,""viewing_time"":1931.3800000000047},{""page_index"":1,""viewing_time"":169.30500000005122},{""page_index"":2,""viewing_time"":174.93499999993946}]","","","","","","",""
"718.2999999999302","","","instructions","416","780503","0.0-416.0","5xcenl4v","[{""page_index"":0,""viewing_time"":154.15499999991152},{""page_index"":1,""viewing_time"":362.6600000000326},{""page_index"":2,""viewing_time"":201.3649999999907}]","","","","","","",""
"","","","call-function","417","780504","0.0-417.0","5xcenl4v","","","","","","","",""
"null","","","html-keyboard-response","418","782010","0.0-418.0","5xcenl4v","","<span style=""color:Black; font-size:50px;"">Agent A","null","","","","",""
"null","","","video-keyboard-response","419","785085","0.0-419.0","5xcenl4v","","","null","","Agent A","veridical","STIM_SET_1/1592581.bmp_pp100_L3_V1.0_veridical_freeview_isoFalse.mp4",""
"null","","","html-keyboard-response","420","786587","0.0-420.0","5xcenl4v","","<span style=""color:Black; font-size:50px;"">Agent B","null","","","","",""
"null","","","video-keyboard-response","421","789661","0.0-421.0","5xcenl4v","","","null","","Agent B","scrambled","STIM_SET_1/1592581.bmp_pp100_L3_V1.0_scrambled_freeview_isoFalse.mp4",""
"","","","call-function","422","789662","0.0-422.0","5xcenl4v","","","","","","","",""
"1378.0550000000512","{""judgement"":1}","[0]","survey-likert","423","791041","0.0-423.0","5xcenl4v","","","","","","","","0"
"1617.859999999986","{""confidence"":1}","[0]","survey-likert","424","792660","0.0-424.0","5xcenl4v","","","","","","","",""
"","","","call-function","425","792660","0.0-425.0","5xcenl4v","","","","","","","",""
"null","","","html-keyboard-response","426","794166","0.0-426.0","5xcenl4v","","<span style=""color:Black; font-size:50px;"">Agent A","null","","","","",""
"null","","","video-keyboard-response","427","797240","0.0-427.0","5xcenl4v","","","null","","Agent A","veridical","STIM_SET_1/1159829.bmp_pp91_L3_V1.0_veridical_freeview_isoFalse.mp4",""
"null","","","html-keyboard-response","428","798747","0.0-428.0","5xcenl4v","","<span style=""color:Black; font-size:50px;"">Agent B","null","","","","",""
"null","","","video-keyboard-response","429","801864","0.0-429.0","5xcenl4v","","","null","","Agent B","scrambled","STIM_SET_1/1159829.bmp_pp91_L3_V1.0_scrambled_freeview_isoFalse.mp4",""
"","","","call-function","430","801865","0.0-430.0","5xcenl4v","","","","","","","",""
"2102.9400000000605","{""judgement"":1}","[0]","survey-likert","431","803970","0.0-431.0","5xcenl4v","","","","","","","","0"
"1143.1950000000652","{""confidence"":2}","[0]","survey-likert","432","805116","0.0-432.0","5xcenl4v","","","","","","","",""
"","","","call-function","433","805117","0.0-433.0","5xcenl4v","","","","","","","",""
"null","","","html-keyboard-response","434","806621","0.0-434.0","5xcenl4v","","<span style=""color:Black; font-size:50px;"">Agent A","null","","","","",""
"null","","","video-keyboard-response","435","809699","0.0-435.0","5xcenl4v","","","null","","Agent A","scrambled","STIM_SET_1/1592804.bmp_pp91_L3_V1.0_scrambled_freeview_isoFalse.mp4",""
"null","","","html-keyboard-response","436","811204","0.0-436.0","5xcenl4v","","<span style=""color:Black; font-size:50px;"">Agent B","null","","","","",""
"null","","","video-keyboard-response","437","814287","0.0-437.0","5xcenl4v","","","null","","Agent B","veridical","STIM_SET_1/1592804.bmp_pp91_L3_V1.0_veridical_freeview_isoFalse.mp4",""
"","","","call-function","438","814288","0.0-438.0","5xcenl4v","","","","","","","",""
"2514.3000000000466","{""judgement"":1}","[0]","survey-likert","439","816803","0.0-439.0","5xcenl4v","","","","","","","","1"
"1535.2750000000233","{""confidence"":1}","[0]","survey-likert","440","818340","0.0-440.0","5xcenl4v","","","","","","","",""
"","","","call-function","441","818341","0.0-441.0","5xcenl4v","","","","","","","",""
"null","","","html-keyboard-response","442","819842","0.0-442.0","5xcenl4v","","<span style=""color:Black; font-size:50px;"">Agent A","null","","","","",""
"null","","","video-keyboard-response","443","822922","0.0-443.0","5xcenl4v","","","null","","Agent A","scrambled","STIM_SET_1/498175.bmp_pp154_L1_V1.0_scrambled_freeview_isoFalse.mp4",""
"null","","","html-keyboard-response","444","824424","0.0-444.0","5xcenl4v","","<span style=""color:Black; font-size:50px;"">Agent B","null","","","","",""
"null","","","video-keyboard-response","445","827504","0.0-445.0","5xcenl4v","","","null","","Agent B","veridical","STIM_SET_1/498175.bmp_pp154_L1_V1.0_veridical_freeview_isoFalse.mp4",""
"","","","call-function","446","827504","0.0-446.0","5xcenl4v","","","","","","","",""
"1606.9700000000885","{""judgement"":1}","[0]","survey-likert","447","829112","0.0-447.0","5xcenl4v","","","","","","","","1"
"2253.6650000000373","{""confidence"":2}","[0]","survey-likert","448","831367","0.0-448.0","5xcenl4v","","","","","","","",""
"","","","call-function","449","831368","0.0-449.0","5xcenl4v","","","","","","","",""
"null","","","html-keyboard-response","450","832869","0.0-450.0","5xcenl4v","","<span style=""color:Black; font-size:50px;"">Agent A","null","","","","",""
"null","","","video-keyboard-response","451","835982","0.0-451.0","5xcenl4v","","","null","","Agent A","veridical","STIM_SET_1/1592619.bmp_pp56_L3_V1.0_veridical_freeview_isoFalse.mp4",""
"null","","","html-keyboard-response","452","837488","0.0-452.0","5xcenl4v","","<span style=""color:Black; font-size:50px;"">Agent B","null","","","","",""
"null","","","video-keyboard-response","453","840599","0.0-453.0","5xcenl4v","","","null","","Agent B","scrambled","STIM_SET_1/1592619.bmp_pp56_L3_V1.0_scrambled_freeview_isoFalse.mp4",""
"","","","call-function","454","840600","0.0-454.0","5xcenl4v","","","","","","","",""
"1687.0800000000745","{""judgement"":0}","[0]","survey-likert","455","842288","0.0-455.0","5xcenl4v","","","","","","","","0"
"1717.5899999999674","{""confidence"":2}","[0]","survey-likert","456","844007","0.0-456.0","5xcenl4v","","","","","","","",""
"","","","call-function","457","844008","0.0-457.0","5xcenl4v","","","","","","","",""
"null","","","html-keyboard-response","458","845512","0.0-458.0","5xcenl4v","","<span style=""color:Black; font-size:50px;"">Agent A","null","","","","",""
"null","","","video-keyboard-response","459","848634","0.0-459.0","5xcenl4v","","","null","","Agent A","scrambled","STIM_SET_1/1592372.bmp_pp76_L1_V1.0_scrambled_freeview_isoFalse.mp4",""
"null","","","html-keyboard-response","460","850140","0.0-460.0","5xcenl4v","","<span style=""color:Black; font-size:50px;"">Agent B","null","","","","",""
"null","","","video-keyboard-response","461","853260","0.0-461.0","5xcenl4v","","","null","","Agent B","veridical","STIM_SET_1/1592372.bmp_pp76_L1_V1.0_veridical_freeview_isoFalse.mp4",""
"","","","call-function","462","853260","0.0-462.0","5xcenl4v","","","","","","","",""
"1496.1049999999814","{""judgement"":1}","[0]","survey-likert","463","854757","0.0-463.0","5xcenl4v","","","","","","","","1"
"1914.7149999999674","{""confidence"":1}","[0]","survey-likert","464","856673","0.0-464.0","5xcenl4v","","","","","","","",""
"","","","call-function","465","856674","0.0-465.0","5xcenl4v","","","","","","","",""
"null","","","html-keyboard-response","466","858177","0.0-466.0","5xcenl4v","","<span style=""color:Black; font-size:50px;"">Agent A","null","","","","",""
"null","","","video-keyboard-response","467","861295","0.0-467.0","5xcenl4v","","","null","","Agent A","scrambled","STIM_SET_1/1592286.bmp_pp52_L1_V1.0_scrambled_freeview_isoFalse.mp4",""
"null","","","html-keyboard-response","468","862798","0.0-468.0","5xcenl4v","","<span style=""color:Black; font-size:50px;"">Agent B","null","","","","",""
"null","","","video-keyboard-response","469","865916","0.0-469.0","5xcenl4v","","","null","","Agent B","veridical","STIM_SET_1/1592286.bmp_pp52_L1_V1.0_veridical_freeview_isoFalse.mp4",""
"","","","call-function","470","865916","0.0-470.0","5xcenl4v","","","","","","","",""
"1643.0550000000512","{""judgement"":1}","[0]","survey-likert","471","867560","0.0-471.0","5xcenl4v","","","","","","","","1"
"2545.82500000007","{""confidence"":1}","[0]","survey-likert","472","870107","0.0-472.0","5xcenl4v","","","","","","","",""
"","","","call-function","473","870108","0.0-473.0","5xcenl4v","","","","","","","",""
"null","","","html-keyboard-response","474","871614","0.0-474.0","5xcenl4v","","<span style=""color:Black; font-size:50px;"">Agent A","null","","","","",""
"null","","","video-keyboard-response","475","874683","0.0-475.0","5xcenl4v","","","null","","Agent A","veridical","STIM_SET_1/1592727.bmp_pp59_L3_V1.0_veridical_freeview_isoFalse.mp4",""
"null","","","html-keyboard-response","476","876187","0.0-476.0","5xcenl4v","","<span style=""color:Black; font-size:50px;"">Agent B","null","","","","",""
"null","","","video-keyboard-response","477","879259","0.0-477.0","5xcenl4v","","","null","","Agent B","scrambled","STIM_SET_1/1592727.bmp_pp59_L3_V1.0_scrambled_freeview_isoFalse.mp4",""
"","","","call-function","478","879260","0.0-478.0","5xcenl4v","","","","","","","",""
"5485.114999999991","{""judgement"":1}","[0]","survey-likert","479","884746","0.0-479.0","5xcenl4v","","","","","","","","0"
"2532.1900000000605","{""confidence"":1}","[0]","survey-likert","480","887279","0.0-480.0","5xcenl4v","","","","","","","",""
"","","","call-function","481","887280","0.0-481.0","5xcenl4v","","","","","","","",""
"null","","","html-keyboard-response","482","888783","0.0-482.0","5xcenl4v","","<span style=""color:Black; font-size:50px;"">Agent A","null","","","","",""
"null","","","video-keyboard-response","483","891856","0.0-483.0","5xcenl4v","","","null","","Agent A","scrambled","STIM_SET_1/285933.bmp_pp81_L1_V1.0_scrambled_freeview_isoFalse.mp4",""
"null","","","html-keyboard-response","484","893359","0.0-484.0","5xcenl4v","","<span style=""color:Black; font-size:50px;"">Agent B","null","","","","",""
"null","","","video-keyboard-response","485","896436","0.0-485.0","5xcenl4v","","","null","","Agent B","veridical","STIM_SET_1/285933.bmp_pp81_L1_V1.0_veridical_freeview_isoFalse.mp4",""
"","","","call-function","486","896437","0.0-486.0","5xcenl4v","","","","","","","",""
"2579.1300000000047","{""judgement"":0}","[0]","survey-likert","487","899017","0.0-487.0","5xcenl4v","","","","","","","","1"
"1721.25","{""confidence"":1}","[0]","survey-likert","488","900740","0.0-488.0","5xcenl4v","","","","","","","",""
"","","","call-function","489","900741","0.0-489.0","5xcenl4v","","","","","","","",""
"null","","","html-keyboard-response","490","902247","0.0-490.0","5xcenl4v","","<span style=""color:Black; font-size:50px;"">Agent A","null","","","","",""
"null","","","video-keyboard-response","491","905361","0.0-491.0","5xcenl4v","","","null","","Agent A","scrambled","STIM_SET_1/1159447.bmp_pp70_L2_V1.0_scrambled_freeview_isoFalse.mp4",""
"null","","","html-keyboard-response","492","906865","0.0-492.0","5xcenl4v","","<span style=""color:Black; font-size:50px;"">Agent B","null","","","","",""
"null","","","video-keyboard-response","493","909934","0.0-493.0","5xcenl4v","","","null","","Agent B","veridical","STIM_SET_1/1159447.bmp_pp70_L2_V1.0_veridical_freeview_isoFalse.mp4",""
"","","","call-function","494","909936","0.0-494.0","5xcenl4v","","","","","","","",""
"2618.545000000042","{""judgement"":1}","[0]","survey-likert","495","912556","0.0-495.0","5xcenl4v","","","","","","","","1"
"1688.7750000000233","{""confidence"":2}","[0]","survey-likert","496","914247","0.0-496.0","5xcenl4v","","","","","","","",""
"2319.0350000000326","","","instructions","497","916567","0.0-497.0","5xcenl4v","[{""page_index"":0,""viewing_time"":1598.1199999999953},{""page_index"":1,""viewing_time"":538.7149999999674},{""page_index"":2,""viewing_time"":182.0100000000093}]","","","","","","",""
"623.1349999998929","","","instructions","498","917191","0.0-498.0","5xcenl4v","[{""page_index"":0,""viewing_time"":306.0549999999348},{""page_index"":1,""viewing_time"":161.16500000003725},{""page_index"":2,""viewing_time"":155.79999999993015}]","","","","","","",""
"","","","call-function","499","917192","0.0-499.0","5xcenl4v","","","","","","","",""
"null","","","html-keyboard-response","500","918695","0.0-500.0","5xcenl4v","","<span style=""color:Black; font-size:50px;"">Agent A","null","","","","",""
"null","","","video-keyboard-response","501","921774","0.0-501.0","5xcenl4v","","","null","","Agent A","scrambled","STIM_SET_1/712977.bmp_pp51_L1_V1.0_scrambled_freeview_isoFalse.mp4",""
"null","","","html-keyboard-response","502","923278","0.0-502.0","5xcenl4v","","<span style=""color:Black; font-size:50px;"">Agent B","null","","","","",""
"null","","","video-keyboard-response","503","926358","0.0-503.0","5xcenl4v","","","null","","Agent B","veridical","STIM_SET_1/712977.bmp_pp51_L1_V1.0_veridical_freeview_isoFalse.mp4",""
"","","","call-function","504","926358","0.0-504.0","5xcenl4v","","","","","","","",""
"1188.75","{""judgement"":1}","[0]","survey-likert","505","927548","0.0-505.0","5xcenl4v","","","","","","","","1"
"1885.2999999999302","{""confidence"":1}","[0]","survey-likert","506","929435","0.0-506.0","5xcenl4v","","","","","","","",""
"","","","call-function","507","929436","0.0-507.0","5xcenl4v","","","","","","","",""
"null","","","html-keyboard-response","508","930940","0.0-508.0","5xcenl4v","","<span style=""color:Black; font-size:50px;"">Agent A","null","","","","",""
"null","","","video-keyboard-response","509","934010","0.0-509.0","5xcenl4v","","","null","","Agent A","scrambled","STIM_SET_1/498149.bmp_pp99_L2_V1.0_scrambled_freeview_isoFalse.mp4",""
"null","","","html-keyboard-response","510","935514","0.0-510.0","5xcenl4v","","<span style=""color:Black; font-size:50px;"">Agent B","null","","","","",""
"null","","","video-keyboard-response","511","938622","0.0-511.0","5xcenl4v","","","null","","Agent B","veridical","STIM_SET_1/498149.bmp_pp99_L2_V1.0_veridical_freeview_isoFalse.mp4",""
"","","","call-function","512","938623","0.0-512.0","5xcenl4v","","","","","","","",""
"1446.8999999999069","{""judgement"":1}","[0]","survey-likert","513","940071","0.0-513.0","5xcenl4v","","","","","","","","1"
"1419.484999999986","{""confidence"":1}","[0]","survey-likert","514","941491","0.0-514.0","5xcenl4v","","","","","","","",""
"","","","call-function","515","941492","0.0-515.0","5xcenl4v","","","","","","","",""
"null","","","html-keyboard-response","516","942995","0.0-516.0","5xcenl4v","","<span style=""color:Black; font-size:50px;"">Agent A","null","","","","",""
"null","","","video-keyboard-response","517","946113","0.0-517.0","5xcenl4v","","","null","","Agent A","veridical","STIM_SET_1/61537.bmp_pp73_L3_V1.0_veridical_freeview_isoFalse.mp4",""
"null","","","html-keyboard-response","518","947620","0.0-518.0","5xcenl4v","","<span style=""color:Black; font-size:50px;"">Agent B","null","","","","",""
"null","","","video-keyboard-response","519","950735","0.0-519.0","5xcenl4v","","","null","","Agent B","scrambled","STIM_SET_1/61537.bmp_pp73_L3_V1.0_scrambled_freeview_isoFalse.mp4",""
"","","","call-function","520","950736","0.0-520.0","5xcenl4v","","","","","","","",""
"1258.7600000000093","{""judgement"":1}","[0]","survey-likert","521","951995","0.0-521.0","5xcenl4v","","","","","","","","0"
"2439.5999999999767","{""confidence"":1}","[0]","survey-likert","522","954436","0.0-522.0","5xcenl4v","","","","","","","",""
"","","","call-function","523","954437","0.0-523.0","5xcenl4v","","","","","","","",""
"null","","","html-keyboard-response","524","955938","0.0-524.0","5xcenl4v","","<span style=""color:Black; font-size:50px;"">Agent A","null","","","","",""
"null","","","video-keyboard-response","525","959060","0.0-525.0","5xcenl4v","","","null","","Agent A","scrambled","STIM_SET_1/285751.bmp_pp55_L3_V1.0_scrambled_freeview_isoFalse.mp4",""
"null","","","html-keyboard-response","526","960564","0.0-526.0","5xcenl4v","","<span style=""color:Black; font-size:50px;"">Agent B","null","","","","",""
"null","","","video-keyboard-response","527","963688","0.0-527.0","5xcenl4v","","","null","","Agent B","veridical","STIM_SET_1/285751.bmp_pp55_L3_V1.0_veridical_freeview_isoFalse.mp4",""
"","","","call-function","528","963689","0.0-528.0","5xcenl4v","","","","","","","",""
"1697.4149999999208","{""judgement"":0}","[0]","survey-likert","529","965387","0.0-529.0","5xcenl4v","","","","","","","","1"
"1437.655000000028","{""confidence"":2}","[0]","survey-likert","530","966826","0.0-530.0","5xcenl4v","","","","","","","",""
"","","","call-function","531","966827","0.0-531.0","5xcenl4v","","","","","","","",""
"null","","","html-keyboard-response","532","968327","0.0-532.0","5xcenl4v","","<span style=""color:Black; font-size:50px;"">Agent A","null","","","","",""
"null","","","video-keyboard-response","533","971448","0.0-533.0","5xcenl4v","","","null","","Agent A","veridical","STIM_SET_1/713017.bmp_pp152_L2_V1.0_veridical_freeview_isoFalse.mp4",""
"null","","","html-keyboard-response","534","972950","0.0-534.0","5xcenl4v","","<span style=""color:Black; font-size:50px;"">Agent B","null","","","","",""
"null","","","video-keyboard-response","535","976030","0.0-535.0","5xcenl4v","","","null","","Agent B","scrambled","STIM_SET_1/713017.bmp_pp152_L2_V1.0_scrambled_freeview_isoFalse.mp4",""
"","","","call-function","536","976031","0.0-536.0","5xcenl4v","","","","","","","",""
"1473.1450000000186","{""judgement"":1}","[0]","survey-likert","537","977505","0.0-537.0","5xcenl4v","","","","","","","","0"
"1504.3399999999674","{""confidence"":2}","[0]","survey-likert","538","979011","0.0-538.0","5xcenl4v","","","","","","","",""
"","","","call-function","539","979012","0.0-539.0","5xcenl4v","","","","","","","",""
"null","","","html-keyboard-response","540","980515","0.0-540.0","5xcenl4v","","<span style=""color:Black; font-size:50px;"">Agent A","null","","","","",""
"null","","","video-keyboard-response","541","983630","0.0-541.0","5xcenl4v","","","null","","Agent A","veridical","STIM_SET_1/1592934.bmp_pp63_L1_V1.0_veridical_freeview_isoFalse.mp4",""
"null","","","html-keyboard-response","542","985132","0.0-542.0","5xcenl4v","","<span style=""color:Black; font-size:50px;"">Agent B","null","","","","",""
"null","","","video-keyboard-response","543","988205","0.0-543.0","5xcenl4v","","","null","","Agent B","scrambled","STIM_SET_1/1592934.bmp_pp63_L1_V1.0_scrambled_freeview_isoFalse.mp4",""
"","","","call-function","544","988205","0.0-544.0","5xcenl4v","","","","","","","",""
"1732.9650000000838","{""judgement"":1}","[0]","survey-likert","545","989939","0.0-545.0","5xcenl4v","","","","","","","","0"
"1358.5649999999441","{""confidence"":2}","[0]","survey-likert","546","991299","0.0-546.0","5xcenl4v","","","","","","","",""
"","","","call-function","547","991300","0.0-547.0","5xcenl4v","","","","","","","",""
"null","","","html-keyboard-response","548","992804","0.0-548.0","5xcenl4v","","<span style=""color:Black; font-size:50px;"">Agent A","null","","","","",""
"null","","","video-keyboard-response","549","995885","0.0-549.0","5xcenl4v","","","null","","Agent A","veridical","STIM_SET_1/713211.bmp_pp100_L3_V1.0_veridical_freeview_isoFalse.mp4",""
"null","","","html-keyboard-response","550","997389","0.0-550.0","5xcenl4v","","<span style=""color:Black; font-size:50px;"">Agent B","null","","","","",""
"null","","","video-keyboard-response","551","1000472","0.0-551.0","5xcenl4v","","","null","","Agent B","scrambled","STIM_SET_1/713211.bmp_pp100_L3_V1.0_scrambled_freeview_isoFalse.mp4",""
"","","","call-function","552","1000472","0.0-552.0","5xcenl4v","","","","","","","",""
"3208.1049999999814","{""judgement"":0}","[0]","survey-likert","553","1003682","0.0-553.0","5xcenl4v","","","","","","","","0"
"3795.969999999972","{""confidence"":1}","[0]","survey-likert","554","1007481","0.0-554.0","5xcenl4v","","","","","","","",""
"","","","call-function","555","1007482","0.0-555.0","5xcenl4v","","","","","","","",""
"null","","","html-keyboard-response","556","1008984","0.0-556.0","5xcenl4v","","<span style=""color:Black; font-size:50px;"">Agent A","null","","","","",""
"null","","","video-keyboard-response","557","1012064","0.0-557.0","5xcenl4v","","","null","","Agent A","veridical","STIM_SET_1/1159784.bmp_pp73_L3_V1.0_veridical_freeview_isoFalse.mp4",""
"null","","","html-keyboard-response","558","1013566","0.0-558.0","5xcenl4v","","<span style=""color:Black; font-size:50px;"">Agent B","null","","","","",""
"null","","","video-keyboard-response","559","1016644","0.0-559.0","5xcenl4v","","","null","","Agent B","scrambled","STIM_SET_1/1159784.bmp_pp73_L3_V1.0_scrambled_freeview_isoFalse.mp4",""
"","","","call-function","560","1016645","0.0-560.0","5xcenl4v","","","","","","","",""
"1692.4349999999395","{""judgement"":1}","[0]","survey-likert","561","1018339","0.0-561.0","5xcenl4v","","","","","","","","0"
"1641.344999999972","{""confidence"":1}","[0]","survey-likert","562","1019982","0.0-562.0","5xcenl4v","","","","","","","",""
"","","","call-function","563","1019982","0.0-563.0","5xcenl4v","","","","","","","",""
"null","","","html-keyboard-response","564","1021487","0.0-564.0","5xcenl4v","","<span style=""color:Black; font-size:50px;"">Agent A","null","","","","",""
"null","","","video-keyboard-response","565","1024565","0.0-565.0","5xcenl4v","","","null","","Agent A","scrambled","STIM_SET_1/713620.bmp_pp65_L3_V1.0_scrambled_freeview_isoFalse.mp4",""
"null","","","html-keyboard-response","566","1026067","0.0-566.0","5xcenl4v","","<span style=""color:Black; font-size:50px;"">Agent B","null","","","","",""
"null","","","video-keyboard-response","567","1029148","0.0-567.0","5xcenl4v","","","null","","Agent B","veridical","STIM_SET_1/713620.bmp_pp65_L3_V1.0_veridical_freeview_isoFalse.mp4",""
"","","","call-function","568","1029149","0.0-568.0","5xcenl4v","","","","","","","",""
"4891.319999999949","{""judgement"":1}","[0]","survey-likert","569","1034041","0.0-569.0","5xcenl4v","","","","","","","","1"
"1715.6950000000652","{""confidence"":1}","[0]","survey-likert","570","1035758","0.0-570.0","5xcenl4v","","","","","","","",""
"","","","call-function","571","1035759","0.0-571.0","5xcenl4v","","","","","","","",""
"null","","","html-keyboard-response","572","1037264","0.0-572.0","5xcenl4v","","<span style=""color:Black; font-size:50px;"">Agent A","null","","","","",""
"null","","","video-keyboard-response","573","1040380","0.0-573.0","5xcenl4v","","","null","","Agent A","veridical","STIM_SET_1/1591876.bmp_pp63_L1_V1.0_veridical_freeview_isoFalse.mp4",""
"null","","","html-keyboard-response","574","1041882","0.0-574.0","5xcenl4v","","<span style=""color:Black; font-size:50px;"">Agent B","null","","","","",""
"null","","","video-keyboard-response","575","1044999","0.0-575.0","5xcenl4v","","","null","","Agent B","scrambled","STIM_SET_1/1591876.bmp_pp63_L1_V1.0_scrambled_freeview_isoFalse.mp4",""
"","","","call-function","576","1045000","0.0-576.0","5xcenl4v","","","","","","","",""
"2711.094999999972","{""judgement"":1}","[0]","survey-likert","577","1047712","0.0-577.0","5xcenl4v","","","","","","","","0"
"1828.8350000000792","{""confidence"":2}","[0]","survey-likert","578","1049542","0.0-578.0","5xcenl4v","","","","","","","",""
"2433.3300000000745","","","instructions","579","1051976","0.0-579.0","5xcenl4v","[{""page_index"":0,""viewing_time"":2433.189999999944}]","","","","","","",""
"1329.530000000028","","","instructions","580","1053307","0.0-580.0","5xcenl4v","[{""page_index"":0,""viewing_time"":1329.4199999999255}]","","","","","","",""
"9355.98999999999","{""post-1"":1}","[0]","survey-likert","581","1062664","0.0-581.0","5xcenl4v","","","","","","","",""
"3065.744999999879","{""post-1"":0}","[0]","survey-likert","582","1065731","0.0-582.0","5xcenl4v","","","","","","","",""
"3579.130000000121","{""post-2"":1}","[0]","survey-likert","583","1069311","0.0-583.0","5xcenl4v","","","","","","","",""
"2138.8300000000745","{""post-2"":0}","[0]","survey-likert","584","1071451","0.0-584.0","5xcenl4v","","","","","","","",""
"6120.985000000102","{""post-3"":3}","[0]","survey-likert","585","1077574","0.0-585.0","5xcenl4v","","","","","","","",""
"4627.129999999888","{""post-3"":1}","[0]","survey-likert","586","1082202","0.0-586.0","5xcenl4v","","","","","","","",""
"4900.395000000019","{""post-4"":3}","[0]","survey-likert","587","1087104","0.0-587.0","5xcenl4v","","","","","","","",""
"1456.8600000001024","{""post-4"":1}","[0]","survey-likert","588","1088564","0.0-588.0","5xcenl4v","","","","","","","",""
"4459.7949999999255","{""post-5"":0}","[0]","survey-likert","589","1093025","0.0-589.0","5xcenl4v","","","","","","","",""
"3912.564999999944","{""post-5"":1}","[0]","survey-likert","590","1096939","0.0-590.0","5xcenl4v","","","","","","","",""
"59343.935000000056","{""Q0"":""Overall. it was difficult to sometimes tell the differences in where the spots moved around on the screen because it felt like they were too short and quick movements. ""}","","survey-text","591","1156290","0.0-591.0","5xcenl4v","","","","","","","",""
"100383.55499999993","{""Q0"":""The easiest part was having the pictures in the background because especially when I saw other human faces my attentions was first brought to the faces and then I would use whatever direction the faces were turned or whatever expression they had on their face to then divert my attention to the next usually more broader focal attention. ""}","","survey-text","592","1256677","0.0-592.0","5xcenl4v","","","","","","","",""
"67858.30499999993","{""Q0"":""The most difficult was because I felt like the movements were so just a little too quick and short it was harder for me to try to find the more refined differences between the two agents but I just went with my best guest/estimate. ""}","","survey-text","593","1324539","0.0-593.0","5xcenl4v","","","","","","","",""
"1764.6299999998882","","","instructions","594","1326305","0.0-594.0","5xcenl4v","[{""page_index"":0,""viewing_time"":1764.4899999999907}]","","","","","","",""
"34747.70999999996","{""Experimenter_end"":[""Printed ID# 5xcenl4v on consent form"",""Given subject SONA credit or payment"",""Given the subject debrief form""]}","[0]","survey-multi-select","595","1361055","0.0-595.0","5xcenl4v","","","","","","","",""
