"rt","responses","question_order","trial_type","trial_index","time_elapsed","internal_node_id","ID","view_history","stimulus","key_press","value","agent","condition","image","correct_answer"
"630619.14","{""Experimenter"":[""Confirmed subject's identity (ID card)"",""Confirmed normal or corrected-to-normal vision"",""Obtained consent (signature and date)"",""Checked the test room lighting"",""Checked computer screen lighting"",""Checked distance from screen to chin rest (50cm)"",""Cleaned and adjusted chin rest"",""Counterbalanced the order of the tasks"",""Opened the experiment in Firefox"",""Made the experiment full screen"",""Encouraged subject to silence phone, put away distractors, etc.""]}","[0]","survey-multi-select","0","630629","0.0-0.0","6gjx5yh0","","","","","","","",""
"42870.59999999998","","","instructions","1","673501","0.0-1.0","6gjx5yh0","[{""page_index"":0,""viewing_time"":42870.01000000001}]","","","","","","",""
"55610.765000000014","","","instructions","2","729113","0.0-2.0","6gjx5yh0","[{""page_index"":0,""viewing_time"":46297.609999999986},{""page_index"":1,""viewing_time"":6566.099999999977},{""page_index"":2,""viewing_time"":2746.930000000051}]","","","","","","",""
"1287.9949999999953","","","instructions","3","730402","0.0-3.0","6gjx5yh0","[{""page_index"":0,""viewing_time"":1287.8850000000093}]","","","","","","",""
"null","","","video-keyboard-response","4","733477","0.0-4.0","6gjx5yh0","","","null","","","","",""
"15913.814999999944","","","instructions","5","749392","0.0-5.0","6gjx5yh0","[{""page_index"":0,""viewing_time"":1593.765000000014},{""page_index"":1,""viewing_time"":1917.8699999999953},{""page_index"":2,""viewing_time"":896.1500000000233},{""page_index"":3,""viewing_time"":3035.019999999902},{""page_index"":4,""viewing_time"":8470.880000000005}]","","","","","","",""
"3389.6600000000326","","","instructions","6","752782","0.0-6.0","6gjx5yh0","[{""page_index"":0,""viewing_time"":3389.5250000000233}]","","","","","","",""
"","","","call-function","7","752783","0.0-7.0","6gjx5yh0","","","","","","","",""
"null","","","html-keyboard-response","8","754288","0.0-8.0","6gjx5yh0","","<span style=""color:Black; font-size:50px;"">Agent A","null","","","","",""
"null","","","video-keyboard-response","9","757066","0.0-9.0","6gjx5yh0","","","null","","Agent A","veridical","FOR_REV_BLOBBY_STIM/713620.bmp_pp65_L3_V1.0_veridical_freeview_isoFalse_fps144.mp4",""
"null","","","html-keyboard-response","10","758567","0.0-10.0","6gjx5yh0","","<span style=""color:Black; font-size:50px;"">Agent B","null","","","","",""
"null","","","video-keyboard-response","11","761349","0.0-11.0","6gjx5yh0","","","null","","Agent B","scrambled","FOR_REV_BLOBBY_STIM/713620.bmp_pp65_L3_V1.0_veridical_freeview_isoFalse_fps144_reversed_REAL.mp4",""
"","","","call-function","12","761349","0.0-12.0","6gjx5yh0","","","","","","","",""
"6503.069999999949","{""judgement"":1}","[0]","survey-likert","13","767853","0.0-13.0","6gjx5yh0","","","","","","","","0"
"3451.975000000093","{""confidence"":1}","[0]","survey-likert","14","771307","0.0-14.0","6gjx5yh0","","","","","","","",""
"","","","call-function","15","771307","0.0-15.0","6gjx5yh0","","","","","","","",""
"null","","","html-keyboard-response","16","772809","0.0-16.0","6gjx5yh0","","<span style=""color:Black; font-size:50px;"">Agent A","null","","","","",""
"null","","","video-keyboard-response","17","775401","0.0-17.0","6gjx5yh0","","","null","","Agent A","veridical","FOR_REV_BLOBBY_STIM/1592397.bmp_pp85_L3_V1.0_veridical_freeview_isoFalse_fps144.mp4",""
"null","","","html-keyboard-response","18","776904","0.0-18.0","6gjx5yh0","","<span style=""color:Black; font-size:50px;"">Agent B","null","","","","",""
"null","","","video-keyboard-response","19","779494","0.0-19.0","6gjx5yh0","","","null","","Agent B","scrambled","FOR_REV_BLOBBY_STIM/1592397.bmp_pp85_L3_V1.0_veridical_freeview_isoFalse_fps144_reversed_REAL.mp4",""
"","","","call-function","20","779495","0.0-20.0","6gjx5yh0","","","","","","","",""
"12143.640000000014","{""judgement"":1}","[0]","survey-likert","21","791639","0.0-21.0","6gjx5yh0","","","","","","","","0"
"2575.055000000051","{""confidence"":2}","[0]","survey-likert","22","794216","0.0-22.0","6gjx5yh0","","","","","","","",""
"","","","call-function","23","794216","0.0-23.0","6gjx5yh0","","","","","","","",""
"null","","","html-keyboard-response","24","795720","0.0-24.0","6gjx5yh0","","<span style=""color:Black; font-size:50px;"">Agent A","null","","","","",""
"null","","","video-keyboard-response","25","798471","0.0-25.0","6gjx5yh0","","","null","","Agent A","scrambled","FOR_REV_BLOBBY_STIM/498155.bmp_pp61_L2_V1.0_veridical_freeview_isoFalse_fps144_reversed_REAL.mp4",""
"null","","","html-keyboard-response","26","799977","0.0-26.0","6gjx5yh0","","<span style=""color:Black; font-size:50px;"">Agent B","null","","","","",""
"null","","","video-keyboard-response","27","802727","0.0-27.0","6gjx5yh0","","","null","","Agent B","veridical","FOR_REV_BLOBBY_STIM/498155.bmp_pp61_L2_V1.0_veridical_freeview_isoFalse_fps144.mp4",""
"","","","call-function","28","802728","0.0-28.0","6gjx5yh0","","","","","","","",""
"2366.9749999999767","{""judgement"":1}","[0]","survey-likert","29","805096","0.0-29.0","6gjx5yh0","","","","","","","","1"
"1886.1149999999907","{""confidence"":3}","[0]","survey-likert","30","806983","0.0-30.0","6gjx5yh0","","","","","","","",""
"","","","call-function","31","806984","0.0-31.0","6gjx5yh0","","","","","","","",""
"null","","","html-keyboard-response","32","808488","0.0-32.0","6gjx5yh0","","<span style=""color:Black; font-size:50px;"">Agent A","null","","","","",""
"null","","","video-keyboard-response","33","811281","0.0-33.0","6gjx5yh0","","","null","","Agent A","scrambled","FOR_REV_BLOBBY_STIM/1592351.bmp_pp51_L1_V1.0_veridical_freeview_isoFalse_fps144_reversed_REAL.mp4",""
"null","","","html-keyboard-response","34","812783","0.0-34.0","6gjx5yh0","","<span style=""color:Black; font-size:50px;"">Agent B","null","","","","",""
"null","","","video-keyboard-response","35","815596","0.0-35.0","6gjx5yh0","","","null","","Agent B","veridical","FOR_REV_BLOBBY_STIM/1592351.bmp_pp51_L1_V1.0_veridical_freeview_isoFalse_fps144.mp4",""
"","","","call-function","36","815596","0.0-36.0","6gjx5yh0","","","","","","","",""
"4296.4349999999395","{""judgement"":1}","[0]","survey-likert","37","819893","0.0-37.0","6gjx5yh0","","","","","","","","1"
"1699.155000000028","{""confidence"":2}","[0]","survey-likert","38","821594","0.0-38.0","6gjx5yh0","","","","","","","",""
"","","","call-function","39","821594","0.0-39.0","6gjx5yh0","","","","","","","",""
"null","","","html-keyboard-response","40","823095","0.0-40.0","6gjx5yh0","","<span style=""color:Black; font-size:50px;"">Agent A","null","","","","",""
"null","","","video-keyboard-response","41","825849","0.0-41.0","6gjx5yh0","","","null","","Agent A","scrambled","FOR_REV_BLOBBY_STIM/1591954.bmp_pp62_L2_V1.0_veridical_freeview_isoFalse_fps144_reversed_REAL.mp4",""
"null","","","html-keyboard-response","42","827352","0.0-42.0","6gjx5yh0","","<span style=""color:Black; font-size:50px;"">Agent B","null","","","","",""
"null","","","video-keyboard-response","43","830106","0.0-43.0","6gjx5yh0","","","null","","Agent B","veridical","FOR_REV_BLOBBY_STIM/1591954.bmp_pp62_L2_V1.0_veridical_freeview_isoFalse_fps144.mp4",""
"","","","call-function","44","830106","0.0-44.0","6gjx5yh0","","","","","","","",""
"1597.5899999999674","{""judgement"":0}","[0]","survey-likert","45","831704","0.0-45.0","6gjx5yh0","","","","","","","","1"
"1842.8800000000047","{""confidence"":1}","[0]","survey-likert","46","833548","0.0-46.0","6gjx5yh0","","","","","","","",""
"","","","call-function","47","833549","0.0-47.0","6gjx5yh0","","","","","","","",""
"null","","","html-keyboard-response","48","835051","0.0-48.0","6gjx5yh0","","<span style=""color:Black; font-size:50px;"">Agent A","null","","","","",""
"null","","","video-keyboard-response","49","837792","0.0-49.0","6gjx5yh0","","","null","","Agent A","scrambled","FOR_REV_BLOBBY_STIM/285933.bmp_pp81_L1_V1.0_veridical_freeview_isoFalse_fps144_reversed_REAL.mp4",""
"null","","","html-keyboard-response","50","839296","0.0-50.0","6gjx5yh0","","<span style=""color:Black; font-size:50px;"">Agent B","null","","","","",""
"null","","","video-keyboard-response","51","842039","0.0-51.0","6gjx5yh0","","","null","","Agent B","veridical","FOR_REV_BLOBBY_STIM/285933.bmp_pp81_L1_V1.0_veridical_freeview_isoFalse_fps144.mp4",""
"","","","call-function","52","842039","0.0-52.0","6gjx5yh0","","","","","","","",""
"3385.1300000000047","{""judgement"":1}","[0]","survey-likert","53","845425","0.0-53.0","6gjx5yh0","","","","","","","","1"
"1987.954999999958","{""confidence"":1}","[0]","survey-likert","54","847414","0.0-54.0","6gjx5yh0","","","","","","","",""
"","","","call-function","55","847415","0.0-55.0","6gjx5yh0","","","","","","","",""
"null","","","html-keyboard-response","56","848917","0.0-56.0","6gjx5yh0","","<span style=""color:Black; font-size:50px;"">Agent A","null","","","","",""
"null","","","video-keyboard-response","57","851628","0.0-57.0","6gjx5yh0","","","null","","Agent A","scrambled","FOR_REV_BLOBBY_STIM/1160168.bmp_pp53_L2_V1.0_veridical_freeview_isoFalse_fps144_reversed_REAL.mp4",""
"null","","","html-keyboard-response","58","853129","0.0-58.0","6gjx5yh0","","<span style=""color:Black; font-size:50px;"">Agent B","null","","","","",""
"null","","","video-keyboard-response","59","855830","0.0-59.0","6gjx5yh0","","","null","","Agent B","veridical","FOR_REV_BLOBBY_STIM/1160168.bmp_pp53_L2_V1.0_veridical_freeview_isoFalse_fps144.mp4",""
"","","","call-function","60","855830","0.0-60.0","6gjx5yh0","","","","","","","",""
"2144.144999999902","{""judgement"":1}","[0]","survey-likert","61","857975","0.0-61.0","6gjx5yh0","","","","","","","","1"
"2187.305000000051","{""confidence"":2}","[0]","survey-likert","62","860163","0.0-62.0","6gjx5yh0","","","","","","","",""
"","","","call-function","63","860164","0.0-63.0","6gjx5yh0","","","","","","","",""
"null","","","html-keyboard-response","64","861670","0.0-64.0","6gjx5yh0","","<span style=""color:Black; font-size:50px;"">Agent A","null","","","","",""
"null","","","video-keyboard-response","65","864471","0.0-65.0","6gjx5yh0","","","null","","Agent A","veridical","FOR_REV_BLOBBY_STIM/498175.bmp_pp154_L1_V1.0_veridical_freeview_isoFalse_fps144.mp4",""
"null","","","html-keyboard-response","66","865973","0.0-66.0","6gjx5yh0","","<span style=""color:Black; font-size:50px;"">Agent B","null","","","","",""
"null","","","video-keyboard-response","67","868771","0.0-67.0","6gjx5yh0","","","null","","Agent B","scrambled","FOR_REV_BLOBBY_STIM/498175.bmp_pp154_L1_V1.0_veridical_freeview_isoFalse_fps144_reversed_REAL.mp4",""
"","","","call-function","68","868771","0.0-68.0","6gjx5yh0","","","","","","","",""
"1339.8950000000186","{""judgement"":0}","[0]","survey-likert","69","870112","0.0-69.0","6gjx5yh0","","","","","","","","0"
"1551.2149999999674","{""confidence"":3}","[0]","survey-likert","70","871664","0.0-70.0","6gjx5yh0","","","","","","","",""
"","","","call-function","71","871665","0.0-71.0","6gjx5yh0","","","","","","","",""
"null","","","html-keyboard-response","72","873169","0.0-72.0","6gjx5yh0","","<span style=""color:Black; font-size:50px;"">Agent A","null","","","","",""
"null","","","video-keyboard-response","73","876002","0.0-73.0","6gjx5yh0","","","null","","Agent A","scrambled","FOR_REV_BLOBBY_STIM/1160127.bmp_pp90_L2_V1.0_veridical_freeview_isoFalse_fps144_reversed_REAL.mp4",""
"null","","","html-keyboard-response","74","877506","0.0-74.0","6gjx5yh0","","<span style=""color:Black; font-size:50px;"">Agent B","null","","","","",""
"null","","","video-keyboard-response","75","880363","0.0-75.0","6gjx5yh0","","","null","","Agent B","veridical","FOR_REV_BLOBBY_STIM/1160127.bmp_pp90_L2_V1.0_veridical_freeview_isoFalse_fps144.mp4",""
"","","","call-function","76","880364","0.0-76.0","6gjx5yh0","","","","","","","",""
"1857.6049999999814","{""judgement"":0}","[0]","survey-likert","77","882222","0.0-77.0","6gjx5yh0","","","","","","","","1"
"1311.030000000028","{""confidence"":2}","[0]","survey-likert","78","883534","0.0-78.0","6gjx5yh0","","","","","","","",""
"","","","call-function","79","883535","0.0-79.0","6gjx5yh0","","","","","","","",""
"null","","","html-keyboard-response","80","885036","0.0-80.0","6gjx5yh0","","<span style=""color:Black; font-size:50px;"">Agent A","null","","","","",""
"null","","","video-keyboard-response","81","887585","0.0-81.0","6gjx5yh0","","","null","","Agent A","veridical","FOR_REV_BLOBBY_STIM/1159515.bmp_pp84_L3_V1.0_veridical_freeview_isoFalse_fps144.mp4",""
"null","","","html-keyboard-response","82","889088","0.0-82.0","6gjx5yh0","","<span style=""color:Black; font-size:50px;"">Agent B","null","","","","",""
"null","","","video-keyboard-response","83","891641","0.0-83.0","6gjx5yh0","","","null","","Agent B","scrambled","FOR_REV_BLOBBY_STIM/1159515.bmp_pp84_L3_V1.0_veridical_freeview_isoFalse_fps144_reversed_REAL.mp4",""
"","","","call-function","84","891642","0.0-84.0","6gjx5yh0","","","","","","","",""
"1576.7949999999255","{""judgement"":0}","[0]","survey-likert","85","893220","0.0-85.0","6gjx5yh0","","","","","","","","0"
"2563.340000000084","{""confidence"":2}","[0]","survey-likert","86","895785","0.0-86.0","6gjx5yh0","","","","","","","",""
"4236.040000000037","","","instructions","87","900022","0.0-87.0","6gjx5yh0","[{""page_index"":0,""viewing_time"":1480.7350000001024},{""page_index"":1,""viewing_time"":2149.0100000000093},{""page_index"":2,""viewing_time"":606.1199999999953}]","","","","","","",""
"1774.6650000000373","","","instructions","88","901797","0.0-88.0","6gjx5yh0","[{""page_index"":0,""viewing_time"":558.9799999999814},{""page_index"":1,""viewing_time"":612.5900000000838},{""page_index"":2,""viewing_time"":602.9799999999814}]","","","","","","",""
"","","","call-function","89","901798","0.0-89.0","6gjx5yh0","","","","","","","",""
"null","","","html-keyboard-response","90","903300","0.0-90.0","6gjx5yh0","","<span style=""color:Black; font-size:50px;"">Agent A","null","","","","",""
"null","","","video-keyboard-response","91","906065","0.0-91.0","6gjx5yh0","","","null","","Agent A","veridical","FOR_REV_BLOBBY_STIM/1159621.bmp_pp92_L3_V1.0_veridical_freeview_isoFalse_fps144.mp4",""
"null","","","html-keyboard-response","92","907567","0.0-92.0","6gjx5yh0","","<span style=""color:Black; font-size:50px;"">Agent B","null","","","","",""
"null","","","video-keyboard-response","93","910334","0.0-93.0","6gjx5yh0","","","null","","Agent B","scrambled","FOR_REV_BLOBBY_STIM/1159621.bmp_pp92_L3_V1.0_veridical_freeview_isoFalse_fps144_reversed_REAL.mp4",""
"","","","call-function","94","910334","0.0-94.0","6gjx5yh0","","","","","","","",""
"7492.114999999991","{""judgement"":0}","[0]","survey-likert","95","917828","0.0-95.0","6gjx5yh0","","","","","","","","0"
"1524.3050000000512","{""confidence"":1}","[0]","survey-likert","96","919353","0.0-96.0","6gjx5yh0","","","","","","","",""
"","","","call-function","97","919354","0.0-97.0","6gjx5yh0","","","","","","","",""
"null","","","html-keyboard-response","98","920859","0.0-98.0","6gjx5yh0","","<span style=""color:Black; font-size:50px;"">Agent A","null","","","","",""
"null","","","video-keyboard-response","99","923401","0.0-99.0","6gjx5yh0","","","null","","Agent A","scrambled","FOR_REV_BLOBBY_STIM/713760.bmp_pp81_L1_V1.0_veridical_freeview_isoFalse_fps144_reversed_REAL.mp4",""
"null","","","html-keyboard-response","100","924903","0.0-100.0","6gjx5yh0","","<span style=""color:Black; font-size:50px;"">Agent B","null","","","","",""
"null","","","video-keyboard-response","101","927469","0.0-101.0","6gjx5yh0","","","null","","Agent B","veridical","FOR_REV_BLOBBY_STIM/713760.bmp_pp81_L1_V1.0_veridical_freeview_isoFalse_fps144.mp4",""
"","","","call-function","102","927469","0.0-102.0","6gjx5yh0","","","","","","","",""
"3830.6500000000233","{""judgement"":1}","[0]","survey-likert","103","931301","0.0-103.0","6gjx5yh0","","","","","","","","1"
"1284.8800000000047","{""confidence"":2}","[0]","survey-likert","104","932587","0.0-104.0","6gjx5yh0","","","","","","","",""
"","","","call-function","105","932588","0.0-105.0","6gjx5yh0","","","","","","","",""
"null","","","html-keyboard-response","106","934089","0.0-106.0","6gjx5yh0","","<span style=""color:Black; font-size:50px;"">Agent A","null","","","","",""
"null","","","video-keyboard-response","107","936926","0.0-107.0","6gjx5yh0","","","null","","Agent A","veridical","FOR_REV_BLOBBY_STIM/713371.bmp_pp68_L1_V1.0_veridical_freeview_isoFalse_fps144.mp4",""
"null","","","html-keyboard-response","108","938429","0.0-108.0","6gjx5yh0","","<span style=""color:Black; font-size:50px;"">Agent B","null","","","","",""
"null","","","video-keyboard-response","109","941267","0.0-109.0","6gjx5yh0","","","null","","Agent B","scrambled","FOR_REV_BLOBBY_STIM/713371.bmp_pp68_L1_V1.0_veridical_freeview_isoFalse_fps144_reversed_REAL.mp4",""
"","","","call-function","110","941268","0.0-110.0","6gjx5yh0","","","","","","","",""
"1639.1750000000466","{""judgement"":0}","[0]","survey-likert","111","942908","0.0-111.0","6gjx5yh0","","","","","","","","0"
"1502.984999999986","{""confidence"":2}","[0]","survey-likert","112","944412","0.0-112.0","6gjx5yh0","","","","","","","",""
"","","","call-function","113","944412","0.0-113.0","6gjx5yh0","","","","","","","",""
"null","","","html-keyboard-response","114","945915","0.0-114.0","6gjx5yh0","","<span style=""color:Black; font-size:50px;"">Agent A","null","","","","",""
"null","","","video-keyboard-response","115","948799","0.0-115.0","6gjx5yh0","","","null","","Agent A","veridical","FOR_REV_BLOBBY_STIM/1593035.bmp_pp94_L2_V1.0_veridical_freeview_isoFalse_fps144.mp4",""
"null","","","html-keyboard-response","116","950303","0.0-116.0","6gjx5yh0","","<span style=""color:Black; font-size:50px;"">Agent B","null","","","","",""
"null","","","video-keyboard-response","117","953189","0.0-117.0","6gjx5yh0","","","null","","Agent B","scrambled","FOR_REV_BLOBBY_STIM/1593035.bmp_pp94_L2_V1.0_veridical_freeview_isoFalse_fps144_reversed_REAL.mp4",""
"","","","call-function","118","953190","0.0-118.0","6gjx5yh0","","","","","","","",""
"2049.155000000028","{""judgement"":1}","[0]","survey-likert","119","955239","0.0-119.0","6gjx5yh0","","","","","","","","0"
"1062.7200000000885","{""confidence"":2}","[0]","survey-likert","120","956303","0.0-120.0","6gjx5yh0","","","","","","","",""
"","","","call-function","121","956304","0.0-121.0","6gjx5yh0","","","","","","","",""
"null","","","html-keyboard-response","122","957807","0.0-122.0","6gjx5yh0","","<span style=""color:Black; font-size:50px;"">Agent A","null","","","","",""
"null","","","video-keyboard-response","123","960692","0.0-123.0","6gjx5yh0","","","null","","Agent A","veridical","FOR_REV_BLOBBY_STIM/713089.bmp_pp60_L3_V1.0_veridical_freeview_isoFalse_fps144.mp4",""
"null","","","html-keyboard-response","124","962197","0.0-124.0","6gjx5yh0","","<span style=""color:Black; font-size:50px;"">Agent B","null","","","","",""
"null","","","video-keyboard-response","125","965078","0.0-125.0","6gjx5yh0","","","null","","Agent B","scrambled","FOR_REV_BLOBBY_STIM/713089.bmp_pp60_L3_V1.0_veridical_freeview_isoFalse_fps144_reversed_REAL.mp4",""
"","","","call-function","126","965079","0.0-126.0","6gjx5yh0","","","","","","","",""
"1498.9300000000512","{""judgement"":0}","[0]","survey-likert","127","966579","0.0-127.0","6gjx5yh0","","","","","","","","0"
"1463.3649999999907","{""confidence"":3}","[0]","survey-likert","128","968044","0.0-128.0","6gjx5yh0","","","","","","","",""
"","","","call-function","129","968044","0.0-129.0","6gjx5yh0","","","","","","","",""
"null","","","html-keyboard-response","130","969546","0.0-130.0","6gjx5yh0","","<span style=""color:Black; font-size:50px;"">Agent A","null","","","","",""
"null","","","video-keyboard-response","131","972266","0.0-131.0","6gjx5yh0","","","null","","Agent A","veridical","FOR_REV_BLOBBY_STIM/1159446.bmp_pp60_L3_V1.0_veridical_freeview_isoFalse_fps144.mp4",""
"null","","","html-keyboard-response","132","973768","0.0-132.0","6gjx5yh0","","<span style=""color:Black; font-size:50px;"">Agent B","null","","","","",""
"null","","","video-keyboard-response","133","976483","0.0-133.0","6gjx5yh0","","","null","","Agent B","scrambled","FOR_REV_BLOBBY_STIM/1159446.bmp_pp60_L3_V1.0_veridical_freeview_isoFalse_fps144_reversed_REAL.mp4",""
"","","","call-function","134","976484","0.0-134.0","6gjx5yh0","","","","","","","",""
"2407.8850000000093","{""judgement"":1}","[0]","survey-likert","135","978892","0.0-135.0","6gjx5yh0","","","","","","","","0"
"1886.1799999999348","{""confidence"":1}","[0]","survey-likert","136","980780","0.0-136.0","6gjx5yh0","","","","","","","",""
"","","","call-function","137","980780","0.0-137.0","6gjx5yh0","","","","","","","",""
"null","","","html-keyboard-response","138","982285","0.0-138.0","6gjx5yh0","","<span style=""color:Black; font-size:50px;"">Agent A","null","","","","",""
"null","","","video-keyboard-response","139","985156","0.0-139.0","6gjx5yh0","","","null","","Agent A","veridical","FOR_REV_BLOBBY_STIM/1159572.bmp_pp71_L1_V1.0_veridical_freeview_isoFalse_fps144.mp4",""
"null","","","html-keyboard-response","140","986661","0.0-140.0","6gjx5yh0","","<span style=""color:Black; font-size:50px;"">Agent B","null","","","","",""
"null","","","video-keyboard-response","141","989508","0.0-141.0","6gjx5yh0","","","null","","Agent B","scrambled","FOR_REV_BLOBBY_STIM/1159572.bmp_pp71_L1_V1.0_veridical_freeview_isoFalse_fps144_reversed_REAL.mp4",""
"","","","call-function","142","989508","0.0-142.0","6gjx5yh0","","","","","","","",""
"4127.540000000037","{""judgement"":0}","[0]","survey-likert","143","993638","0.0-143.0","6gjx5yh0","","","","","","","","0"
"1848.8649999999907","{""confidence"":0}","[0]","survey-likert","144","995488","0.0-144.0","6gjx5yh0","","","","","","","",""
"","","","call-function","145","995488","0.0-145.0","6gjx5yh0","","","","","","","",""
"null","","","html-keyboard-response","146","996989","0.0-146.0","6gjx5yh0","","<span style=""color:Black; font-size:50px;"">Agent A","null","","","","",""
"null","","","video-keyboard-response","147","999738","0.0-147.0","6gjx5yh0","","","null","","Agent A","veridical","FOR_REV_BLOBBY_STIM/498111.bmp_pp88_L2_V1.0_veridical_freeview_isoFalse_fps144.mp4",""
"null","","","html-keyboard-response","148","1001239","0.0-148.0","6gjx5yh0","","<span style=""color:Black; font-size:50px;"">Agent B","null","","","","",""
"null","","","video-keyboard-response","149","1003988","0.0-149.0","6gjx5yh0","","","null","","Agent B","scrambled","FOR_REV_BLOBBY_STIM/498111.bmp_pp88_L2_V1.0_veridical_freeview_isoFalse_fps144_reversed_REAL.mp4",""
"","","","call-function","150","1003989","0.0-150.0","6gjx5yh0","","","","","","","",""
"1743.0650000000605","{""judgement"":1}","[0]","survey-likert","151","1005733","0.0-151.0","6gjx5yh0","","","","","","","","0"
"1187.9199999999255","{""confidence"":2}","[0]","survey-likert","152","1006922","0.0-152.0","6gjx5yh0","","","","","","","",""
"","","","call-function","153","1006922","0.0-153.0","6gjx5yh0","","","","","","","",""
"null","","","html-keyboard-response","154","1008426","0.0-154.0","6gjx5yh0","","<span style=""color:Black; font-size:50px;"">Agent A","null","","","","",""
"null","","","video-keyboard-response","155","1011146","0.0-155.0","6gjx5yh0","","","null","","Agent A","veridical","FOR_REV_BLOBBY_STIM/1592934.bmp_pp63_L1_V1.0_veridical_freeview_isoFalse_fps144.mp4",""
"null","","","html-keyboard-response","156","1012651","0.0-156.0","6gjx5yh0","","<span style=""color:Black; font-size:50px;"">Agent B","null","","","","",""
"null","","","video-keyboard-response","157","1015374","0.0-157.0","6gjx5yh0","","","null","","Agent B","scrambled","FOR_REV_BLOBBY_STIM/1592934.bmp_pp63_L1_V1.0_veridical_freeview_isoFalse_fps144_reversed_REAL.mp4",""
"","","","call-function","158","1015374","0.0-158.0","6gjx5yh0","","","","","","","",""
"1907.094999999972","{""judgement"":0}","[0]","survey-likert","159","1017282","0.0-159.0","6gjx5yh0","","","","","","","","0"
"1402.4450000000652","{""confidence"":3}","[0]","survey-likert","160","1018686","0.0-160.0","6gjx5yh0","","","","","","","",""
"","","","call-function","161","1018686","0.0-161.0","6gjx5yh0","","","","","","","",""
"null","","","html-keyboard-response","162","1020188","0.0-162.0","6gjx5yh0","","<span style=""color:Black; font-size:50px;"">Agent A","null","","","","",""
"null","","","video-keyboard-response","163","1022738","0.0-163.0","6gjx5yh0","","","null","","Agent A","scrambled","FOR_REV_BLOBBY_STIM/1591876.bmp_pp63_L1_V1.0_veridical_freeview_isoFalse_fps144_reversed_REAL.mp4",""
"null","","","html-keyboard-response","164","1024241","0.0-164.0","6gjx5yh0","","<span style=""color:Black; font-size:50px;"">Agent B","null","","","","",""
"null","","","video-keyboard-response","165","1026796","0.0-165.0","6gjx5yh0","","","null","","Agent B","veridical","FOR_REV_BLOBBY_STIM/1591876.bmp_pp63_L1_V1.0_veridical_freeview_isoFalse_fps144.mp4",""
"","","","call-function","166","1026797","0.0-166.0","6gjx5yh0","","","","","","","",""
"3011.5599999999395","{""judgement"":1}","[0]","survey-likert","167","1029810","0.0-167.0","6gjx5yh0","","","","","","","","1"
"1781.3850000000093","{""confidence"":2}","[0]","survey-likert","168","1031593","0.0-168.0","6gjx5yh0","","","","","","","",""
"2215.2149999999674","","","instructions","169","1033810","0.0-169.0","6gjx5yh0","[{""page_index"":0,""viewing_time"":907.1650000000373},{""page_index"":1,""viewing_time"":880.1549999999115},{""page_index"":2,""viewing_time"":427.7299999999814}]","","","","","","",""
"1169.8150000000605","","","instructions","170","1034981","0.0-170.0","6gjx5yh0","[{""page_index"":0,""viewing_time"":383.7049999999581},{""page_index"":1,""viewing_time"":390.4100000000326},{""page_index"":2,""viewing_time"":395.5899999999674}]","","","","","","",""
"","","","call-function","171","1034982","0.0-171.0","6gjx5yh0","","","","","","","",""
"null","","","html-keyboard-response","172","1036486","0.0-172.0","6gjx5yh0","","<span style=""color:Black; font-size:50px;"">Agent A","null","","","","",""
"null","","","video-keyboard-response","173","1039319","0.0-173.0","6gjx5yh0","","","null","","Agent A","veridical","FOR_REV_BLOBBY_STIM/713017.bmp_pp152_L2_V1.0_veridical_freeview_isoFalse_fps144.mp4",""
"null","","","html-keyboard-response","174","1040825","0.0-174.0","6gjx5yh0","","<span style=""color:Black; font-size:50px;"">Agent B","null","","","","",""
"null","","","video-keyboard-response","175","1043659","0.0-175.0","6gjx5yh0","","","null","","Agent B","scrambled","FOR_REV_BLOBBY_STIM/713017.bmp_pp152_L2_V1.0_veridical_freeview_isoFalse_fps144_reversed_REAL.mp4",""
"","","","call-function","176","1043659","0.0-176.0","6gjx5yh0","","","","","","","",""
"2047.7449999999953","{""judgement"":0}","[0]","survey-likert","177","1045708","0.0-177.0","6gjx5yh0","","","","","","","","0"
"1432.9600000000792","{""confidence"":3}","[0]","survey-likert","178","1047142","0.0-178.0","6gjx5yh0","","","","","","","",""
"","","","call-function","179","1047143","0.0-179.0","6gjx5yh0","","","","","","","",""
"null","","","html-keyboard-response","180","1048648","0.0-180.0","6gjx5yh0","","<span style=""color:Black; font-size:50px;"">Agent A","null","","","","",""
"null","","","video-keyboard-response","181","1051382","0.0-181.0","6gjx5yh0","","","null","","Agent A","veridical","FOR_REV_BLOBBY_STIM/1592619.bmp_pp56_L3_V1.0_veridical_freeview_isoFalse_fps144.mp4",""
"null","","","html-keyboard-response","182","1052888","0.0-182.0","6gjx5yh0","","<span style=""color:Black; font-size:50px;"">Agent B","null","","","","",""
"null","","","video-keyboard-response","183","1055638","0.0-183.0","6gjx5yh0","","","null","","Agent B","scrambled","FOR_REV_BLOBBY_STIM/1592619.bmp_pp56_L3_V1.0_veridical_freeview_isoFalse_fps144_reversed_REAL.mp4",""
"","","","call-function","184","1055639","0.0-184.0","6gjx5yh0","","","","","","","",""
"3641.215000000084","{""judgement"":0}","[0]","survey-likert","185","1059281","0.0-185.0","6gjx5yh0","","","","","","","","0"
"972.125","{""confidence"":2}","[0]","survey-likert","186","1060254","0.0-186.0","6gjx5yh0","","","","","","","",""
"","","","call-function","187","1060254","0.0-187.0","6gjx5yh0","","","","","","","",""
"null","","","html-keyboard-response","188","1061757","0.0-188.0","6gjx5yh0","","<span style=""color:Black; font-size:50px;"">Agent A","null","","","","",""
"null","","","video-keyboard-response","189","1064447","0.0-189.0","6gjx5yh0","","","null","","Agent A","scrambled","FOR_REV_BLOBBY_STIM/1592727.bmp_pp59_L3_V1.0_veridical_freeview_isoFalse_fps144_reversed_REAL.mp4",""
"null","","","html-keyboard-response","190","1065951","0.0-190.0","6gjx5yh0","","<span style=""color:Black; font-size:50px;"">Agent B","null","","","","",""
"null","","","video-keyboard-response","191","1068640","0.0-191.0","6gjx5yh0","","","null","","Agent B","veridical","FOR_REV_BLOBBY_STIM/1592727.bmp_pp59_L3_V1.0_veridical_freeview_isoFalse_fps144.mp4",""
"","","","call-function","192","1068640","0.0-192.0","6gjx5yh0","","","","","","","",""
"1655.8149999999441","{""judgement"":0}","[0]","survey-likert","193","1070297","0.0-193.0","6gjx5yh0","","","","","","","","1"
"1187.030000000028","{""confidence"":2}","[0]","survey-likert","194","1071485","0.0-194.0","6gjx5yh0","","","","","","","",""
"","","","call-function","195","1071485","0.0-195.0","6gjx5yh0","","","","","","","",""
"null","","","html-keyboard-response","196","1072991","0.0-196.0","6gjx5yh0","","<span style=""color:Black; font-size:50px;"">Agent A","null","","","","",""
"null","","","video-keyboard-response","197","1075846","0.0-197.0","6gjx5yh0","","","null","","Agent A","veridical","FOR_REV_BLOBBY_STIM/1592657.bmp_pp98_L1_V1.0_veridical_freeview_isoFalse_fps144.mp4",""
"null","","","html-keyboard-response","198","1077350","0.0-198.0","6gjx5yh0","","<span style=""color:Black; font-size:50px;"">Agent B","null","","","","",""
"null","","","video-keyboard-response","199","1080191","0.0-199.0","6gjx5yh0","","","null","","Agent B","scrambled","FOR_REV_BLOBBY_STIM/1592657.bmp_pp98_L1_V1.0_veridical_freeview_isoFalse_fps144_reversed_REAL.mp4",""
"","","","call-function","200","1080191","0.0-200.0","6gjx5yh0","","","","","","","",""
"2963.695000000065","{""judgement"":0}","[0]","survey-likert","201","1083156","0.0-201.0","6gjx5yh0","","","","","","","","0"
"2333.024999999907","{""confidence"":2}","[0]","survey-likert","202","1085490","0.0-202.0","6gjx5yh0","","","","","","","",""
"","","","call-function","203","1085490","0.0-203.0","6gjx5yh0","","","","","","","",""
"null","","","html-keyboard-response","204","1086991","0.0-204.0","6gjx5yh0","","<span style=""color:Black; font-size:50px;"">Agent A","null","","","","",""
"null","","","video-keyboard-response","205","1089622","0.0-205.0","6gjx5yh0","","","null","","Agent A","scrambled","FOR_REV_BLOBBY_STIM/61537.bmp_pp73_L3_V1.0_veridical_freeview_isoFalse_fps144_reversed_REAL.mp4",""
"null","","","html-keyboard-response","206","1091127","0.0-206.0","6gjx5yh0","","<span style=""color:Black; font-size:50px;"">Agent B","null","","","","",""
"null","","","video-keyboard-response","207","1093753","0.0-207.0","6gjx5yh0","","","null","","Agent B","veridical","FOR_REV_BLOBBY_STIM/61537.bmp_pp73_L3_V1.0_veridical_freeview_isoFalse_fps144.mp4",""
"","","","call-function","208","1093754","0.0-208.0","6gjx5yh0","","","","","","","",""
"2921.090000000084","{""judgement"":0}","[0]","survey-likert","209","1096676","0.0-209.0","6gjx5yh0","","","","","","","","1"
"1388.1149999999907","{""confidence"":2}","[0]","survey-likert","210","1098065","0.0-210.0","6gjx5yh0","","","","","","","",""
"","","","call-function","211","1098065","0.0-211.0","6gjx5yh0","","","","","","","",""
"null","","","html-keyboard-response","212","1099566","0.0-212.0","6gjx5yh0","","<span style=""color:Black; font-size:50px;"">Agent A","null","","","","",""
"null","","","video-keyboard-response","213","1102296","0.0-213.0","6gjx5yh0","","","null","","Agent A","scrambled","FOR_REV_BLOBBY_STIM/713749.bmp_pp88_L2_V1.0_veridical_freeview_isoFalse_fps144_reversed_REAL.mp4",""
"null","","","html-keyboard-response","214","1103799","0.0-214.0","6gjx5yh0","","<span style=""color:Black; font-size:50px;"">Agent B","null","","","","",""
"null","","","video-keyboard-response","215","1106529","0.0-215.0","6gjx5yh0","","","null","","Agent B","veridical","FOR_REV_BLOBBY_STIM/713749.bmp_pp88_L2_V1.0_veridical_freeview_isoFalse_fps144.mp4",""
"","","","call-function","216","1106529","0.0-216.0","6gjx5yh0","","","","","","","",""
"1765.7549999998882","{""judgement"":0}","[0]","survey-likert","217","1108296","0.0-217.0","6gjx5yh0","","","","","","","","1"
"1561.1000000000931","{""confidence"":2}","[0]","survey-likert","218","1109858","0.0-218.0","6gjx5yh0","","","","","","","",""
"","","","call-function","219","1109858","0.0-219.0","6gjx5yh0","","","","","","","",""
"null","","","html-keyboard-response","220","1111364","0.0-220.0","6gjx5yh0","","<span style=""color:Black; font-size:50px;"">Agent A","null","","","","",""
"null","","","video-keyboard-response","221","1114207","0.0-221.0","6gjx5yh0","","","null","","Agent A","veridical","FOR_REV_BLOBBY_STIM/1592286.bmp_pp52_L1_V1.0_veridical_freeview_isoFalse_fps144.mp4",""
"null","","","html-keyboard-response","222","1115709","0.0-222.0","6gjx5yh0","","<span style=""color:Black; font-size:50px;"">Agent B","null","","","","",""
"null","","","video-keyboard-response","223","1118528","0.0-223.0","6gjx5yh0","","","null","","Agent B","scrambled","FOR_REV_BLOBBY_STIM/1592286.bmp_pp52_L1_V1.0_veridical_freeview_isoFalse_fps144_reversed_REAL.mp4",""
"","","","call-function","224","1118529","0.0-224.0","6gjx5yh0","","","","","","","",""
"1511.155000000028","{""judgement"":0}","[0]","survey-likert","225","1120041","0.0-225.0","6gjx5yh0","","","","","","","","0"
"1185.1700000001583","{""confidence"":2}","[0]","survey-likert","226","1121227","0.0-226.0","6gjx5yh0","","","","","","","",""
"","","","call-function","227","1121228","0.0-227.0","6gjx5yh0","","","","","","","",""
"null","","","html-keyboard-response","228","1122730","0.0-228.0","6gjx5yh0","","<span style=""color:Black; font-size:50px;"">Agent A","null","","","","",""
"null","","","video-keyboard-response","229","1125504","0.0-229.0","6gjx5yh0","","","null","","Agent A","veridical","FOR_REV_BLOBBY_STIM/1592581.bmp_pp100_L3_V1.0_veridical_freeview_isoFalse_fps144.mp4",""
"null","","","html-keyboard-response","230","1127010","0.0-230.0","6gjx5yh0","","<span style=""color:Black; font-size:50px;"">Agent B","null","","","","",""
"null","","","video-keyboard-response","231","1129784","0.0-231.0","6gjx5yh0","","","null","","Agent B","scrambled","FOR_REV_BLOBBY_STIM/1592581.bmp_pp100_L3_V1.0_veridical_freeview_isoFalse_fps144_reversed_REAL.mp4",""
"","","","call-function","232","1129785","0.0-232.0","6gjx5yh0","","","","","","","",""
"2813.0799999998417","{""judgement"":1}","[0]","survey-likert","233","1132599","0.0-233.0","6gjx5yh0","","","","","","","","0"
"1853.1200000001118","{""confidence"":1}","[0]","survey-likert","234","1134453","0.0-234.0","6gjx5yh0","","","","","","","",""
"","","","call-function","235","1134453","0.0-235.0","6gjx5yh0","","","","","","","",""
"null","","","html-keyboard-response","236","1135954","0.0-236.0","6gjx5yh0","","<span style=""color:Black; font-size:50px;"">Agent A","null","","","","",""
"null","","","video-keyboard-response","237","1138756","0.0-237.0","6gjx5yh0","","","null","","Agent A","scrambled","FOR_REV_BLOBBY_STIM/1592890.bmp_pp82_L2_V1.0_veridical_freeview_isoFalse_fps144_reversed_REAL.mp4",""
"null","","","html-keyboard-response","238","1140260","0.0-238.0","6gjx5yh0","","<span style=""color:Black; font-size:50px;"">Agent B","null","","","","",""
"null","","","video-keyboard-response","239","1143063","0.0-239.0","6gjx5yh0","","","null","","Agent B","veridical","FOR_REV_BLOBBY_STIM/1592890.bmp_pp82_L2_V1.0_veridical_freeview_isoFalse_fps144.mp4",""
"","","","call-function","240","1143064","0.0-240.0","6gjx5yh0","","","","","","","",""
"2976.1299999998882","{""judgement"":0}","[0]","survey-likert","241","1146041","0.0-241.0","6gjx5yh0","","","","","","","","1"
"1009.7650000001304","{""confidence"":2}","[0]","survey-likert","242","1147052","0.0-242.0","6gjx5yh0","","","","","","","",""
"","","","call-function","243","1147052","0.0-243.0","6gjx5yh0","","","","","","","",""
"null","","","html-keyboard-response","244","1148553","0.0-244.0","6gjx5yh0","","<span style=""color:Black; font-size:50px;"">Agent A","null","","","","",""
"null","","","video-keyboard-response","245","1151341","0.0-245.0","6gjx5yh0","","","null","","Agent A","scrambled","FOR_REV_BLOBBY_STIM/1592499.bmp_pp96_L2_V1.0_veridical_freeview_isoFalse_fps144_reversed_REAL.mp4",""
"null","","","html-keyboard-response","246","1152842","0.0-246.0","6gjx5yh0","","<span style=""color:Black; font-size:50px;"">Agent B","null","","","","",""
"null","","","video-keyboard-response","247","1155627","0.0-247.0","6gjx5yh0","","","null","","Agent B","veridical","FOR_REV_BLOBBY_STIM/1592499.bmp_pp96_L2_V1.0_veridical_freeview_isoFalse_fps144.mp4",""
"","","","call-function","248","1155627","0.0-248.0","6gjx5yh0","","","","","","","",""
"1500.125","{""judgement"":1}","[0]","survey-likert","249","1157129","0.0-249.0","6gjx5yh0","","","","","","","","1"
"1411.7350000001024","{""confidence"":0}","[0]","survey-likert","250","1158542","0.0-250.0","6gjx5yh0","","","","","","","",""
"1687.5449999999255","","","instructions","251","1160231","0.0-251.0","6gjx5yh0","[{""page_index"":0,""viewing_time"":1019.3600000001024},{""page_index"":1,""viewing_time"":379.9549999998417},{""page_index"":2,""viewing_time"":288.06500000017695}]","","","","","","",""
"1297.0500000000466","","","instructions","252","1161529","0.0-252.0","6gjx5yh0","[{""page_index"":0,""viewing_time"":366.13999999989755},{""page_index"":1,""viewing_time"":450.8550000002142},{""page_index"":2,""viewing_time"":479.9399999999441}]","","","","","","",""
"","","","call-function","253","1161529","0.0-253.0","6gjx5yh0","","","","","","","",""
"null","","","html-keyboard-response","254","1163035","0.0-254.0","6gjx5yh0","","<span style=""color:Black; font-size:50px;"">Agent A","null","","","","",""
"null","","","video-keyboard-response","255","1165838","0.0-255.0","6gjx5yh0","","","null","","Agent A","scrambled","FOR_REV_BLOBBY_STIM/285751.bmp_pp55_L3_V1.0_veridical_freeview_isoFalse_fps144_reversed_REAL.mp4",""
"null","","","html-keyboard-response","256","1167341","0.0-256.0","6gjx5yh0","","<span style=""color:Black; font-size:50px;"">Agent B","null","","","","",""
"null","","","video-keyboard-response","257","1170144","0.0-257.0","6gjx5yh0","","","null","","Agent B","veridical","FOR_REV_BLOBBY_STIM/285751.bmp_pp55_L3_V1.0_veridical_freeview_isoFalse_fps144.mp4",""
"","","","call-function","258","1170144","0.0-258.0","6gjx5yh0","","","","","","","",""
"1948.7750000001397","{""judgement"":1}","[0]","survey-likert","259","1172094","0.0-259.0","6gjx5yh0","","","","","","","","1"
"1158.8200000000652","{""confidence"":1}","[0]","survey-likert","260","1173254","0.0-260.0","6gjx5yh0","","","","","","","",""
"","","","call-function","261","1173255","0.0-261.0","6gjx5yh0","","","","","","","",""
"null","","","html-keyboard-response","262","1174757","0.0-262.0","6gjx5yh0","","<span style=""color:Black; font-size:50px;"">Agent A","null","","","","",""
"null","","","video-keyboard-response","263","1177575","0.0-263.0","6gjx5yh0","","","null","","Agent A","veridical","FOR_REV_BLOBBY_STIM/1159882.bmp_pp61_L2_V1.0_veridical_freeview_isoFalse_fps144.mp4",""
"null","","","html-keyboard-response","264","1179076","0.0-264.0","6gjx5yh0","","<span style=""color:Black; font-size:50px;"">Agent B","null","","","","",""
"null","","","video-keyboard-response","265","1181910","0.0-265.0","6gjx5yh0","","","null","","Agent B","scrambled","FOR_REV_BLOBBY_STIM/1159882.bmp_pp61_L2_V1.0_veridical_freeview_isoFalse_fps144_reversed_REAL.mp4",""
"","","","call-function","266","1181911","0.0-266.0","6gjx5yh0","","","","","","","",""
"4509.530000000028","{""judgement"":0}","[0]","survey-likert","267","1186422","0.0-267.0","6gjx5yh0","","","","","","","","0"
"3270.714999999851","{""confidence"":2}","[0]","survey-likert","268","1189694","0.0-268.0","6gjx5yh0","","","","","","","",""
"","","","call-function","269","1189694","0.0-269.0","6gjx5yh0","","","","","","","",""
"null","","","html-keyboard-response","270","1191197","0.0-270.0","6gjx5yh0","","<span style=""color:Black; font-size:50px;"">Agent A","null","","","","",""
"null","","","video-keyboard-response","271","1194012","0.0-271.0","6gjx5yh0","","","null","","Agent A","scrambled","FOR_REV_BLOBBY_STIM/1592362.bmp_pp95_L2_V1.0_veridical_freeview_isoFalse_fps144_reversed_REAL.mp4",""
"null","","","html-keyboard-response","272","1195514","0.0-272.0","6gjx5yh0","","<span style=""color:Black; font-size:50px;"">Agent B","null","","","","",""
"null","","","video-keyboard-response","273","1198328","0.0-273.0","6gjx5yh0","","","null","","Agent B","veridical","FOR_REV_BLOBBY_STIM/1592362.bmp_pp95_L2_V1.0_veridical_freeview_isoFalse_fps144.mp4",""
"","","","call-function","274","1198329","0.0-274.0","6gjx5yh0","","","","","","","",""
"1549.3549999999814","{""judgement"":0}","[0]","survey-likert","275","1199879","0.0-275.0","6gjx5yh0","","","","","","","","1"
"2643.839999999851","{""confidence"":1}","[0]","survey-likert","276","1202524","0.0-276.0","6gjx5yh0","","","","","","","",""
"","","","call-function","277","1202525","0.0-277.0","6gjx5yh0","","","","","","","",""
"null","","","html-keyboard-response","278","1204027","0.0-278.0","6gjx5yh0","","<span style=""color:Black; font-size:50px;"">Agent A","null","","","","",""
"null","","","video-keyboard-response","279","1206819","0.0-279.0","6gjx5yh0","","","null","","Agent A","veridical","FOR_REV_BLOBBY_STIM/1159855.bmp_pp99_L2_V1.0_veridical_freeview_isoFalse_fps144.mp4",""
"null","","","html-keyboard-response","280","1208321","0.0-280.0","6gjx5yh0","","<span style=""color:Black; font-size:50px;"">Agent B","null","","","","",""
"null","","","video-keyboard-response","281","1211113","0.0-281.0","6gjx5yh0","","","null","","Agent B","scrambled","FOR_REV_BLOBBY_STIM/1159855.bmp_pp99_L2_V1.0_veridical_freeview_isoFalse_fps144_reversed_REAL.mp4",""
"","","","call-function","282","1211114","0.0-282.0","6gjx5yh0","","","","","","","",""
"3807.2099999999627","{""judgement"":1}","[0]","survey-likert","283","1214922","0.0-283.0","6gjx5yh0","","","","","","","","0"
"1366.6500000001397","{""confidence"":1}","[0]","survey-likert","284","1216290","0.0-284.0","6gjx5yh0","","","","","","","",""
"","","","call-function","285","1216290","0.0-285.0","6gjx5yh0","","","","","","","",""
"null","","","html-keyboard-response","286","1217794","0.0-286.0","6gjx5yh0","","<span style=""color:Black; font-size:50px;"">Agent A","null","","","","",""
"null","","","video-keyboard-response","287","1220575","0.0-287.0","6gjx5yh0","","","null","","Agent A","veridical","FOR_REV_BLOBBY_STIM/1592804.bmp_pp91_L3_V1.0_veridical_freeview_isoFalse_fps144.mp4",""
"null","","","html-keyboard-response","288","1222081","0.0-288.0","6gjx5yh0","","<span style=""color:Black; font-size:50px;"">Agent B","null","","","","",""
"null","","","video-keyboard-response","289","1224860","0.0-289.0","6gjx5yh0","","","null","","Agent B","scrambled","FOR_REV_BLOBBY_STIM/1592804.bmp_pp91_L3_V1.0_veridical_freeview_isoFalse_fps144_reversed_REAL.mp4",""
"","","","call-function","290","1224860","0.0-290.0","6gjx5yh0","","","","","","","",""
"4790.264999999898","{""judgement"":0}","[0]","survey-likert","291","1229651","0.0-291.0","6gjx5yh0","","","","","","","","0"
"1975.5450000001583","{""confidence"":0}","[0]","survey-likert","292","1231628","0.0-292.0","6gjx5yh0","","","","","","","",""
"","","","call-function","293","1231628","0.0-293.0","6gjx5yh0","","","","","","","",""
"null","","","html-keyboard-response","294","1233132","0.0-294.0","6gjx5yh0","","<span style=""color:Black; font-size:50px;"">Agent A","null","","","","",""
"null","","","video-keyboard-response","295","1235835","0.0-295.0","6gjx5yh0","","","null","","Agent A","veridical","FOR_REV_BLOBBY_STIM/1592817.bmp_pp55_L3_V1.0_veridical_freeview_isoFalse_fps144.mp4",""
"null","","","html-keyboard-response","296","1237338","0.0-296.0","6gjx5yh0","","<span style=""color:Black; font-size:50px;"">Agent B","null","","","","",""
"null","","","video-keyboard-response","297","1240040","0.0-297.0","6gjx5yh0","","","null","","Agent B","scrambled","FOR_REV_BLOBBY_STIM/1592817.bmp_pp55_L3_V1.0_veridical_freeview_isoFalse_fps144_reversed_REAL.mp4",""
"","","","call-function","298","1240041","0.0-298.0","6gjx5yh0","","","","","","","",""
"1914.6350000000093","{""judgement"":0}","[0]","survey-likert","299","1241956","0.0-299.0","6gjx5yh0","","","","","","","","0"
"891.910000000149","{""confidence"":2}","[0]","survey-likert","300","1242849","0.0-300.0","6gjx5yh0","","","","","","","",""
"","","","call-function","301","1242850","0.0-301.0","6gjx5yh0","","","","","","","",""
"null","","","html-keyboard-response","302","1244351","0.0-302.0","6gjx5yh0","","<span style=""color:Black; font-size:50px;"">Agent A","null","","","","",""
"null","","","video-keyboard-response","303","1247021","0.0-303.0","6gjx5yh0","","","null","","Agent A","scrambled","FOR_REV_BLOBBY_STIM/1592133.bmp_pp75_L1_V1.0_veridical_freeview_isoFalse_fps144_reversed_REAL.mp4",""
"null","","","html-keyboard-response","304","1248525","0.0-304.0","6gjx5yh0","","<span style=""color:Black; font-size:50px;"">Agent B","null","","","","",""
"null","","","video-keyboard-response","305","1251212","0.0-305.0","6gjx5yh0","","","null","","Agent B","veridical","FOR_REV_BLOBBY_STIM/1592133.bmp_pp75_L1_V1.0_veridical_freeview_isoFalse_fps144.mp4",""
"","","","call-function","306","1251212","0.0-306.0","6gjx5yh0","","","","","","","",""
"1611.9899999999907","{""judgement"":0}","[0]","survey-likert","307","1252825","0.0-307.0","6gjx5yh0","","","","","","","","1"
"1000.8349999999627","{""confidence"":1}","[0]","survey-likert","308","1253827","0.0-308.0","6gjx5yh0","","","","","","","",""
"","","","call-function","309","1253827","0.0-309.0","6gjx5yh0","","","","","","","",""
"null","","","html-keyboard-response","310","1255330","0.0-310.0","6gjx5yh0","","<span style=""color:Black; font-size:50px;"">Agent A","null","","","","",""
"null","","","video-keyboard-response","311","1258166","0.0-311.0","6gjx5yh0","","","null","","Agent A","veridical","FOR_REV_BLOBBY_STIM/1159675.bmp_pp77_L3_V1.0_veridical_freeview_isoFalse_fps144.mp4",""
"null","","","html-keyboard-response","312","1259670","0.0-312.0","6gjx5yh0","","<span style=""color:Black; font-size:50px;"">Agent B","null","","","","",""
"null","","","video-keyboard-response","313","1262507","0.0-313.0","6gjx5yh0","","","null","","Agent B","scrambled","FOR_REV_BLOBBY_STIM/1159675.bmp_pp77_L3_V1.0_veridical_freeview_isoFalse_fps144_reversed_REAL.mp4",""
"","","","call-function","314","1262508","0.0-314.0","6gjx5yh0","","","","","","","",""
"8254.23999999999","{""judgement"":0}","[0]","survey-likert","315","1270763","0.0-315.0","6gjx5yh0","","","","","","","","0"
"1398.6799999999348","{""confidence"":1}","[0]","survey-likert","316","1272163","0.0-316.0","6gjx5yh0","","","","","","","",""
"","","","call-function","317","1272164","0.0-317.0","6gjx5yh0","","","","","","","",""
"null","","","html-keyboard-response","318","1273668","0.0-318.0","6gjx5yh0","","<span style=""color:Black; font-size:50px;"">Agent A","null","","","","",""
"null","","","video-keyboard-response","319","1276356","0.0-319.0","6gjx5yh0","","","null","","Agent A","veridical","FOR_REV_BLOBBY_STIM/713211.bmp_pp100_L3_V1.0_veridical_freeview_isoFalse_fps144.mp4",""
"null","","","html-keyboard-response","320","1277859","0.0-320.0","6gjx5yh0","","<span style=""color:Black; font-size:50px;"">Agent B","null","","","","",""
"null","","","video-keyboard-response","321","1280549","0.0-321.0","6gjx5yh0","","","null","","Agent B","scrambled","FOR_REV_BLOBBY_STIM/713211.bmp_pp100_L3_V1.0_veridical_freeview_isoFalse_fps144_reversed_REAL.mp4",""
"","","","call-function","322","1280550","0.0-322.0","6gjx5yh0","","","","","","","",""
"1522.1899999999441","{""judgement"":1}","[0]","survey-likert","323","1282073","0.0-323.0","6gjx5yh0","","","","","","","","0"
"1767.1350000000093","{""confidence"":2}","[0]","survey-likert","324","1283842","0.0-324.0","6gjx5yh0","","","","","","","",""
"","","","call-function","325","1283843","0.0-325.0","6gjx5yh0","","","","","","","",""
"null","","","html-keyboard-response","326","1285345","0.0-326.0","6gjx5yh0","","<span style=""color:Black; font-size:50px;"">Agent A","null","","","","",""
"null","","","video-keyboard-response","327","1288027","0.0-327.0","6gjx5yh0","","","null","","Agent A","scrambled","FOR_REV_BLOBBY_STIM/1592372.bmp_pp76_L1_V1.0_veridical_freeview_isoFalse_fps144_reversed_REAL.mp4",""
"null","","","html-keyboard-response","328","1289530","0.0-328.0","6gjx5yh0","","<span style=""color:Black; font-size:50px;"">Agent B","null","","","","",""
"null","","","video-keyboard-response","329","1292210","0.0-329.0","6gjx5yh0","","","null","","Agent B","veridical","FOR_REV_BLOBBY_STIM/1592372.bmp_pp76_L1_V1.0_veridical_freeview_isoFalse_fps144.mp4",""
"","","","call-function","330","1292211","0.0-330.0","6gjx5yh0","","","","","","","",""
"1471.4950000001118","{""judgement"":0}","[0]","survey-likert","331","1293683","0.0-331.0","6gjx5yh0","","","","","","","","1"
"1632.4450000000652","{""confidence"":2}","[0]","survey-likert","332","1295317","0.0-332.0","6gjx5yh0","","","","","","","",""
"1638.2900000000373","","","instructions","333","1296956","0.0-333.0","6gjx5yh0","[{""page_index"":0,""viewing_time"":1059},{""page_index"":1,""viewing_time"":154.12000000011176},{""page_index"":2,""viewing_time"":425.0100000000093}]","","","","","","",""
"3238.655000000028","","","instructions","334","1300195","0.0-334.0","6gjx5yh0","[{""page_index"":0,""viewing_time"":454.3400000000838},{""page_index"":1,""viewing_time"":2217.0200000000186},{""page_index"":2,""viewing_time"":567.1850000000559}]","","","","","","",""
"","","","call-function","335","1300196","0.0-335.0","6gjx5yh0","","","","","","","",""
"null","","","html-keyboard-response","336","1301698","0.0-336.0","6gjx5yh0","","<span style=""color:Black; font-size:50px;"">Agent A","null","","","","",""
"null","","","video-keyboard-response","337","1304456","0.0-337.0","6gjx5yh0","","","null","","Agent A","scrambled","FOR_REV_BLOBBY_STIM/1593041.bmp_pp58_L1_V1.0_veridical_freeview_isoFalse_fps144_reversed_REAL.mp4",""
"null","","","html-keyboard-response","338","1305959","0.0-338.0","6gjx5yh0","","<span style=""color:Black; font-size:50px;"">Agent B","null","","","","",""
"null","","","video-keyboard-response","339","1308740","0.0-339.0","6gjx5yh0","","","null","","Agent B","veridical","FOR_REV_BLOBBY_STIM/1593041.bmp_pp58_L1_V1.0_veridical_freeview_isoFalse_fps144.mp4",""
"","","","call-function","340","1308741","0.0-340.0","6gjx5yh0","","","","","","","",""
"1634.8549999999814","{""judgement"":0}","[0]","survey-likert","341","1310376","0.0-341.0","6gjx5yh0","","","","","","","","1"
"1242.494999999879","{""confidence"":2}","[0]","survey-likert","342","1311620","0.0-342.0","6gjx5yh0","","","","","","","",""
"","","","call-function","343","1311621","0.0-343.0","6gjx5yh0","","","","","","","",""
"null","","","html-keyboard-response","344","1313122","0.0-344.0","6gjx5yh0","","<span style=""color:Black; font-size:50px;"">Agent A","null","","","","",""
"null","","","video-keyboard-response","345","1315924","0.0-345.0","6gjx5yh0","","","null","","Agent A","veridical","FOR_REV_BLOBBY_STIM/1159768.bmp_pp89_L1_V1.0_veridical_freeview_isoFalse_fps144.mp4",""
"null","","","html-keyboard-response","346","1317429","0.0-346.0","6gjx5yh0","","<span style=""color:Black; font-size:50px;"">Agent B","null","","","","",""
"null","","","video-keyboard-response","347","1320230","0.0-347.0","6gjx5yh0","","","null","","Agent B","scrambled","FOR_REV_BLOBBY_STIM/1159768.bmp_pp89_L1_V1.0_veridical_freeview_isoFalse_fps144_reversed_REAL.mp4",""
"","","","call-function","348","1320230","0.0-348.0","6gjx5yh0","","","","","","","",""
"3027.094999999972","{""judgement"":0}","[0]","survey-likert","349","1323258","0.0-349.0","6gjx5yh0","","","","","","","","0"
"1191.7950000001583","{""confidence"":2}","[0]","survey-likert","350","1324451","0.0-350.0","6gjx5yh0","","","","","","","",""
"","","","call-function","351","1324452","0.0-351.0","6gjx5yh0","","","","","","","",""
"null","","","html-keyboard-response","352","1325957","0.0-352.0","6gjx5yh0","","<span style=""color:Black; font-size:50px;"">Agent A","null","","","","",""
"null","","","video-keyboard-response","353","1328764","0.0-353.0","6gjx5yh0","","","null","","Agent A","scrambled","FOR_REV_BLOBBY_STIM/1159777.bmp_pp77_L3_V1.0_veridical_freeview_isoFalse_fps144_reversed_REAL.mp4",""
"null","","","html-keyboard-response","354","1330268","0.0-354.0","6gjx5yh0","","<span style=""color:Black; font-size:50px;"">Agent B","null","","","","",""
"null","","","video-keyboard-response","355","1333073","0.0-355.0","6gjx5yh0","","","null","","Agent B","veridical","FOR_REV_BLOBBY_STIM/1159777.bmp_pp77_L3_V1.0_veridical_freeview_isoFalse_fps144.mp4",""
"","","","call-function","356","1333073","0.0-356.0","6gjx5yh0","","","","","","","",""
"2343.024999999907","{""judgement"":1}","[0]","survey-likert","357","1335417","0.0-357.0","6gjx5yh0","","","","","","","","1"
"1507.3049999999348","{""confidence"":3}","[0]","survey-likert","358","1336926","0.0-358.0","6gjx5yh0","","","","","","","",""
"","","","call-function","359","1336926","0.0-359.0","6gjx5yh0","","","","","","","",""
"null","","","html-keyboard-response","360","1338427","0.0-360.0","6gjx5yh0","","<span style=""color:Black; font-size:50px;"">Agent A","null","","","","",""
"null","","","video-keyboard-response","361","1341302","0.0-361.0","6gjx5yh0","","","null","","Agent A","veridical","FOR_REV_BLOBBY_STIM/1159447.bmp_pp70_L2_V1.0_veridical_freeview_isoFalse_fps144.mp4",""
"null","","","html-keyboard-response","362","1342808","0.0-362.0","6gjx5yh0","","<span style=""color:Black; font-size:50px;"">Agent B","null","","","","",""
"null","","","video-keyboard-response","363","1345686","0.0-363.0","6gjx5yh0","","","null","","Agent B","scrambled","FOR_REV_BLOBBY_STIM/1159447.bmp_pp70_L2_V1.0_veridical_freeview_isoFalse_fps144_reversed_REAL.mp4",""
"","","","call-function","364","1345686","0.0-364.0","6gjx5yh0","","","","","","","",""
"1162.0649999999441","{""judgement"":0}","[0]","survey-likert","365","1346849","0.0-365.0","6gjx5yh0","","","","","","","","0"
"1805.6000000000931","{""confidence"":3}","[0]","survey-likert","366","1348656","0.0-366.0","6gjx5yh0","","","","","","","",""
"","","","call-function","367","1348657","0.0-367.0","6gjx5yh0","","","","","","","",""
"null","","","html-keyboard-response","368","1350159","0.0-368.0","6gjx5yh0","","<span style=""color:Black; font-size:50px;"">Agent A","null","","","","",""
"null","","","video-keyboard-response","369","1352687","0.0-369.0","6gjx5yh0","","","null","","Agent A","scrambled","FOR_REV_BLOBBY_STIM/1159813.bmp_pp79_L2_V1.0_veridical_freeview_isoFalse_fps144_reversed_REAL.mp4",""
"null","","","html-keyboard-response","370","1354190","0.0-370.0","6gjx5yh0","","<span style=""color:Black; font-size:50px;"">Agent B","null","","","","",""
"null","","","video-keyboard-response","371","1356716","0.0-371.0","6gjx5yh0","","","null","","Agent B","veridical","FOR_REV_BLOBBY_STIM/1159813.bmp_pp79_L2_V1.0_veridical_freeview_isoFalse_fps144.mp4",""
"","","","call-function","372","1356717","0.0-372.0","6gjx5yh0","","","","","","","",""
"1352.809999999823","{""judgement"":0}","[0]","survey-likert","373","1358070","0.0-373.0","6gjx5yh0","","","","","","","","1"
"1275.8499999998603","{""confidence"":1}","[0]","survey-likert","374","1359347","0.0-374.0","6gjx5yh0","","","","","","","",""
"","","","call-function","375","1359348","0.0-375.0","6gjx5yh0","","","","","","","",""
"null","","","html-keyboard-response","376","1360852","0.0-376.0","6gjx5yh0","","<span style=""color:Black; font-size:50px;"">Agent A","null","","","","",""
"null","","","video-keyboard-response","377","1363700","0.0-377.0","6gjx5yh0","","","null","","Agent A","scrambled","FOR_REV_BLOBBY_STIM/1592807.bmp_pp68_L1_V1.0_veridical_freeview_isoFalse_fps144_reversed_REAL.mp4",""
"null","","","html-keyboard-response","378","1365204","0.0-378.0","6gjx5yh0","","<span style=""color:Black; font-size:50px;"">Agent B","null","","","","",""
"null","","","video-keyboard-response","379","1368024","0.0-379.0","6gjx5yh0","","","null","","Agent B","veridical","FOR_REV_BLOBBY_STIM/1592807.bmp_pp68_L1_V1.0_veridical_freeview_isoFalse_fps144.mp4",""
"","","","call-function","380","1368025","0.0-380.0","6gjx5yh0","","","","","","","",""
"1877.7549999998882","{""judgement"":1}","[0]","survey-likert","381","1369903","0.0-381.0","6gjx5yh0","","","","","","","","1"
"897.7800000000279","{""confidence"":2}","[0]","survey-likert","382","1370802","0.0-382.0","6gjx5yh0","","","","","","","",""
"","","","call-function","383","1370803","0.0-383.0","6gjx5yh0","","","","","","","",""
"null","","","html-keyboard-response","384","1372308","0.0-384.0","6gjx5yh0","","<span style=""color:Black; font-size:50px;"">Agent A","null","","","","",""
"null","","","video-keyboard-response","385","1375117","0.0-385.0","6gjx5yh0","","","null","","Agent A","veridical","FOR_REV_BLOBBY_STIM/713681.bmp_pp86_L2_V1.0_veridical_freeview_isoFalse_fps144.mp4",""
"null","","","html-keyboard-response","386","1376623","0.0-386.0","6gjx5yh0","","<span style=""color:Black; font-size:50px;"">Agent B","null","","","","",""
"null","","","video-keyboard-response","387","1379430","0.0-387.0","6gjx5yh0","","","null","","Agent B","scrambled","FOR_REV_BLOBBY_STIM/713681.bmp_pp86_L2_V1.0_veridical_freeview_isoFalse_fps144_reversed_REAL.mp4",""
"","","","call-function","388","1379430","0.0-388.0","6gjx5yh0","","","","","","","",""
"2026.905000000028","{""judgement"":0}","[0]","survey-likert","389","1381458","0.0-389.0","6gjx5yh0","","","","","","","","0"
"1321.8200000000652","{""confidence"":2}","[0]","survey-likert","390","1382781","0.0-390.0","6gjx5yh0","","","","","","","",""
"","","","call-function","391","1382782","0.0-391.0","6gjx5yh0","","","","","","","",""
"null","","","html-keyboard-response","392","1384288","0.0-392.0","6gjx5yh0","","<span style=""color:Black; font-size:50px;"">Agent A","null","","","","",""
"null","","","video-keyboard-response","393","1387090","0.0-393.0","6gjx5yh0","","","null","","Agent A","scrambled","FOR_REV_BLOBBY_STIM/713135.bmp_pp54_L2_V1.0_veridical_freeview_isoFalse_fps144_reversed_REAL.mp4",""
"null","","","html-keyboard-response","394","1388592","0.0-394.0","6gjx5yh0","","<span style=""color:Black; font-size:50px;"">Agent B","null","","","","",""
"null","","","video-keyboard-response","395","1391392","0.0-395.0","6gjx5yh0","","","null","","Agent B","veridical","FOR_REV_BLOBBY_STIM/713135.bmp_pp54_L2_V1.0_veridical_freeview_isoFalse_fps144.mp4",""
"","","","call-function","396","1391392","0.0-396.0","6gjx5yh0","","","","","","","",""
"1647.8349999999627","{""judgement"":0}","[0]","survey-likert","397","1393041","0.0-397.0","6gjx5yh0","","","","","","","","1"
"1116.8900000001304","{""confidence"":3}","[0]","survey-likert","398","1394159","0.0-398.0","6gjx5yh0","","","","","","","",""
"","","","call-function","399","1394160","0.0-399.0","6gjx5yh0","","","","","","","",""
"null","","","html-keyboard-response","400","1395661","0.0-400.0","6gjx5yh0","","<span style=""color:Black; font-size:50px;"">Agent A","null","","","","",""
"null","","","video-keyboard-response","401","1398269","0.0-401.0","6gjx5yh0","","","null","","Agent A","veridical","FOR_REV_BLOBBY_STIM/1593146.bmp_pp93_L1_V1.0_veridical_freeview_isoFalse_fps144.mp4",""
"null","","","html-keyboard-response","402","1399775","0.0-402.0","6gjx5yh0","","<span style=""color:Black; font-size:50px;"">Agent B","null","","","","",""
"null","","","video-keyboard-response","403","1402380","0.0-403.0","6gjx5yh0","","","null","","Agent B","scrambled","FOR_REV_BLOBBY_STIM/1593146.bmp_pp93_L1_V1.0_veridical_freeview_isoFalse_fps144_reversed_REAL.mp4",""
"","","","call-function","404","1402381","0.0-404.0","6gjx5yh0","","","","","","","",""
"1892.2150000000838","{""judgement"":1}","[0]","survey-likert","405","1404275","0.0-405.0","6gjx5yh0","","","","","","","","0"
"1452.1149999999907","{""confidence"":1}","[0]","survey-likert","406","1405729","0.0-406.0","6gjx5yh0","","","","","","","",""
"","","","call-function","407","1405730","0.0-407.0","6gjx5yh0","","","","","","","",""
"null","","","html-keyboard-response","408","1407232","0.0-408.0","6gjx5yh0","","<span style=""color:Black; font-size:50px;"">Agent A","null","","","","",""
"null","","","video-keyboard-response","409","1409915","0.0-409.0","6gjx5yh0","","","null","","Agent A","scrambled","FOR_REV_BLOBBY_STIM/285994.bmp_pp92_L3_V1.0_veridical_freeview_isoFalse_fps144_reversed_REAL.mp4",""
"null","","","html-keyboard-response","410","1411419","0.0-410.0","6gjx5yh0","","<span style=""color:Black; font-size:50px;"">Agent B","null","","","","",""
"null","","","video-keyboard-response","411","1414103","0.0-411.0","6gjx5yh0","","","null","","Agent B","veridical","FOR_REV_BLOBBY_STIM/285994.bmp_pp92_L3_V1.0_veridical_freeview_isoFalse_fps144.mp4",""
"","","","call-function","412","1414104","0.0-412.0","6gjx5yh0","","","","","","","",""
"1268.0100000000093","{""judgement"":0}","[0]","survey-likert","413","1415373","0.0-413.0","6gjx5yh0","","","","","","","","1"
"1946.345000000205","{""confidence"":3}","[0]","survey-likert","414","1417320","0.0-414.0","6gjx5yh0","","","","","","","",""
"1597.2599999997765","","","instructions","415","1418918","0.0-415.0","6gjx5yh0","[{""page_index"":0,""viewing_time"":853.0949999999721},{""page_index"":1,""viewing_time"":391.01499999989755},{""page_index"":2,""viewing_time"":352.9899999999907}]","","","","","","",""
"1182.5699999998324","","","instructions","416","1420101","0.0-416.0","6gjx5yh0","[{""page_index"":0,""viewing_time"":366.3299999998417},{""page_index"":1,""viewing_time"":403.0600000000559},{""page_index"":2,""viewing_time"":413.0649999999441}]","","","","","","",""
"","","","call-function","417","1420102","0.0-417.0","6gjx5yh0","","","","","","","",""
"null","","","html-keyboard-response","418","1421603","0.0-418.0","6gjx5yh0","","<span style=""color:Black; font-size:50px;"">Agent A","null","","","","",""
"null","","","video-keyboard-response","419","1424125","0.0-419.0","6gjx5yh0","","","null","","Agent A","veridical","FOR_REV_BLOBBY_STIM/713796.bmp_pp84_L3_V1.0_veridical_freeview_isoFalse_fps144.mp4",""
"null","","","html-keyboard-response","420","1425627","0.0-420.0","6gjx5yh0","","<span style=""color:Black; font-size:50px;"">Agent B","null","","","","",""
"null","","","video-keyboard-response","421","1428169","0.0-421.0","6gjx5yh0","","","null","","Agent B","scrambled","FOR_REV_BLOBBY_STIM/713796.bmp_pp84_L3_V1.0_veridical_freeview_isoFalse_fps144_reversed_REAL.mp4",""
"","","","call-function","422","1428170","0.0-422.0","6gjx5yh0","","","","","","","",""
"2915.6350000000093","{""judgement"":0}","[0]","survey-likert","423","1431087","0.0-423.0","6gjx5yh0","","","","","","","","0"
"1922.7749999999069","{""confidence"":3}","[0]","survey-likert","424","1433010","0.0-424.0","6gjx5yh0","","","","","","","",""
"","","","call-function","425","1433011","0.0-425.0","6gjx5yh0","","","","","","","",""
"null","","","html-keyboard-response","426","1434513","0.0-426.0","6gjx5yh0","","<span style=""color:Black; font-size:50px;"">Agent A","null","","","","",""
"null","","","video-keyboard-response","427","1437349","0.0-427.0","6gjx5yh0","","","null","","Agent A","veridical","FOR_REV_BLOBBY_STIM/713403.bmp_pp80_L3_V1.0_veridical_freeview_isoFalse_fps144.mp4",""
"null","","","html-keyboard-response","428","1438855","0.0-428.0","6gjx5yh0","","<span style=""color:Black; font-size:50px;"">Agent B","null","","","","",""
"null","","","video-keyboard-response","429","1441696","0.0-429.0","6gjx5yh0","","","null","","Agent B","scrambled","FOR_REV_BLOBBY_STIM/713403.bmp_pp80_L3_V1.0_veridical_freeview_isoFalse_fps144_reversed_REAL.mp4",""
"","","","call-function","430","1441696","0.0-430.0","6gjx5yh0","","","","","","","",""
"1972.594999999972","{""judgement"":1}","[0]","survey-likert","431","1443670","0.0-431.0","6gjx5yh0","","","","","","","","0"
"1116.1450000000186","{""confidence"":2}","[0]","survey-likert","432","1444787","0.0-432.0","6gjx5yh0","","","","","","","",""
"","","","call-function","433","1444788","0.0-433.0","6gjx5yh0","","","","","","","",""
"null","","","html-keyboard-response","434","1446290","0.0-434.0","6gjx5yh0","","<span style=""color:Black; font-size:50px;"">Agent A","null","","","","",""
"null","","","video-keyboard-response","435","1447897","0.0-435.0","6gjx5yh0","","","null","","Agent A","veridical","FOR_REV_BLOBBY_STIM/713684.bmp_pp85_L3_V1.0_veridical_freeview_isoFalse_fps144.mp4",""
"null","","","html-keyboard-response","436","1449401","0.0-436.0","6gjx5yh0","","<span style=""color:Black; font-size:50px;"">Agent B","null","","","","",""
"null","","","video-keyboard-response","437","1451006","0.0-437.0","6gjx5yh0","","","null","","Agent B","scrambled","FOR_REV_BLOBBY_STIM/713684.bmp_pp85_L3_V1.0_veridical_freeview_isoFalse_fps144_reversed_REAL.mp4",""
"","","","call-function","438","1451006","0.0-438.0","6gjx5yh0","","","","","","","",""
"3299.4899999999907","{""judgement"":1}","[0]","survey-likert","439","1454306","0.0-439.0","6gjx5yh0","","","","","","","","0"
"1883.780000000028","{""confidence"":1}","[0]","survey-likert","440","1456191","0.0-440.0","6gjx5yh0","","","","","","","",""
"","","","call-function","441","1456192","0.0-441.0","6gjx5yh0","","","","","","","",""
"null","","","html-keyboard-response","442","1457693","0.0-442.0","6gjx5yh0","","<span style=""color:Black; font-size:50px;"">Agent A","null","","","","",""
"null","","","video-keyboard-response","443","1460535","0.0-443.0","6gjx5yh0","","","null","","Agent A","veridical","FOR_REV_BLOBBY_STIM/1591961.bmp_pp67_L2_V1.0_veridical_freeview_isoFalse_fps144.mp4",""
"null","","","html-keyboard-response","444","1462040","0.0-444.0","6gjx5yh0","","<span style=""color:Black; font-size:50px;"">Agent B","null","","","","",""
"null","","","video-keyboard-response","445","1464890","0.0-445.0","6gjx5yh0","","","null","","Agent B","scrambled","FOR_REV_BLOBBY_STIM/1591961.bmp_pp67_L2_V1.0_veridical_freeview_isoFalse_fps144_reversed_REAL.mp4",""
"","","","call-function","446","1464891","0.0-446.0","6gjx5yh0","","","","","","","",""
"1379.6050000002142","{""judgement"":0}","[0]","survey-likert","447","1466271","0.0-447.0","6gjx5yh0","","","","","","","","0"
"1253.5500000000466","{""confidence"":3}","[0]","survey-likert","448","1467526","0.0-448.0","6gjx5yh0","","","","","","","",""
"","","","call-function","449","1467527","0.0-449.0","6gjx5yh0","","","","","","","",""
"null","","","html-keyboard-response","450","1469028","0.0-450.0","6gjx5yh0","","<span style=""color:Black; font-size:50px;"">Agent A","null","","","","",""
"null","","","video-keyboard-response","451","1471872","0.0-451.0","6gjx5yh0","","","null","","Agent A","scrambled","FOR_REV_BLOBBY_STIM/713593.bmp_pp64_L1_V1.0_veridical_freeview_isoFalse_fps144_reversed_REAL.mp4",""
"null","","","html-keyboard-response","452","1473374","0.0-452.0","6gjx5yh0","","<span style=""color:Black; font-size:50px;"">Agent B","null","","","","",""
"null","","","video-keyboard-response","453","1476194","0.0-453.0","6gjx5yh0","","","null","","Agent B","veridical","FOR_REV_BLOBBY_STIM/713593.bmp_pp64_L1_V1.0_veridical_freeview_isoFalse_fps144.mp4",""
"","","","call-function","454","1476194","0.0-454.0","6gjx5yh0","","","","","","","",""
"2288.0800000000745","{""judgement"":0}","[0]","survey-likert","455","1478483","0.0-455.0","6gjx5yh0","","","","","","","","1"
"1033.8649999999907","{""confidence"":2}","[0]","survey-likert","456","1479518","0.0-456.0","6gjx5yh0","","","","","","","",""
"","","","call-function","457","1479519","0.0-457.0","6gjx5yh0","","","","","","","",""
"null","","","html-keyboard-response","458","1481020","0.0-458.0","6gjx5yh0","","<span style=""color:Black; font-size:50px;"">Agent A","null","","","","",""
"null","","","video-keyboard-response","459","1483600","0.0-459.0","6gjx5yh0","","","null","","Agent A","veridical","FOR_REV_BLOBBY_STIM/286001.bmp_pp54_L2_V1.0_veridical_freeview_isoFalse_fps144.mp4",""
"null","","","html-keyboard-response","460","1485103","0.0-460.0","6gjx5yh0","","<span style=""color:Black; font-size:50px;"">Agent B","null","","","","",""
"null","","","video-keyboard-response","461","1487686","0.0-461.0","6gjx5yh0","","","null","","Agent B","scrambled","FOR_REV_BLOBBY_STIM/286001.bmp_pp54_L2_V1.0_veridical_freeview_isoFalse_fps144_reversed_REAL.mp4",""
"","","","call-function","462","1487687","0.0-462.0","6gjx5yh0","","","","","","","",""
"1598.5249999999069","{""judgement"":0}","[0]","survey-likert","463","1489286","0.0-463.0","6gjx5yh0","","","","","","","","0"
"1297.2399999999907","{""confidence"":3}","[0]","survey-likert","464","1490585","0.0-464.0","6gjx5yh0","","","","","","","",""
"","","","call-function","465","1490585","0.0-465.0","6gjx5yh0","","","","","","","",""
"null","","","html-keyboard-response","466","1492089","0.0-466.0","6gjx5yh0","","<span style=""color:Black; font-size:50px;"">Agent A","null","","","","",""
"null","","","video-keyboard-response","467","1494827","0.0-467.0","6gjx5yh0","","","null","","Agent A","scrambled","FOR_REV_BLOBBY_STIM/498170.bmp_pp153_L3_V1.0_veridical_freeview_isoFalse_fps144_reversed_REAL.mp4",""
"null","","","html-keyboard-response","468","1496329","0.0-468.0","6gjx5yh0","","<span style=""color:Black; font-size:50px;"">Agent B","null","","","","",""
"null","","","video-keyboard-response","469","1499067","0.0-469.0","6gjx5yh0","","","null","","Agent B","veridical","FOR_REV_BLOBBY_STIM/498170.bmp_pp153_L3_V1.0_veridical_freeview_isoFalse_fps144.mp4",""
"","","","call-function","470","1499068","0.0-470.0","6gjx5yh0","","","","","","","",""
"1692.380000000121","{""judgement"":0}","[0]","survey-likert","471","1500762","0.0-471.0","6gjx5yh0","","","","","","","","1"
"1077.7649999998976","{""confidence"":2}","[0]","survey-likert","472","1501840","0.0-472.0","6gjx5yh0","","","","","","","",""
"","","","call-function","473","1501841","0.0-473.0","6gjx5yh0","","","","","","","",""
"null","","","html-keyboard-response","474","1503342","0.0-474.0","6gjx5yh0","","<span style=""color:Black; font-size:50px;"">Agent A","null","","","","",""
"null","","","video-keyboard-response","475","1506241","0.0-475.0","6gjx5yh0","","","null","","Agent A","scrambled","FOR_REV_BLOBBY_STIM/285905.bmp_pp57_L1_V1.0_veridical_freeview_isoFalse_fps144_reversed_REAL.mp4",""
"null","","","html-keyboard-response","476","1507743","0.0-476.0","6gjx5yh0","","<span style=""color:Black; font-size:50px;"">Agent B","null","","","","",""
"null","","","video-keyboard-response","477","1510641","0.0-477.0","6gjx5yh0","","","null","","Agent B","veridical","FOR_REV_BLOBBY_STIM/285905.bmp_pp57_L1_V1.0_veridical_freeview_isoFalse_fps144.mp4",""
"","","","call-function","478","1510641","0.0-478.0","6gjx5yh0","","","","","","","",""
"1448.3549999999814","{""judgement"":1}","[0]","survey-likert","479","1512090","0.0-479.0","6gjx5yh0","","","","","","","","1"
"1261.869999999879","{""confidence"":3}","[0]","survey-likert","480","1513353","0.0-480.0","6gjx5yh0","","","","","","","",""
"","","","call-function","481","1513354","0.0-481.0","6gjx5yh0","","","","","","","",""
"null","","","html-keyboard-response","482","1514854","0.0-482.0","6gjx5yh0","","<span style=""color:Black; font-size:50px;"">Agent A","null","","","","",""
"null","","","video-keyboard-response","483","1517510","0.0-483.0","6gjx5yh0","","","null","","Agent A","scrambled","FOR_REV_BLOBBY_STIM/713707.bmp_pp154_L1_V1.0_veridical_freeview_isoFalse_fps144_reversed_REAL.mp4",""
"null","","","html-keyboard-response","484","1519013","0.0-484.0","6gjx5yh0","","<span style=""color:Black; font-size:50px;"">Agent B","null","","","","",""
"null","","","video-keyboard-response","485","1521696","0.0-485.0","6gjx5yh0","","","null","","Agent B","veridical","FOR_REV_BLOBBY_STIM/713707.bmp_pp154_L1_V1.0_veridical_freeview_isoFalse_fps144.mp4",""
"","","","call-function","486","1521697","0.0-486.0","6gjx5yh0","","","","","","","",""
"2445.940000000177","{""judgement"":0}","[0]","survey-likert","487","1524145","0.0-487.0","6gjx5yh0","","","","","","","","1"
"1255.1599999999162","{""confidence"":0}","[0]","survey-likert","488","1525402","0.0-488.0","6gjx5yh0","","","","","","","",""
"","","","call-function","489","1525403","0.0-489.0","6gjx5yh0","","","","","","","",""
"null","","","html-keyboard-response","490","1526906","0.0-490.0","6gjx5yh0","","<span style=""color:Black; font-size:50px;"">Agent A","null","","","","",""
"null","","","video-keyboard-response","491","1529717","0.0-491.0","6gjx5yh0","","","null","","Agent A","veridical","FOR_REV_BLOBBY_STIM/712977.bmp_pp51_L1_V1.0_veridical_freeview_isoFalse_fps144.mp4",""
"null","","","html-keyboard-response","492","1531219","0.0-492.0","6gjx5yh0","","<span style=""color:Black; font-size:50px;"">Agent B","null","","","","",""
"null","","","video-keyboard-response","493","1534032","0.0-493.0","6gjx5yh0","","","null","","Agent B","scrambled","FOR_REV_BLOBBY_STIM/712977.bmp_pp51_L1_V1.0_veridical_freeview_isoFalse_fps144_reversed_REAL.mp4",""
"","","","call-function","494","1534032","0.0-494.0","6gjx5yh0","","","","","","","",""
"1462.3200000000652","{""judgement"":0}","[0]","survey-likert","495","1535496","0.0-495.0","6gjx5yh0","","","","","","","","0"
"1130.8799999998882","{""confidence"":3}","[0]","survey-likert","496","1536628","0.0-496.0","6gjx5yh0","","","","","","","",""
"1433.9850000001024","","","instructions","497","1538063","0.0-497.0","6gjx5yh0","[{""page_index"":0,""viewing_time"":684.7450000001118},{""page_index"":1,""viewing_time"":403.16500000003725},{""page_index"":2,""viewing_time"":345.9099999999162}]","","","","","","",""
"1212.1200000001118","","","instructions","498","1539275","0.0-498.0","6gjx5yh0","[{""page_index"":0,""viewing_time"":359.0050000001211},{""page_index"":1,""viewing_time"":403.07499999995343},{""page_index"":2,""viewing_time"":449.9350000000559}]","","","","","","",""
"","","","call-function","499","1539276","0.0-499.0","6gjx5yh0","","","","","","","",""
"null","","","html-keyboard-response","500","1540780","0.0-500.0","6gjx5yh0","","<span style=""color:Black; font-size:50px;"">Agent A","null","","","","",""
"null","","","video-keyboard-response","501","1543551","0.0-501.0","6gjx5yh0","","","null","","Agent A","scrambled","FOR_REV_BLOBBY_STIM/1591994.bmp_pp69_L3_V1.0_veridical_freeview_isoFalse_fps144_reversed_REAL.mp4",""
"null","","","html-keyboard-response","502","1545053","0.0-502.0","6gjx5yh0","","<span style=""color:Black; font-size:50px;"">Agent B","null","","","","",""
"null","","","video-keyboard-response","503","1547853","0.0-503.0","6gjx5yh0","","","null","","Agent B","veridical","FOR_REV_BLOBBY_STIM/1591994.bmp_pp69_L3_V1.0_veridical_freeview_isoFalse_fps144.mp4",""
"","","","call-function","504","1547854","0.0-504.0","6gjx5yh0","","","","","","","",""
"2220.9799999999814","{""judgement"":1}","[0]","survey-likert","505","1550076","0.0-505.0","6gjx5yh0","","","","","","","","1"
"1195.9299999999348","{""confidence"":0}","[0]","survey-likert","506","1551273","0.0-506.0","6gjx5yh0","","","","","","","",""
"","","","call-function","507","1551273","0.0-507.0","6gjx5yh0","","","","","","","",""
"null","","","html-keyboard-response","508","1552775","0.0-508.0","6gjx5yh0","","<span style=""color:Black; font-size:50px;"">Agent A","null","","","","",""
"null","","","video-keyboard-response","509","1555587","0.0-509.0","6gjx5yh0","","","null","","Agent A","scrambled","FOR_REV_BLOBBY_STIM/1159784.bmp_pp73_L3_V1.0_veridical_freeview_isoFalse_fps144_reversed_REAL.mp4",""
"null","","","html-keyboard-response","510","1557093","0.0-510.0","6gjx5yh0","","<span style=""color:Black; font-size:50px;"">Agent B","null","","","","",""
"null","","","video-keyboard-response","511","1559902","0.0-511.0","6gjx5yh0","","","null","","Agent B","veridical","FOR_REV_BLOBBY_STIM/1159784.bmp_pp73_L3_V1.0_veridical_freeview_isoFalse_fps144.mp4",""
"","","","call-function","512","1559902","0.0-512.0","6gjx5yh0","","","","","","","",""
"1564.594999999972","{""judgement"":1}","[0]","survey-likert","513","1561468","0.0-513.0","6gjx5yh0","","","","","","","","1"
"942.9599999999627","{""confidence"":1}","[0]","survey-likert","514","1562412","0.0-514.0","6gjx5yh0","","","","","","","",""
"","","","call-function","515","1562412","0.0-515.0","6gjx5yh0","","","","","","","",""
"null","","","html-keyboard-response","516","1563915","0.0-516.0","6gjx5yh0","","<span style=""color:Black; font-size:50px;"">Agent A","null","","","","",""
"null","","","video-keyboard-response","517","1566771","0.0-517.0","6gjx5yh0","","","null","","Agent A","veridical","FOR_REV_BLOBBY_STIM/497950.bmp_pp151_L1_V1.0_veridical_freeview_isoFalse_fps144.mp4",""
"null","","","html-keyboard-response","518","1568272","0.0-518.0","6gjx5yh0","","<span style=""color:Black; font-size:50px;"">Agent B","null","","","","",""
"null","","","video-keyboard-response","519","1571128","0.0-519.0","6gjx5yh0","","","null","","Agent B","scrambled","FOR_REV_BLOBBY_STIM/497950.bmp_pp151_L1_V1.0_veridical_freeview_isoFalse_fps144_reversed_REAL.mp4",""
"","","","call-function","520","1571128","0.0-520.0","6gjx5yh0","","","","","","","",""
"3617.274999999907","{""judgement"":0}","[0]","survey-likert","521","1574747","0.0-521.0","6gjx5yh0","","","","","","","","0"
"1309.0249999999069","{""confidence"":2}","[0]","survey-likert","522","1576057","0.0-522.0","6gjx5yh0","","","","","","","",""
"","","","call-function","523","1576057","0.0-523.0","6gjx5yh0","","","","","","","",""
"null","","","html-keyboard-response","524","1577560","0.0-524.0","6gjx5yh0","","<span style=""color:Black; font-size:50px;"">Agent A","null","","","","",""
"null","","","video-keyboard-response","525","1580213","0.0-525.0","6gjx5yh0","","","null","","Agent A","scrambled","FOR_REV_BLOBBY_STIM/498149.bmp_pp99_L2_V1.0_veridical_freeview_isoFalse_fps144_reversed_REAL.mp4",""
"null","","","html-keyboard-response","526","1581716","0.0-526.0","6gjx5yh0","","<span style=""color:Black; font-size:50px;"">Agent B","null","","","","",""
"null","","","video-keyboard-response","527","1584371","0.0-527.0","6gjx5yh0","","","null","","Agent B","veridical","FOR_REV_BLOBBY_STIM/498149.bmp_pp99_L2_V1.0_veridical_freeview_isoFalse_fps144.mp4",""
"","","","call-function","528","1584371","0.0-528.0","6gjx5yh0","","","","","","","",""
"2502.1450000000186","{""judgement"":0}","[0]","survey-likert","529","1586874","0.0-529.0","6gjx5yh0","","","","","","","","1"
"1611.9650000000838","{""confidence"":2}","[0]","survey-likert","530","1588487","0.0-530.0","6gjx5yh0","","","","","","","",""
"","","","call-function","531","1588488","0.0-531.0","6gjx5yh0","","","","","","","",""
"null","","","html-keyboard-response","532","1589992","0.0-532.0","6gjx5yh0","","<span style=""color:Black; font-size:50px;"">Agent A","null","","","","",""
"null","","","video-keyboard-response","533","1592828","0.0-533.0","6gjx5yh0","","","null","","Agent A","veridical","FOR_REV_BLOBBY_STIM/498253.bmp_pp67_L2_V1.0_veridical_freeview_isoFalse_fps144.mp4",""
"null","","","html-keyboard-response","534","1594330","0.0-534.0","6gjx5yh0","","<span style=""color:Black; font-size:50px;"">Agent B","null","","","","",""
"null","","","video-keyboard-response","535","1597165","0.0-535.0","6gjx5yh0","","","null","","Agent B","scrambled","FOR_REV_BLOBBY_STIM/498253.bmp_pp67_L2_V1.0_veridical_freeview_isoFalse_fps144_reversed_REAL.mp4",""
"","","","call-function","536","1597165","0.0-536.0","6gjx5yh0","","","","","","","",""
"1270.6499999999069","{""judgement"":0}","[0]","survey-likert","537","1598437","0.0-537.0","6gjx5yh0","","","","","","","","0"
"1004.3499999998603","{""confidence"":2}","[0]","survey-likert","538","1599442","0.0-538.0","6gjx5yh0","","","","","","","",""
"","","","call-function","539","1599443","0.0-539.0","6gjx5yh0","","","","","","","",""
"null","","","html-keyboard-response","540","1600944","0.0-540.0","6gjx5yh0","","<span style=""color:Black; font-size:50px;"">Agent A","null","","","","",""
"null","","","video-keyboard-response","541","1603762","0.0-541.0","6gjx5yh0","","","null","","Agent A","veridical","FOR_REV_BLOBBY_STIM/1159440.bmp_pp98_L1_V1.0_veridical_freeview_isoFalse_fps144.mp4",""
"null","","","html-keyboard-response","542","1605268","0.0-542.0","6gjx5yh0","","<span style=""color:Black; font-size:50px;"">Agent B","null","","","","",""
"null","","","video-keyboard-response","543","1608054","0.0-543.0","6gjx5yh0","","","null","","Agent B","scrambled","FOR_REV_BLOBBY_STIM/1159440.bmp_pp98_L1_V1.0_veridical_freeview_isoFalse_fps144_reversed_REAL.mp4",""
"","","","call-function","544","1608054","0.0-544.0","6gjx5yh0","","","","","","","",""
"1541.4200000001583","{""judgement"":0}","[0]","survey-likert","545","1609597","0.0-545.0","6gjx5yh0","","","","","","","","0"
"1293.8950000000186","{""confidence"":3}","[0]","survey-likert","546","1610892","0.0-546.0","6gjx5yh0","","","","","","","",""
"","","","call-function","547","1610892","0.0-547.0","6gjx5yh0","","","","","","","",""
"null","","","html-keyboard-response","548","1612395","0.0-548.0","6gjx5yh0","","<span style=""color:Black; font-size:50px;"">Agent A","null","","","","",""
"null","","","video-keyboard-response","549","1615222","0.0-549.0","6gjx5yh0","","","null","","Agent A","scrambled","FOR_REV_BLOBBY_STIM/713666.bmp_pp97_L3_V1.0_veridical_freeview_isoFalse_fps144_reversed_REAL.mp4",""
"null","","","html-keyboard-response","550","1616727","0.0-550.0","6gjx5yh0","","<span style=""color:Black; font-size:50px;"">Agent B","null","","","","",""
"null","","","video-keyboard-response","551","1619555","0.0-551.0","6gjx5yh0","","","null","","Agent B","veridical","FOR_REV_BLOBBY_STIM/713666.bmp_pp97_L3_V1.0_veridical_freeview_isoFalse_fps144.mp4",""
"","","","call-function","552","1619555","0.0-552.0","6gjx5yh0","","","","","","","",""
"1579.0450000001583","{""judgement"":0}","[0]","survey-likert","553","1621136","0.0-553.0","6gjx5yh0","","","","","","","","1"
"1179.6149999999907","{""confidence"":2}","[0]","survey-likert","554","1622317","0.0-554.0","6gjx5yh0","","","","","","","",""
"","","","call-function","555","1622317","0.0-555.0","6gjx5yh0","","","","","","","",""
"null","","","html-keyboard-response","556","1623818","0.0-556.0","6gjx5yh0","","<span style=""color:Black; font-size:50px;"">Agent A","null","","","","",""
"null","","","video-keyboard-response","557","1626346","0.0-557.0","6gjx5yh0","","","null","","Agent A","veridical","FOR_REV_BLOBBY_STIM/713513.bmp_pp62_L2_V1.0_veridical_freeview_isoFalse_fps144.mp4",""
"null","","","html-keyboard-response","558","1627847","0.0-558.0","6gjx5yh0","","<span style=""color:Black; font-size:50px;"">Agent B","null","","","","",""
"null","","","video-keyboard-response","559","1630381","0.0-559.0","6gjx5yh0","","","null","","Agent B","scrambled","FOR_REV_BLOBBY_STIM/713513.bmp_pp62_L2_V1.0_veridical_freeview_isoFalse_fps144_reversed_REAL.mp4",""
"","","","call-function","560","1630381","0.0-560.0","6gjx5yh0","","","","","","","",""
"1511.5699999998324","{""judgement"":0}","[0]","survey-likert","561","1631894","0.0-561.0","6gjx5yh0","","","","","","","","0"
"1115.940000000177","{""confidence"":2}","[0]","survey-likert","562","1633011","0.0-562.0","6gjx5yh0","","","","","","","",""
"","","","call-function","563","1633011","0.0-563.0","6gjx5yh0","","","","","","","",""
"null","","","html-keyboard-response","564","1634512","0.0-564.0","6gjx5yh0","","<span style=""color:Black; font-size:50px;"">Agent A","null","","","","",""
"null","","","video-keyboard-response","565","1637151","0.0-565.0","6gjx5yh0","","","null","","Agent A","veridical","FOR_REV_BLOBBY_STIM/713779.bmp_pp152_L2_V1.0_veridical_freeview_isoFalse_fps144.mp4",""
"null","","","html-keyboard-response","566","1638654","0.0-566.0","6gjx5yh0","","<span style=""color:Black; font-size:50px;"">Agent B","null","","","","",""
"null","","","video-keyboard-response","567","1641293","0.0-567.0","6gjx5yh0","","","null","","Agent B","scrambled","FOR_REV_BLOBBY_STIM/713779.bmp_pp152_L2_V1.0_veridical_freeview_isoFalse_fps144_reversed_REAL.mp4",""
"","","","call-function","568","1641294","0.0-568.0","6gjx5yh0","","","","","","","",""
"1613.9250000000466","{""judgement"":0}","[0]","survey-likert","569","1642909","0.0-569.0","6gjx5yh0","","","","","","","","0"
"976.8300000000745","{""confidence"":2}","[0]","survey-likert","570","1643887","0.0-570.0","6gjx5yh0","","","","","","","",""
"","","","call-function","571","1643887","0.0-571.0","6gjx5yh0","","","","","","","",""
"null","","","html-keyboard-response","572","1645389","0.0-572.0","6gjx5yh0","","<span style=""color:Black; font-size:50px;"">Agent A","null","","","","",""
"null","","","video-keyboard-response","573","1648199","0.0-573.0","6gjx5yh0","","","null","","Agent A","scrambled","FOR_REV_BLOBBY_STIM/1159829.bmp_pp91_L3_V1.0_veridical_freeview_isoFalse_fps144_reversed_REAL.mp4",""
"null","","","html-keyboard-response","574","1649703","0.0-574.0","6gjx5yh0","","<span style=""color:Black; font-size:50px;"">Agent B","null","","","","",""
"null","","","video-keyboard-response","575","1652511","0.0-575.0","6gjx5yh0","","","null","","Agent B","veridical","FOR_REV_BLOBBY_STIM/1159829.bmp_pp91_L3_V1.0_veridical_freeview_isoFalse_fps144.mp4",""
"","","","call-function","576","1652513","0.0-576.0","6gjx5yh0","","","","","","","",""
"1087.3850000000093","{""judgement"":1}","[0]","survey-likert","577","1653601","0.0-577.0","6gjx5yh0","","","","","","","","1"
"1281.8900000001304","{""confidence"":3}","[0]","survey-likert","578","1654884","0.0-578.0","6gjx5yh0","","","","","","","",""
"2887.8600000001024","","","instructions","579","1657773","0.0-579.0","6gjx5yh0","[{""page_index"":0,""viewing_time"":2887.6350000000093}]","","","","","","",""
"2667.350000000093","","","instructions","580","1660442","0.0-580.0","6gjx5yh0","[{""page_index"":0,""viewing_time"":2667.2350000001024}]","","","","","","",""
"32965.35499999998","{""post-1"":2}","[0]","survey-likert","581","1693409","0.0-581.0","6gjx5yh0","","","","","","","",""
"18931.695000000065","{""post-1"":0}","[0]","survey-likert","582","1712342","0.0-582.0","6gjx5yh0","","","","","","","",""
"31009.625","{""post-2"":2}","[0]","survey-likert","583","1743353","0.0-583.0","6gjx5yh0","","","","","","","",""
"9972.834999999963","{""post-2"":1}","[0]","survey-likert","584","1753327","0.0-584.0","6gjx5yh0","","","","","","","",""
"8680.300000000047","{""post-3"":3}","[0]","survey-likert","585","1762009","0.0-585.0","6gjx5yh0","","","","","","","",""
"7123.0449999999255","{""post-3"":0}","[0]","survey-likert","586","1769133","0.0-586.0","6gjx5yh0","","","","","","","",""
"5989.839999999851","{""post-4"":1}","[0]","survey-likert","587","1775124","0.0-587.0","6gjx5yh0","","","","","","","",""
"2510.4899999999907","{""post-4"":0}","[0]","survey-likert","588","1777636","0.0-588.0","6gjx5yh0","","","","","","","",""
"6297.235000000102","{""post-5"":1}","[0]","survey-likert","589","1783936","0.0-589.0","6gjx5yh0","","","","","","","",""
"6669.860000000102","{""post-5"":3}","[0]","survey-likert","590","1790607","0.0-590.0","6gjx5yh0","","","","","","","",""
"196421.21999999997","{""Q0"":""First of all, can I just say... life changing experiment! I will hereafter think of things in ways I never thought possible- lol the only serious thing I have to say here (not that this wasn't life-changing!) is that I found myself starting to simply look where I would normally look and then determine which viewpoint was closer to my own.""}","","survey-text","591","1987034","0.0-591.0","6gjx5yh0","","","","","","","",""
"90574.65000000014","{""Q0"":""Easiest was whenever there was a key landmark/point of interest anywhere in the shot. I assume that a real human would just about always direct their attention to that point (though maybe I'm just projecting). I talk strategy on the previous prompt :)""}","","survey-text","592","2077613","0.0-592.0","6gjx5yh0","","","","","","","",""
"45177.58999999985","{""Q0"":""Definitely whenever the two viewpoints had almost identical visual movements. Those trials felt like crapshoots.""}","","survey-text","593","2122794","0.0-593.0","6gjx5yh0","","","","","","","",""
"2015.7400000002235","","","instructions","594","2124810","0.0-594.0","6gjx5yh0","[{""page_index"":0,""viewing_time"":2015.570000000298}]","","","","","","",""
"58889.88499999978","{""Experimenter_end"":[""Printed ID# 6gjx5yh0 on consent form"",""Given subject SONA credit or payment"",""Given the subject debrief form""]}","[0]","survey-multi-select","595","2183703","0.0-595.0","6gjx5yh0","","","","","","","",""
