"rt","responses","question_order","trial_type","trial_index","time_elapsed","internal_node_id","ID","view_history","stimulus","key_press","value","agent","condition","image","correct_answer"
"12732.529999999999","{""Experimenter"":[""Confirmed subject's identity"",""Confirmed normal or corrected-to-normal vision"",""Obtained consent (signature and date)"",""Checked the test room lighting"",""Checked computer screen lighting"",""Checked distance from screen to chin rest (50cm)"",""Cleaned and adjusted chin rest"",""Counterbalanced the order of the tasks"",""Opened the experiment in Firefox"",""Made the experiment full screen"",""Encouraged subject to silence phone, put away distractors, etc.""]}","[0]","survey-multi-select","0","12741","0.0-0.0","6hqtqp3j","","","","","","","",""
"15992.824999999999","","","instructions","1","28735","0.0-1.0","6hqtqp3j","[{""page_index"":0,""viewing_time"":15992.26}]","","","","","","",""
"19653.82","","","instructions","2","48390","0.0-2.0","6hqtqp3j","[{""page_index"":0,""viewing_time"":5456.735000000001},{""page_index"":1,""viewing_time"":1280.885000000002},{""page_index"":2,""viewing_time"":12916.07}]","","","","","","",""
"3289.25","","","instructions","3","51680","0.0-3.0","6hqtqp3j","[{""page_index"":0,""viewing_time"":3289.1299999999974}]","","","","","","",""
"null","","","video-keyboard-response","4","54756","0.0-4.0","6hqtqp3j","","","null","","","","",""
"14672.995000000003","","","instructions","5","69429","0.0-5.0","6hqtqp3j","[{""page_index"":0,""viewing_time"":2611.814999999995},{""page_index"":1,""viewing_time"":3720.095000000001},{""page_index"":2,""viewing_time"":8340.975000000006}]","","","","","","",""
"2855.529999999999","","","instructions","6","72285","0.0-6.0","6hqtqp3j","[{""page_index"":0,""viewing_time"":2855.425000000003}]","","","","","","",""
"1631.4699999999866","","","instructions","7","73917","0.0-7.0","6hqtqp3j","[{""page_index"":0,""viewing_time"":1631.25}]","","","","","","",""
"null","","","video-keyboard-response","8","76991","0.0-8.0","6hqtqp3j","","","null","","","","",""
"14307.369999999995","","","instructions","9","91299","0.0-9.0","6hqtqp3j","[{""page_index"":0,""viewing_time"":2023.3399999999965},{""page_index"":1,""viewing_time"":4319.955000000002},{""page_index"":2,""viewing_time"":7963.934999999998}]","","","","","","",""
"12671.154999999999","","","instructions","10","103971","0.0-10.0","6hqtqp3j","[{""page_index"":0,""viewing_time"":12670.524999999994}]","","","","","","",""
"","","","call-function","11","103973","0.0-11.0","6hqtqp3j","","","","","","","",""
"null","","","html-keyboard-response","12","105476","0.0-12.0","6hqtqp3j","","<span style=""color:Black; font-size:50px;"">Agent A","null","","","","",""
"null","","","video-keyboard-response","13","108557","0.0-13.0","6hqtqp3j","","","null","","Agent A","scrambled","STIM_SET_2/498372.bmp_pp95_L2_V1_scrambled_freeview_isoTrue.mp4",""
"null","","","html-keyboard-response","14","110060","0.0-14.0","6hqtqp3j","","<span style=""color:Black; font-size:50px;"">Agent B","null","","","","",""
"null","","","video-keyboard-response","15","113141","0.0-15.0","6hqtqp3j","","","null","","Agent B","veridical","STIM_SET_2/498372.bmp_pp95_L2_V1_veridical_freeview_isoTrue.mp4",""
"","","","call-function","16","113142","0.0-16.0","6hqtqp3j","","","","","","","",""
"2480.0149999999994","{""judgement"":1}","[0]","survey-likert","17","115623","0.0-17.0","6hqtqp3j","","","","","","","","1"
"1781.824999999997","{""confidence"":0}","[0]","survey-likert","18","117406","0.0-18.0","6hqtqp3j","","","","","","","",""
"","","","call-function","19","117407","0.0-19.0","6hqtqp3j","","","","","","","",""
"null","","","html-keyboard-response","20","118910","0.0-20.0","6hqtqp3j","","<span style=""color:Black; font-size:50px;"">Agent A","null","","","","",""
"null","","","video-keyboard-response","21","121986","0.0-21.0","6hqtqp3j","","","null","","Agent A","scrambled","STIM_SET_2/1160204.bmp_pp54_L2_V1.0_scrambled_freeview_isoTrue.mp4",""
"null","","","html-keyboard-response","22","123490","0.0-22.0","6hqtqp3j","","<span style=""color:Black; font-size:50px;"">Agent B","null","","","","",""
"null","","","video-keyboard-response","23","126564","0.0-23.0","6hqtqp3j","","","null","","Agent B","veridical","STIM_SET_2/1160204.bmp_pp54_L2_V1.0_veridical_freeview_isoTrue.mp4",""
"","","","call-function","24","126564","0.0-24.0","6hqtqp3j","","","","","","","",""
"1880.9100000000035","{""judgement"":1}","[0]","survey-likert","25","128446","0.0-25.0","6hqtqp3j","","","","","","","","1"
"2027.179999999993","{""confidence"":2}","[0]","survey-likert","26","130474","0.0-26.0","6hqtqp3j","","","","","","","",""
"","","","call-function","27","130475","0.0-27.0","6hqtqp3j","","","","","","","",""
"null","","","html-keyboard-response","28","131978","0.0-28.0","6hqtqp3j","","<span style=""color:Black; font-size:50px;"">Agent A","null","","","","",""
"null","","","video-keyboard-response","29","135079","0.0-29.0","6hqtqp3j","","","null","","Agent A","scrambled","STIM_SET_2/1592747.bmp_pp53_L2_V1.0_scrambled_freeview_isoTrue.mp4",""
"null","","","html-keyboard-response","30","136581","0.0-30.0","6hqtqp3j","","<span style=""color:Black; font-size:50px;"">Agent B","null","","","","",""
"null","","","video-keyboard-response","31","139683","0.0-31.0","6hqtqp3j","","","null","","Agent B","veridical","STIM_SET_2/1592747.bmp_pp53_L2_V1.0_veridical_freeview_isoTrue.mp4",""
"","","","call-function","32","139683","0.0-32.0","6hqtqp3j","","","","","","","",""
"2010.9750000000058","{""judgement"":1}","[0]","survey-likert","33","141695","0.0-33.0","6hqtqp3j","","","","","","","","1"
"1252.6450000000186","{""confidence"":3}","[0]","survey-likert","34","142949","0.0-34.0","6hqtqp3j","","","","","","","",""
"","","","call-function","35","142949","0.0-35.0","6hqtqp3j","","","","","","","",""
"null","","","html-keyboard-response","36","144454","0.0-36.0","6hqtqp3j","","<span style=""color:Black; font-size:50px;"">Agent A","null","","","","",""
"null","","","video-keyboard-response","37","147534","0.0-37.0","6hqtqp3j","","","null","","Agent A","veridical","STIM_SET_2/498398.bmp_pp81_L1_V1.0_veridical_freeview_isoTrue.mp4",""
"null","","","html-keyboard-response","38","149037","0.0-38.0","6hqtqp3j","","<span style=""color:Black; font-size:50px;"">Agent B","null","","","","",""
"null","","","video-keyboard-response","39","152115","0.0-39.0","6hqtqp3j","","","null","","Agent B","scrambled","STIM_SET_2/498398.bmp_pp81_L1_V1.0_scrambled_freeview_isoTrue.mp4",""
"","","","call-function","40","152116","0.0-40.0","6hqtqp3j","","","","","","","",""
"2616.595000000001","{""judgement"":0}","[0]","survey-likert","41","154733","0.0-41.0","6hqtqp3j","","","","","","","","0"
"3026.970000000001","{""confidence"":1}","[0]","survey-likert","42","157761","0.0-42.0","6hqtqp3j","","","","","","","",""
"","","","call-function","43","157762","0.0-43.0","6hqtqp3j","","","","","","","",""
"null","","","html-keyboard-response","44","159265","0.0-44.0","6hqtqp3j","","<span style=""color:Black; font-size:50px;"">Agent A","null","","","","",""
"null","","","video-keyboard-response","45","162369","0.0-45.0","6hqtqp3j","","","null","","Agent A","veridical","STIM_SET_2/1159329.bmp_pp61_L2_V1.0_veridical_freeview_isoTrue.mp4",""
"null","","","html-keyboard-response","46","163875","0.0-46.0","6hqtqp3j","","<span style=""color:Black; font-size:50px;"">Agent B","null","","","","",""
"null","","","video-keyboard-response","47","166973","0.0-47.0","6hqtqp3j","","","null","","Agent B","scrambled","STIM_SET_2/1159329.bmp_pp61_L2_V1.0_scrambled_freeview_isoTrue.mp4",""
"","","","call-function","48","166974","0.0-48.0","6hqtqp3j","","","","","","","",""
"4086.5199999999895","{""judgement"":1}","[0]","survey-likert","49","171061","0.0-49.0","6hqtqp3j","","","","","","","","0"
"3324.3249999999825","{""confidence"":0}","[0]","survey-likert","50","174387","0.0-50.0","6hqtqp3j","","","","","","","",""
"","","","call-function","51","174387","0.0-51.0","6hqtqp3j","","","","","","","",""
"null","","","html-keyboard-response","52","175890","0.0-52.0","6hqtqp3j","","<span style=""color:Black; font-size:50px;"">Agent A","null","","","","",""
"null","","","video-keyboard-response","53","178965","0.0-53.0","6hqtqp3j","","","null","","Agent A","veridical","STIM_SET_2/713770.bmp_pp89_L1_V1.0_veridical_freeview_isoTrue.mp4",""
"null","","","html-keyboard-response","54","180469","0.0-54.0","6hqtqp3j","","<span style=""color:Black; font-size:50px;"">Agent B","null","","","","",""
"null","","","video-keyboard-response","55","183551","0.0-55.0","6hqtqp3j","","","null","","Agent B","scrambled","STIM_SET_2/713770.bmp_pp89_L1_V1.0_scrambled_freeview_isoTrue.mp4",""
"","","","call-function","56","183551","0.0-56.0","6hqtqp3j","","","","","","","",""
"2693.029999999999","{""judgement"":0}","[0]","survey-likert","57","186245","0.0-57.0","6hqtqp3j","","","","","","","","0"
"2659.319999999978","{""confidence"":1}","[0]","survey-likert","58","188906","0.0-58.0","6hqtqp3j","","","","","","","",""
"","","","call-function","59","188906","0.0-59.0","6hqtqp3j","","","","","","","",""
"null","","","html-keyboard-response","60","190410","0.0-60.0","6hqtqp3j","","<span style=""color:Black; font-size:50px;"">Agent A","null","","","","",""
"null","","","video-keyboard-response","61","193489","0.0-61.0","6hqtqp3j","","","null","","Agent A","veridical","STIM_SET_2/1592038.bmp_pp79_L2_V1.0_veridical_freeview_isoTrue.mp4",""
"null","","","html-keyboard-response","62","194993","0.0-62.0","6hqtqp3j","","<span style=""color:Black; font-size:50px;"">Agent B","null","","","","",""
"null","","","video-keyboard-response","63","198071","0.0-63.0","6hqtqp3j","","","null","","Agent B","scrambled","STIM_SET_2/1592038.bmp_pp79_L2_V1.0_scrambled_freeview_isoTrue.mp4",""
"","","","call-function","64","198072","0.0-64.0","6hqtqp3j","","","","","","","",""
"3283.790000000008","{""judgement"":1}","[0]","survey-likert","65","201357","0.0-65.0","6hqtqp3j","","","","","","","","0"
"2868.210000000021","{""confidence"":0}","[0]","survey-likert","66","204227","0.0-66.0","6hqtqp3j","","","","","","","",""
"","","","call-function","67","204228","0.0-67.0","6hqtqp3j","","","","","","","",""
"null","","","html-keyboard-response","68","205730","0.0-68.0","6hqtqp3j","","<span style=""color:Black; font-size:50px;"">Agent A","null","","","","",""
"null","","","video-keyboard-response","69","208804","0.0-69.0","6hqtqp3j","","","null","","Agent A","veridical","STIM_SET_2/150277.bmp_pp65_L3_V1.0_veridical_freeview_isoTrue.mp4",""
"null","","","html-keyboard-response","70","210307","0.0-70.0","6hqtqp3j","","<span style=""color:Black; font-size:50px;"">Agent B","null","","","","",""
"null","","","video-keyboard-response","71","213382","0.0-71.0","6hqtqp3j","","","null","","Agent B","scrambled","STIM_SET_2/150277.bmp_pp65_L3_V1.0_scrambled_freeview_isoTrue.mp4",""
"","","","call-function","72","213383","0.0-72.0","6hqtqp3j","","","","","","","",""
"2276.2300000000105","{""judgement"":0}","[0]","survey-likert","73","215660","0.0-73.0","6hqtqp3j","","","","","","","","0"
"1696.2700000000186","{""confidence"":3}","[0]","survey-likert","74","217357","0.0-74.0","6hqtqp3j","","","","","","","",""
"","","","call-function","75","217358","0.0-75.0","6hqtqp3j","","","","","","","",""
"null","","","html-keyboard-response","76","218860","0.0-76.0","6hqtqp3j","","<span style=""color:Black; font-size:50px;"">Agent A","null","","","","",""
"null","","","video-keyboard-response","77","221939","0.0-77.0","6hqtqp3j","","","null","","Agent A","veridical","STIM_SET_2/713381.bmp_pp82_L2_V1.0_veridical_freeview_isoTrue.mp4",""
"null","","","html-keyboard-response","78","223443","0.0-78.0","6hqtqp3j","","<span style=""color:Black; font-size:50px;"">Agent B","null","","","","",""
"null","","","video-keyboard-response","79","226525","0.0-79.0","6hqtqp3j","","","null","","Agent B","scrambled","STIM_SET_2/713381.bmp_pp82_L2_V1.0_scrambled_freeview_isoTrue.mp4",""
"","","","call-function","80","226526","0.0-80.0","6hqtqp3j","","","","","","","",""
"2710.7149999999965","{""judgement"":0}","[0]","survey-likert","81","229237","0.0-81.0","6hqtqp3j","","","","","","","","0"
"1699.8300000000163","{""confidence"":2}","[0]","survey-likert","82","230938","0.0-82.0","6hqtqp3j","","","","","","","",""
"","","","call-function","83","230938","0.0-83.0","6hqtqp3j","","","","","","","",""
"null","","","html-keyboard-response","84","232442","0.0-84.0","6hqtqp3j","","<span style=""color:Black; font-size:50px;"">Agent A","null","","","","",""
"null","","","video-keyboard-response","85","235546","0.0-85.0","6hqtqp3j","","","null","","Agent A","scrambled","STIM_SET_2/1591781.bmp_pp63_L1_V1.0_scrambled_freeview_isoTrue.mp4",""
"null","","","html-keyboard-response","86","237050","0.0-86.0","6hqtqp3j","","<span style=""color:Black; font-size:50px;"">Agent B","null","","","","",""
"null","","","video-keyboard-response","87","240155","0.0-87.0","6hqtqp3j","","","null","","Agent B","veridical","STIM_SET_2/1591781.bmp_pp63_L1_V1.0_veridical_freeview_isoTrue.mp4",""
"","","","call-function","88","240155","0.0-88.0","6hqtqp3j","","","","","","","",""
"3339.9249999999884","{""judgement"":1}","[0]","survey-likert","89","243496","0.0-89.0","6hqtqp3j","","","","","","","","1"
"1843.7799999999988","{""confidence"":1}","[0]","survey-likert","90","245341","0.0-90.0","6hqtqp3j","","","","","","","",""
"107921.97000000003","","","instructions","91","353264","0.0-91.0","6hqtqp3j","[{""page_index"":0,""viewing_time"":1054.75},{""page_index"":1,""viewing_time"":106240.85500000004},{""page_index"":2,""viewing_time"":626.054999999993}]","","","","","","",""
"1336.25","","","instructions","92","354601","0.0-92.0","6hqtqp3j","[{""page_index"":0,""viewing_time"":383.13000000000466},{""page_index"":1,""viewing_time"":456.0350000000326},{""page_index"":2,""viewing_time"":496.9749999999767}]","","","","","","",""
"","","","call-function","93","354601","0.0-93.0","6hqtqp3j","","","","","","","",""
"null","","","html-keyboard-response","94","356102","0.0-94.0","6hqtqp3j","","<span style=""color:Black; font-size:50px;"">Agent A","null","","","","",""
"null","","","video-keyboard-response","95","359173","0.0-95.0","6hqtqp3j","","","null","","Agent A","scrambled","STIM_SET_2/285684.bmp_pp80_L3_V1.0_scrambled_freeview_isoTrue.mp4",""
"null","","","html-keyboard-response","96","360677","0.0-96.0","6hqtqp3j","","<span style=""color:Black; font-size:50px;"">Agent B","null","","","","",""
"null","","","video-keyboard-response","97","363745","0.0-97.0","6hqtqp3j","","","null","","Agent B","veridical","STIM_SET_2/285684.bmp_pp80_L3_V1.0_veridical_freeview_isoTrue.mp4",""
"","","","call-function","98","363745","0.0-98.0","6hqtqp3j","","","","","","","",""
"2457.3099999999977","{""judgement"":0}","[0]","survey-likert","99","366203","0.0-99.0","6hqtqp3j","","","","","","","","1"
"1974.7399999999907","{""confidence"":1}","[0]","survey-likert","100","368179","0.0-100.0","6hqtqp3j","","","","","","","",""
"","","","call-function","101","368180","0.0-101.0","6hqtqp3j","","","","","","","",""
"null","","","html-keyboard-response","102","369682","0.0-102.0","6hqtqp3j","","<span style=""color:Black; font-size:50px;"">Agent A","null","","","","",""
"null","","","video-keyboard-response","103","372750","0.0-103.0","6hqtqp3j","","","null","","Agent A","scrambled","STIM_SET_2/286034.bmp_pp69_L3_V1.0_scrambled_freeview_isoTrue.mp4",""
"null","","","html-keyboard-response","104","374255","0.0-104.0","6hqtqp3j","","<span style=""color:Black; font-size:50px;"">Agent B","null","","","","",""
"null","","","video-keyboard-response","105","377322","0.0-105.0","6hqtqp3j","","","null","","Agent B","veridical","STIM_SET_2/286034.bmp_pp69_L3_V1.0_veridical_freeview_isoTrue.mp4",""
"","","","call-function","106","377323","0.0-106.0","6hqtqp3j","","","","","","","",""
"2467.0200000000186","{""judgement"":0}","[0]","survey-likert","107","379790","0.0-107.0","6hqtqp3j","","","","","","","","1"
"1651.954999999958","{""confidence"":2}","[0]","survey-likert","108","381444","0.0-108.0","6hqtqp3j","","","","","","","",""
"","","","call-function","109","381444","0.0-109.0","6hqtqp3j","","","","","","","",""
"null","","","html-keyboard-response","110","382945","0.0-110.0","6hqtqp3j","","<span style=""color:Black; font-size:50px;"">Agent A","null","","","","",""
"null","","","video-keyboard-response","111","386038","0.0-111.0","6hqtqp3j","","","null","","Agent A","veridical","STIM_SET_2/285946.bmp_pp79_L2_V1.0_veridical_freeview_isoTrue.mp4",""
"null","","","html-keyboard-response","112","387542","0.0-112.0","6hqtqp3j","","<span style=""color:Black; font-size:50px;"">Agent B","null","","","","",""
"null","","","video-keyboard-response","113","390628","0.0-113.0","6hqtqp3j","","","null","","Agent B","scrambled","STIM_SET_2/285946.bmp_pp79_L2_V1.0_scrambled_freeview_isoTrue.mp4",""
"","","","call-function","114","390629","0.0-114.0","6hqtqp3j","","","","","","","",""
"2690.9749999999767","{""judgement"":0}","[0]","survey-likert","115","393321","0.0-115.0","6hqtqp3j","","","","","","","","0"
"1395.9749999999767","{""confidence"":2}","[0]","survey-likert","116","394718","0.0-116.0","6hqtqp3j","","","","","","","",""
"","","","call-function","117","394718","0.0-117.0","6hqtqp3j","","","","","","","",""
"null","","","html-keyboard-response","118","396225","0.0-118.0","6hqtqp3j","","<span style=""color:Black; font-size:50px;"">Agent A","null","","","","",""
"null","","","video-keyboard-response","119","399294","0.0-119.0","6hqtqp3j","","","null","","Agent A","veridical","STIM_SET_2/1592168.bmp_pp71_L1_V1.0_veridical_freeview_isoTrue.mp4",""
"null","","","html-keyboard-response","120","400797","0.0-120.0","6hqtqp3j","","<span style=""color:Black; font-size:50px;"">Agent B","null","","","","",""
"null","","","video-keyboard-response","121","403863","0.0-121.0","6hqtqp3j","","","null","","Agent B","scrambled","STIM_SET_2/1592168.bmp_pp71_L1_V1.0_scrambled_freeview_isoTrue.mp4",""
"","","","call-function","122","403864","0.0-122.0","6hqtqp3j","","","","","","","",""
"2365.0999999999767","{""judgement"":1}","[0]","survey-likert","123","406231","0.0-123.0","6hqtqp3j","","","","","","","","0"
"1562.2600000000093","{""confidence"":0}","[0]","survey-likert","124","407795","0.0-124.0","6hqtqp3j","","","","","","","",""
"","","","call-function","125","407796","0.0-125.0","6hqtqp3j","","","","","","","",""
"null","","","html-keyboard-response","126","409301","0.0-126.0","6hqtqp3j","","<span style=""color:Black; font-size:50px;"">Agent A","null","","","","",""
"null","","","video-keyboard-response","127","412377","0.0-127.0","6hqtqp3j","","","null","","Agent A","veridical","STIM_SET_2/1159874.bmp_pp96_L2_V1.0_veridical_freeview_isoTrue.mp4",""
"null","","","html-keyboard-response","128","413879","0.0-128.0","6hqtqp3j","","<span style=""color:Black; font-size:50px;"">Agent B","null","","","","",""
"null","","","video-keyboard-response","129","416961","0.0-129.0","6hqtqp3j","","","null","","Agent B","scrambled","STIM_SET_2/1159874.bmp_pp96_L2_V1.0_scrambled_freeview_isoTrue.mp4",""
"","","","call-function","130","416962","0.0-130.0","6hqtqp3j","","","","","","","",""
"2188.7149999999674","{""judgement"":0}","[0]","survey-likert","131","419152","0.0-131.0","6hqtqp3j","","","","","","","","0"
"2128.4000000000233","{""confidence"":2}","[0]","survey-likert","132","421282","0.0-132.0","6hqtqp3j","","","","","","","",""
"","","","call-function","133","421283","0.0-133.0","6hqtqp3j","","","","","","","",""
"null","","","html-keyboard-response","134","422785","0.0-134.0","6hqtqp3j","","<span style=""color:Black; font-size:50px;"">Agent A","null","","","","",""
"null","","","video-keyboard-response","135","425860","0.0-135.0","6hqtqp3j","","","null","","Agent A","veridical","STIM_SET_2/498396.bmp_pp99_L2_V1.0_veridical_freeview_isoTrue.mp4",""
"null","","","html-keyboard-response","136","427363","0.0-136.0","6hqtqp3j","","<span style=""color:Black; font-size:50px;"">Agent B","null","","","","",""
"null","","","video-keyboard-response","137","430438","0.0-137.0","6hqtqp3j","","","null","","Agent B","scrambled","STIM_SET_2/498396.bmp_pp99_L2_V1.0_scrambled_freeview_isoTrue.mp4",""
"","","","call-function","138","430439","0.0-138.0","6hqtqp3j","","","","","","","",""
"3333.0149999999558","{""judgement"":0}","[0]","survey-likert","139","433772","0.0-139.0","6hqtqp3j","","","","","","","","0"
"1908.4799999999814","{""confidence"":1}","[0]","survey-likert","140","435682","0.0-140.0","6hqtqp3j","","","","","","","",""
"","","","call-function","141","435683","0.0-141.0","6hqtqp3j","","","","","","","",""
"null","","","html-keyboard-response","142","437183","0.0-142.0","6hqtqp3j","","<span style=""color:Black; font-size:50px;"">Agent A","null","","","","",""
"null","","","video-keyboard-response","143","440285","0.0-143.0","6hqtqp3j","","","null","","Agent A","veridical","STIM_SET_2/1592305.bmp_pp65_L3_V1.0_veridical_freeview_isoTrue.mp4",""
"null","","","html-keyboard-response","144","441788","0.0-144.0","6hqtqp3j","","<span style=""color:Black; font-size:50px;"">Agent B","null","","","","",""
"null","","","video-keyboard-response","145","444888","0.0-145.0","6hqtqp3j","","","null","","Agent B","scrambled","STIM_SET_2/1592305.bmp_pp65_L3_V1.0_scrambled_freeview_isoTrue.mp4",""
"","","","call-function","146","444888","0.0-146.0","6hqtqp3j","","","","","","","",""
"2575.164999999979","{""judgement"":1}","[0]","survey-likert","147","447464","0.0-147.0","6hqtqp3j","","","","","","","","0"
"2421.0299999999697","{""confidence"":2}","[0]","survey-likert","148","449887","0.0-148.0","6hqtqp3j","","","","","","","",""
"","","","call-function","149","449888","0.0-149.0","6hqtqp3j","","","","","","","",""
"null","","","html-keyboard-response","150","451390","0.0-150.0","6hqtqp3j","","<span style=""color:Black; font-size:50px;"">Agent A","null","","","","",""
"null","","","video-keyboard-response","151","454496","0.0-151.0","6hqtqp3j","","","null","","Agent A","scrambled","STIM_SET_2/1159592.bmp_pp91_L3_V1.0_scrambled_freeview_isoTrue.mp4",""
"null","","","html-keyboard-response","152","456001","0.0-152.0","6hqtqp3j","","<span style=""color:Black; font-size:50px;"">Agent B","null","","","","",""
"null","","","video-keyboard-response","153","459109","0.0-153.0","6hqtqp3j","","","null","","Agent B","veridical","STIM_SET_2/1159592.bmp_pp91_L3_V1.0_veridical_freeview_isoTrue.mp4",""
"","","","call-function","154","459109","0.0-154.0","6hqtqp3j","","","","","","","",""
"4247.224999999977","{""judgement"":1}","[0]","survey-likert","155","463357","0.0-155.0","6hqtqp3j","","","","","","","","1"
"2157.7050000000163","{""confidence"":2}","[0]","survey-likert","156","465516","0.0-156.0","6hqtqp3j","","","","","","","",""
"","","","call-function","157","465517","0.0-157.0","6hqtqp3j","","","","","","","",""
"null","","","html-keyboard-response","158","467021","0.0-158.0","6hqtqp3j","","<span style=""color:Black; font-size:50px;"">Agent A","null","","","","",""
"null","","","video-keyboard-response","159","470120","0.0-159.0","6hqtqp3j","","","null","","Agent A","veridical","STIM_SET_2/1159427.bmp_pp98_L1_V1.0_veridical_freeview_isoTrue.mp4",""
"null","","","html-keyboard-response","160","471624","0.0-160.0","6hqtqp3j","","<span style=""color:Black; font-size:50px;"">Agent B","null","","","","",""
"null","","","video-keyboard-response","161","474685","0.0-161.0","6hqtqp3j","","","null","","Agent B","scrambled","STIM_SET_2/1159427.bmp_pp98_L1_V1.0_scrambled_freeview_isoTrue.mp4",""
"","","","call-function","162","474685","0.0-162.0","6hqtqp3j","","","","","","","",""
"3639.4249999999884","{""judgement"":1}","[0]","survey-likert","163","478326","0.0-163.0","6hqtqp3j","","","","","","","","0"
"1532.634999999951","{""confidence"":1}","[0]","survey-likert","164","479860","0.0-164.0","6hqtqp3j","","","","","","","",""
"","","","call-function","165","479860","0.0-165.0","6hqtqp3j","","","","","","","",""
"null","","","html-keyboard-response","166","481362","0.0-166.0","6hqtqp3j","","<span style=""color:Black; font-size:50px;"">Agent A","null","","","","",""
"null","","","video-keyboard-response","167","484428","0.0-167.0","6hqtqp3j","","","null","","Agent A","veridical","STIM_SET_2/1159392.bmp_pp96_L2_V1.0_veridical_freeview_isoTrue.mp4",""
"null","","","html-keyboard-response","168","485933","0.0-168.0","6hqtqp3j","","<span style=""color:Black; font-size:50px;"">Agent B","null","","","","",""
"null","","","video-keyboard-response","169","489004","0.0-169.0","6hqtqp3j","","","null","","Agent B","scrambled","STIM_SET_2/1159392.bmp_pp96_L2_V1.0_scrambled_freeview_isoTrue.mp4",""
"","","","call-function","170","489005","0.0-170.0","6hqtqp3j","","","","","","","",""
"2615.3699999999953","{""judgement"":1}","[0]","survey-likert","171","491621","0.0-171.0","6hqtqp3j","","","","","","","","0"
"2172.5999999999767","{""confidence"":1}","[0]","survey-likert","172","493795","0.0-172.0","6hqtqp3j","","","","","","","",""
"9812.84500000003","","","instructions","173","503609","0.0-173.0","6hqtqp3j","[{""page_index"":0,""viewing_time"":8080.690000000002},{""page_index"":1,""viewing_time"":908.9349999999977},{""page_index"":2,""viewing_time"":822.984999999986}]","","","","","","",""
"3664.7350000000442","","","instructions","174","507275","0.0-174.0","6hqtqp3j","[{""page_index"":0,""viewing_time"":859.6849999999977},{""page_index"":1,""viewing_time"":1168.8649999999907},{""page_index"":2,""viewing_time"":1636.070000000007}]","","","","","","",""
"","","","call-function","175","507276","0.0-175.0","6hqtqp3j","","","","","","","",""
"null","","","html-keyboard-response","176","508781","0.0-176.0","6hqtqp3j","","<span style=""color:Black; font-size:50px;"">Agent A","null","","","","",""
"null","","","video-keyboard-response","177","511858","0.0-177.0","6hqtqp3j","","","null","","Agent A","scrambled","STIM_SET_2/713742.bmp_pp91_L3_V1.0_scrambled_freeview_isoTrue.mp4",""
"null","","","html-keyboard-response","178","513365","0.0-178.0","6hqtqp3j","","<span style=""color:Black; font-size:50px;"">Agent B","null","","","","",""
"null","","","video-keyboard-response","179","516444","0.0-179.0","6hqtqp3j","","","null","","Agent B","veridical","STIM_SET_2/713742.bmp_pp91_L3_V1.0_veridical_freeview_isoTrue.mp4",""
"","","","call-function","180","516445","0.0-180.0","6hqtqp3j","","","","","","","",""
"4108","{""judgement"":1}","[0]","survey-likert","181","520554","0.0-181.0","6hqtqp3j","","","","","","","","1"
"2524.0750000000116","{""confidence"":0}","[0]","survey-likert","182","523079","0.0-182.0","6hqtqp3j","","","","","","","",""
"","","","call-function","183","523080","0.0-183.0","6hqtqp3j","","","","","","","",""
"null","","","html-keyboard-response","184","524583","0.0-184.0","6hqtqp3j","","<span style=""color:Black; font-size:50px;"">Agent A","null","","","","",""
"null","","","video-keyboard-response","185","527653","0.0-185.0","6hqtqp3j","","","null","","Agent A","scrambled","STIM_SET_2/713689.bmp_pp153_L3_V1.0_scrambled_freeview_isoTrue.mp4",""
"null","","","html-keyboard-response","186","529157","0.0-186.0","6hqtqp3j","","<span style=""color:Black; font-size:50px;"">Agent B","null","","","","",""
"null","","","video-keyboard-response","187","532225","0.0-187.0","6hqtqp3j","","","null","","Agent B","veridical","STIM_SET_2/713689.bmp_pp153_L3_V1.0_veridical_freeview_isoTrue.mp4",""
"","","","call-function","188","532226","0.0-188.0","6hqtqp3j","","","","","","","",""
"3226.719999999972","{""judgement"":0}","[0]","survey-likert","189","535453","0.0-189.0","6hqtqp3j","","","","","","","","1"
"2303.6450000000186","{""confidence"":2}","[0]","survey-likert","190","537758","0.0-190.0","6hqtqp3j","","","","","","","",""
"","","","call-function","191","537759","0.0-191.0","6hqtqp3j","","","","","","","",""
"null","","","html-keyboard-response","192","539260","0.0-192.0","6hqtqp3j","","<span style=""color:Black; font-size:50px;"">Agent A","null","","","","",""
"null","","","video-keyboard-response","193","542362","0.0-193.0","6hqtqp3j","","","null","","Agent A","scrambled","STIM_SET_2/1592129.bmp_pp153_L3_V1.0_scrambled_freeview_isoTrue.mp4",""
"null","","","html-keyboard-response","194","543870","0.0-194.0","6hqtqp3j","","<span style=""color:Black; font-size:50px;"">Agent B","null","","","","",""
"null","","","video-keyboard-response","195","546967","0.0-195.0","6hqtqp3j","","","null","","Agent B","veridical","STIM_SET_2/1592129.bmp_pp153_L3_V1.0_veridical_freeview_isoTrue.mp4",""
"","","","call-function","196","546968","0.0-196.0","6hqtqp3j","","","","","","","",""
"2669.7750000000233","{""judgement"":1}","[0]","survey-likert","197","549638","0.0-197.0","6hqtqp3j","","","","","","","","1"
"2803.4899999999907","{""confidence"":0}","[0]","survey-likert","198","552443","0.0-198.0","6hqtqp3j","","","","","","","",""
"","","","call-function","199","552444","0.0-199.0","6hqtqp3j","","","","","","","",""
"null","","","html-keyboard-response","200","553947","0.0-200.0","6hqtqp3j","","<span style=""color:Black; font-size:50px;"">Agent A","null","","","","",""
"null","","","video-keyboard-response","201","557050","0.0-201.0","6hqtqp3j","","","null","","Agent A","scrambled","STIM_SET_2/1160247.bmp_pp54_L2_V1.0_scrambled_freeview_isoTrue.mp4",""
"null","","","html-keyboard-response","202","558554","0.0-202.0","6hqtqp3j","","<span style=""color:Black; font-size:50px;"">Agent B","null","","","","",""
"null","","","video-keyboard-response","203","561659","0.0-203.0","6hqtqp3j","","","null","","Agent B","veridical","STIM_SET_2/1160247.bmp_pp54_L2_V1.0_veridical_freeview_isoTrue.mp4",""
"","","","call-function","204","561660","0.0-204.0","6hqtqp3j","","","","","","","",""
"2573.0350000000326","{""judgement"":1}","[0]","survey-likert","205","564234","0.0-205.0","6hqtqp3j","","","","","","","","1"
"2426.7399999999907","{""confidence"":1}","[0]","survey-likert","206","566661","0.0-206.0","6hqtqp3j","","","","","","","",""
"","","","call-function","207","566662","0.0-207.0","6hqtqp3j","","","","","","","",""
"null","","","html-keyboard-response","208","568168","0.0-208.0","6hqtqp3j","","<span style=""color:Black; font-size:50px;"">Agent A","null","","","","",""
"null","","","video-keyboard-response","209","571262","0.0-209.0","6hqtqp3j","","","null","","Agent A","scrambled","STIM_SET_2/1591975.bmp_pp88_L2_V1.0_scrambled_freeview_isoTrue.mp4",""
"null","","","html-keyboard-response","210","572765","0.0-210.0","6hqtqp3j","","<span style=""color:Black; font-size:50px;"">Agent B","null","","","","",""
"null","","","video-keyboard-response","211","575833","0.0-211.0","6hqtqp3j","","","null","","Agent B","veridical","STIM_SET_2/1591975.bmp_pp88_L2_V1.0_veridical_freeview_isoTrue.mp4",""
"","","","call-function","212","575834","0.0-212.0","6hqtqp3j","","","","","","","",""
"3386.2449999999953","{""judgement"":0}","[0]","survey-likert","213","579221","0.0-213.0","6hqtqp3j","","","","","","","","1"
"1897.015000000014","{""confidence"":2}","[0]","survey-likert","214","581119","0.0-214.0","6hqtqp3j","","","","","","","",""
"","","","call-function","215","581120","0.0-215.0","6hqtqp3j","","","","","","","",""
"null","","","html-keyboard-response","216","582621","0.0-216.0","6hqtqp3j","","<span style=""color:Black; font-size:50px;"">Agent A","null","","","","",""
"null","","","video-keyboard-response","217","585682","0.0-217.0","6hqtqp3j","","","null","","Agent A","scrambled","STIM_SET_2/1159325.bmp_pp67_L2_V1.0_scrambled_freeview_isoTrue.mp4",""
"null","","","html-keyboard-response","218","587188","0.0-218.0","6hqtqp3j","","<span style=""color:Black; font-size:50px;"">Agent B","null","","","","",""
"null","","","video-keyboard-response","219","590257","0.0-219.0","6hqtqp3j","","","null","","Agent B","veridical","STIM_SET_2/1159325.bmp_pp67_L2_V1.0_veridical_freeview_isoTrue.mp4",""
"","","","call-function","220","590257","0.0-220.0","6hqtqp3j","","","","","","","",""
"3282.780000000028","{""judgement"":0}","[0]","survey-likert","221","593541","0.0-221.0","6hqtqp3j","","","","","","","","1"
"1111.7249999999767","{""confidence"":1}","[0]","survey-likert","222","594654","0.0-222.0","6hqtqp3j","","","","","","","",""
"","","","call-function","223","594655","0.0-223.0","6hqtqp3j","","","","","","","",""
"null","","","html-keyboard-response","224","596159","0.0-224.0","6hqtqp3j","","<span style=""color:Black; font-size:50px;"">Agent A","null","","","","",""
"null","","","video-keyboard-response","225","599226","0.0-225.0","6hqtqp3j","","","null","","Agent A","veridical","STIM_SET_2/1592044.bmp_pp94_L2_V1.0_veridical_freeview_isoTrue.mp4",""
"null","","","html-keyboard-response","226","600730","0.0-226.0","6hqtqp3j","","<span style=""color:Black; font-size:50px;"">Agent B","null","","","","",""
"null","","","video-keyboard-response","227","603800","0.0-227.0","6hqtqp3j","","","null","","Agent B","scrambled","STIM_SET_2/1592044.bmp_pp94_L2_V1.0_scrambled_freeview_isoTrue.mp4",""
"","","","call-function","228","603801","0.0-228.0","6hqtqp3j","","","","","","","",""
"2445.765000000014","{""judgement"":1}","[0]","survey-likert","229","606248","0.0-229.0","6hqtqp3j","","","","","","","","0"
"2557.534999999916","{""confidence"":0}","[0]","survey-likert","230","608807","0.0-230.0","6hqtqp3j","","","","","","","",""
"","","","call-function","231","608808","0.0-231.0","6hqtqp3j","","","","","","","",""
"null","","","html-keyboard-response","232","610309","0.0-232.0","6hqtqp3j","","<span style=""color:Black; font-size:50px;"">Agent A","null","","","","",""
"null","","","video-keyboard-response","233","613385","0.0-233.0","6hqtqp3j","","","null","","Agent A","scrambled","STIM_SET_2/713274.bmp_pp73_L3_V1.0_scrambled_freeview_isoTrue.mp4",""
"null","","","html-keyboard-response","234","614891","0.0-234.0","6hqtqp3j","","<span style=""color:Black; font-size:50px;"">Agent B","null","","","","",""
"null","","","video-keyboard-response","235","617969","0.0-235.0","6hqtqp3j","","","null","","Agent B","veridical","STIM_SET_2/713274.bmp_pp73_L3_V1.0_veridical_freeview_isoTrue.mp4",""
"","","","call-function","236","617970","0.0-236.0","6hqtqp3j","","","","","","","",""
"3500.6049999999814","{""judgement"":1}","[0]","survey-likert","237","621472","0.0-237.0","6hqtqp3j","","","","","","","","1"
"2730.2850000000326","{""confidence"":2}","[0]","survey-likert","238","624203","0.0-238.0","6hqtqp3j","","","","","","","",""
"","","","call-function","239","624204","0.0-239.0","6hqtqp3j","","","","","","","",""
"null","","","html-keyboard-response","240","625707","0.0-240.0","6hqtqp3j","","<span style=""color:Black; font-size:50px;"">Agent A","null","","","","",""
"null","","","video-keyboard-response","241","628781","0.0-241.0","6hqtqp3j","","","null","","Agent A","scrambled","STIM_SET_2/498261.bmp_pp84_L3_V1.0_scrambled_freeview_isoTrue.mp4",""
"null","","","html-keyboard-response","242","630283","0.0-242.0","6hqtqp3j","","<span style=""color:Black; font-size:50px;"">Agent B","null","","","","",""
"null","","","video-keyboard-response","243","633358","0.0-243.0","6hqtqp3j","","","null","","Agent B","veridical","STIM_SET_2/498261.bmp_pp84_L3_V1.0_veridical_freeview_isoTrue.mp4",""
"","","","call-function","244","633359","0.0-244.0","6hqtqp3j","","","","","","","",""
"2722.280000000028","{""judgement"":1}","[0]","survey-likert","245","636082","0.0-245.0","6hqtqp3j","","","","","","","","1"
"2769.9250000000466","{""confidence"":0}","[0]","survey-likert","246","638853","0.0-246.0","6hqtqp3j","","","","","","","",""
"","","","call-function","247","638854","0.0-247.0","6hqtqp3j","","","","","","","",""
"null","","","html-keyboard-response","248","640356","0.0-248.0","6hqtqp3j","","<span style=""color:Black; font-size:50px;"">Agent A","null","","","","",""
"null","","","video-keyboard-response","249","643424","0.0-249.0","6hqtqp3j","","","null","","Agent A","scrambled","STIM_SET_2/713328.bmp_pp86_L2_V1.0_scrambled_freeview_isoTrue.mp4",""
"null","","","html-keyboard-response","250","644926","0.0-250.0","6hqtqp3j","","<span style=""color:Black; font-size:50px;"">Agent B","null","","","","",""
"null","","","video-keyboard-response","251","647983","0.0-251.0","6hqtqp3j","","","null","","Agent B","veridical","STIM_SET_2/713328.bmp_pp86_L2_V1.0_veridical_freeview_isoTrue.mp4",""
"","","","call-function","252","647984","0.0-252.0","6hqtqp3j","","","","","","","",""
"2290.375","{""judgement"":0}","[0]","survey-likert","253","650275","0.0-253.0","6hqtqp3j","","","","","","","","1"
"2438.429999999935","{""confidence"":0}","[0]","survey-likert","254","652715","0.0-254.0","6hqtqp3j","","","","","","","",""
"148532.40500000003","","","instructions","255","801248","0.0-255.0","6hqtqp3j","[{""page_index"":0,""viewing_time"":147538.44000000006},{""page_index"":1,""viewing_time"":517.5899999999674},{""page_index"":2,""viewing_time"":476.0649999999441}]","","","","","","",""
"1254.359999999986","","","instructions","256","802503","0.0-256.0","6hqtqp3j","[{""page_index"":0,""viewing_time"":383.16500000003725},{""page_index"":1,""viewing_time"":407.9300000000512},{""page_index"":2,""viewing_time"":463.14999999990687}]","","","","","","",""
"","","","call-function","257","802504","0.0-257.0","6hqtqp3j","","","","","","","",""
"null","","","html-keyboard-response","258","804010","0.0-258.0","6hqtqp3j","","<span style=""color:Black; font-size:50px;"">Agent A","null","","","","",""
"null","","","video-keyboard-response","259","807084","0.0-259.0","6hqtqp3j","","","null","","Agent A","scrambled","STIM_SET_2/713920.bmp_pp76_L1_V1.0_scrambled_freeview_isoTrue.mp4",""
"null","","","html-keyboard-response","260","808586","0.0-260.0","6hqtqp3j","","<span style=""color:Black; font-size:50px;"">Agent B","null","","","","",""
"null","","","video-keyboard-response","261","811661","0.0-261.0","6hqtqp3j","","","null","","Agent B","veridical","STIM_SET_2/713920.bmp_pp76_L1_V1.0_veridical_freeview_isoTrue.mp4",""
"","","","call-function","262","811662","0.0-262.0","6hqtqp3j","","","","","","","",""
"2345.710000000079","{""judgement"":0}","[0]","survey-likert","263","814008","0.0-263.0","6hqtqp3j","","","","","","","","1"
"2088.9949999999953","{""confidence"":1}","[0]","survey-likert","264","816099","0.0-264.0","6hqtqp3j","","","","","","","",""
"","","","call-function","265","816099","0.0-265.0","6hqtqp3j","","","","","","","",""
"null","","","html-keyboard-response","266","817602","0.0-266.0","6hqtqp3j","","<span style=""color:Black; font-size:50px;"">Agent A","null","","","","",""
"null","","","video-keyboard-response","267","820679","0.0-267.0","6hqtqp3j","","","null","","Agent A","scrambled","STIM_SET_2/713858.bmp_pp57_L1_V1.0_scrambled_freeview_isoTrue.mp4",""
"null","","","html-keyboard-response","268","822181","0.0-268.0","6hqtqp3j","","<span style=""color:Black; font-size:50px;"">Agent B","null","","","","",""
"null","","","video-keyboard-response","269","825257","0.0-269.0","6hqtqp3j","","","null","","Agent B","veridical","STIM_SET_2/713858.bmp_pp57_L1_V1.0_veridical_freeview_isoTrue.mp4",""
"","","","call-function","270","825258","0.0-270.0","6hqtqp3j","","","","","","","",""
"2083.4799999999814","{""judgement"":1}","[0]","survey-likert","271","827342","0.0-271.0","6hqtqp3j","","","","","","","","1"
"1693.2750000000233","{""confidence"":1}","[0]","survey-likert","272","829037","0.0-272.0","6hqtqp3j","","","","","","","",""
"","","","call-function","273","829038","0.0-273.0","6hqtqp3j","","","","","","","",""
"null","","","html-keyboard-response","274","830542","0.0-274.0","6hqtqp3j","","<span style=""color:Black; font-size:50px;"">Agent A","null","","","","",""
"null","","","video-keyboard-response","275","833640","0.0-275.0","6hqtqp3j","","","null","","Agent A","scrambled","STIM_SET_2/1159973.bmp_pp98_L1_V1.0_scrambled_freeview_isoTrue.mp4",""
"null","","","html-keyboard-response","276","835145","0.0-276.0","6hqtqp3j","","<span style=""color:Black; font-size:50px;"">Agent B","null","","","","",""
"null","","","video-keyboard-response","277","838238","0.0-277.0","6hqtqp3j","","","null","","Agent B","veridical","STIM_SET_2/1159973.bmp_pp98_L1_V1.0_veridical_freeview_isoTrue.mp4",""
"","","","call-function","278","838238","0.0-278.0","6hqtqp3j","","","","","","","",""
"2119.4499999999534","{""judgement"":1}","[0]","survey-likert","279","840359","0.0-279.0","6hqtqp3j","","","","","","","","1"
"1651.609999999986","{""confidence"":2}","[0]","survey-likert","280","842012","0.0-280.0","6hqtqp3j","","","","","","","",""
"","","","call-function","281","842012","0.0-281.0","6hqtqp3j","","","","","","","",""
"null","","","html-keyboard-response","282","843515","0.0-282.0","6hqtqp3j","","<span style=""color:Black; font-size:50px;"">Agent A","null","","","","",""
"null","","","video-keyboard-response","283","846612","0.0-283.0","6hqtqp3j","","","null","","Agent A","scrambled","STIM_SET_2/1160189.bmp_pp64_L1_V1.0_scrambled_freeview_isoTrue.mp4",""
"null","","","html-keyboard-response","284","848115","0.0-284.0","6hqtqp3j","","<span style=""color:Black; font-size:50px;"">Agent B","null","","","","",""
"null","","","video-keyboard-response","285","851188","0.0-285.0","6hqtqp3j","","","null","","Agent B","veridical","STIM_SET_2/1160189.bmp_pp64_L1_V1.0_veridical_freeview_isoTrue.mp4",""
"","","","call-function","286","851189","0.0-286.0","6hqtqp3j","","","","","","","",""
"3164.8499999999767","{""judgement"":0}","[0]","survey-likert","287","854355","0.0-287.0","6hqtqp3j","","","","","","","","1"
"2246.3150000000605","{""confidence"":2}","[0]","survey-likert","288","856604","0.0-288.0","6hqtqp3j","","","","","","","",""
"","","","call-function","289","856605","0.0-289.0","6hqtqp3j","","","","","","","",""
"null","","","html-keyboard-response","290","858109","0.0-290.0","6hqtqp3j","","<span style=""color:Black; font-size:50px;"">Agent A","null","","","","",""
"null","","","video-keyboard-response","291","861180","0.0-291.0","6hqtqp3j","","","null","","Agent A","veridical","STIM_SET_2/1592150.bmp_pp77_L3_V1.0_veridical_freeview_isoTrue.mp4",""
"null","","","html-keyboard-response","292","862683","0.0-292.0","6hqtqp3j","","<span style=""color:Black; font-size:50px;"">Agent B","null","","","","",""
"null","","","video-keyboard-response","293","865753","0.0-293.0","6hqtqp3j","","","null","","Agent B","scrambled","STIM_SET_2/1592150.bmp_pp77_L3_V1.0_scrambled_freeview_isoTrue.mp4",""
"","","","call-function","294","865754","0.0-294.0","6hqtqp3j","","","","","","","",""
"2106.859999999986","{""judgement"":1}","[0]","survey-likert","295","867861","0.0-295.0","6hqtqp3j","","","","","","","","0"
"3628.3549999999814","{""confidence"":0}","[0]","survey-likert","296","871491","0.0-296.0","6hqtqp3j","","","","","","","",""
"","","","call-function","297","871492","0.0-297.0","6hqtqp3j","","","","","","","",""
"null","","","html-keyboard-response","298","872994","0.0-298.0","6hqtqp3j","","<span style=""color:Black; font-size:50px;"">Agent A","null","","","","",""
"null","","","video-keyboard-response","299","876064","0.0-299.0","6hqtqp3j","","","null","","Agent A","scrambled","STIM_SET_2/1592857.bmp_pp52_L1_V1_scrambled_freeview_isoTrue.mp4",""
"null","","","html-keyboard-response","300","877568","0.0-300.0","6hqtqp3j","","<span style=""color:Black; font-size:50px;"">Agent B","null","","","","",""
"null","","","video-keyboard-response","301","880637","0.0-301.0","6hqtqp3j","","","null","","Agent B","veridical","STIM_SET_2/1592857.bmp_pp52_L1_V1_veridical_freeview_isoTrue.mp4",""
"","","","call-function","302","880638","0.0-302.0","6hqtqp3j","","","","","","","",""
"2655.95000000007","{""judgement"":1}","[0]","survey-likert","303","883295","0.0-303.0","6hqtqp3j","","","","","","","","1"
"1383.170000000042","{""confidence"":0}","[0]","survey-likert","304","884679","0.0-304.0","6hqtqp3j","","","","","","","",""
"","","","call-function","305","884680","0.0-305.0","6hqtqp3j","","","","","","","",""
"null","","","html-keyboard-response","306","886184","0.0-306.0","6hqtqp3j","","<span style=""color:Black; font-size:50px;"">Agent A","null","","","","",""
"null","","","video-keyboard-response","307","889290","0.0-307.0","6hqtqp3j","","","null","","Agent A","scrambled","STIM_SET_2/1592530.bmp_pp75_L1_V1.0_scrambled_freeview_isoTrue.mp4",""
"null","","","html-keyboard-response","308","890797","0.0-308.0","6hqtqp3j","","<span style=""color:Black; font-size:50px;"">Agent B","null","","","","",""
"null","","","video-keyboard-response","309","893897","0.0-309.0","6hqtqp3j","","","null","","Agent B","veridical","STIM_SET_2/1592530.bmp_pp75_L1_V1.0_veridical_freeview_isoTrue.mp4",""
"","","","call-function","310","893898","0.0-310.0","6hqtqp3j","","","","","","","",""
"2848.3850000000093","{""judgement"":1}","[0]","survey-likert","311","896747","0.0-311.0","6hqtqp3j","","","","","","","","1"
"1190.3649999999907","{""confidence"":3}","[0]","survey-likert","312","897939","0.0-312.0","6hqtqp3j","","","","","","","",""
"","","","call-function","313","897939","0.0-313.0","6hqtqp3j","","","","","","","",""
"null","","","html-keyboard-response","314","899441","0.0-314.0","6hqtqp3j","","<span style=""color:Black; font-size:50px;"">Agent A","null","","","","",""
"null","","","video-keyboard-response","315","902499","0.0-315.0","6hqtqp3j","","","null","","Agent A","veridical","STIM_SET_2/107955.bmp_pp90_L2_V1.0_veridical_freeview_isoTrue.mp4",""
"null","","","html-keyboard-response","316","904004","0.0-316.0","6hqtqp3j","","<span style=""color:Black; font-size:50px;"">Agent B","null","","","","",""
"null","","","video-keyboard-response","317","907101","0.0-317.0","6hqtqp3j","","","null","","Agent B","scrambled","STIM_SET_2/107955.bmp_pp90_L2_V1.0_scrambled_freeview_isoTrue.mp4",""
"","","","call-function","318","907102","0.0-318.0","6hqtqp3j","","","","","","","",""
"2968.094999999972","{""judgement"":1}","[0]","survey-likert","319","910071","0.0-319.0","6hqtqp3j","","","","","","","","0"
"2531.7299999999814","{""confidence"":1}","[0]","survey-likert","320","912604","0.0-320.0","6hqtqp3j","","","","","","","",""
"","","","call-function","321","912604","0.0-321.0","6hqtqp3j","","","","","","","",""
"null","","","html-keyboard-response","322","914108","0.0-322.0","6hqtqp3j","","<span style=""color:Black; font-size:50px;"">Agent A","null","","","","",""
"null","","","video-keyboard-response","323","917215","0.0-323.0","6hqtqp3j","","","null","","Agent A","veridical","STIM_SET_2/713790.bmp_pp100_L3_V1_veridical_freeview_isoTrue.mp4",""
"null","","","html-keyboard-response","324","918719","0.0-324.0","6hqtqp3j","","<span style=""color:Black; font-size:50px;"">Agent B","null","","","","",""
"null","","","video-keyboard-response","325","921825","0.0-325.0","6hqtqp3j","","","null","","Agent B","scrambled","STIM_SET_2/713790.bmp_pp100_L3_V1_scrambled_freeview_isoTrue.mp4",""
"","","","call-function","326","921826","0.0-326.0","6hqtqp3j","","","","","","","",""
"4234.9349999999395","{""judgement"":0}","[0]","survey-likert","327","926062","0.0-327.0","6hqtqp3j","","","","","","","","0"
"2513.2449999999953","{""confidence"":1}","[0]","survey-likert","328","928576","0.0-328.0","6hqtqp3j","","","","","","","",""
"","","","call-function","329","928577","0.0-329.0","6hqtqp3j","","","","","","","",""
"null","","","html-keyboard-response","330","930079","0.0-330.0","6hqtqp3j","","<span style=""color:Black; font-size:50px;"">Agent A","null","","","","",""
"null","","","video-keyboard-response","331","933149","0.0-331.0","6hqtqp3j","","","null","","Agent A","veridical","STIM_SET_2/1592047.bmp_pp51_L1_V1.0_veridical_freeview_isoTrue.mp4",""
"null","","","html-keyboard-response","332","934651","0.0-332.0","6hqtqp3j","","<span style=""color:Black; font-size:50px;"">Agent B","null","","","","",""
"null","","","video-keyboard-response","333","937723","0.0-333.0","6hqtqp3j","","","null","","Agent B","scrambled","STIM_SET_2/1592047.bmp_pp51_L1_V1.0_scrambled_freeview_isoTrue.mp4",""
"","","","call-function","334","937724","0.0-334.0","6hqtqp3j","","","","","","","",""
"2760.045000000042","{""judgement"":1}","[0]","survey-likert","335","940485","0.0-335.0","6hqtqp3j","","","","","","","","0"
"1137.1949999999488","{""confidence"":3}","[0]","survey-likert","336","941623","0.0-336.0","6hqtqp3j","","","","","","","",""
"5945.5","","","instructions","337","947570","0.0-337.0","6hqtqp3j","[{""page_index"":0,""viewing_time"":4944.489999999991},{""page_index"":1,""viewing_time"":527.9449999999488},{""page_index"":2,""viewing_time"":472.8549999999814}]","","","","","","",""
"727.5100000000093","","","instructions","338","948299","0.0-338.0","6hqtqp3j","[{""page_index"":0,""viewing_time"":253.22999999998137},{""page_index"":1,""viewing_time"":240.2950000000419},{""page_index"":2,""viewing_time"":233.86999999999534}]","","","","","","",""
"","","","call-function","339","948300","0.0-339.0","6hqtqp3j","","","","","","","",""
"null","","","html-keyboard-response","340","949805","0.0-340.0","6hqtqp3j","","<span style=""color:Black; font-size:50px;"">Agent A","null","","","","",""
"null","","","video-keyboard-response","341","952879","0.0-341.0","6hqtqp3j","","","null","","Agent A","scrambled","STIM_SET_2/713788.bmp_pp52_L1_V1.0_scrambled_freeview_isoTrue.mp4",""
"null","","","html-keyboard-response","342","954385","0.0-342.0","6hqtqp3j","","<span style=""color:Black; font-size:50px;"">Agent B","null","","","","",""
"null","","","video-keyboard-response","343","957460","0.0-343.0","6hqtqp3j","","","null","","Agent B","veridical","STIM_SET_2/713788.bmp_pp52_L1_V1.0_veridical_freeview_isoTrue.mp4",""
"","","","call-function","344","957461","0.0-344.0","6hqtqp3j","","","","","","","",""
"3381.8950000000186","{""judgement"":1}","[0]","survey-likert","345","960844","0.0-345.0","6hqtqp3j","","","","","","","","1"
"1728.984999999986","{""confidence"":2}","[0]","survey-likert","346","962574","0.0-346.0","6hqtqp3j","","","","","","","",""
"","","","call-function","347","962575","0.0-347.0","6hqtqp3j","","","","","","","",""
"null","","","html-keyboard-response","348","964077","0.0-348.0","6hqtqp3j","","<span style=""color:Black; font-size:50px;"">Agent A","null","","","","",""
"null","","","video-keyboard-response","349","967142","0.0-349.0","6hqtqp3j","","","null","","Agent A","veridical","STIM_SET_2/285715.bmp_pp67_L2_V1.0_veridical_freeview_isoTrue.mp4",""
"null","","","html-keyboard-response","350","968648","0.0-350.0","6hqtqp3j","","<span style=""color:Black; font-size:50px;"">Agent B","null","","","","",""
"null","","","video-keyboard-response","351","971715","0.0-351.0","6hqtqp3j","","","null","","Agent B","scrambled","STIM_SET_2/285715.bmp_pp67_L2_V1.0_scrambled_freeview_isoTrue.mp4",""
"","","","call-function","352","971716","0.0-352.0","6hqtqp3j","","","","","","","",""
"3668.2900000000373","{""judgement"":1}","[0]","survey-likert","353","975386","0.0-353.0","6hqtqp3j","","","","","","","","0"
"1401.8699999999953","{""confidence"":2}","[0]","survey-likert","354","976789","0.0-354.0","6hqtqp3j","","","","","","","",""
"","","","call-function","355","976790","0.0-355.0","6hqtqp3j","","","","","","","",""
"null","","","html-keyboard-response","356","978293","0.0-356.0","6hqtqp3j","","<span style=""color:Black; font-size:50px;"">Agent A","null","","","","",""
"null","","","video-keyboard-response","357","981395","0.0-357.0","6hqtqp3j","","","null","","Agent A","scrambled","STIM_SET_2/1159508.bmp_pp151_L1_V1.0_scrambled_freeview_isoTrue.mp4",""
"null","","","html-keyboard-response","358","982897","0.0-358.0","6hqtqp3j","","<span style=""color:Black; font-size:50px;"">Agent B","null","","","","",""
"null","","","video-keyboard-response","359","985996","0.0-359.0","6hqtqp3j","","","null","","Agent B","veridical","STIM_SET_2/1159508.bmp_pp151_L1_V1.0_veridical_freeview_isoTrue.mp4",""
"","","","call-function","360","985997","0.0-360.0","6hqtqp3j","","","","","","","",""
"3910.850000000093","{""judgement"":1}","[0]","survey-likert","361","989909","0.0-361.0","6hqtqp3j","","","","","","","","1"
"1151.4749999999767","{""confidence"":1}","[0]","survey-likert","362","991061","0.0-362.0","6hqtqp3j","","","","","","","",""
"","","","call-function","363","991062","0.0-363.0","6hqtqp3j","","","","","","","",""
"null","","","html-keyboard-response","364","992564","0.0-364.0","6hqtqp3j","","<span style=""color:Black; font-size:50px;"">Agent A","null","","","","",""
"null","","","video-keyboard-response","365","995652","0.0-365.0","6hqtqp3j","","","null","","Agent A","veridical","STIM_SET_2/1592951.bmp_pp80_L3_V1.0_veridical_freeview_isoTrue.mp4",""
"null","","","html-keyboard-response","366","997157","0.0-366.0","6hqtqp3j","","<span style=""color:Black; font-size:50px;"">Agent B","null","","","","",""
"null","","","video-keyboard-response","367","1000242","0.0-367.0","6hqtqp3j","","","null","","Agent B","scrambled","STIM_SET_2/1592951.bmp_pp80_L3_V1.0_scrambled_freeview_isoTrue.mp4",""
"","","","call-function","368","1000242","0.0-368.0","6hqtqp3j","","","","","","","",""
"4829.92499999993","{""judgement"":1}","[0]","survey-likert","369","1005073","0.0-369.0","6hqtqp3j","","","","","","","","0"
"2260.9100000000326","{""confidence"":2}","[0]","survey-likert","370","1007335","0.0-370.0","6hqtqp3j","","","","","","","",""
"","","","call-function","371","1007336","0.0-371.0","6hqtqp3j","","","","","","","",""
"null","","","html-keyboard-response","372","1008840","0.0-372.0","6hqtqp3j","","<span style=""color:Black; font-size:50px;"">Agent A","null","","","","",""
"null","","","video-keyboard-response","373","1011936","0.0-373.0","6hqtqp3j","","","null","","Agent A","scrambled","STIM_SET_2/1159956.bmp_pp59_L3_V1.0_scrambled_freeview_isoTrue.mp4",""
"null","","","html-keyboard-response","374","1013442","0.0-374.0","6hqtqp3j","","<span style=""color:Black; font-size:50px;"">Agent B","null","","","","",""
"null","","","video-keyboard-response","375","1016516","0.0-375.0","6hqtqp3j","","","null","","Agent B","veridical","STIM_SET_2/1159956.bmp_pp59_L3_V1.0_veridical_freeview_isoTrue.mp4",""
"","","","call-function","376","1016517","0.0-376.0","6hqtqp3j","","","","","","","",""
"3203.42499999993","{""judgement"":0}","[0]","survey-likert","377","1019721","0.0-377.0","6hqtqp3j","","","","","","","","1"
"2280.6049999999814","{""confidence"":1}","[0]","survey-likert","378","1022003","0.0-378.0","6hqtqp3j","","","","","","","",""
"","","","call-function","379","1022004","0.0-379.0","6hqtqp3j","","","","","","","",""
"null","","","html-keyboard-response","380","1023505","0.0-380.0","6hqtqp3j","","<span style=""color:Black; font-size:50px;"">Agent A","null","","","","",""
"null","","","video-keyboard-response","381","1026586","0.0-381.0","6hqtqp3j","","","null","","Agent A","scrambled","STIM_SET_2/285959.bmp_pp93_L1_V1.0_scrambled_freeview_isoTrue.mp4",""
"null","","","html-keyboard-response","382","1028089","0.0-382.0","6hqtqp3j","","<span style=""color:Black; font-size:50px;"">Agent B","null","","","","",""
"null","","","video-keyboard-response","383","1031168","0.0-383.0","6hqtqp3j","","","null","","Agent B","veridical","STIM_SET_2/285959.bmp_pp93_L1_V1.0_veridical_freeview_isoTrue.mp4",""
"","","","call-function","384","1031168","0.0-384.0","6hqtqp3j","","","","","","","",""
"2797.2700000000186","{""judgement"":0}","[0]","survey-likert","385","1033966","0.0-385.0","6hqtqp3j","","","","","","","","1"
"1337.4349999999395","{""confidence"":0}","[0]","survey-likert","386","1035305","0.0-386.0","6hqtqp3j","","","","","","","",""
"","","","call-function","387","1035306","0.0-387.0","6hqtqp3j","","","","","","","",""
"null","","","html-keyboard-response","388","1036811","0.0-388.0","6hqtqp3j","","<span style=""color:Black; font-size:50px;"">Agent A","null","","","","",""
"null","","","video-keyboard-response","389","1039887","0.0-389.0","6hqtqp3j","","","null","","Agent A","veridical","STIM_SET_2/498025.bmp_pp81_L1_V1.0_veridical_freeview_isoTrue.mp4",""
"null","","","html-keyboard-response","390","1041393","0.0-390.0","6hqtqp3j","","<span style=""color:Black; font-size:50px;"">Agent B","null","","","","",""
"null","","","video-keyboard-response","391","1044489","0.0-391.0","6hqtqp3j","","","null","","Agent B","scrambled","STIM_SET_2/498025.bmp_pp81_L1_V1.0_scrambled_freeview_isoTrue.mp4",""
"","","","call-function","392","1044491","0.0-392.0","6hqtqp3j","","","","","","","",""
"1512.4799999999814","{""judgement"":0}","[0]","survey-likert","393","1046005","0.0-393.0","6hqtqp3j","","","","","","","","0"
"1707.670000000042","{""confidence"":3}","[0]","survey-likert","394","1047714","0.0-394.0","6hqtqp3j","","","","","","","",""
"","","","call-function","395","1047716","0.0-395.0","6hqtqp3j","","","","","","","",""
"null","","","html-keyboard-response","396","1049219","0.0-396.0","6hqtqp3j","","<span style=""color:Black; font-size:50px;"">Agent A","null","","","","",""
"null","","","video-keyboard-response","397","1052286","0.0-397.0","6hqtqp3j","","","null","","Agent A","veridical","STIM_SET_2/1592567.bmp_pp70_L2_V1.0_veridical_freeview_isoTrue.mp4",""
"null","","","html-keyboard-response","398","1053789","0.0-398.0","6hqtqp3j","","<span style=""color:Black; font-size:50px;"">Agent B","null","","","","",""
"null","","","video-keyboard-response","399","1056855","0.0-399.0","6hqtqp3j","","","null","","Agent B","scrambled","STIM_SET_2/1592567.bmp_pp70_L2_V1.0_scrambled_freeview_isoTrue.mp4",""
"","","","call-function","400","1056856","0.0-400.0","6hqtqp3j","","","","","","","",""
"1903.8300000000745","{""judgement"":0}","[0]","survey-likert","401","1058760","0.0-401.0","6hqtqp3j","","","","","","","","0"
"1526.5400000000373","{""confidence"":1}","[0]","survey-likert","402","1060288","0.0-402.0","6hqtqp3j","","","","","","","",""
"","","","call-function","403","1060289","0.0-403.0","6hqtqp3j","","","","","","","",""
"null","","","html-keyboard-response","404","1061795","0.0-404.0","6hqtqp3j","","<span style=""color:Black; font-size:50px;"">Agent A","null","","","","",""
"null","","","video-keyboard-response","405","1064870","0.0-405.0","6hqtqp3j","","","null","","Agent A","veridical","STIM_SET_2/1592350.bmp_pp55_L3_V1.0_veridical_freeview_isoTrue.mp4",""
"null","","","html-keyboard-response","406","1066372","0.0-406.0","6hqtqp3j","","<span style=""color:Black; font-size:50px;"">Agent B","null","","","","",""
"null","","","video-keyboard-response","407","1069445","0.0-407.0","6hqtqp3j","","","null","","Agent B","scrambled","STIM_SET_2/1592350.bmp_pp55_L3_V1.0_scrambled_freeview_isoTrue.mp4",""
"","","","call-function","408","1069446","0.0-408.0","6hqtqp3j","","","","","","","",""
"3090.3000000000466","{""judgement"":1}","[0]","survey-likert","409","1072537","0.0-409.0","6hqtqp3j","","","","","","","","0"
"1701.5500000000466","{""confidence"":1}","[0]","survey-likert","410","1074240","0.0-410.0","6hqtqp3j","","","","","","","",""
"","","","call-function","411","1074241","0.0-411.0","6hqtqp3j","","","","","","","",""
"null","","","html-keyboard-response","412","1075743","0.0-412.0","6hqtqp3j","","<span style=""color:Black; font-size:50px;"">Agent A","null","","","","",""
"null","","","video-keyboard-response","413","1078840","0.0-413.0","6hqtqp3j","","","null","","Agent A","veridical","STIM_SET_2/498326.bmp_pp57_L1_V1.0_veridical_freeview_isoTrue.mp4",""
"null","","","html-keyboard-response","414","1080344","0.0-414.0","6hqtqp3j","","<span style=""color:Black; font-size:50px;"">Agent B","null","","","","",""
"null","","","video-keyboard-response","415","1083437","0.0-415.0","6hqtqp3j","","","null","","Agent B","scrambled","STIM_SET_2/498326.bmp_pp57_L1_V1.0_scrambled_freeview_isoTrue.mp4",""
"","","","call-function","416","1083438","0.0-416.0","6hqtqp3j","","","","","","","",""
"1559.0849999999627","{""judgement"":1}","[0]","survey-likert","417","1084998","0.0-417.0","6hqtqp3j","","","","","","","","0"
"1424.75","{""confidence"":2}","[0]","survey-likert","418","1086424","0.0-418.0","6hqtqp3j","","","","","","","",""
"2172.9550000000745","","","instructions","419","1088598","0.0-419.0","6hqtqp3j","[{""page_index"":0,""viewing_time"":1520.4499999999534},{""page_index"":1,""viewing_time"":458.95999999996275},{""page_index"":2,""viewing_time"":193.3200000000652}]","","","","","","",""
"754.9699999999721","","","instructions","420","1089354","0.0-420.0","6hqtqp3j","[{""page_index"":0,""viewing_time"":161.27000000001863},{""page_index"":1,""viewing_time"":215.8200000000652},{""page_index"":2,""viewing_time"":377.77499999990687}]","","","","","","",""
"","","","call-function","421","1089354","0.0-421.0","6hqtqp3j","","","","","","","",""
"null","","","html-keyboard-response","422","1090858","0.0-422.0","6hqtqp3j","","<span style=""color:Black; font-size:50px;"">Agent A","null","","","","",""
"null","","","video-keyboard-response","423","1093930","0.0-423.0","6hqtqp3j","","","null","","Agent A","scrambled","STIM_SET_2/1592568.bmp_pp71_L1_V1.0_scrambled_freeview_isoTrue.mp4",""
"null","","","html-keyboard-response","424","1095433","0.0-424.0","6hqtqp3j","","<span style=""color:Black; font-size:50px;"">Agent B","null","","","","",""
"null","","","video-keyboard-response","425","1098540","0.0-425.0","6hqtqp3j","","","null","","Agent B","veridical","STIM_SET_2/1592568.bmp_pp71_L1_V1.0_veridical_freeview_isoTrue.mp4",""
"","","","call-function","426","1098540","0.0-426.0","6hqtqp3j","","","","","","","",""
"2457.7249999998603","{""judgement"":1}","[0]","survey-likert","427","1100999","0.0-427.0","6hqtqp3j","","","","","","","","1"
"1923.8000000000466","{""confidence"":2}","[0]","survey-likert","428","1102924","0.0-428.0","6hqtqp3j","","","","","","","",""
"","","","call-function","429","1102924","0.0-429.0","6hqtqp3j","","","","","","","",""
"null","","","html-keyboard-response","430","1104429","0.0-430.0","6hqtqp3j","","<span style=""color:Black; font-size:50px;"">Agent A","null","","","","",""
"null","","","video-keyboard-response","431","1107535","0.0-431.0","6hqtqp3j","","","null","","Agent A","scrambled","STIM_SET_2/1592289.bmp_pp92_L3_V1.0_scrambled_freeview_isoTrue.mp4",""
"null","","","html-keyboard-response","432","1109042","0.0-432.0","6hqtqp3j","","<span style=""color:Black; font-size:50px;"">Agent B","null","","","","",""
"null","","","video-keyboard-response","433","1112105","0.0-433.0","6hqtqp3j","","","null","","Agent B","veridical","STIM_SET_2/1592289.bmp_pp92_L3_V1.0_veridical_freeview_isoTrue.mp4",""
"","","","call-function","434","1112105","0.0-434.0","6hqtqp3j","","","","","","","",""
"3861.3950000000186","{""judgement"":1}","[0]","survey-likert","435","1115967","0.0-435.0","6hqtqp3j","","","","","","","","1"
"2057.5","{""confidence"":3}","[0]","survey-likert","436","1118026","0.0-436.0","6hqtqp3j","","","","","","","",""
"","","","call-function","437","1118027","0.0-437.0","6hqtqp3j","","","","","","","",""
"null","","","html-keyboard-response","438","1119529","0.0-438.0","6hqtqp3j","","<span style=""color:Black; font-size:50px;"">Agent A","null","","","","",""
"null","","","video-keyboard-response","439","1122604","0.0-439.0","6hqtqp3j","","","null","","Agent A","veridical","STIM_SET_2/1159819.bmp_pp151_L1_V1.0_veridical_freeview_isoTrue.mp4",""
"null","","","html-keyboard-response","440","1124110","0.0-440.0","6hqtqp3j","","<span style=""color:Black; font-size:50px;"">Agent B","null","","","","",""
"null","","","video-keyboard-response","441","1127185","0.0-441.0","6hqtqp3j","","","null","","Agent B","scrambled","STIM_SET_2/1159819.bmp_pp151_L1_V1.0_scrambled_freeview_isoTrue.mp4",""
"","","","call-function","442","1127186","0.0-442.0","6hqtqp3j","","","","","","","",""
"1469.5849999999627","{""judgement"":0}","[0]","survey-likert","443","1128656","0.0-443.0","6hqtqp3j","","","","","","","","0"
"1709.344999999972","{""confidence"":3}","[0]","survey-likert","444","1130367","0.0-444.0","6hqtqp3j","","","","","","","",""
"","","","call-function","445","1130368","0.0-445.0","6hqtqp3j","","","","","","","",""
"null","","","html-keyboard-response","446","1131873","0.0-446.0","6hqtqp3j","","<span style=""color:Black; font-size:50px;"">Agent A","null","","","","",""
"null","","","video-keyboard-response","447","1134942","0.0-447.0","6hqtqp3j","","","null","","Agent A","scrambled","STIM_SET_2/713829.bmp_pp60_L3_V1.0_scrambled_freeview_isoTrue.mp4",""
"null","","","html-keyboard-response","448","1136445","0.0-448.0","6hqtqp3j","","<span style=""color:Black; font-size:50px;"">Agent B","null","","","","",""
"null","","","video-keyboard-response","449","1139515","0.0-449.0","6hqtqp3j","","","null","","Agent B","veridical","STIM_SET_2/713829.bmp_pp60_L3_V1.0_veridical_freeview_isoTrue.mp4",""
"","","","call-function","450","1139515","0.0-450.0","6hqtqp3j","","","","","","","",""
"3303.0200000000186","{""judgement"":1}","[0]","survey-likert","451","1142819","0.0-451.0","6hqtqp3j","","","","","","","","1"
"2417.719999999972","{""confidence"":3}","[0]","survey-likert","452","1145238","0.0-452.0","6hqtqp3j","","","","","","","",""
"","","","call-function","453","1145239","0.0-453.0","6hqtqp3j","","","","","","","",""
"null","","","html-keyboard-response","454","1146743","0.0-454.0","6hqtqp3j","","<span style=""color:Black; font-size:50px;"">Agent A","null","","","","",""
"null","","","video-keyboard-response","455","1149853","0.0-455.0","6hqtqp3j","","","null","","Agent A","scrambled","STIM_SET_2/107909.bmp_pp95_L2_V1.0_scrambled_freeview_isoTrue.mp4",""
"null","","","html-keyboard-response","456","1151360","0.0-456.0","6hqtqp3j","","<span style=""color:Black; font-size:50px;"">Agent B","null","","","","",""
"null","","","video-keyboard-response","457","1154464","0.0-457.0","6hqtqp3j","","","null","","Agent B","veridical","STIM_SET_2/107909.bmp_pp95_L2_V1.0_veridical_freeview_isoTrue.mp4",""
"","","","call-function","458","1154465","0.0-458.0","6hqtqp3j","","","","","","","",""
"2627.9799999999814","{""judgement"":1}","[0]","survey-likert","459","1157094","0.0-459.0","6hqtqp3j","","","","","","","","1"
"1278.505000000121","{""confidence"":2}","[0]","survey-likert","460","1158373","0.0-460.0","6hqtqp3j","","","","","","","",""
"","","","call-function","461","1158374","0.0-461.0","6hqtqp3j","","","","","","","",""
"null","","","html-keyboard-response","462","1159878","0.0-462.0","6hqtqp3j","","<span style=""color:Black; font-size:50px;"">Agent A","null","","","","",""
"null","","","video-keyboard-response","463","1162977","0.0-463.0","6hqtqp3j","","","null","","Agent A","veridical","STIM_SET_2/1160049.bmp_pp53_L2_V1.0_veridical_freeview_isoTrue.mp4",""
"null","","","html-keyboard-response","464","1164481","0.0-464.0","6hqtqp3j","","<span style=""color:Black; font-size:50px;"">Agent B","null","","","","",""
"null","","","video-keyboard-response","465","1167576","0.0-465.0","6hqtqp3j","","","null","","Agent B","scrambled","STIM_SET_2/1160049.bmp_pp53_L2_V1.0_scrambled_freeview_isoTrue.mp4",""
"","","","call-function","466","1167577","0.0-466.0","6hqtqp3j","","","","","","","",""
"2926.0749999999534","{""judgement"":0}","[0]","survey-likert","467","1170504","0.0-467.0","6hqtqp3j","","","","","","","","0"
"2193.3349999999627","{""confidence"":3}","[0]","survey-likert","468","1172700","0.0-468.0","6hqtqp3j","","","","","","","",""
"","","","call-function","469","1172701","0.0-469.0","6hqtqp3j","","","","","","","",""
"null","","","html-keyboard-response","470","1174207","0.0-470.0","6hqtqp3j","","<span style=""color:Black; font-size:50px;"">Agent A","null","","","","",""
"null","","","video-keyboard-response","471","1177280","0.0-471.0","6hqtqp3j","","","null","","Agent A","veridical","STIM_SET_2/498258.bmp_pp51_L1_V1.0_veridical_freeview_isoTrue.mp4",""
"null","","","html-keyboard-response","472","1178783","0.0-472.0","6hqtqp3j","","<span style=""color:Black; font-size:50px;"">Agent B","null","","","","",""
"null","","","video-keyboard-response","473","1181859","0.0-473.0","6hqtqp3j","","","null","","Agent B","scrambled","STIM_SET_2/498258.bmp_pp51_L1_V1.0_scrambled_freeview_isoTrue.mp4",""
"","","","call-function","474","1181860","0.0-474.0","6hqtqp3j","","","","","","","",""
"2182.910000000149","{""judgement"":0}","[0]","survey-likert","475","1184044","0.0-475.0","6hqtqp3j","","","","","","","","0"
"1581.7900000000373","{""confidence"":3}","[0]","survey-likert","476","1185627","0.0-476.0","6hqtqp3j","","","","","","","",""
"","","","call-function","477","1185628","0.0-477.0","6hqtqp3j","","","","","","","",""
"null","","","html-keyboard-response","478","1187132","0.0-478.0","6hqtqp3j","","<span style=""color:Black; font-size:50px;"">Agent A","null","","","","",""
"null","","","video-keyboard-response","479","1190205","0.0-479.0","6hqtqp3j","","","null","","Agent A","scrambled","STIM_SET_2/150463.bmp_pp55_L3_V1.0_scrambled_freeview_isoTrue.mp4",""
"null","","","html-keyboard-response","480","1191712","0.0-480.0","6hqtqp3j","","<span style=""color:Black; font-size:50px;"">Agent B","null","","","","",""
"null","","","video-keyboard-response","481","1194788","0.0-481.0","6hqtqp3j","","","null","","Agent B","veridical","STIM_SET_2/150463.bmp_pp55_L3_V1.0_veridical_freeview_isoTrue.mp4",""
"","","","call-function","482","1194789","0.0-482.0","6hqtqp3j","","","","","","","",""
"3141.4150000000373","{""judgement"":1}","[0]","survey-likert","483","1197931","0.0-483.0","6hqtqp3j","","","","","","","","1"
"2731.1149999999907","{""confidence"":3}","[0]","survey-likert","484","1200664","0.0-484.0","6hqtqp3j","","","","","","","",""
"","","","call-function","485","1200665","0.0-485.0","6hqtqp3j","","","","","","","",""
"null","","","html-keyboard-response","486","1202170","0.0-486.0","6hqtqp3j","","<span style=""color:Black; font-size:50px;"">Agent A","null","","","","",""
"null","","","video-keyboard-response","487","1205275","0.0-487.0","6hqtqp3j","","","null","","Agent A","veridical","STIM_SET_2/1592298.bmp_pp56_L3_V1.0_veridical_freeview_isoTrue.mp4",""
"null","","","html-keyboard-response","488","1206778","0.0-488.0","6hqtqp3j","","<span style=""color:Black; font-size:50px;"">Agent B","null","","","","",""
"null","","","video-keyboard-response","489","1209884","0.0-489.0","6hqtqp3j","","","null","","Agent B","scrambled","STIM_SET_2/1592298.bmp_pp56_L3_V1.0_scrambled_freeview_isoTrue.mp4",""
"","","","call-function","490","1209885","0.0-490.0","6hqtqp3j","","","","","","","",""
"3781.5849999999627","{""judgement"":0}","[0]","survey-likert","491","1213668","0.0-491.0","6hqtqp3j","","","","","","","","0"
"1758.8950000000186","{""confidence"":1}","[0]","survey-likert","492","1215428","0.0-492.0","6hqtqp3j","","","","","","","",""
"","","","call-function","493","1215428","0.0-493.0","6hqtqp3j","","","","","","","",""
"null","","","html-keyboard-response","494","1216934","0.0-494.0","6hqtqp3j","","<span style=""color:Black; font-size:50px;"">Agent A","null","","","","",""
"null","","","video-keyboard-response","495","1220027","0.0-495.0","6hqtqp3j","","","null","","Agent A","scrambled","STIM_SET_2/1592314.bmp_pp100_L3_V1.0_scrambled_freeview_isoTrue.mp4",""
"null","","","html-keyboard-response","496","1221529","0.0-496.0","6hqtqp3j","","<span style=""color:Black; font-size:50px;"">Agent B","null","","","","",""
"null","","","video-keyboard-response","497","1224621","0.0-497.0","6hqtqp3j","","","null","","Agent B","veridical","STIM_SET_2/1592314.bmp_pp100_L3_V1.0_veridical_freeview_isoTrue.mp4",""
"","","","call-function","498","1224622","0.0-498.0","6hqtqp3j","","","","","","","",""
"4335.704999999842","{""judgement"":1}","[0]","survey-likert","499","1228958","0.0-499.0","6hqtqp3j","","","","","","","","1"
"1400.0749999999534","{""confidence"":3}","[0]","survey-likert","500","1230360","0.0-500.0","6hqtqp3j","","","","","","","",""
"25585.625","","","instructions","501","1255946","0.0-501.0","6hqtqp3j","[{""page_index"":0,""viewing_time"":24514.51000000001},{""page_index"":1,""viewing_time"":481.9399999999441},{""page_index"":2,""viewing_time"":589.0150000001304}]","","","","","","",""
"5804.284999999916","","","instructions","502","1261751","0.0-502.0","6hqtqp3j","[{""page_index"":0,""viewing_time"":4891.25},{""page_index"":1,""viewing_time"":545.3950000000186},{""page_index"":2,""viewing_time"":367.5349999999162}]","","","","","","",""
"","","","call-function","503","1261752","0.0-503.0","6hqtqp3j","","","","","","","",""
"null","","","html-keyboard-response","504","1263255","0.0-504.0","6hqtqp3j","","<span style=""color:Black; font-size:50px;"">Agent A","null","","","","",""
"null","","","video-keyboard-response","505","1266329","0.0-505.0","6hqtqp3j","","","null","","Agent A","veridical","STIM_SET_2/1592921.bmp_pp69_L3_V1.0_veridical_freeview_isoTrue.mp4",""
"null","","","html-keyboard-response","506","1267834","0.0-506.0","6hqtqp3j","","<span style=""color:Black; font-size:50px;"">Agent B","null","","","","",""
"null","","","video-keyboard-response","507","1270907","0.0-507.0","6hqtqp3j","","","null","","Agent B","scrambled","STIM_SET_2/1592921.bmp_pp69_L3_V1.0_scrambled_freeview_isoTrue.mp4",""
"","","","call-function","508","1270908","0.0-508.0","6hqtqp3j","","","","","","","",""
"1390.0049999998882","{""judgement"":0}","[0]","survey-likert","509","1272299","0.0-509.0","6hqtqp3j","","","","","","","","0"
"2082.625","{""confidence"":3}","[0]","survey-likert","510","1274382","0.0-510.0","6hqtqp3j","","","","","","","",""
"","","","call-function","511","1274383","0.0-511.0","6hqtqp3j","","","","","","","",""
"null","","","html-keyboard-response","512","1275885","0.0-512.0","6hqtqp3j","","<span style=""color:Black; font-size:50px;"">Agent A","null","","","","",""
"null","","","video-keyboard-response","513","1278959","0.0-513.0","6hqtqp3j","","","null","","Agent A","veridical","STIM_SET_2/1592025.bmp_pp68_L1_V1.0_veridical_freeview_isoTrue.mp4",""
"null","","","html-keyboard-response","514","1280465","0.0-514.0","6hqtqp3j","","<span style=""color:Black; font-size:50px;"">Agent B","null","","","","",""
"null","","","video-keyboard-response","515","1283540","0.0-515.0","6hqtqp3j","","","null","","Agent B","scrambled","STIM_SET_2/1592025.bmp_pp68_L1_V1.0_scrambled_freeview_isoTrue.mp4",""
"","","","call-function","516","1283540","0.0-516.0","6hqtqp3j","","","","","","","",""
"3944.5","{""judgement"":1}","[0]","survey-likert","517","1287486","0.0-517.0","6hqtqp3j","","","","","","","","0"
"2123.4599999999627","{""confidence"":0}","[0]","survey-likert","518","1289611","0.0-518.0","6hqtqp3j","","","","","","","",""
"","","","call-function","519","1289611","0.0-519.0","6hqtqp3j","","","","","","","",""
"null","","","html-keyboard-response","520","1291112","0.0-520.0","6hqtqp3j","","<span style=""color:Black; font-size:50px;"">Agent A","null","","","","",""
"null","","","video-keyboard-response","521","1294216","0.0-521.0","6hqtqp3j","","","null","","Agent A","veridical","STIM_SET_2/1592201.bmp_pp97_L3_V1.0_veridical_freeview_isoTrue.mp4",""
"null","","","html-keyboard-response","522","1295721","0.0-522.0","6hqtqp3j","","<span style=""color:Black; font-size:50px;"">Agent B","null","","","","",""
"null","","","video-keyboard-response","523","1298823","0.0-523.0","6hqtqp3j","","","null","","Agent B","scrambled","STIM_SET_2/1592201.bmp_pp97_L3_V1.0_scrambled_freeview_isoTrue.mp4",""
"","","","call-function","524","1298824","0.0-524.0","6hqtqp3j","","","","","","","",""
"1599.280000000028","{""judgement"":0}","[0]","survey-likert","525","1300425","0.0-525.0","6hqtqp3j","","","","","","","","0"
"2592.8499999998603","{""confidence"":2}","[0]","survey-likert","526","1303019","0.0-526.0","6hqtqp3j","","","","","","","",""
"","","","call-function","527","1303019","0.0-527.0","6hqtqp3j","","","","","","","",""
"null","","","html-keyboard-response","528","1304522","0.0-528.0","6hqtqp3j","","<span style=""color:Black; font-size:50px;"">Agent A","null","","","","",""
"null","","","video-keyboard-response","529","1307620","0.0-529.0","6hqtqp3j","","","null","","Agent A","veridical","STIM_SET_2/285932.bmp_pp64_L1_V1.0_veridical_freeview_isoTrue.mp4",""
"null","","","html-keyboard-response","530","1309123","0.0-530.0","6hqtqp3j","","<span style=""color:Black; font-size:50px;"">Agent B","null","","","","",""
"null","","","video-keyboard-response","531","1312220","0.0-531.0","6hqtqp3j","","","null","","Agent B","scrambled","STIM_SET_2/285932.bmp_pp64_L1_V1.0_scrambled_freeview_isoTrue.mp4",""
"","","","call-function","532","1312220","0.0-532.0","6hqtqp3j","","","","","","","",""
"3551.9950000001118","{""judgement"":1}","[0]","survey-likert","533","1315774","0.0-533.0","6hqtqp3j","","","","","","","","0"
"1489.7399999999907","{""confidence"":2}","[0]","survey-likert","534","1317266","0.0-534.0","6hqtqp3j","","","","","","","",""
"","","","call-function","535","1317267","0.0-535.0","6hqtqp3j","","","","","","","",""
"null","","","html-keyboard-response","536","1318770","0.0-536.0","6hqtqp3j","","<span style=""color:Black; font-size:50px;"">Agent A","null","","","","",""
"null","","","video-keyboard-response","537","1321845","0.0-537.0","6hqtqp3j","","","null","","Agent A","scrambled","STIM_SET_2/61513.bmp_pp75_L1_V1.0_scrambled_freeview_isoTrue.mp4",""
"null","","","html-keyboard-response","538","1323351","0.0-538.0","6hqtqp3j","","<span style=""color:Black; font-size:50px;"">Agent B","null","","","","",""
"null","","","video-keyboard-response","539","1326430","0.0-539.0","6hqtqp3j","","","null","","Agent B","veridical","STIM_SET_2/61513.bmp_pp75_L1_V1.0_veridical_freeview_isoTrue.mp4",""
"","","","call-function","540","1326430","0.0-540.0","6hqtqp3j","","","","","","","",""
"2935.684999999823","{""judgement"":1}","[0]","survey-likert","541","1329367","0.0-541.0","6hqtqp3j","","","","","","","","1"
"2139.475000000093","{""confidence"":2}","[0]","survey-likert","542","1331508","0.0-542.0","6hqtqp3j","","","","","","","",""
"","","","call-function","543","1331509","0.0-543.0","6hqtqp3j","","","","","","","",""
"null","","","html-keyboard-response","544","1333011","0.0-544.0","6hqtqp3j","","<span style=""color:Black; font-size:50px;"">Agent A","null","","","","",""
"null","","","video-keyboard-response","545","1336081","0.0-545.0","6hqtqp3j","","","null","","Agent A","veridical","STIM_SET_2/713652.bmp_pp89_L1_V1_veridical_freeview_isoTrue.mp4",""
"null","","","html-keyboard-response","546","1337587","0.0-546.0","6hqtqp3j","","<span style=""color:Black; font-size:50px;"">Agent B","null","","","","",""
"null","","","video-keyboard-response","547","1340658","0.0-547.0","6hqtqp3j","","","null","","Agent B","scrambled","STIM_SET_2/713652.bmp_pp89_L1_V1_scrambled_freeview_isoTrue.mp4",""
"","","","call-function","548","1340658","0.0-548.0","6hqtqp3j","","","","","","","",""
"5251.459999999963","{""judgement"":1}","[0]","survey-likert","549","1345911","0.0-549.0","6hqtqp3j","","","","","","","","0"
"3762.8600000001024","{""confidence"":1}","[0]","survey-likert","550","1349675","0.0-550.0","6hqtqp3j","","","","","","","",""
"","","","call-function","551","1349676","0.0-551.0","6hqtqp3j","","","","","","","",""
"null","","","html-keyboard-response","552","1351180","0.0-552.0","6hqtqp3j","","<span style=""color:Black; font-size:50px;"">Agent A","null","","","","",""
"null","","","video-keyboard-response","553","1354274","0.0-553.0","6hqtqp3j","","","null","","Agent A","scrambled","STIM_SET_2/1591920.bmp_pp97_L3_V1_scrambled_freeview_isoTrue.mp4",""
"null","","","html-keyboard-response","554","1355778","0.0-554.0","6hqtqp3j","","<span style=""color:Black; font-size:50px;"">Agent B","null","","","","",""
"null","","","video-keyboard-response","555","1358876","0.0-555.0","6hqtqp3j","","","null","","Agent B","veridical","STIM_SET_2/1591920.bmp_pp97_L3_V1_veridical_freeview_isoTrue.mp4",""
"","","","call-function","556","1358877","0.0-556.0","6hqtqp3j","","","","","","","",""
"2011.5749999999534","{""judgement"":0}","[0]","survey-likert","557","1360889","0.0-557.0","6hqtqp3j","","","","","","","","1"
"1587.6899999999441","{""confidence"":2}","[0]","survey-likert","558","1362478","0.0-558.0","6hqtqp3j","","","","","","","",""
"","","","call-function","559","1362479","0.0-559.0","6hqtqp3j","","","","","","","",""
"null","","","html-keyboard-response","560","1363981","0.0-560.0","6hqtqp3j","","<span style=""color:Black; font-size:50px;"">Agent A","null","","","","",""
"null","","","video-keyboard-response","561","1367040","0.0-561.0","6hqtqp3j","","","null","","Agent A","scrambled","STIM_SET_2/1159860.bmp_pp152_L2_V1.0_scrambled_freeview_isoTrue.mp4",""
"null","","","html-keyboard-response","562","1368542","0.0-562.0","6hqtqp3j","","<span style=""color:Black; font-size:50px;"">Agent B","null","","","","",""
"null","","","video-keyboard-response","563","1371601","0.0-563.0","6hqtqp3j","","","null","","Agent B","veridical","STIM_SET_2/1159860.bmp_pp152_L2_V1.0_veridical_freeview_isoTrue.mp4",""
"","","","call-function","564","1371602","0.0-564.0","6hqtqp3j","","","","","","","",""
"2857.4249999998137","{""judgement"":0}","[0]","survey-likert","565","1374460","0.0-565.0","6hqtqp3j","","","","","","","","1"
"2242.0550000001676","{""confidence"":1}","[0]","survey-likert","566","1376703","0.0-566.0","6hqtqp3j","","","","","","","",""
"","","","call-function","567","1376704","0.0-567.0","6hqtqp3j","","","","","","","",""
"null","","","html-keyboard-response","568","1378208","0.0-568.0","6hqtqp3j","","<span style=""color:Black; font-size:50px;"">Agent A","null","","","","",""
"null","","","video-keyboard-response","569","1381309","0.0-569.0","6hqtqp3j","","","null","","Agent A","scrambled","STIM_SET_2/713633.bmp_pp58_L1_V1.0_scrambled_freeview_isoTrue.mp4",""
"null","","","html-keyboard-response","570","1382814","0.0-570.0","6hqtqp3j","","<span style=""color:Black; font-size:50px;"">Agent B","null","","","","",""
"null","","","video-keyboard-response","571","1385896","0.0-571.0","6hqtqp3j","","","null","","Agent B","veridical","STIM_SET_2/713633.bmp_pp58_L1_V1.0_veridical_freeview_isoTrue.mp4",""
"","","","call-function","572","1385897","0.0-572.0","6hqtqp3j","","","","","","","",""
"2662.7399999999907","{""judgement"":0}","[0]","survey-likert","573","1388561","0.0-573.0","6hqtqp3j","","","","","","","","1"
"1098.5549999999348","{""confidence"":2}","[0]","survey-likert","574","1389661","0.0-574.0","6hqtqp3j","","","","","","","",""
"","","","call-function","575","1389661","0.0-575.0","6hqtqp3j","","","","","","","",""
"null","","","html-keyboard-response","576","1391164","0.0-576.0","6hqtqp3j","","<span style=""color:Black; font-size:50px;"">Agent A","null","","","","",""
"null","","","video-keyboard-response","577","1394233","0.0-577.0","6hqtqp3j","","","null","","Agent A","scrambled","STIM_SET_2/1592017.bmp_pp154_L1_V1.0_scrambled_freeview_isoTrue.mp4",""
"null","","","html-keyboard-response","578","1395737","0.0-578.0","6hqtqp3j","","<span style=""color:Black; font-size:50px;"">Agent B","null","","","","",""
"null","","","video-keyboard-response","579","1398833","0.0-579.0","6hqtqp3j","","","null","","Agent B","veridical","STIM_SET_2/1592017.bmp_pp154_L1_V1.0_veridical_freeview_isoTrue.mp4",""
"","","","call-function","580","1398834","0.0-580.0","6hqtqp3j","","","","","","","",""
"2322.0849999999627","{""judgement"":1}","[0]","survey-likert","581","1401157","0.0-581.0","6hqtqp3j","","","","","","","","1"
"1900.8549999999814","{""confidence"":2}","[0]","survey-likert","582","1403060","0.0-582.0","6hqtqp3j","","","","","","","",""
"2230.0850000001956","","","instructions","583","1405291","0.0-583.0","6hqtqp3j","[{""page_index"":0,""viewing_time"":2229.9500000001863}]","","","","","","",""
"3326.215000000084","","","instructions","584","1408617","0.0-584.0","6hqtqp3j","[{""page_index"":0,""viewing_time"":3326.1100000001024}]","","","","","","",""
"14103.040000000037","{""post-1"":3}","[0]","survey-likert","585","1422722","0.0-585.0","6hqtqp3j","","","","","","","",""
"3833.7549999998882","{""post-1"":0}","[0]","survey-likert","586","1426557","0.0-586.0","6hqtqp3j","","","","","","","",""
"5472.949999999953","{""post-2"":2}","[0]","survey-likert","587","1432031","0.0-587.0","6hqtqp3j","","","","","","","",""
"6038.270000000019","{""post-2"":0}","[0]","survey-likert","588","1438072","0.0-588.0","6hqtqp3j","","","","","","","",""
"12459.01000000001","{""post-3"":3}","[0]","survey-likert","589","1450533","0.0-589.0","6hqtqp3j","","","","","","","",""
"2384.3900000001304","{""post-3"":0}","[0]","survey-likert","590","1452920","0.0-590.0","6hqtqp3j","","","","","","","",""
"5911.420000000158","{""post-4"":2}","[0]","survey-likert","591","1458833","0.0-591.0","6hqtqp3j","","","","","","","",""
"4515.270000000019","{""post-4"":0}","[0]","survey-likert","592","1463350","0.0-592.0","6hqtqp3j","","","","","","","",""
"6636.84999999986","{""post-5"":1}","[0]","survey-likert","593","1469988","0.0-593.0","6hqtqp3j","","","","","","","",""
"3611.3600000001024","{""post-5"":3}","[0]","survey-likert","594","1473601","0.0-594.0","6hqtqp3j","","","","","","","",""
"51976.529999999795","{""Q0"":""It was difficult to follow the lights for agents A and B.""}","","survey-text","595","1525583","0.0-595.0","6hqtqp3j","","","","","","","",""
"82063.125","{""Q0"":""As a strategy, I followed the splotches of light with my eyes and compared them to my own way of viewing the videos.""}","","survey-text","596","1607651","0.0-596.0","6hqtqp3j","","","","","","","",""
"18948.87000000011","{""Q0"":""I found it hard to stick with the eye motions on a dark background.""}","","survey-text","597","1626604","0.0-597.0","6hqtqp3j","","","","","","","",""
"2880.4950000001118","","","instructions","598","1629486","0.0-598.0","6hqtqp3j","[{""page_index"":0,""viewing_time"":2880.355000000214}]","","","","","","",""
"445217.53","{""Experimenter_end"":[""Printed ID# 6hqtqp3j on consent form"",""Given subject SONA credit or payment"",""Given the subject debrief form""]}","[0]","survey-multi-select","599","2074707","0.0-599.0","6hqtqp3j","","","","","","","",""
