"rt","responses","question_order","trial_type","trial_index","time_elapsed","internal_node_id","ID","view_history","stimulus","key_press","value","agent","condition","image","correct_answer"
"92582.205","{""Experimenter"":[""Confirmed subject's identity"",""Confirmed normal or corrected-to-normal vision"",""Obtained consent (signature and date)"",""Checked the test room lighting"",""Checked computer screen lighting"",""Checked distance from screen to chin rest (50cm)"",""Cleaned and adjusted chin rest"",""Counterbalanced the order of the tasks"",""Opened the experiment in Firefox"",""Made the experiment full screen"",""Encouraged subject to silence phone, put away distractors, etc.""]}","[0]","survey-multi-select","0","92590","0.0-0.0","6p5gds8r","","","","","","","",""
"20980.059999999998","","","instructions","1","113572","0.0-1.0","6p5gds8r","[{""page_index"":0,""viewing_time"":20979.90999999999}]","","","","","","",""
"12952.970000000001","","","instructions","2","126525","0.0-2.0","6p5gds8r","[{""page_index"":0,""viewing_time"":6548.0899999999965},{""page_index"":1,""viewing_time"":1631.925000000003},{""page_index"":2,""viewing_time"":4772.830000000002}]","","","","","","",""
"3643.6600000000035","","","instructions","3","130169","0.0-3.0","6p5gds8r","[{""page_index"":0,""viewing_time"":3643.550000000003}]","","","","","","",""
"null","","","video-keyboard-response","4","133246","0.0-4.0","6p5gds8r","","","null","","","","",""
"13098.700000000012","","","instructions","5","146346","0.0-5.0","6p5gds8r","[{""page_index"":0,""viewing_time"":3846.820000000007},{""page_index"":1,""viewing_time"":2743.804999999993},{""page_index"":2,""viewing_time"":6507.9649999999965}]","","","","","","",""
"3802.5199999999895","","","instructions","6","150149","0.0-6.0","6p5gds8r","[{""page_index"":0,""viewing_time"":3802.414999999979}]","","","","","","",""
"1390.070000000007","","","instructions","7","151539","0.0-7.0","6p5gds8r","[{""page_index"":0,""viewing_time"":1389.8500000000058}]","","","","","","",""
"null","","","video-keyboard-response","8","154611","0.0-8.0","6p5gds8r","","","null","","","","",""
"10871.345000000001","","","instructions","9","165483","0.0-9.0","6p5gds8r","[{""page_index"":0,""viewing_time"":1395.2350000000151},{""page_index"":1,""viewing_time"":2398.084999999992},{""page_index"":2,""viewing_time"":7077.880000000005}]","","","","","","",""
"4617.485000000015","","","instructions","10","170101","0.0-10.0","6p5gds8r","[{""page_index"":0,""viewing_time"":4617.369999999995}]","","","","","","",""
"","","","call-function","11","170101","0.0-11.0","6p5gds8r","","","","","","","",""
"null","","","html-keyboard-response","12","171604","0.0-12.0","6p5gds8r","","<span style=""color:Black; font-size:50px;"">Agent A","null","","","","",""
"null","","","video-keyboard-response","13","174669","0.0-13.0","6p5gds8r","","","null","","Agent A","scrambled","STIM_SET_5/1592025.bmp_pp68_L1_V1.0_veridical_freeview_isoTrue_Hflip_fps144.mp4",""
"null","","","html-keyboard-response","14","176173","0.0-14.0","6p5gds8r","","<span style=""color:Black; font-size:50px;"">Agent B","null","","","","",""
"null","","","video-keyboard-response","15","179240","0.0-15.0","6p5gds8r","","","null","","Agent B","veridical","STIM_SET_2_144/1592025.bmp_pp68_L1_V1.0_veridical_freeview_isoTrue_fps144.mp4",""
"","","","call-function","16","179240","0.0-16.0","6p5gds8r","","","","","","","",""
"3677.7750000000233","{""judgement"":0}","[0]","survey-likert","17","182919","0.0-17.0","6p5gds8r","","","","","","","","1"
"3931.0100000000093","{""confidence"":1}","[0]","survey-likert","18","186851","0.0-18.0","6p5gds8r","","","","","","","",""
"","","","call-function","19","186852","0.0-19.0","6p5gds8r","","","","","","","",""
"null","","","html-keyboard-response","20","188358","0.0-20.0","6p5gds8r","","<span style=""color:Black; font-size:50px;"">Agent A","null","","","","",""
"null","","","video-keyboard-response","21","191440","0.0-21.0","6p5gds8r","","","null","","Agent A","scrambled","STIM_SET_5/713328.bmp_pp86_L2_V1.0_veridical_freeview_isoTrue_Hflip_fps144.mp4",""
"null","","","html-keyboard-response","22","192943","0.0-22.0","6p5gds8r","","<span style=""color:Black; font-size:50px;"">Agent B","null","","","","",""
"null","","","video-keyboard-response","23","196019","0.0-23.0","6p5gds8r","","","null","","Agent B","veridical","STIM_SET_2_144/713328.bmp_pp86_L2_V1.0_veridical_freeview_isoTrue_fps144.mp4",""
"","","","call-function","24","196019","0.0-24.0","6p5gds8r","","","","","","","",""
"2131.2849999999744","{""judgement"":1}","[0]","survey-likert","25","198151","0.0-25.0","6p5gds8r","","","","","","","","1"
"2049.6699999999837","{""confidence"":2}","[0]","survey-likert","26","200202","0.0-26.0","6p5gds8r","","","","","","","",""
"","","","call-function","27","200202","0.0-27.0","6p5gds8r","","","","","","","",""
"null","","","html-keyboard-response","28","201706","0.0-28.0","6p5gds8r","","<span style=""color:Black; font-size:50px;"">Agent A","null","","","","",""
"null","","","video-keyboard-response","29","204775","0.0-29.0","6p5gds8r","","","null","","Agent A","scrambled","STIM_SET_5/1159973.bmp_pp98_L1_V1.0_veridical_freeview_isoTrue_Hflip_fps144.mp4",""
"null","","","html-keyboard-response","30","206279","0.0-30.0","6p5gds8r","","<span style=""color:Black; font-size:50px;"">Agent B","null","","","","",""
"null","","","video-keyboard-response","31","209364","0.0-31.0","6p5gds8r","","","null","","Agent B","veridical","STIM_SET_2_144/1159973.bmp_pp98_L1_V1.0_veridical_freeview_isoTrue_fps144.mp4",""
"","","","call-function","32","209365","0.0-32.0","6p5gds8r","","","","","","","",""
"1629.4349999999977","{""judgement"":1}","[0]","survey-likert","33","210995","0.0-33.0","6p5gds8r","","","","","","","","1"
"2220.75","{""confidence"":1}","[0]","survey-likert","34","213217","0.0-34.0","6p5gds8r","","","","","","","",""
"","","","call-function","35","213217","0.0-35.0","6p5gds8r","","","","","","","",""
"null","","","html-keyboard-response","36","214719","0.0-36.0","6p5gds8r","","<span style=""color:Black; font-size:50px;"">Agent A","null","","","","",""
"null","","","video-keyboard-response","37","217796","0.0-37.0","6p5gds8r","","","null","","Agent A","scrambled","STIM_SET_5/713633.bmp_pp58_L1_V1.0_veridical_freeview_isoTrue_Hflip_fps144.mp4",""
"null","","","html-keyboard-response","38","219298","0.0-38.0","6p5gds8r","","<span style=""color:Black; font-size:50px;"">Agent B","null","","","","",""
"null","","","video-keyboard-response","39","222376","0.0-39.0","6p5gds8r","","","null","","Agent B","veridical","STIM_SET_2_144/713633.bmp_pp58_L1_V1.0_veridical_freeview_isoTrue_fps144.mp4",""
"","","","call-function","40","222378","0.0-40.0","6p5gds8r","","","","","","","",""
"2344.1449999999895","{""judgement"":1}","[0]","survey-likert","41","224723","0.0-41.0","6p5gds8r","","","","","","","","1"
"3659.609999999986","{""confidence"":2}","[0]","survey-likert","42","228384","0.0-42.0","6p5gds8r","","","","","","","",""
"","","","call-function","43","228385","0.0-43.0","6p5gds8r","","","","","","","",""
"null","","","html-keyboard-response","44","229886","0.0-44.0","6p5gds8r","","<span style=""color:Black; font-size:50px;"">Agent A","null","","","","",""
"null","","","video-keyboard-response","45","232963","0.0-45.0","6p5gds8r","","","null","","Agent A","veridical","STIM_SET_2_144/1592038.bmp_pp79_L2_V1.0_veridical_freeview_isoTrue_fps144.mp4",""
"null","","","html-keyboard-response","46","234466","0.0-46.0","6p5gds8r","","<span style=""color:Black; font-size:50px;"">Agent B","null","","","","",""
"null","","","video-keyboard-response","47","237539","0.0-47.0","6p5gds8r","","","null","","Agent B","scrambled","STIM_SET_5/1592038.bmp_pp79_L2_V1.0_veridical_freeview_isoTrue_Hflip_fps144.mp4",""
"","","","call-function","48","237539","0.0-48.0","6p5gds8r","","","","","","","",""
"2241.920000000013","{""judgement"":1}","[0]","survey-likert","49","239782","0.0-49.0","6p5gds8r","","","","","","","","0"
"2461.3649999999907","{""confidence"":2}","[0]","survey-likert","50","242245","0.0-50.0","6p5gds8r","","","","","","","",""
"","","","call-function","51","242245","0.0-51.0","6p5gds8r","","","","","","","",""
"null","","","html-keyboard-response","52","243752","0.0-52.0","6p5gds8r","","<span style=""color:Black; font-size:50px;"">Agent A","null","","","","",""
"null","","","video-keyboard-response","53","246812","0.0-53.0","6p5gds8r","","","null","","Agent A","scrambled","STIM_SET_5/286034.bmp_pp69_L3_V1.0_veridical_freeview_isoTrue_Hflip_fps144.mp4",""
"null","","","html-keyboard-response","54","248315","0.0-54.0","6p5gds8r","","<span style=""color:Black; font-size:50px;"">Agent B","null","","","","",""
"null","","","video-keyboard-response","55","251393","0.0-55.0","6p5gds8r","","","null","","Agent B","veridical","STIM_SET_2_144/286034.bmp_pp69_L3_V1.0_veridical_freeview_isoTrue_fps144.mp4",""
"","","","call-function","56","251393","0.0-56.0","6p5gds8r","","","","","","","",""
"1767.1100000000151","{""judgement"":0}","[0]","survey-likert","57","253161","0.0-57.0","6p5gds8r","","","","","","","","1"
"2677.835000000021","{""confidence"":3}","[0]","survey-likert","58","255840","0.0-58.0","6p5gds8r","","","","","","","",""
"","","","call-function","59","255841","0.0-59.0","6p5gds8r","","","","","","","",""
"null","","","html-keyboard-response","60","257342","0.0-60.0","6p5gds8r","","<span style=""color:Black; font-size:50px;"">Agent A","null","","","","",""
"null","","","video-keyboard-response","61","260425","0.0-61.0","6p5gds8r","","","null","","Agent A","veridical","STIM_SET_2_144/713920.bmp_pp76_L1_V1.0_veridical_freeview_isoTrue_fps144.mp4",""
"null","","","html-keyboard-response","62","261932","0.0-62.0","6p5gds8r","","<span style=""color:Black; font-size:50px;"">Agent B","null","","","","",""
"null","","","video-keyboard-response","63","265012","0.0-63.0","6p5gds8r","","","null","","Agent B","scrambled","STIM_SET_5/713920.bmp_pp76_L1_V1.0_veridical_freeview_isoTrue_Hflip_fps144.mp4",""
"","","","call-function","64","265013","0.0-64.0","6p5gds8r","","","","","","","",""
"2889.1399999999558","{""judgement"":1}","[0]","survey-likert","65","267903","0.0-65.0","6p5gds8r","","","","","","","","0"
"3516.2249999999767","{""confidence"":1}","[0]","survey-likert","66","271420","0.0-66.0","6p5gds8r","","","","","","","",""
"","","","call-function","67","271420","0.0-67.0","6p5gds8r","","","","","","","",""
"null","","","html-keyboard-response","68","272925","0.0-68.0","6p5gds8r","","<span style=""color:Black; font-size:50px;"">Agent A","null","","","","",""
"null","","","video-keyboard-response","69","276004","0.0-69.0","6p5gds8r","","","null","","Agent A","veridical","STIM_SET_2_144/1592201.bmp_pp97_L3_V1.0_veridical_freeview_isoTrue_fps144.mp4",""
"null","","","html-keyboard-response","70","277508","0.0-70.0","6p5gds8r","","<span style=""color:Black; font-size:50px;"">Agent B","null","","","","",""
"null","","","video-keyboard-response","71","280592","0.0-71.0","6p5gds8r","","","null","","Agent B","scrambled","STIM_SET_5/1592201.bmp_pp97_L3_V1.0_veridical_freeview_isoTrue_Hflip_fps144.mp4",""
"","","","call-function","72","280592","0.0-72.0","6p5gds8r","","","","","","","",""
"2791.9099999999744","{""judgement"":1}","[0]","survey-likert","73","283385","0.0-73.0","6p5gds8r","","","","","","","","0"
"3277.2600000000093","{""confidence"":2}","[0]","survey-likert","74","286663","0.0-74.0","6p5gds8r","","","","","","","",""
"","","","call-function","75","286663","0.0-75.0","6p5gds8r","","","","","","","",""
"null","","","html-keyboard-response","76","288167","0.0-76.0","6p5gds8r","","<span style=""color:Black; font-size:50px;"">Agent A","null","","","","",""
"null","","","video-keyboard-response","77","291244","0.0-77.0","6p5gds8r","","","null","","Agent A","scrambled","STIM_SET_5/1592568.bmp_pp71_L1_V1.0_veridical_freeview_isoTrue_Hflip_fps144.mp4",""
"null","","","html-keyboard-response","78","292749","0.0-78.0","6p5gds8r","","<span style=""color:Black; font-size:50px;"">Agent B","null","","","","",""
"null","","","video-keyboard-response","79","295839","0.0-79.0","6p5gds8r","","","null","","Agent B","veridical","STIM_SET_2_144/1592568.bmp_pp71_L1_V1.0_veridical_freeview_isoTrue_fps144.mp4",""
"","","","call-function","80","295840","0.0-80.0","6p5gds8r","","","","","","","",""
"2199.7799999999697","{""judgement"":0}","[0]","survey-likert","81","298040","0.0-81.0","6p5gds8r","","","","","","","","1"
"3588.7449999999953","{""confidence"":2}","[0]","survey-likert","82","301630","0.0-82.0","6p5gds8r","","","","","","","",""
"","","","call-function","83","301630","0.0-83.0","6p5gds8r","","","","","","","",""
"null","","","html-keyboard-response","84","303133","0.0-84.0","6p5gds8r","","<span style=""color:Black; font-size:50px;"">Agent A","null","","","","",""
"null","","","video-keyboard-response","85","306196","0.0-85.0","6p5gds8r","","","null","","Agent A","veridical","STIM_SET_2_144/1159325.bmp_pp67_L2_V1.0_veridical_freeview_isoTrue_fps144.mp4",""
"null","","","html-keyboard-response","86","307701","0.0-86.0","6p5gds8r","","<span style=""color:Black; font-size:50px;"">Agent B","null","","","","",""
"null","","","video-keyboard-response","87","310762","0.0-87.0","6p5gds8r","","","null","","Agent B","scrambled","STIM_SET_5/1159325.bmp_pp67_L2_V1.0_veridical_freeview_isoTrue_Hflip_fps144.mp4",""
"","","","call-function","88","310763","0.0-88.0","6p5gds8r","","","","","","","",""
"5128.705000000016","{""judgement"":1}","[0]","survey-likert","89","315893","0.0-89.0","6p5gds8r","","","","","","","","0"
"2447.6050000000396","{""confidence"":2}","[0]","survey-likert","90","318343","0.0-90.0","6p5gds8r","","","","","","","",""
"4162.880000000005","","","instructions","91","322506","0.0-91.0","6p5gds8r","[{""page_index"":0,""viewing_time"":1432.5350000000326},{""page_index"":1,""viewing_time"":1670.164999999979},{""page_index"":2,""viewing_time"":1059.9749999999767}]","","","","","","",""
"3526.6199999999953","","","instructions","92","326033","0.0-92.0","6p5gds8r","[{""page_index"":0,""viewing_time"":793.429999999993},{""page_index"":1,""viewing_time"":1848.0749999999534},{""page_index"":2,""viewing_time"":885.0100000000093}]","","","","","","",""
"","","","call-function","93","326033","0.0-93.0","6p5gds8r","","","","","","","",""
"null","","","html-keyboard-response","94","327535","0.0-94.0","6p5gds8r","","<span style=""color:Black; font-size:50px;"">Agent A","null","","","","",""
"null","","","video-keyboard-response","95","330598","0.0-95.0","6p5gds8r","","","null","","Agent A","veridical","STIM_SET_2_144/713829.bmp_pp60_L3_V1.0_veridical_freeview_isoTrue_fps144.mp4",""
"null","","","html-keyboard-response","96","332101","0.0-96.0","6p5gds8r","","<span style=""color:Black; font-size:50px;"">Agent B","null","","","","",""
"null","","","video-keyboard-response","97","335161","0.0-97.0","6p5gds8r","","","null","","Agent B","scrambled","STIM_SET_5/713829.bmp_pp60_L3_V1.0_veridical_freeview_isoTrue_Hflip_fps144.mp4",""
"","","","call-function","98","335162","0.0-98.0","6p5gds8r","","","","","","","",""
"1668.4649999999674","{""judgement"":0}","[0]","survey-likert","99","336831","0.0-99.0","6p5gds8r","","","","","","","","0"
"1380.085000000021","{""confidence"":2}","[0]","survey-likert","100","338212","0.0-100.0","6p5gds8r","","","","","","","",""
"","","","call-function","101","338213","0.0-101.0","6p5gds8r","","","","","","","",""
"null","","","html-keyboard-response","102","339719","0.0-102.0","6p5gds8r","","<span style=""color:Black; font-size:50px;"">Agent A","null","","","","",""
"null","","","video-keyboard-response","103","342789","0.0-103.0","6p5gds8r","","","null","","Agent A","veridical","STIM_SET_2_144/150277.bmp_pp65_L3_V1.0_veridical_freeview_isoTrue_fps144.mp4",""
"null","","","html-keyboard-response","104","344290","0.0-104.0","6p5gds8r","","<span style=""color:Black; font-size:50px;"">Agent B","null","","","","",""
"null","","","video-keyboard-response","105","347386","0.0-105.0","6p5gds8r","","","null","","Agent B","scrambled","STIM_SET_5/150277.bmp_pp65_L3_V1.0_veridical_freeview_isoTrue_Hflip_fps144.mp4",""
"","","","call-function","106","347386","0.0-106.0","6p5gds8r","","","","","","","",""
"1932.1350000000093","{""judgement"":1}","[0]","survey-likert","107","349319","0.0-107.0","6p5gds8r","","","","","","","","0"
"2875.6450000000186","{""confidence"":1}","[0]","survey-likert","108","352196","0.0-108.0","6p5gds8r","","","","","","","",""
"","","","call-function","109","352196","0.0-109.0","6p5gds8r","","","","","","","",""
"null","","","html-keyboard-response","110","353698","0.0-110.0","6p5gds8r","","<span style=""color:Black; font-size:50px;"">Agent A","null","","","","",""
"null","","","video-keyboard-response","111","356788","0.0-111.0","6p5gds8r","","","null","","Agent A","scrambled","STIM_SET_5/713790.bmp_pp100_L3_V1_veridical_freeview_isoTrue_Hflip_fps144.mp4",""
"null","","","html-keyboard-response","112","358295","0.0-112.0","6p5gds8r","","<span style=""color:Black; font-size:50px;"">Agent B","null","","","","",""
"null","","","video-keyboard-response","113","361380","0.0-113.0","6p5gds8r","","","null","","Agent B","veridical","STIM_SET_2_144/713790.bmp_pp100_L3_V1_veridical_freeview_isoTrue_fps144.mp4",""
"","","","call-function","114","361380","0.0-114.0","6p5gds8r","","","","","","","",""
"2612.8150000000023","{""judgement"":0}","[0]","survey-likert","115","363994","0.0-115.0","6p5gds8r","","","","","","","","1"
"2785.579999999958","{""confidence"":1}","[0]","survey-likert","116","366780","0.0-116.0","6p5gds8r","","","","","","","",""
"","","","call-function","117","366781","0.0-117.0","6p5gds8r","","","","","","","",""
"null","","","html-keyboard-response","118","368282","0.0-118.0","6p5gds8r","","<span style=""color:Black; font-size:50px;"">Agent A","null","","","","",""
"null","","","video-keyboard-response","119","371378","0.0-119.0","6p5gds8r","","","null","","Agent A","veridical","STIM_SET_2_144/498025.bmp_pp81_L1_V1.0_veridical_freeview_isoTrue_fps144.mp4",""
"null","","","html-keyboard-response","120","372883","0.0-120.0","6p5gds8r","","<span style=""color:Black; font-size:50px;"">Agent B","null","","","","",""
"null","","","video-keyboard-response","121","375967","0.0-121.0","6p5gds8r","","","null","","Agent B","scrambled","STIM_SET_5/498025.bmp_pp81_L1_V1.0_veridical_freeview_isoTrue_Hflip_fps144.mp4",""
"","","","call-function","122","375967","0.0-122.0","6p5gds8r","","","","","","","",""
"1801.4799999999814","{""judgement"":0}","[0]","survey-likert","123","377769","0.0-123.0","6p5gds8r","","","","","","","","0"
"2579.335000000021","{""confidence"":1}","[0]","survey-likert","124","380350","0.0-124.0","6p5gds8r","","","","","","","",""
"","","","call-function","125","380351","0.0-125.0","6p5gds8r","","","","","","","",""
"null","","","html-keyboard-response","126","381852","0.0-126.0","6p5gds8r","","<span style=""color:Black; font-size:50px;"">Agent A","null","","","","",""
"null","","","video-keyboard-response","127","384927","0.0-127.0","6p5gds8r","","","null","","Agent A","scrambled","STIM_SET_5/713689.bmp_pp153_L3_V1.0_veridical_freeview_isoTrue_Hflip_fps144.mp4",""
"null","","","html-keyboard-response","128","386430","0.0-128.0","6p5gds8r","","<span style=""color:Black; font-size:50px;"">Agent B","null","","","","",""
"null","","","video-keyboard-response","129","389504","0.0-129.0","6p5gds8r","","","null","","Agent B","veridical","STIM_SET_2_144/713689.bmp_pp153_L3_V1.0_veridical_freeview_isoTrue_fps144.mp4",""
"","","","call-function","130","389505","0.0-130.0","6p5gds8r","","","","","","","",""
"3245.1450000000186","{""judgement"":0}","[0]","survey-likert","131","392751","0.0-131.0","6p5gds8r","","","","","","","","1"
"3919.4199999999837","{""confidence"":1}","[0]","survey-likert","132","396672","0.0-132.0","6p5gds8r","","","","","","","",""
"","","","call-function","133","396672","0.0-133.0","6p5gds8r","","","","","","","",""
"null","","","html-keyboard-response","134","398176","0.0-134.0","6p5gds8r","","<span style=""color:Black; font-size:50px;"">Agent A","null","","","","",""
"null","","","video-keyboard-response","135","401244","0.0-135.0","6p5gds8r","","","null","","Agent A","veridical","STIM_SET_2_144/1159819.bmp_pp151_L1_V1.0_veridical_freeview_isoTrue_fps144.mp4",""
"null","","","html-keyboard-response","136","402751","0.0-136.0","6p5gds8r","","<span style=""color:Black; font-size:50px;"">Agent B","null","","","","",""
"null","","","video-keyboard-response","137","405821","0.0-137.0","6p5gds8r","","","null","","Agent B","scrambled","STIM_SET_5/1159819.bmp_pp151_L1_V1.0_veridical_freeview_isoTrue_Hflip_fps144.mp4",""
"","","","call-function","138","405822","0.0-138.0","6p5gds8r","","","","","","","",""
"3869.335000000021","{""judgement"":0}","[0]","survey-likert","139","409692","0.0-139.0","6p5gds8r","","","","","","","","0"
"3055.9249999999884","{""confidence"":1}","[0]","survey-likert","140","412750","0.0-140.0","6p5gds8r","","","","","","","",""
"","","","call-function","141","412750","0.0-141.0","6p5gds8r","","","","","","","",""
"null","","","html-keyboard-response","142","414252","0.0-142.0","6p5gds8r","","<span style=""color:Black; font-size:50px;"">Agent A","null","","","","",""
"null","","","video-keyboard-response","143","417320","0.0-143.0","6p5gds8r","","","null","","Agent A","veridical","STIM_SET_2_144/1592921.bmp_pp69_L3_V1.0_veridical_freeview_isoTrue_fps144.mp4",""
"null","","","html-keyboard-response","144","418826","0.0-144.0","6p5gds8r","","<span style=""color:Black; font-size:50px;"">Agent B","null","","","","",""
"null","","","video-keyboard-response","145","421894","0.0-145.0","6p5gds8r","","","null","","Agent B","scrambled","STIM_SET_5/1592921.bmp_pp69_L3_V1.0_veridical_freeview_isoTrue_Hflip_fps144.mp4",""
"","","","call-function","146","421895","0.0-146.0","6p5gds8r","","","","","","","",""
"3678.390000000014","{""judgement"":1}","[0]","survey-likert","147","425574","0.0-147.0","6p5gds8r","","","","","","","","0"
"2839.125","{""confidence"":1}","[0]","survey-likert","148","428415","0.0-148.0","6p5gds8r","","","","","","","",""
"","","","call-function","149","428415","0.0-149.0","6p5gds8r","","","","","","","",""
"null","","","html-keyboard-response","150","429918","0.0-150.0","6p5gds8r","","<span style=""color:Black; font-size:50px;"">Agent A","null","","","","",""
"null","","","video-keyboard-response","151","432979","0.0-151.0","6p5gds8r","","","null","","Agent A","veridical","STIM_SET_2_144/285932.bmp_pp64_L1_V1.0_veridical_freeview_isoTrue_fps144.mp4",""
"null","","","html-keyboard-response","152","434482","0.0-152.0","6p5gds8r","","<span style=""color:Black; font-size:50px;"">Agent B","null","","","","",""
"null","","","video-keyboard-response","153","437541","0.0-153.0","6p5gds8r","","","null","","Agent B","scrambled","STIM_SET_5/285932.bmp_pp64_L1_V1.0_veridical_freeview_isoTrue_Hflip_fps144.mp4",""
"","","","call-function","154","437541","0.0-154.0","6p5gds8r","","","","","","","",""
"2474.085000000021","{""judgement"":0}","[0]","survey-likert","155","440016","0.0-155.0","6p5gds8r","","","","","","","","0"
"1611.704999999958","{""confidence"":1}","[0]","survey-likert","156","441629","0.0-156.0","6p5gds8r","","","","","","","",""
"","","","call-function","157","441629","0.0-157.0","6p5gds8r","","","","","","","",""
"null","","","html-keyboard-response","158","443131","0.0-158.0","6p5gds8r","","<span style=""color:Black; font-size:50px;"">Agent A","null","","","","",""
"null","","","video-keyboard-response","159","446227","0.0-159.0","6p5gds8r","","","null","","Agent A","veridical","STIM_SET_2_144/1160189.bmp_pp64_L1_V1.0_veridical_freeview_isoTrue_fps144.mp4",""
"null","","","html-keyboard-response","160","447728","0.0-160.0","6p5gds8r","","<span style=""color:Black; font-size:50px;"">Agent B","null","","","","",""
"null","","","video-keyboard-response","161","450811","0.0-161.0","6p5gds8r","","","null","","Agent B","scrambled","STIM_SET_5/1160189.bmp_pp64_L1_V1.0_veridical_freeview_isoTrue_Hflip_fps144.mp4",""
"","","","call-function","162","450811","0.0-162.0","6p5gds8r","","","","","","","",""
"1479.3349999999627","{""judgement"":0}","[0]","survey-likert","163","452291","0.0-163.0","6p5gds8r","","","","","","","","0"
"2231.2099999999627","{""confidence"":1}","[0]","survey-likert","164","454523","0.0-164.0","6p5gds8r","","","","","","","",""
"","","","call-function","165","454524","0.0-165.0","6p5gds8r","","","","","","","",""
"null","","","html-keyboard-response","166","456030","0.0-166.0","6p5gds8r","","<span style=""color:Black; font-size:50px;"">Agent A","null","","","","",""
"null","","","video-keyboard-response","167","459113","0.0-167.0","6p5gds8r","","","null","","Agent A","veridical","STIM_SET_2_144/1159329.bmp_pp61_L2_V1.0_veridical_freeview_isoTrue_fps144.mp4",""
"null","","","html-keyboard-response","168","460617","0.0-168.0","6p5gds8r","","<span style=""color:Black; font-size:50px;"">Agent B","null","","","","",""
"null","","","video-keyboard-response","169","463697","0.0-169.0","6p5gds8r","","","null","","Agent B","scrambled","STIM_SET_5/1159329.bmp_pp61_L2_V1.0_veridical_freeview_isoTrue_Hflip_fps144.mp4",""
"","","","call-function","170","463697","0.0-170.0","6p5gds8r","","","","","","","",""
"2732.3150000000023","{""judgement"":1}","[0]","survey-likert","171","466430","0.0-171.0","6p5gds8r","","","","","","","","0"
"2707.7550000000047","{""confidence"":1}","[0]","survey-likert","172","469139","0.0-172.0","6p5gds8r","","","","","","","",""
"3076.289999999979","","","instructions","173","472216","0.0-173.0","6p5gds8r","[{""page_index"":0,""viewing_time"":1098.320000000007},{""page_index"":1,""viewing_time"":1119.8950000000186},{""page_index"":2,""viewing_time"":857.8499999999767}]","","","","","","",""
"3487.710000000021","","","instructions","174","475704","0.0-174.0","6p5gds8r","[{""page_index"":0,""viewing_time"":1030.905000000028},{""page_index"":1,""viewing_time"":1530.0200000000186},{""page_index"":2,""viewing_time"":926.6749999999884}]","","","","","","",""
"","","","call-function","175","475705","0.0-175.0","6p5gds8r","","","","","","","",""
"null","","","html-keyboard-response","176","477206","0.0-176.0","6p5gds8r","","<span style=""color:Black; font-size:50px;"">Agent A","null","","","","",""
"null","","","video-keyboard-response","177","480296","0.0-177.0","6p5gds8r","","","null","","Agent A","scrambled","STIM_SET_5/285959.bmp_pp93_L1_V1.0_veridical_freeview_isoTrue_Hflip_fps144.mp4",""
"null","","","html-keyboard-response","178","481800","0.0-178.0","6p5gds8r","","<span style=""color:Black; font-size:50px;"">Agent B","null","","","","",""
"null","","","video-keyboard-response","179","484878","0.0-179.0","6p5gds8r","","","null","","Agent B","veridical","STIM_SET_2_144/285959.bmp_pp93_L1_V1.0_veridical_freeview_isoTrue_fps144.mp4",""
"","","","call-function","180","484879","0.0-180.0","6p5gds8r","","","","","","","",""
"2544.6599999999744","{""judgement"":0}","[0]","survey-likert","181","487424","0.0-181.0","6p5gds8r","","","","","","","","1"
"1433.4500000000116","{""confidence"":1}","[0]","survey-likert","182","488859","0.0-182.0","6p5gds8r","","","","","","","",""
"","","","call-function","183","488859","0.0-183.0","6p5gds8r","","","","","","","",""
"null","","","html-keyboard-response","184","490361","0.0-184.0","6p5gds8r","","<span style=""color:Black; font-size:50px;"">Agent A","null","","","","",""
"null","","","video-keyboard-response","185","493436","0.0-185.0","6p5gds8r","","","null","","Agent A","scrambled","STIM_SET_5/107909.bmp_pp95_L2_V1.0_veridical_freeview_isoTrue_Hflip_fps144.mp4",""
"null","","","html-keyboard-response","186","494941","0.0-186.0","6p5gds8r","","<span style=""color:Black; font-size:50px;"">Agent B","null","","","","",""
"null","","","video-keyboard-response","187","498017","0.0-187.0","6p5gds8r","","","null","","Agent B","veridical","STIM_SET_2_144/107909.bmp_pp95_L2_V1.0_veridical_freeview_isoTrue_fps144.mp4",""
"","","","call-function","188","498018","0.0-188.0","6p5gds8r","","","","","","","",""
"1895.3800000000047","{""judgement"":1}","[0]","survey-likert","189","499914","0.0-189.0","6p5gds8r","","","","","","","","1"
"2972.179999999993","{""confidence"":1}","[0]","survey-likert","190","502887","0.0-190.0","6p5gds8r","","","","","","","",""
"","","","call-function","191","502888","0.0-191.0","6p5gds8r","","","","","","","",""
"null","","","html-keyboard-response","192","504392","0.0-192.0","6p5gds8r","","<span style=""color:Black; font-size:50px;"">Agent A","null","","","","",""
"null","","","video-keyboard-response","193","507459","0.0-193.0","6p5gds8r","","","null","","Agent A","scrambled","STIM_SET_5/1592350.bmp_pp55_L3_V1.0_veridical_freeview_isoTrue_Hflip_fps144.mp4",""
"null","","","html-keyboard-response","194","508960","0.0-194.0","6p5gds8r","","<span style=""color:Black; font-size:50px;"">Agent B","null","","","","",""
"null","","","video-keyboard-response","195","512055","0.0-195.0","6p5gds8r","","","null","","Agent B","veridical","STIM_SET_2_144/1592350.bmp_pp55_L3_V1.0_veridical_freeview_isoTrue_fps144.mp4",""
"","","","call-function","196","512056","0.0-196.0","6p5gds8r","","","","","","","",""
"2348.570000000007","{""judgement"":0}","[0]","survey-likert","197","514406","0.0-197.0","6p5gds8r","","","","","","","","1"
"1410.695000000007","{""confidence"":1}","[0]","survey-likert","198","515818","0.0-198.0","6p5gds8r","","","","","","","",""
"","","","call-function","199","515819","0.0-199.0","6p5gds8r","","","","","","","",""
"null","","","html-keyboard-response","200","517322","0.0-200.0","6p5gds8r","","<span style=""color:Black; font-size:50px;"">Agent A","null","","","","",""
"null","","","video-keyboard-response","201","520391","0.0-201.0","6p5gds8r","","","null","","Agent A","scrambled","STIM_SET_5/498396.bmp_pp99_L2_V1.0_veridical_freeview_isoTrue_Hflip_fps144.mp4",""
"null","","","html-keyboard-response","202","521892","0.0-202.0","6p5gds8r","","<span style=""color:Black; font-size:50px;"">Agent B","null","","","","",""
"null","","","video-keyboard-response","203","524960","0.0-203.0","6p5gds8r","","","null","","Agent B","veridical","STIM_SET_2_144/498396.bmp_pp99_L2_V1.0_veridical_freeview_isoTrue_fps144.mp4",""
"","","","call-function","204","524961","0.0-204.0","6p5gds8r","","","","","","","",""
"1940.5050000000047","{""judgement"":0}","[0]","survey-likert","205","526902","0.0-205.0","6p5gds8r","","","","","","","","1"
"1658.420000000042","{""confidence"":1}","[0]","survey-likert","206","528562","0.0-206.0","6p5gds8r","","","","","","","",""
"","","","call-function","207","528563","0.0-207.0","6p5gds8r","","","","","","","",""
"null","","","html-keyboard-response","208","530064","0.0-208.0","6p5gds8r","","<span style=""color:Black; font-size:50px;"">Agent A","null","","","","",""
"null","","","video-keyboard-response","209","533124","0.0-209.0","6p5gds8r","","","null","","Agent A","scrambled","STIM_SET_5/1592017.bmp_pp154_L1_V1.0_veridical_freeview_isoTrue_Hflip_fps144.mp4",""
"null","","","html-keyboard-response","210","534627","0.0-210.0","6p5gds8r","","<span style=""color:Black; font-size:50px;"">Agent B","null","","","","",""
"null","","","video-keyboard-response","211","537689","0.0-211.0","6p5gds8r","","","null","","Agent B","veridical","STIM_SET_2_144/1592017.bmp_pp154_L1_V1.0_veridical_freeview_isoTrue_fps144.mp4",""
"","","","call-function","212","537689","0.0-212.0","6p5gds8r","","","","","","","",""
"2034.9649999999674","{""judgement"":1}","[0]","survey-likert","213","539725","0.0-213.0","6p5gds8r","","","","","","","","1"
"2222.0950000000885","{""confidence"":1}","[0]","survey-likert","214","541948","0.0-214.0","6p5gds8r","","","","","","","",""
"","","","call-function","215","541948","0.0-215.0","6p5gds8r","","","","","","","",""
"null","","","html-keyboard-response","216","543452","0.0-216.0","6p5gds8r","","<span style=""color:Black; font-size:50px;"">Agent A","null","","","","",""
"null","","","video-keyboard-response","217","546534","0.0-217.0","6p5gds8r","","","null","","Agent A","veridical","STIM_SET_2_144/1592044.bmp_pp94_L2_V1.0_veridical_freeview_isoTrue_fps144.mp4",""
"null","","","html-keyboard-response","218","548041","0.0-218.0","6p5gds8r","","<span style=""color:Black; font-size:50px;"">Agent B","null","","","","",""
"null","","","video-keyboard-response","219","551113","0.0-219.0","6p5gds8r","","","null","","Agent B","scrambled","STIM_SET_5/1592044.bmp_pp94_L2_V1.0_veridical_freeview_isoTrue_Hflip_fps144.mp4",""
"","","","call-function","220","551114","0.0-220.0","6p5gds8r","","","","","","","",""
"1426.7350000001024","{""judgement"":0}","[0]","survey-likert","221","552541","0.0-221.0","6p5gds8r","","","","","","","","0"
"2657.694999999949","{""confidence"":1}","[0]","survey-likert","222","555200","0.0-222.0","6p5gds8r","","","","","","","",""
"","","","call-function","223","555201","0.0-223.0","6p5gds8r","","","","","","","",""
"null","","","html-keyboard-response","224","556703","0.0-224.0","6p5gds8r","","<span style=""color:Black; font-size:50px;"">Agent A","null","","","","",""
"null","","","video-keyboard-response","225","559792","0.0-225.0","6p5gds8r","","","null","","Agent A","scrambled","STIM_SET_5/1159592.bmp_pp91_L3_V1.0_veridical_freeview_isoTrue_Hflip_fps144.mp4",""
"null","","","html-keyboard-response","226","561296","0.0-226.0","6p5gds8r","","<span style=""color:Black; font-size:50px;"">Agent B","null","","","","",""
"null","","","video-keyboard-response","227","564382","0.0-227.0","6p5gds8r","","","null","","Agent B","veridical","STIM_SET_2_144/1159592.bmp_pp91_L3_V1.0_veridical_freeview_isoTrue_fps144.mp4",""
"","","","call-function","228","564382","0.0-228.0","6p5gds8r","","","","","","","",""
"3390.655000000028","{""judgement"":0}","[0]","survey-likert","229","567774","0.0-229.0","6p5gds8r","","","","","","","","1"
"1744.2550000000047","{""confidence"":0}","[0]","survey-likert","230","569519","0.0-230.0","6p5gds8r","","","","","","","",""
"","","","call-function","231","569519","0.0-231.0","6p5gds8r","","","","","","","",""
"null","","","html-keyboard-response","232","571021","0.0-232.0","6p5gds8r","","<span style=""color:Black; font-size:50px;"">Agent A","null","","","","",""
"null","","","video-keyboard-response","233","574099","0.0-233.0","6p5gds8r","","","null","","Agent A","veridical","STIM_SET_2_144/713788.bmp_pp52_L1_V1.0_veridical_freeview_isoTrue_fps144.mp4",""
"null","","","html-keyboard-response","234","575601","0.0-234.0","6p5gds8r","","<span style=""color:Black; font-size:50px;"">Agent B","null","","","","",""
"null","","","video-keyboard-response","235","578681","0.0-235.0","6p5gds8r","","","null","","Agent B","scrambled","STIM_SET_5/713788.bmp_pp52_L1_V1.0_veridical_freeview_isoTrue_Hflip_fps144.mp4",""
"","","","call-function","236","578682","0.0-236.0","6p5gds8r","","","","","","","",""
"2997.5100000000093","{""judgement"":0}","[0]","survey-likert","237","581680","0.0-237.0","6p5gds8r","","","","","","","","0"
"1618.2999999999302","{""confidence"":0}","[0]","survey-likert","238","583299","0.0-238.0","6p5gds8r","","","","","","","",""
"","","","call-function","239","583300","0.0-239.0","6p5gds8r","","","","","","","",""
"null","","","html-keyboard-response","240","584805","0.0-240.0","6p5gds8r","","<span style=""color:Black; font-size:50px;"">Agent A","null","","","","",""
"null","","","video-keyboard-response","241","587868","0.0-241.0","6p5gds8r","","","null","","Agent A","scrambled","STIM_SET_5/1159392.bmp_pp96_L2_V1.0_veridical_freeview_isoTrue_Hflip_fps144.mp4",""
"null","","","html-keyboard-response","242","589369","0.0-242.0","6p5gds8r","","<span style=""color:Black; font-size:50px;"">Agent B","null","","","","",""
"null","","","video-keyboard-response","243","592428","0.0-243.0","6p5gds8r","","","null","","Agent B","veridical","STIM_SET_2_144/1159392.bmp_pp96_L2_V1.0_veridical_freeview_isoTrue_fps144.mp4",""
"","","","call-function","244","592428","0.0-244.0","6p5gds8r","","","","","","","",""
"1830.2899999999208","{""judgement"":1}","[0]","survey-likert","245","594259","0.0-245.0","6p5gds8r","","","","","","","","1"
"1675.1049999999814","{""confidence"":0}","[0]","survey-likert","246","595935","0.0-246.0","6p5gds8r","","","","","","","",""
"","","","call-function","247","595936","0.0-247.0","6p5gds8r","","","","","","","",""
"null","","","html-keyboard-response","248","597438","0.0-248.0","6p5gds8r","","<span style=""color:Black; font-size:50px;"">Agent A","null","","","","",""
"null","","","video-keyboard-response","249","600505","0.0-249.0","6p5gds8r","","","null","","Agent A","veridical","STIM_SET_2_144/1159956.bmp_pp59_L3_V1.0_veridical_freeview_isoTrue_fps144.mp4",""
"null","","","html-keyboard-response","250","602011","0.0-250.0","6p5gds8r","","<span style=""color:Black; font-size:50px;"">Agent B","null","","","","",""
"null","","","video-keyboard-response","251","605081","0.0-251.0","6p5gds8r","","","null","","Agent B","scrambled","STIM_SET_5/1159956.bmp_pp59_L3_V1.0_veridical_freeview_isoTrue_Hflip_fps144.mp4",""
"","","","call-function","252","605082","0.0-252.0","6p5gds8r","","","","","","","",""
"2250.829999999958","{""judgement"":0}","[0]","survey-likert","253","607334","0.0-253.0","6p5gds8r","","","","","","","","0"
"1590.545000000042","{""confidence"":0}","[0]","survey-likert","254","608927","0.0-254.0","6p5gds8r","","","","","","","",""
"32757.295000000042","","","instructions","255","641685","0.0-255.0","6p5gds8r","[{""page_index"":0,""viewing_time"":1796.8850000000093},{""page_index"":1,""viewing_time"":30417.119999999995},{""page_index"":2,""viewing_time"":543.0649999999441}]","","","","","","",""
"1705.3800000000047","","","instructions","256","643391","0.0-256.0","6p5gds8r","[{""page_index"":0,""viewing_time"":352.10999999998603},{""page_index"":1,""viewing_time"":862.9050000000279},{""page_index"":2,""viewing_time"":490.25500000000466}]","","","","","","",""
"","","","call-function","257","643391","0.0-257.0","6p5gds8r","","","","","","","",""
"null","","","html-keyboard-response","258","644892","0.0-258.0","6p5gds8r","","<span style=""color:Black; font-size:50px;"">Agent A","null","","","","",""
"null","","","video-keyboard-response","259","647961","0.0-259.0","6p5gds8r","","","null","","Agent A","veridical","STIM_SET_2_144/1592747.bmp_pp53_L2_V1.0_veridical_freeview_isoTrue_fps144.mp4",""
"null","","","html-keyboard-response","260","649467","0.0-260.0","6p5gds8r","","<span style=""color:Black; font-size:50px;"">Agent B","null","","","","",""
"null","","","video-keyboard-response","261","652539","0.0-261.0","6p5gds8r","","","null","","Agent B","scrambled","STIM_SET_5/1592747.bmp_pp53_L2_V1.0_veridical_freeview_isoTrue_Hflip_fps144.mp4",""
"","","","call-function","262","652539","0.0-262.0","6p5gds8r","","","","","","","",""
"3569.3850000000093","{""judgement"":0}","[0]","survey-likert","263","656110","0.0-263.0","6p5gds8r","","","","","","","","0"
"3107.6300000000047","{""confidence"":0}","[0]","survey-likert","264","659219","0.0-264.0","6p5gds8r","","","","","","","",""
"","","","call-function","265","659219","0.0-265.0","6p5gds8r","","","","","","","",""
"null","","","html-keyboard-response","266","660724","0.0-266.0","6p5gds8r","","<span style=""color:Black; font-size:50px;"">Agent A","null","","","","",""
"null","","","video-keyboard-response","267","663793","0.0-267.0","6p5gds8r","","","null","","Agent A","veridical","STIM_SET_2_144/1592530.bmp_pp75_L1_V1.0_veridical_freeview_isoTrue_fps144.mp4",""
"null","","","html-keyboard-response","268","665295","0.0-268.0","6p5gds8r","","<span style=""color:Black; font-size:50px;"">Agent B","null","","","","",""
"null","","","video-keyboard-response","269","668361","0.0-269.0","6p5gds8r","","","null","","Agent B","scrambled","STIM_SET_5/1592530.bmp_pp75_L1_V1.0_veridical_freeview_isoTrue_Hflip_fps144.mp4",""
"","","","call-function","270","668362","0.0-270.0","6p5gds8r","","","","","","","",""
"2979.92499999993","{""judgement"":0}","[0]","survey-likert","271","671343","0.0-271.0","6p5gds8r","","","","","","","","0"
"1771.7399999999907","{""confidence"":0}","[0]","survey-likert","272","673116","0.0-272.0","6p5gds8r","","","","","","","",""
"","","","call-function","273","673116","0.0-273.0","6p5gds8r","","","","","","","",""
"null","","","html-keyboard-response","274","674618","0.0-274.0","6p5gds8r","","<span style=""color:Black; font-size:50px;"">Agent A","null","","","","",""
"null","","","video-keyboard-response","275","677709","0.0-275.0","6p5gds8r","","","null","","Agent A","scrambled","STIM_SET_5/61513.bmp_pp75_L1_V1.0_veridical_freeview_isoTrue_Hflip_fps144.mp4",""
"null","","","html-keyboard-response","276","679215","0.0-276.0","6p5gds8r","","<span style=""color:Black; font-size:50px;"">Agent B","null","","","","",""
"null","","","video-keyboard-response","277","682295","0.0-277.0","6p5gds8r","","","null","","Agent B","veridical","STIM_SET_2_144/61513.bmp_pp75_L1_V1.0_veridical_freeview_isoTrue_fps144.mp4",""
"","","","call-function","278","682295","0.0-278.0","6p5gds8r","","","","","","","",""
"1613.7750000000233","{""judgement"":1}","[0]","survey-likert","279","683909","0.0-279.0","6p5gds8r","","","","","","","","1"
"2001.8200000000652","{""confidence"":0}","[0]","survey-likert","280","685913","0.0-280.0","6p5gds8r","","","","","","","",""
"","","","call-function","281","685913","0.0-281.0","6p5gds8r","","","","","","","",""
"null","","","html-keyboard-response","282","687415","0.0-282.0","6p5gds8r","","<span style=""color:Black; font-size:50px;"">Agent A","null","","","","",""
"null","","","video-keyboard-response","283","690500","0.0-283.0","6p5gds8r","","","null","","Agent A","veridical","STIM_SET_2_144/498261.bmp_pp84_L3_V1.0_veridical_freeview_isoTrue_fps144.mp4",""
"null","","","html-keyboard-response","284","692005","0.0-284.0","6p5gds8r","","<span style=""color:Black; font-size:50px;"">Agent B","null","","","","",""
"null","","","video-keyboard-response","285","695083","0.0-285.0","6p5gds8r","","","null","","Agent B","scrambled","STIM_SET_5/498261.bmp_pp84_L3_V1.0_veridical_freeview_isoTrue_Hflip_fps144.mp4",""
"","","","call-function","286","695083","0.0-286.0","6p5gds8r","","","","","","","",""
"4695.365000000107","{""judgement"":0}","[0]","survey-likert","287","699779","0.0-287.0","6p5gds8r","","","","","","","","0"
"1985.2099999999627","{""confidence"":0}","[0]","survey-likert","288","701766","0.0-288.0","6p5gds8r","","","","","","","",""
"","","","call-function","289","701766","0.0-289.0","6p5gds8r","","","","","","","",""
"null","","","html-keyboard-response","290","703271","0.0-290.0","6p5gds8r","","<span style=""color:Black; font-size:50px;"">Agent A","null","","","","",""
"null","","","video-keyboard-response","291","706352","0.0-291.0","6p5gds8r","","","null","","Agent A","scrambled","STIM_SET_5/1159508.bmp_pp151_L1_V1.0_veridical_freeview_isoTrue_Hflip_fps144.mp4",""
"null","","","html-keyboard-response","292","707854","0.0-292.0","6p5gds8r","","<span style=""color:Black; font-size:50px;"">Agent B","null","","","","",""
"null","","","video-keyboard-response","293","710939","0.0-293.0","6p5gds8r","","","null","","Agent B","veridical","STIM_SET_2_144/1159508.bmp_pp151_L1_V1.0_veridical_freeview_isoTrue_fps144.mp4",""
"","","","call-function","294","710940","0.0-294.0","6p5gds8r","","","","","","","",""
"2360.7700000000186","{""judgement"":1}","[0]","survey-likert","295","713301","0.0-295.0","6p5gds8r","","","","","","","","1"
"1817.6800000000512","{""confidence"":0}","[0]","survey-likert","296","715120","0.0-296.0","6p5gds8r","","","","","","","",""
"","","","call-function","297","715121","0.0-297.0","6p5gds8r","","","","","","","",""
"null","","","html-keyboard-response","298","716625","0.0-298.0","6p5gds8r","","<span style=""color:Black; font-size:50px;"">Agent A","null","","","","",""
"null","","","video-keyboard-response","299","719700","0.0-299.0","6p5gds8r","","","null","","Agent A","scrambled","STIM_SET_5/498372.bmp_pp95_L2_V1_veridical_freeview_isoTrue_Hflip_fps144.mp4",""
"null","","","html-keyboard-response","300","721202","0.0-300.0","6p5gds8r","","<span style=""color:Black; font-size:50px;"">Agent B","null","","","","",""
"null","","","video-keyboard-response","301","724282","0.0-301.0","6p5gds8r","","","null","","Agent B","veridical","STIM_SET_2_144/498372.bmp_pp95_L2_V1_veridical_freeview_isoTrue_fps144.mp4",""
"","","","call-function","302","724284","0.0-302.0","6p5gds8r","","","","","","","",""
"1784.3349999999627","{""judgement"":0}","[0]","survey-likert","303","726070","0.0-303.0","6p5gds8r","","","","","","","","1"
"1319.6450000000186","{""confidence"":0}","[0]","survey-likert","304","727390","0.0-304.0","6p5gds8r","","","","","","","",""
"","","","call-function","305","727391","0.0-305.0","6p5gds8r","","","","","","","",""
"null","","","html-keyboard-response","306","728892","0.0-306.0","6p5gds8r","","<span style=""color:Black; font-size:50px;"">Agent A","null","","","","",""
"null","","","video-keyboard-response","307","731975","0.0-307.0","6p5gds8r","","","null","","Agent A","scrambled","STIM_SET_5/285946.bmp_pp79_L2_V1.0_veridical_freeview_isoTrue_Hflip_fps144.mp4",""
"null","","","html-keyboard-response","308","733481","0.0-308.0","6p5gds8r","","<span style=""color:Black; font-size:50px;"">Agent B","null","","","","",""
"null","","","video-keyboard-response","309","736560","0.0-309.0","6p5gds8r","","","null","","Agent B","veridical","STIM_SET_2_144/285946.bmp_pp79_L2_V1.0_veridical_freeview_isoTrue_fps144.mp4",""
"","","","call-function","310","736560","0.0-310.0","6p5gds8r","","","","","","","",""
"2171.460000000079","{""judgement"":1}","[0]","survey-likert","311","738733","0.0-311.0","6p5gds8r","","","","","","","","1"
"1579.7249999999767","{""confidence"":0}","[0]","survey-likert","312","740314","0.0-312.0","6p5gds8r","","","","","","","",""
"","","","call-function","313","740314","0.0-313.0","6p5gds8r","","","","","","","",""
"null","","","html-keyboard-response","314","741818","0.0-314.0","6p5gds8r","","<span style=""color:Black; font-size:50px;"">Agent A","null","","","","",""
"null","","","video-keyboard-response","315","744879","0.0-315.0","6p5gds8r","","","null","","Agent A","scrambled","STIM_SET_5/1159427.bmp_pp98_L1_V1.0_veridical_freeview_isoTrue_Hflip_fps144.mp4",""
"null","","","html-keyboard-response","316","746386","0.0-316.0","6p5gds8r","","<span style=""color:Black; font-size:50px;"">Agent B","null","","","","",""
"null","","","video-keyboard-response","317","749474","0.0-317.0","6p5gds8r","","","null","","Agent B","veridical","STIM_SET_2_144/1159427.bmp_pp98_L1_V1.0_veridical_freeview_isoTrue_fps144.mp4",""
"","","","call-function","318","749475","0.0-318.0","6p5gds8r","","","","","","","",""
"2380.7299999999814","{""judgement"":1}","[0]","survey-likert","319","751856","0.0-319.0","6p5gds8r","","","","","","","","1"
"3638.07500000007","{""confidence"":0}","[0]","survey-likert","320","755495","0.0-320.0","6p5gds8r","","","","","","","",""
"","","","call-function","321","755496","0.0-321.0","6p5gds8r","","","","","","","",""
"null","","","html-keyboard-response","322","757000","0.0-322.0","6p5gds8r","","<span style=""color:Black; font-size:50px;"">Agent A","null","","","","",""
"null","","","video-keyboard-response","323","760084","0.0-323.0","6p5gds8r","","","null","","Agent A","veridical","STIM_SET_2_144/1592289.bmp_pp92_L3_V1.0_veridical_freeview_isoTrue_fps144.mp4",""
"null","","","html-keyboard-response","324","761591","0.0-324.0","6p5gds8r","","<span style=""color:Black; font-size:50px;"">Agent B","null","","","","",""
"null","","","video-keyboard-response","325","764673","0.0-325.0","6p5gds8r","","","null","","Agent B","scrambled","STIM_SET_5/1592289.bmp_pp92_L3_V1.0_veridical_freeview_isoTrue_Hflip_fps144.mp4",""
"","","","call-function","326","764673","0.0-326.0","6p5gds8r","","","","","","","",""
"2017.5349999999162","{""judgement"":0}","[0]","survey-likert","327","766692","0.0-327.0","6p5gds8r","","","","","","","","0"
"2507.159999999916","{""confidence"":0}","[0]","survey-likert","328","769200","0.0-328.0","6p5gds8r","","","","","","","",""
"","","","call-function","329","769200","0.0-329.0","6p5gds8r","","","","","","","",""
"null","","","html-keyboard-response","330","770706","0.0-330.0","6p5gds8r","","<span style=""color:Black; font-size:50px;"">Agent A","null","","","","",""
"null","","","video-keyboard-response","331","773786","0.0-331.0","6p5gds8r","","","null","","Agent A","veridical","STIM_SET_2_144/713652.bmp_pp89_L1_V1_veridical_freeview_isoTrue_fps144.mp4",""
"null","","","html-keyboard-response","332","775288","0.0-332.0","6p5gds8r","","<span style=""color:Black; font-size:50px;"">Agent B","null","","","","",""
"null","","","video-keyboard-response","333","778364","0.0-333.0","6p5gds8r","","","null","","Agent B","scrambled","STIM_SET_5/713652.bmp_pp89_L1_V1_veridical_freeview_isoTrue_Hflip_fps144.mp4",""
"","","","call-function","334","778364","0.0-334.0","6p5gds8r","","","","","","","",""
"1847.6850000000559","{""judgement"":0}","[0]","survey-likert","335","780213","0.0-335.0","6p5gds8r","","","","","","","","0"
"2468.320000000065","{""confidence"":0}","[0]","survey-likert","336","782682","0.0-336.0","6p5gds8r","","","","","","","",""
"2871.3699999999953","","","instructions","337","785554","0.0-337.0","6p5gds8r","[{""page_index"":0,""viewing_time"":1396},{""page_index"":1,""viewing_time"":839.0100000000093},{""page_index"":2,""viewing_time"":636.1550000000279}]","","","","","","",""
"1944.3850000000093","","","instructions","338","787499","0.0-338.0","6p5gds8r","[{""page_index"":0,""viewing_time"":742.2399999999907},{""page_index"":1,""viewing_time"":611.0400000000373},{""page_index"":2,""viewing_time"":590.9949999999953}]","","","","","","",""
"","","","call-function","339","787499","0.0-339.0","6p5gds8r","","","","","","","",""
"null","","","html-keyboard-response","340","789002","0.0-340.0","6p5gds8r","","<span style=""color:Black; font-size:50px;"">Agent A","null","","","","",""
"null","","","video-keyboard-response","341","792063","0.0-341.0","6p5gds8r","","","null","","Agent A","scrambled","STIM_SET_5/498326.bmp_pp57_L1_V1.0_veridical_freeview_isoTrue_Hflip_fps144.mp4",""
"null","","","html-keyboard-response","342","793565","0.0-342.0","6p5gds8r","","<span style=""color:Black; font-size:50px;"">Agent B","null","","","","",""
"null","","","video-keyboard-response","343","796629","0.0-343.0","6p5gds8r","","","null","","Agent B","veridical","STIM_SET_2_144/498326.bmp_pp57_L1_V1.0_veridical_freeview_isoTrue_fps144.mp4",""
"","","","call-function","344","796629","0.0-344.0","6p5gds8r","","","","","","","",""
"3958.1199999999953","{""judgement"":0}","[0]","survey-likert","345","800588","0.0-345.0","6p5gds8r","","","","","","","","1"
"4122.560000000056","{""confidence"":1}","[0]","survey-likert","346","804712","0.0-346.0","6p5gds8r","","","","","","","",""
"","","","call-function","347","804712","0.0-347.0","6p5gds8r","","","","","","","",""
"null","","","html-keyboard-response","348","806217","0.0-348.0","6p5gds8r","","<span style=""color:Black; font-size:50px;"">Agent A","null","","","","",""
"null","","","video-keyboard-response","349","809292","0.0-349.0","6p5gds8r","","","null","","Agent A","scrambled","STIM_SET_5/1591781.bmp_pp63_L1_V1.0_veridical_freeview_isoTrue_Hflip_fps144.mp4",""
"null","","","html-keyboard-response","350","810797","0.0-350.0","6p5gds8r","","<span style=""color:Black; font-size:50px;"">Agent B","null","","","","",""
"null","","","video-keyboard-response","351","813873","0.0-351.0","6p5gds8r","","","null","","Agent B","veridical","STIM_SET_2_144/1591781.bmp_pp63_L1_V1.0_veridical_freeview_isoTrue_fps144.mp4",""
"","","","call-function","352","813874","0.0-352.0","6p5gds8r","","","","","","","",""
"2380.6999999999534","{""judgement"":0}","[0]","survey-likert","353","816257","0.0-353.0","6p5gds8r","","","","","","","","1"
"1328.0849999999627","{""confidence"":0}","[0]","survey-likert","354","817586","0.0-354.0","6p5gds8r","","","","","","","",""
"","","","call-function","355","817587","0.0-355.0","6p5gds8r","","","","","","","",""
"null","","","html-keyboard-response","356","819088","0.0-356.0","6p5gds8r","","<span style=""color:Black; font-size:50px;"">Agent A","null","","","","",""
"null","","","video-keyboard-response","357","822158","0.0-357.0","6p5gds8r","","","null","","Agent A","veridical","STIM_SET_2_144/713274.bmp_pp73_L3_V1.0_veridical_freeview_isoTrue_fps144.mp4",""
"null","","","html-keyboard-response","358","823664","0.0-358.0","6p5gds8r","","<span style=""color:Black; font-size:50px;"">Agent B","null","","","","",""
"null","","","video-keyboard-response","359","826732","0.0-359.0","6p5gds8r","","","null","","Agent B","scrambled","STIM_SET_5/713274.bmp_pp73_L3_V1.0_veridical_freeview_isoTrue_Hflip_fps144.mp4",""
"","","","call-function","360","826733","0.0-360.0","6p5gds8r","","","","","","","",""
"3364.4949999999953","{""judgement"":1}","[0]","survey-likert","361","830098","0.0-361.0","6p5gds8r","","","","","","","","0"
"1288.9899999999907","{""confidence"":0}","[0]","survey-likert","362","831389","0.0-362.0","6p5gds8r","","","","","","","",""
"","","","call-function","363","831389","0.0-363.0","6p5gds8r","","","","","","","",""
"null","","","html-keyboard-response","364","832895","0.0-364.0","6p5gds8r","","<span style=""color:Black; font-size:50px;"">Agent A","null","","","","",""
"null","","","video-keyboard-response","365","835970","0.0-365.0","6p5gds8r","","","null","","Agent A","veridical","STIM_SET_2_144/713858.bmp_pp57_L1_V1.0_veridical_freeview_isoTrue_fps144.mp4",""
"null","","","html-keyboard-response","366","837472","0.0-366.0","6p5gds8r","","<span style=""color:Black; font-size:50px;"">Agent B","null","","","","",""
"null","","","video-keyboard-response","367","840572","0.0-367.0","6p5gds8r","","","null","","Agent B","scrambled","STIM_SET_5/713858.bmp_pp57_L1_V1.0_veridical_freeview_isoTrue_Hflip_fps144.mp4",""
"","","","call-function","368","840573","0.0-368.0","6p5gds8r","","","","","","","",""
"2313.414999999921","{""judgement"":0}","[0]","survey-likert","369","842887","0.0-369.0","6p5gds8r","","","","","","","","0"
"2065.8800000000047","{""confidence"":0}","[0]","survey-likert","370","844954","0.0-370.0","6p5gds8r","","","","","","","",""
"","","","call-function","371","844955","0.0-371.0","6p5gds8r","","","","","","","",""
"null","","","html-keyboard-response","372","846458","0.0-372.0","6p5gds8r","","<span style=""color:Black; font-size:50px;"">Agent A","null","","","","",""
"null","","","video-keyboard-response","373","849549","0.0-373.0","6p5gds8r","","","null","","Agent A","scrambled","STIM_SET_5/713770.bmp_pp89_L1_V1.0_veridical_freeview_isoTrue_Hflip_fps144.mp4",""
"null","","","html-keyboard-response","374","851054","0.0-374.0","6p5gds8r","","<span style=""color:Black; font-size:50px;"">Agent B","null","","","","",""
"null","","","video-keyboard-response","375","854142","0.0-375.0","6p5gds8r","","","null","","Agent B","veridical","STIM_SET_2_144/713770.bmp_pp89_L1_V1.0_veridical_freeview_isoTrue_fps144.mp4",""
"","","","call-function","376","854142","0.0-376.0","6p5gds8r","","","","","","","",""
"2441.3800000000047","{""judgement"":0}","[0]","survey-likert","377","856585","0.0-377.0","6p5gds8r","","","","","","","","1"
"2394.920000000042","{""confidence"":0}","[0]","survey-likert","378","858981","0.0-378.0","6p5gds8r","","","","","","","",""
"","","","call-function","379","858981","0.0-379.0","6p5gds8r","","","","","","","",""
"null","","","html-keyboard-response","380","860483","0.0-380.0","6p5gds8r","","<span style=""color:Black; font-size:50px;"">Agent A","null","","","","",""
"null","","","video-keyboard-response","381","863568","0.0-381.0","6p5gds8r","","","null","","Agent A","veridical","STIM_SET_2_144/1592305.bmp_pp65_L3_V1.0_veridical_freeview_isoTrue_fps144.mp4",""
"null","","","html-keyboard-response","382","865068","0.0-382.0","6p5gds8r","","<span style=""color:Black; font-size:50px;"">Agent B","null","","","","",""
"null","","","video-keyboard-response","383","868150","0.0-383.0","6p5gds8r","","","null","","Agent B","scrambled","STIM_SET_5/1592305.bmp_pp65_L3_V1.0_veridical_freeview_isoTrue_Hflip_fps144.mp4",""
"","","","call-function","384","868150","0.0-384.0","6p5gds8r","","","","","","","",""
"1967.7750000000233","{""judgement"":1}","[0]","survey-likert","385","870119","0.0-385.0","6p5gds8r","","","","","","","","0"
"2467.5449999999255","{""confidence"":0}","[0]","survey-likert","386","872588","0.0-386.0","6p5gds8r","","","","","","","",""
"","","","call-function","387","872588","0.0-387.0","6p5gds8r","","","","","","","",""
"null","","","html-keyboard-response","388","874090","0.0-388.0","6p5gds8r","","<span style=""color:Black; font-size:50px;"">Agent A","null","","","","",""
"null","","","video-keyboard-response","389","877150","0.0-389.0","6p5gds8r","","","null","","Agent A","scrambled","STIM_SET_5/498398.bmp_pp81_L1_V1.0_veridical_freeview_isoTrue_Hflip_fps144.mp4",""
"null","","","html-keyboard-response","390","878656","0.0-390.0","6p5gds8r","","<span style=""color:Black; font-size:50px;"">Agent B","null","","","","",""
"null","","","video-keyboard-response","391","881733","0.0-391.0","6p5gds8r","","","null","","Agent B","veridical","STIM_SET_2_144/498398.bmp_pp81_L1_V1.0_veridical_freeview_isoTrue_fps144.mp4",""
"","","","call-function","392","881734","0.0-392.0","6p5gds8r","","","","","","","",""
"2261.439999999944","{""judgement"":0}","[0]","survey-likert","393","883996","0.0-393.0","6p5gds8r","","","","","","","","1"
"1970.1199999999953","{""confidence"":0}","[0]","survey-likert","394","885967","0.0-394.0","6p5gds8r","","","","","","","",""
"","","","call-function","395","885968","0.0-395.0","6p5gds8r","","","","","","","",""
"null","","","html-keyboard-response","396","887470","0.0-396.0","6p5gds8r","","<span style=""color:Black; font-size:50px;"">Agent A","null","","","","",""
"null","","","video-keyboard-response","397","890535","0.0-397.0","6p5gds8r","","","null","","Agent A","scrambled","STIM_SET_5/1592129.bmp_pp153_L3_V1.0_veridical_freeview_isoTrue_Hflip_fps144.mp4",""
"null","","","html-keyboard-response","398","892037","0.0-398.0","6p5gds8r","","<span style=""color:Black; font-size:50px;"">Agent B","null","","","","",""
"null","","","video-keyboard-response","399","895103","0.0-399.0","6p5gds8r","","","null","","Agent B","veridical","STIM_SET_2_144/1592129.bmp_pp153_L3_V1.0_veridical_freeview_isoTrue_fps144.mp4",""
"","","","call-function","400","895104","0.0-400.0","6p5gds8r","","","","","","","",""
"2502.625","{""judgement"":1}","[0]","survey-likert","401","897607","0.0-401.0","6p5gds8r","","","","","","","","1"
"1542.9899999999907","{""confidence"":0}","[0]","survey-likert","402","899151","0.0-402.0","6p5gds8r","","","","","","","",""
"","","","call-function","403","899152","0.0-403.0","6p5gds8r","","","","","","","",""
"null","","","html-keyboard-response","404","900657","0.0-404.0","6p5gds8r","","<span style=""color:Black; font-size:50px;"">Agent A","null","","","","",""
"null","","","video-keyboard-response","405","903726","0.0-405.0","6p5gds8r","","","null","","Agent A","veridical","STIM_SET_2_144/498258.bmp_pp51_L1_V1.0_veridical_freeview_isoTrue_fps144.mp4",""
"null","","","html-keyboard-response","406","905230","0.0-406.0","6p5gds8r","","<span style=""color:Black; font-size:50px;"">Agent B","null","","","","",""
"null","","","video-keyboard-response","407","908297","0.0-407.0","6p5gds8r","","","null","","Agent B","scrambled","STIM_SET_5/498258.bmp_pp51_L1_V1.0_veridical_freeview_isoTrue_Hflip_fps144.mp4",""
"","","","call-function","408","908298","0.0-408.0","6p5gds8r","","","","","","","",""
"1895.2900000000373","{""judgement"":0}","[0]","survey-likert","409","910194","0.0-409.0","6p5gds8r","","","","","","","","0"
"1244.4250000000466","{""confidence"":0}","[0]","survey-likert","410","911440","0.0-410.0","6p5gds8r","","","","","","","",""
"","","","call-function","411","911440","0.0-411.0","6p5gds8r","","","","","","","",""
"null","","","html-keyboard-response","412","912945","0.0-412.0","6p5gds8r","","<span style=""color:Black; font-size:50px;"">Agent A","null","","","","",""
"null","","","video-keyboard-response","413","916021","0.0-413.0","6p5gds8r","","","null","","Agent A","scrambled","STIM_SET_5/1160247.bmp_pp54_L2_V1.0_veridical_freeview_isoTrue_Hflip_fps144.mp4",""
"null","","","html-keyboard-response","414","917524","0.0-414.0","6p5gds8r","","<span style=""color:Black; font-size:50px;"">Agent B","null","","","","",""
"null","","","video-keyboard-response","415","920598","0.0-415.0","6p5gds8r","","","null","","Agent B","veridical","STIM_SET_2_144/1160247.bmp_pp54_L2_V1.0_veridical_freeview_isoTrue_fps144.mp4",""
"","","","call-function","416","920599","0.0-416.0","6p5gds8r","","","","","","","",""
"1686.3850000000093","{""judgement"":1}","[0]","survey-likert","417","922287","0.0-417.0","6p5gds8r","","","","","","","","1"
"2010.3850000000093","{""confidence"":0}","[0]","survey-likert","418","924298","0.0-418.0","6p5gds8r","","","","","","","",""
"2959.2550000000047","","","instructions","419","927258","0.0-419.0","6p5gds8r","[{""page_index"":0,""viewing_time"":1534.4649999999674},{""page_index"":1,""viewing_time"":717.765000000014},{""page_index"":2,""viewing_time"":706.8699999999953}]","","","","","","",""
"2409.6149999999907","","","instructions","420","929668","0.0-420.0","6p5gds8r","[{""page_index"":0,""viewing_time"":658.5799999999581},{""page_index"":1,""viewing_time"":1229.1149999999907},{""page_index"":2,""viewing_time"":521.8149999999441}]","","","","","","",""
"","","","call-function","421","929668","0.0-421.0","6p5gds8r","","","","","","","",""
"null","","","html-keyboard-response","422","931170","0.0-422.0","6p5gds8r","","<span style=""color:Black; font-size:50px;"">Agent A","null","","","","",""
"null","","","video-keyboard-response","423","934252","0.0-423.0","6p5gds8r","","","null","","Agent A","scrambled","STIM_SET_5/1592951.bmp_pp80_L3_V1.0_veridical_freeview_isoTrue_Hflip_fps144.mp4",""
"null","","","html-keyboard-response","424","935754","0.0-424.0","6p5gds8r","","<span style=""color:Black; font-size:50px;"">Agent B","null","","","","",""
"null","","","video-keyboard-response","425","938830","0.0-425.0","6p5gds8r","","","null","","Agent B","veridical","STIM_SET_2_144/1592951.bmp_pp80_L3_V1.0_veridical_freeview_isoTrue_fps144.mp4",""
"","","","call-function","426","938830","0.0-426.0","6p5gds8r","","","","","","","",""
"1808.2649999998976","{""judgement"":0}","[0]","survey-likert","427","940640","0.0-427.0","6p5gds8r","","","","","","","","1"
"1807.3950000000186","{""confidence"":0}","[0]","survey-likert","428","942448","0.0-428.0","6p5gds8r","","","","","","","",""
"","","","call-function","429","942449","0.0-429.0","6p5gds8r","","","","","","","",""
"null","","","html-keyboard-response","430","943953","0.0-430.0","6p5gds8r","","<span style=""color:Black; font-size:50px;"">Agent A","null","","","","",""
"null","","","video-keyboard-response","431","947026","0.0-431.0","6p5gds8r","","","null","","Agent A","veridical","STIM_SET_2_144/1592567.bmp_pp70_L2_V1.0_veridical_freeview_isoTrue_fps144.mp4",""
"null","","","html-keyboard-response","432","948527","0.0-432.0","6p5gds8r","","<span style=""color:Black; font-size:50px;"">Agent B","null","","","","",""
"null","","","video-keyboard-response","433","951601","0.0-433.0","6p5gds8r","","","null","","Agent B","scrambled","STIM_SET_5/1592567.bmp_pp70_L2_V1.0_veridical_freeview_isoTrue_Hflip_fps144.mp4",""
"","","","call-function","434","951601","0.0-434.0","6p5gds8r","","","","","","","",""
"4302.9199999999255","{""judgement"":1}","[0]","survey-likert","435","955905","0.0-435.0","6p5gds8r","","","","","","","","0"
"1425.6500000000233","{""confidence"":0}","[0]","survey-likert","436","957332","0.0-436.0","6p5gds8r","","","","","","","",""
"","","","call-function","437","957332","0.0-437.0","6p5gds8r","","","","","","","",""
"null","","","html-keyboard-response","438","958834","0.0-438.0","6p5gds8r","","<span style=""color:Black; font-size:50px;"">Agent A","null","","","","",""
"null","","","video-keyboard-response","439","961923","0.0-439.0","6p5gds8r","","","null","","Agent A","veridical","STIM_SET_2_144/1592168.bmp_pp71_L1_V1.0_veridical_freeview_isoTrue_fps144.mp4",""
"null","","","html-keyboard-response","440","963427","0.0-440.0","6p5gds8r","","<span style=""color:Black; font-size:50px;"">Agent B","null","","","","",""
"null","","","video-keyboard-response","441","966520","0.0-441.0","6p5gds8r","","","null","","Agent B","scrambled","STIM_SET_5/1592168.bmp_pp71_L1_V1.0_veridical_freeview_isoTrue_Hflip_fps144.mp4",""
"","","","call-function","442","966521","0.0-442.0","6p5gds8r","","","","","","","",""
"2044.6199999999953","{""judgement"":0}","[0]","survey-likert","443","968566","0.0-443.0","6p5gds8r","","","","","","","","0"
"1959.5100000000093","{""confidence"":0}","[0]","survey-likert","444","970527","0.0-444.0","6p5gds8r","","","","","","","",""
"","","","call-function","445","970527","0.0-445.0","6p5gds8r","","","","","","","",""
"null","","","html-keyboard-response","446","972031","0.0-446.0","6p5gds8r","","<span style=""color:Black; font-size:50px;"">Agent A","null","","","","",""
"null","","","video-keyboard-response","447","975092","0.0-447.0","6p5gds8r","","","null","","Agent A","scrambled","STIM_SET_5/285684.bmp_pp80_L3_V1.0_veridical_freeview_isoTrue_Hflip_fps144.mp4",""
"null","","","html-keyboard-response","448","976597","0.0-448.0","6p5gds8r","","<span style=""color:Black; font-size:50px;"">Agent B","null","","","","",""
"null","","","video-keyboard-response","449","979659","0.0-449.0","6p5gds8r","","","null","","Agent B","veridical","STIM_SET_2_144/285684.bmp_pp80_L3_V1.0_veridical_freeview_isoTrue_fps144.mp4",""
"","","","call-function","450","979660","0.0-450.0","6p5gds8r","","","","","","","",""
"3124.82500000007","{""judgement"":0}","[0]","survey-likert","451","982785","0.0-451.0","6p5gds8r","","","","","","","","1"
"2639.5299999999115","{""confidence"":0}","[0]","survey-likert","452","985426","0.0-452.0","6p5gds8r","","","","","","","",""
"","","","call-function","453","985426","0.0-453.0","6p5gds8r","","","","","","","",""
"null","","","html-keyboard-response","454","986929","0.0-454.0","6p5gds8r","","<span style=""color:Black; font-size:50px;"">Agent A","null","","","","",""
"null","","","video-keyboard-response","455","989994","0.0-455.0","6p5gds8r","","","null","","Agent A","scrambled","STIM_SET_5/150463.bmp_pp55_L3_V1.0_veridical_freeview_isoTrue_Hflip_fps144.mp4",""
"null","","","html-keyboard-response","456","991499","0.0-456.0","6p5gds8r","","<span style=""color:Black; font-size:50px;"">Agent B","null","","","","",""
"null","","","video-keyboard-response","457","994568","0.0-457.0","6p5gds8r","","","null","","Agent B","veridical","STIM_SET_2_144/150463.bmp_pp55_L3_V1.0_veridical_freeview_isoTrue_fps144.mp4",""
"","","","call-function","458","994568","0.0-458.0","6p5gds8r","","","","","","","",""
"2903.019999999902","{""judgement"":0}","[0]","survey-likert","459","997472","0.0-459.0","6p5gds8r","","","","","","","","1"
"1865.1149999999907","{""confidence"":0}","[0]","survey-likert","460","999339","0.0-460.0","6p5gds8r","","","","","","","",""
"","","","call-function","461","999339","0.0-461.0","6p5gds8r","","","","","","","",""
"null","","","html-keyboard-response","462","1000843","0.0-462.0","6p5gds8r","","<span style=""color:Black; font-size:50px;"">Agent A","null","","","","",""
"null","","","video-keyboard-response","463","1003942","0.0-463.0","6p5gds8r","","","null","","Agent A","veridical","STIM_SET_2_144/713381.bmp_pp82_L2_V1.0_veridical_freeview_isoTrue_fps144.mp4",""
"null","","","html-keyboard-response","464","1005446","0.0-464.0","6p5gds8r","","<span style=""color:Black; font-size:50px;"">Agent B","null","","","","",""
"null","","","video-keyboard-response","465","1008536","0.0-465.0","6p5gds8r","","","null","","Agent B","scrambled","STIM_SET_5/713381.bmp_pp82_L2_V1.0_veridical_freeview_isoTrue_Hflip_fps144.mp4",""
"","","","call-function","466","1008537","0.0-466.0","6p5gds8r","","","","","","","",""
"1559.844999999972","{""judgement"":0}","[0]","survey-likert","467","1010098","0.0-467.0","6p5gds8r","","","","","","","","0"
"1416.3899999998976","{""confidence"":0}","[0]","survey-likert","468","1011516","0.0-468.0","6p5gds8r","","","","","","","",""
"","","","call-function","469","1011517","0.0-469.0","6p5gds8r","","","","","","","",""
"null","","","html-keyboard-response","470","1013019","0.0-470.0","6p5gds8r","","<span style=""color:Black; font-size:50px;"">Agent A","null","","","","",""
"null","","","video-keyboard-response","471","1016088","0.0-471.0","6p5gds8r","","","null","","Agent A","scrambled","STIM_SET_5/1592298.bmp_pp56_L3_V1.0_veridical_freeview_isoTrue_Hflip_fps144.mp4",""
"null","","","html-keyboard-response","472","1017592","0.0-472.0","6p5gds8r","","<span style=""color:Black; font-size:50px;"">Agent B","null","","","","",""
"null","","","video-keyboard-response","473","1020657","0.0-473.0","6p5gds8r","","","null","","Agent B","veridical","STIM_SET_2_144/1592298.bmp_pp56_L3_V1.0_veridical_freeview_isoTrue_fps144.mp4",""
"","","","call-function","474","1020658","0.0-474.0","6p5gds8r","","","","","","","",""
"3905.539999999921","{""judgement"":0}","[0]","survey-likert","475","1024564","0.0-475.0","6p5gds8r","","","","","","","","1"
"1914.7250000000931","{""confidence"":0}","[0]","survey-likert","476","1026480","0.0-476.0","6p5gds8r","","","","","","","",""
"","","","call-function","477","1026481","0.0-477.0","6p5gds8r","","","","","","","",""
"null","","","html-keyboard-response","478","1027983","0.0-478.0","6p5gds8r","","<span style=""color:Black; font-size:50px;"">Agent A","null","","","","",""
"null","","","video-keyboard-response","479","1031043","0.0-479.0","6p5gds8r","","","null","","Agent A","scrambled","STIM_SET_5/1592047.bmp_pp51_L1_V1.0_veridical_freeview_isoTrue_Hflip_fps144.mp4",""
"null","","","html-keyboard-response","480","1032546","0.0-480.0","6p5gds8r","","<span style=""color:Black; font-size:50px;"">Agent B","null","","","","",""
"null","","","video-keyboard-response","481","1035607","0.0-481.0","6p5gds8r","","","null","","Agent B","veridical","STIM_SET_2_144/1592047.bmp_pp51_L1_V1.0_veridical_freeview_isoTrue_fps144.mp4",""
"","","","call-function","482","1035607","0.0-482.0","6p5gds8r","","","","","","","",""
"1999.984999999986","{""judgement"":1}","[0]","survey-likert","483","1037608","0.0-483.0","6p5gds8r","","","","","","","","1"
"1218.9599999999627","{""confidence"":0}","[0]","survey-likert","484","1038828","0.0-484.0","6p5gds8r","","","","","","","",""
"","","","call-function","485","1038829","0.0-485.0","6p5gds8r","","","","","","","",""
"null","","","html-keyboard-response","486","1040330","0.0-486.0","6p5gds8r","","<span style=""color:Black; font-size:50px;"">Agent A","null","","","","",""
"null","","","video-keyboard-response","487","1043413","0.0-487.0","6p5gds8r","","","null","","Agent A","veridical","STIM_SET_2_144/1591975.bmp_pp88_L2_V1.0_veridical_freeview_isoTrue_fps144.mp4",""
"null","","","html-keyboard-response","488","1044915","0.0-488.0","6p5gds8r","","<span style=""color:Black; font-size:50px;"">Agent B","null","","","","",""
"null","","","video-keyboard-response","489","1047989","0.0-489.0","6p5gds8r","","","null","","Agent B","scrambled","STIM_SET_5/1591975.bmp_pp88_L2_V1.0_veridical_freeview_isoTrue_Hflip_fps144.mp4",""
"","","","call-function","490","1047990","0.0-490.0","6p5gds8r","","","","","","","",""
"1876.7649999998976","{""judgement"":0}","[0]","survey-likert","491","1049867","0.0-491.0","6p5gds8r","","","","","","","","0"
"1314.2749999999069","{""confidence"":0}","[0]","survey-likert","492","1051182","0.0-492.0","6p5gds8r","","","","","","","",""
"","","","call-function","493","1051183","0.0-493.0","6p5gds8r","","","","","","","",""
"null","","","html-keyboard-response","494","1052689","0.0-494.0","6p5gds8r","","<span style=""color:Black; font-size:50px;"">Agent A","null","","","","",""
"null","","","video-keyboard-response","495","1055763","0.0-495.0","6p5gds8r","","","null","","Agent A","scrambled","STIM_SET_5/285715.bmp_pp67_L2_V1.0_veridical_freeview_isoTrue_Hflip_fps144.mp4",""
"null","","","html-keyboard-response","496","1057267","0.0-496.0","6p5gds8r","","<span style=""color:Black; font-size:50px;"">Agent B","null","","","","",""
"null","","","video-keyboard-response","497","1060342","0.0-497.0","6p5gds8r","","","null","","Agent B","veridical","STIM_SET_2_144/285715.bmp_pp67_L2_V1.0_veridical_freeview_isoTrue_fps144.mp4",""
"","","","call-function","498","1060343","0.0-498.0","6p5gds8r","","","","","","","",""
"1580.5549999999348","{""judgement"":0}","[0]","survey-likert","499","1061924","0.0-499.0","6p5gds8r","","","","","","","","1"
"1272.994999999879","{""confidence"":0}","[0]","survey-likert","500","1063199","0.0-500.0","6p5gds8r","","","","","","","",""
"2610.179999999935","","","instructions","501","1065809","0.0-501.0","6p5gds8r","[{""page_index"":0,""viewing_time"":1552.0849999999627},{""page_index"":1,""viewing_time"":608.8100000000559},{""page_index"":2,""viewing_time"":449.1300000001211}]","","","","","","",""
"1692.505000000121","","","instructions","502","1067502","0.0-502.0","6p5gds8r","[{""page_index"":0,""viewing_time"":430.3649999999907},{""page_index"":1,""viewing_time"":777.1200000001118},{""page_index"":2,""viewing_time"":484.91500000003725}]","","","","","","",""
"","","","call-function","503","1067502","0.0-503.0","6p5gds8r","","","","","","","",""
"null","","","html-keyboard-response","504","1069008","0.0-504.0","6p5gds8r","","<span style=""color:Black; font-size:50px;"">Agent A","null","","","","",""
"null","","","video-keyboard-response","505","1072097","0.0-505.0","6p5gds8r","","","null","","Agent A","veridical","STIM_SET_2_144/713742.bmp_pp91_L3_V1.0_veridical_freeview_isoTrue_fps144.mp4",""
"null","","","html-keyboard-response","506","1073603","0.0-506.0","6p5gds8r","","<span style=""color:Black; font-size:50px;"">Agent B","null","","","","",""
"null","","","video-keyboard-response","507","1076689","0.0-507.0","6p5gds8r","","","null","","Agent B","scrambled","STIM_SET_5/713742.bmp_pp91_L3_V1.0_veridical_freeview_isoTrue_Hflip_fps144.mp4",""
"","","","call-function","508","1076690","0.0-508.0","6p5gds8r","","","","","","","",""
"1708.7299999999814","{""judgement"":0}","[0]","survey-likert","509","1078399","0.0-509.0","6p5gds8r","","","","","","","","0"
"1374.4549999998417","{""confidence"":0}","[0]","survey-likert","510","1079775","0.0-510.0","6p5gds8r","","","","","","","",""
"","","","call-function","511","1079775","0.0-511.0","6p5gds8r","","","","","","","",""
"null","","","html-keyboard-response","512","1081279","0.0-512.0","6p5gds8r","","<span style=""color:Black; font-size:50px;"">Agent A","null","","","","",""
"null","","","video-keyboard-response","513","1084339","0.0-513.0","6p5gds8r","","","null","","Agent A","scrambled","STIM_SET_5/1160049.bmp_pp53_L2_V1.0_veridical_freeview_isoTrue_Hflip_fps144.mp4",""
"null","","","html-keyboard-response","514","1085842","0.0-514.0","6p5gds8r","","<span style=""color:Black; font-size:50px;"">Agent B","null","","","","",""
"null","","","video-keyboard-response","515","1088903","0.0-515.0","6p5gds8r","","","null","","Agent B","veridical","STIM_SET_2_144/1160049.bmp_pp53_L2_V1.0_veridical_freeview_isoTrue_fps144.mp4",""
"","","","call-function","516","1088904","0.0-516.0","6p5gds8r","","","","","","","",""
"1722.3700000001118","{""judgement"":0}","[0]","survey-likert","517","1090627","0.0-517.0","6p5gds8r","","","","","","","","1"
"4451.260000000009","{""confidence"":0}","[0]","survey-likert","518","1095079","0.0-518.0","6p5gds8r","","","","","","","",""
"","","","call-function","519","1095080","0.0-519.0","6p5gds8r","","","","","","","",""
"null","","","html-keyboard-response","520","1096582","0.0-520.0","6p5gds8r","","<span style=""color:Black; font-size:50px;"">Agent A","null","","","","",""
"null","","","video-keyboard-response","521","1099642","0.0-521.0","6p5gds8r","","","null","","Agent A","scrambled","STIM_SET_5/1592314.bmp_pp100_L3_V1.0_veridical_freeview_isoTrue_Hflip_fps144.mp4",""
"null","","","html-keyboard-response","522","1101145","0.0-522.0","6p5gds8r","","<span style=""color:Black; font-size:50px;"">Agent B","null","","","","",""
"null","","","video-keyboard-response","523","1104204","0.0-523.0","6p5gds8r","","","null","","Agent B","veridical","STIM_SET_2_144/1592314.bmp_pp100_L3_V1.0_veridical_freeview_isoTrue_fps144.mp4",""
"","","","call-function","524","1104205","0.0-524.0","6p5gds8r","","","","","","","",""
"1623.7299999999814","{""judgement"":1}","[0]","survey-likert","525","1105829","0.0-525.0","6p5gds8r","","","","","","","","1"
"1509.744999999879","{""confidence"":0}","[0]","survey-likert","526","1107340","0.0-526.0","6p5gds8r","","","","","","","",""
"","","","call-function","527","1107341","0.0-527.0","6p5gds8r","","","","","","","",""
"null","","","html-keyboard-response","528","1108845","0.0-528.0","6p5gds8r","","<span style=""color:Black; font-size:50px;"">Agent A","null","","","","",""
"null","","","video-keyboard-response","529","1111944","0.0-529.0","6p5gds8r","","","null","","Agent A","veridical","STIM_SET_2_144/1159874.bmp_pp96_L2_V1.0_veridical_freeview_isoTrue_fps144.mp4",""
"null","","","html-keyboard-response","530","1113447","0.0-530.0","6p5gds8r","","<span style=""color:Black; font-size:50px;"">Agent B","null","","","","",""
"null","","","video-keyboard-response","531","1116526","0.0-531.0","6p5gds8r","","","null","","Agent B","scrambled","STIM_SET_5/1159874.bmp_pp96_L2_V1.0_veridical_freeview_isoTrue_Hflip_fps144.mp4",""
"","","","call-function","532","1116527","0.0-532.0","6p5gds8r","","","","","","","",""
"3199.6450000000186","{""judgement"":0}","[0]","survey-likert","533","1119728","0.0-533.0","6p5gds8r","","","","","","","","0"
"2366.024999999907","{""confidence"":0}","[0]","survey-likert","534","1122096","0.0-534.0","6p5gds8r","","","","","","","",""
"","","","call-function","535","1122097","0.0-535.0","6p5gds8r","","","","","","","",""
"null","","","html-keyboard-response","536","1123600","0.0-536.0","6p5gds8r","","<span style=""color:Black; font-size:50px;"">Agent A","null","","","","",""
"null","","","video-keyboard-response","537","1126665","0.0-537.0","6p5gds8r","","","null","","Agent A","veridical","STIM_SET_2_144/107955.bmp_pp90_L2_V1.0_veridical_freeview_isoTrue_fps144.mp4",""
"null","","","html-keyboard-response","538","1128166","0.0-538.0","6p5gds8r","","<span style=""color:Black; font-size:50px;"">Agent B","null","","","","",""
"null","","","video-keyboard-response","539","1131226","0.0-539.0","6p5gds8r","","","null","","Agent B","scrambled","STIM_SET_5/107955.bmp_pp90_L2_V1.0_veridical_freeview_isoTrue_Hflip_fps144.mp4",""
"","","","call-function","540","1131227","0.0-540.0","6p5gds8r","","","","","","","",""
"1648.780000000028","{""judgement"":0}","[0]","survey-likert","541","1132877","0.0-541.0","6p5gds8r","","","","","","","","0"
"1787.2950000001583","{""confidence"":0}","[0]","survey-likert","542","1134666","0.0-542.0","6p5gds8r","","","","","","","",""
"","","","call-function","543","1134666","0.0-543.0","6p5gds8r","","","","","","","",""
"null","","","html-keyboard-response","544","1136169","0.0-544.0","6p5gds8r","","<span style=""color:Black; font-size:50px;"">Agent A","null","","","","",""
"null","","","video-keyboard-response","545","1139228","0.0-545.0","6p5gds8r","","","null","","Agent A","scrambled","STIM_SET_5/1592150.bmp_pp77_L3_V1.0_veridical_freeview_isoTrue_Hflip_fps144.mp4",""
"null","","","html-keyboard-response","546","1140731","0.0-546.0","6p5gds8r","","<span style=""color:Black; font-size:50px;"">Agent B","null","","","","",""
"null","","","video-keyboard-response","547","1143791","0.0-547.0","6p5gds8r","","","null","","Agent B","veridical","STIM_SET_2_144/1592150.bmp_pp77_L3_V1.0_veridical_freeview_isoTrue_fps144.mp4",""
"","","","call-function","548","1143792","0.0-548.0","6p5gds8r","","","","","","","",""
"2395.905000000028","{""judgement"":1}","[0]","survey-likert","549","1146188","0.0-549.0","6p5gds8r","","","","","","","","1"
"1330.8549999999814","{""confidence"":0}","[0]","survey-likert","550","1147521","0.0-550.0","6p5gds8r","","","","","","","",""
"","","","call-function","551","1147522","0.0-551.0","6p5gds8r","","","","","","","",""
"null","","","html-keyboard-response","552","1149023","0.0-552.0","6p5gds8r","","<span style=""color:Black; font-size:50px;"">Agent A","null","","","","",""
"null","","","video-keyboard-response","553","1152106","0.0-553.0","6p5gds8r","","","null","","Agent A","scrambled","STIM_SET_5/1159860.bmp_pp152_L2_V1.0_veridical_freeview_isoTrue_Hflip_fps144.mp4",""
"null","","","html-keyboard-response","554","1153609","0.0-554.0","6p5gds8r","","<span style=""color:Black; font-size:50px;"">Agent B","null","","","","",""
"null","","","video-keyboard-response","555","1156682","0.0-555.0","6p5gds8r","","","null","","Agent B","veridical","STIM_SET_2_144/1159860.bmp_pp152_L2_V1.0_veridical_freeview_isoTrue_fps144.mp4",""
"","","","call-function","556","1156682","0.0-556.0","6p5gds8r","","","","","","","",""
"1548.5200000000186","{""judgement"":0}","[0]","survey-likert","557","1158232","0.0-557.0","6p5gds8r","","","","","","","","1"
"1285.9549999998417","{""confidence"":0}","[0]","survey-likert","558","1159519","0.0-558.0","6p5gds8r","","","","","","","",""
"","","","call-function","559","1159520","0.0-559.0","6p5gds8r","","","","","","","",""
"null","","","html-keyboard-response","560","1161023","0.0-560.0","6p5gds8r","","<span style=""color:Black; font-size:50px;"">Agent A","null","","","","",""
"null","","","video-keyboard-response","561","1164101","0.0-561.0","6p5gds8r","","","null","","Agent A","veridical","STIM_SET_2_144/1592857.bmp_pp52_L1_V1_veridical_freeview_isoTrue_fps144.mp4",""
"null","","","html-keyboard-response","562","1165608","0.0-562.0","6p5gds8r","","<span style=""color:Black; font-size:50px;"">Agent B","null","","","","",""
"null","","","video-keyboard-response","563","1168680","0.0-563.0","6p5gds8r","","","null","","Agent B","scrambled","STIM_SET_5/1592857.bmp_pp52_L1_V1_veridical_freeview_isoTrue_Hflip_fps144.mp4",""
"","","","call-function","564","1168681","0.0-564.0","6p5gds8r","","","","","","","",""
"3232.1200000001118","{""judgement"":1}","[0]","survey-likert","565","1171914","0.0-565.0","6p5gds8r","","","","","","","","0"
"1372.8000000000466","{""confidence"":0}","[0]","survey-likert","566","1173288","0.0-566.0","6p5gds8r","","","","","","","",""
"","","","call-function","567","1173288","0.0-567.0","6p5gds8r","","","","","","","",""
"null","","","html-keyboard-response","568","1174794","0.0-568.0","6p5gds8r","","<span style=""color:Black; font-size:50px;"">Agent A","null","","","","",""
"null","","","video-keyboard-response","569","1177877","0.0-569.0","6p5gds8r","","","null","","Agent A","veridical","STIM_SET_2_144/1160204.bmp_pp54_L2_V1.0_veridical_freeview_isoTrue_fps144.mp4",""
"null","","","html-keyboard-response","570","1179380","0.0-570.0","6p5gds8r","","<span style=""color:Black; font-size:50px;"">Agent B","null","","","","",""
"null","","","video-keyboard-response","571","1182461","0.0-571.0","6p5gds8r","","","null","","Agent B","scrambled","STIM_SET_5/1160204.bmp_pp54_L2_V1.0_veridical_freeview_isoTrue_Hflip_fps144.mp4",""
"","","","call-function","572","1182462","0.0-572.0","6p5gds8r","","","","","","","",""
"2226.9550000000745","{""judgement"":1}","[0]","survey-likert","573","1184690","0.0-573.0","6p5gds8r","","","","","","","","0"
"1369.2249999998603","{""confidence"":0}","[0]","survey-likert","574","1186060","0.0-574.0","6p5gds8r","","","","","","","",""
"","","","call-function","575","1186061","0.0-575.0","6p5gds8r","","","","","","","",""
"null","","","html-keyboard-response","576","1187566","0.0-576.0","6p5gds8r","","<span style=""color:Black; font-size:50px;"">Agent A","null","","","","",""
"null","","","video-keyboard-response","577","1190628","0.0-577.0","6p5gds8r","","","null","","Agent A","scrambled","STIM_SET_5/1591920.bmp_pp97_L3_V1_veridical_freeview_isoTrue_Hflip_fps144.mp4",""
"null","","","html-keyboard-response","578","1192133","0.0-578.0","6p5gds8r","","<span style=""color:Black; font-size:50px;"">Agent B","null","","","","",""
"null","","","video-keyboard-response","579","1195197","0.0-579.0","6p5gds8r","","","null","","Agent B","veridical","STIM_SET_2_144/1591920.bmp_pp97_L3_V1_veridical_freeview_isoTrue_fps144.mp4",""
"","","","call-function","580","1195197","0.0-580.0","6p5gds8r","","","","","","","",""
"2541.659999999916","{""judgement"":0}","[0]","survey-likert","581","1197740","0.0-581.0","6p5gds8r","","","","","","","","1"
"2063.5849999999627","{""confidence"":0}","[0]","survey-likert","582","1199804","0.0-582.0","6p5gds8r","","","","","","","",""
"1441.255000000121","","","instructions","583","1201246","0.0-583.0","6p5gds8r","[{""page_index"":0,""viewing_time"":1441.125}]","","","","","","",""
"1922.0400000000373","","","instructions","584","1203169","0.0-584.0","6p5gds8r","[{""page_index"":0,""viewing_time"":1921.9299999999348}]","","","","","","",""
"8185.979999999981","{""post-1"":0}","[0]","survey-likert","585","1211356","0.0-585.0","6p5gds8r","","","","","","","",""
"8902.679999999935","{""post-1"":0}","[0]","survey-likert","586","1220261","0.0-586.0","6p5gds8r","","","","","","","",""
"6526.719999999972","{""post-2"":1}","[0]","survey-likert","587","1226790","0.0-587.0","6p5gds8r","","","","","","","",""
"2245.839999999851","{""post-2"":0}","[0]","survey-likert","588","1229038","0.0-588.0","6p5gds8r","","","","","","","",""
"4044.9850000001024","{""post-3"":1}","[0]","survey-likert","589","1233084","0.0-589.0","6p5gds8r","","","","","","","",""
"2691.4799999999814","{""post-3"":1}","[0]","survey-likert","590","1235776","0.0-590.0","6p5gds8r","","","","","","","",""
"4509.534999999916","{""post-4"":0}","[0]","survey-likert","591","1240287","0.0-591.0","6p5gds8r","","","","","","","",""
"1790.005000000121","{""post-4"":0}","[0]","survey-likert","592","1242079","0.0-592.0","6p5gds8r","","","","","","","",""
"3538.7700000000186","{""post-5"":2}","[0]","survey-likert","593","1245619","0.0-593.0","6p5gds8r","","","","","","","",""
"1567.9199999999255","{""post-5"":2}","[0]","survey-likert","594","1247188","0.0-594.0","6p5gds8r","","","","","","","",""
"36212.560000000056","{""Q0"":""After the first two, I began to see that they seemed to be mirrored versions of each other.""}","","survey-text","595","1283406","0.0-595.0","6p5gds8r","","","","","","","",""
"38693.09499999997","{""Q0"":""I started to figure out a pattern which I thought was true then began to look and see if It actually was. Other than that I used no strategies ""}","","survey-text","596","1322103","0.0-596.0","6p5gds8r","","","","","","","",""
"23284.679999999935","{""Q0"":""Because I thought they were mirrored I had no idea which one was real and which wasn't ""}","","survey-text","597","1345391","0.0-597.0","6p5gds8r","","","","","","","",""
"1326.1000000000931","","","instructions","598","1346718","0.0-598.0","6p5gds8r","[{""page_index"":0,""viewing_time"":1325.9600000001956}]","","","","","","",""
"52473.28500000015","{""Experimenter_end"":[""Printed ID# 6p5gds8r on consent form"",""Given subject SONA credit or payment"",""Given the subject debrief form""]}","[0]","survey-multi-select","599","1399193","0.0-599.0","6p5gds8r","","","","","","","",""
