"rt","responses","question_order","trial_type","trial_index","time_elapsed","internal_node_id","ID","view_history","stimulus","key_press","value","agent","condition","image","correct_answer"
"42937.465000000004","{""Experimenter"":[""Confirmed subject's identity"",""Confirmed normal or corrected-to-normal vision"",""Obtained consent (signature and date)"",""Checked the test room lighting"",""Checked computer screen lighting"",""Checked distance from screen to chin rest (50cm)"",""Cleaned and adjusted chin rest"",""Counterbalanced the order of the tasks"",""Opened the experiment in Firefox"",""Made the experiment full screen"",""Encouraged subject to silence phone, put away distractors, etc.""]}","[0]","survey-multi-select","0","42946","0.0-0.0","6pjv4goy","","","","","","","",""
"32860.66999999999","","","instructions","1","75809","0.0-1.0","6pjv4goy","[{""page_index"":0,""viewing_time"":32860.52}]","","","","","","",""
"15364.494999999995","","","instructions","2","91175","0.0-2.0","6pjv4goy","[{""page_index"":0,""viewing_time"":6118.235000000001},{""page_index"":1,""viewing_time"":2129.079999999987},{""page_index"":2,""viewing_time"":7117.055000000008}]","","","","","","",""
"4611.860000000001","","","instructions","3","95787","0.0-3.0","6pjv4goy","[{""page_index"":0,""viewing_time"":4611.755000000005}]","","","","","","",""
"null","","","video-keyboard-response","4","98866","0.0-4.0","6pjv4goy","","","null","","","","",""
"11118.375","","","instructions","5","109985","0.0-5.0","6pjv4goy","[{""page_index"":0,""viewing_time"":3287.345000000001},{""page_index"":1,""viewing_time"":3347.915000000008},{""page_index"":2,""viewing_time"":4483.009999999995}]","","","","","","",""
"4029.0899999999965","","","instructions","6","114015","0.0-6.0","6pjv4goy","[{""page_index"":0,""viewing_time"":4028.9850000000006}]","","","","","","",""
"1550.2850000000035","","","instructions","7","115566","0.0-7.0","6pjv4goy","[{""page_index"":0,""viewing_time"":1550.070000000007}]","","","","","","",""
"null","","","video-keyboard-response","8","118650","0.0-8.0","6pjv4goy","","","null","","","","",""
"15270.454999999987","","","instructions","9","133922","0.0-9.0","6pjv4goy","[{""page_index"":0,""viewing_time"":2202.395000000004},{""page_index"":1,""viewing_time"":4689.614999999991},{""page_index"":2,""viewing_time"":8377.470000000016}]","","","","","","",""
"5827.104999999981","","","instructions","10","139751","0.0-10.0","6pjv4goy","[{""page_index"":0,""viewing_time"":5826.994999999995}]","","","","","","",""
"","","","call-function","11","139752","0.0-11.0","6pjv4goy","","","","","","","",""
"null","","","html-keyboard-response","12","141256","0.0-12.0","6pjv4goy","","<span style=""color:Black; font-size:50px;"">Agent A","null","","","","",""
"null","","","video-keyboard-response","13","144330","0.0-13.0","6pjv4goy","","","null","","Agent A","veridical","STIM_SET_2_144/1592038.bmp_pp79_L2_V1.0_veridical_freeview_isoTrue_fps144.mp4",""
"null","","","html-keyboard-response","14","145833","0.0-14.0","6pjv4goy","","<span style=""color:Black; font-size:50px;"">Agent B","null","","","","",""
"null","","","video-keyboard-response","15","148921","0.0-15.0","6pjv4goy","","","null","","Agent B","scrambled","STIM_SET_5/1592038.bmp_pp79_L2_V1.0_veridical_freeview_isoTrue_Hflip_fps144.mp4",""
"","","","call-function","16","148922","0.0-16.0","6pjv4goy","","","","","","","",""
"9370.324999999983","{""judgement"":0}","[0]","survey-likert","17","158294","0.0-17.0","6pjv4goy","","","","","","","","0"
"2896.6849999999977","{""confidence"":0}","[0]","survey-likert","18","161192","0.0-18.0","6pjv4goy","","","","","","","",""
"","","","call-function","19","161193","0.0-19.0","6pjv4goy","","","","","","","",""
"null","","","html-keyboard-response","20","162695","0.0-20.0","6pjv4goy","","<span style=""color:Black; font-size:50px;"">Agent A","null","","","","",""
"null","","","video-keyboard-response","21","165786","0.0-21.0","6pjv4goy","","","null","","Agent A","veridical","STIM_SET_2_144/1591781.bmp_pp63_L1_V1.0_veridical_freeview_isoTrue_fps144.mp4",""
"null","","","html-keyboard-response","22","167289","0.0-22.0","6pjv4goy","","<span style=""color:Black; font-size:50px;"">Agent B","null","","","","",""
"null","","","video-keyboard-response","23","170393","0.0-23.0","6pjv4goy","","","null","","Agent B","scrambled","STIM_SET_5/1591781.bmp_pp63_L1_V1.0_veridical_freeview_isoTrue_Hflip_fps144.mp4",""
"","","","call-function","24","170394","0.0-24.0","6pjv4goy","","","","","","","",""
"2136.6849999999977","{""judgement"":0}","[0]","survey-likert","25","172531","0.0-25.0","6pjv4goy","","","","","","","","0"
"2446.820000000007","{""confidence"":1}","[0]","survey-likert","26","174980","0.0-26.0","6pjv4goy","","","","","","","",""
"","","","call-function","27","174981","0.0-27.0","6pjv4goy","","","","","","","",""
"null","","","html-keyboard-response","28","176483","0.0-28.0","6pjv4goy","","<span style=""color:Black; font-size:50px;"">Agent A","null","","","","",""
"null","","","video-keyboard-response","29","179576","0.0-29.0","6pjv4goy","","","null","","Agent A","veridical","STIM_SET_2_144/498398.bmp_pp81_L1_V1.0_veridical_freeview_isoTrue_fps144.mp4",""
"null","","","html-keyboard-response","30","181079","0.0-30.0","6pjv4goy","","<span style=""color:Black; font-size:50px;"">Agent B","null","","","","",""
"null","","","video-keyboard-response","31","184141","0.0-31.0","6pjv4goy","","","null","","Agent B","scrambled","STIM_SET_5/498398.bmp_pp81_L1_V1.0_veridical_freeview_isoTrue_Hflip_fps144.mp4",""
"","","","call-function","32","184142","0.0-32.0","6pjv4goy","","","","","","","",""
"7355.899999999994","{""judgement"":0}","[0]","survey-likert","33","191498","0.0-33.0","6pjv4goy","","","","","","","","0"
"1487.6050000000105","{""confidence"":0}","[0]","survey-likert","34","192987","0.0-34.0","6pjv4goy","","","","","","","",""
"","","","call-function","35","192988","0.0-35.0","6pjv4goy","","","","","","","",""
"null","","","html-keyboard-response","36","194490","0.0-36.0","6pjv4goy","","<span style=""color:Black; font-size:50px;"">Agent A","null","","","","",""
"null","","","video-keyboard-response","37","197583","0.0-37.0","6pjv4goy","","","null","","Agent A","scrambled","STIM_SET_5/1592150.bmp_pp77_L3_V1.0_veridical_freeview_isoTrue_Hflip_fps144.mp4",""
"null","","","html-keyboard-response","38","199089","0.0-38.0","6pjv4goy","","<span style=""color:Black; font-size:50px;"">Agent B","null","","","","",""
"null","","","video-keyboard-response","39","202179","0.0-39.0","6pjv4goy","","","null","","Agent B","veridical","STIM_SET_2_144/1592150.bmp_pp77_L3_V1.0_veridical_freeview_isoTrue_fps144.mp4",""
"","","","call-function","40","202179","0.0-40.0","6pjv4goy","","","","","","","",""
"2993.2700000000186","{""judgement"":1}","[0]","survey-likert","41","205173","0.0-41.0","6pjv4goy","","","","","","","","1"
"2000.3550000000105","{""confidence"":1}","[0]","survey-likert","42","207175","0.0-42.0","6pjv4goy","","","","","","","",""
"","","","call-function","43","207176","0.0-43.0","6pjv4goy","","","","","","","",""
"null","","","html-keyboard-response","44","208678","0.0-44.0","6pjv4goy","","<span style=""color:Black; font-size:50px;"">Agent A","null","","","","",""
"null","","","video-keyboard-response","45","211741","0.0-45.0","6pjv4goy","","","null","","Agent A","scrambled","STIM_SET_5/285715.bmp_pp67_L2_V1.0_veridical_freeview_isoTrue_Hflip_fps144.mp4",""
"null","","","html-keyboard-response","46","213242","0.0-46.0","6pjv4goy","","<span style=""color:Black; font-size:50px;"">Agent B","null","","","","",""
"null","","","video-keyboard-response","47","216308","0.0-47.0","6pjv4goy","","","null","","Agent B","veridical","STIM_SET_2_144/285715.bmp_pp67_L2_V1.0_veridical_freeview_isoTrue_fps144.mp4",""
"","","","call-function","48","216309","0.0-48.0","6pjv4goy","","","","","","","",""
"8434.764999999985","{""judgement"":1}","[0]","survey-likert","49","224744","0.0-49.0","6pjv4goy","","","","","","","","1"
"2486.5899999999965","{""confidence"":0}","[0]","survey-likert","50","227232","0.0-50.0","6pjv4goy","","","","","","","",""
"","","","call-function","51","227233","0.0-51.0","6pjv4goy","","","","","","","",""
"null","","","html-keyboard-response","52","228735","0.0-52.0","6pjv4goy","","<span style=""color:Black; font-size:50px;"">Agent A","null","","","","",""
"null","","","video-keyboard-response","53","231803","0.0-53.0","6pjv4goy","","","null","","Agent A","veridical","STIM_SET_2_144/1160204.bmp_pp54_L2_V1.0_veridical_freeview_isoTrue_fps144.mp4",""
"null","","","html-keyboard-response","54","233307","0.0-54.0","6pjv4goy","","<span style=""color:Black; font-size:50px;"">Agent B","null","","","","",""
"null","","","video-keyboard-response","55","236394","0.0-55.0","6pjv4goy","","","null","","Agent B","scrambled","STIM_SET_5/1160204.bmp_pp54_L2_V1.0_veridical_freeview_isoTrue_Hflip_fps144.mp4",""
"","","","call-function","56","236394","0.0-56.0","6pjv4goy","","","","","","","",""
"3831.890000000014","{""judgement"":0}","[0]","survey-likert","57","240227","0.0-57.0","6pjv4goy","","","","","","","","0"
"1192.9649999999965","{""confidence"":0}","[0]","survey-likert","58","241421","0.0-58.0","6pjv4goy","","","","","","","",""
"","","","call-function","59","241422","0.0-59.0","6pjv4goy","","","","","","","",""
"null","","","html-keyboard-response","60","242923","0.0-60.0","6pjv4goy","","<span style=""color:Black; font-size:50px;"">Agent A","null","","","","",""
"null","","","video-keyboard-response","61","246010","0.0-61.0","6pjv4goy","","","null","","Agent A","scrambled","STIM_SET_5/61513.bmp_pp75_L1_V1.0_veridical_freeview_isoTrue_Hflip_fps144.mp4",""
"null","","","html-keyboard-response","62","247518","0.0-62.0","6pjv4goy","","<span style=""color:Black; font-size:50px;"">Agent B","null","","","","",""
"null","","","video-keyboard-response","63","250586","0.0-63.0","6pjv4goy","","","null","","Agent B","veridical","STIM_SET_2_144/61513.bmp_pp75_L1_V1.0_veridical_freeview_isoTrue_fps144.mp4",""
"","","","call-function","64","250588","0.0-64.0","6pjv4goy","","","","","","","",""
"3733.414999999979","{""judgement"":1}","[0]","survey-likert","65","254322","0.0-65.0","6pjv4goy","","","","","","","","1"
"2031.5100000000093","{""confidence"":0}","[0]","survey-likert","66","256356","0.0-66.0","6pjv4goy","","","","","","","",""
"","","","call-function","67","256358","0.0-67.0","6pjv4goy","","","","","","","",""
"null","","","html-keyboard-response","68","257859","0.0-68.0","6pjv4goy","","<span style=""color:Black; font-size:50px;"">Agent A","null","","","","",""
"null","","","video-keyboard-response","69","260922","0.0-69.0","6pjv4goy","","","null","","Agent A","veridical","STIM_SET_2_144/1592017.bmp_pp154_L1_V1.0_veridical_freeview_isoTrue_fps144.mp4",""
"null","","","html-keyboard-response","70","262427","0.0-70.0","6pjv4goy","","<span style=""color:Black; font-size:50px;"">Agent B","null","","","","",""
"null","","","video-keyboard-response","71","265489","0.0-71.0","6pjv4goy","","","null","","Agent B","scrambled","STIM_SET_5/1592017.bmp_pp154_L1_V1.0_veridical_freeview_isoTrue_Hflip_fps144.mp4",""
"","","","call-function","72","265490","0.0-72.0","6pjv4goy","","","","","","","",""
"2029.625","{""judgement"":0}","[0]","survey-likert","73","267521","0.0-73.0","6pjv4goy","","","","","","","","0"
"1951.0149999999558","{""confidence"":0}","[0]","survey-likert","74","269473","0.0-74.0","6pjv4goy","","","","","","","",""
"","","","call-function","75","269474","0.0-75.0","6pjv4goy","","","","","","","",""
"null","","","html-keyboard-response","76","270976","0.0-76.0","6pjv4goy","","<span style=""color:Black; font-size:50px;"">Agent A","null","","","","",""
"null","","","video-keyboard-response","77","274038","0.0-77.0","6pjv4goy","","","null","","Agent A","scrambled","STIM_SET_5/1592047.bmp_pp51_L1_V1.0_veridical_freeview_isoTrue_Hflip_fps144.mp4",""
"null","","","html-keyboard-response","78","275544","0.0-78.0","6pjv4goy","","<span style=""color:Black; font-size:50px;"">Agent B","null","","","","",""
"null","","","video-keyboard-response","79","278612","0.0-79.0","6pjv4goy","","","null","","Agent B","veridical","STIM_SET_2_144/1592047.bmp_pp51_L1_V1.0_veridical_freeview_isoTrue_fps144.mp4",""
"","","","call-function","80","278612","0.0-80.0","6pjv4goy","","","","","","","",""
"3744.7449999999953","{""judgement"":1}","[0]","survey-likert","81","282358","0.0-81.0","6pjv4goy","","","","","","","","1"
"1997.2149999999674","{""confidence"":0}","[0]","survey-likert","82","284357","0.0-82.0","6pjv4goy","","","","","","","",""
"","","","call-function","83","284358","0.0-83.0","6pjv4goy","","","","","","","",""
"null","","","html-keyboard-response","84","285863","0.0-84.0","6pjv4goy","","<span style=""color:Black; font-size:50px;"">Agent A","null","","","","",""
"null","","","video-keyboard-response","85","288942","0.0-85.0","6pjv4goy","","","null","","Agent A","veridical","STIM_SET_2_144/285932.bmp_pp64_L1_V1.0_veridical_freeview_isoTrue_fps144.mp4",""
"null","","","html-keyboard-response","86","290450","0.0-86.0","6pjv4goy","","<span style=""color:Black; font-size:50px;"">Agent B","null","","","","",""
"null","","","video-keyboard-response","87","293525","0.0-87.0","6pjv4goy","","","null","","Agent B","scrambled","STIM_SET_5/285932.bmp_pp64_L1_V1.0_veridical_freeview_isoTrue_Hflip_fps144.mp4",""
"","","","call-function","88","293526","0.0-88.0","6pjv4goy","","","","","","","",""
"1845.2399999999907","{""judgement"":0}","[0]","survey-likert","89","295372","0.0-89.0","6pjv4goy","","","","","","","","0"
"1763.1049999999814","{""confidence"":0}","[0]","survey-likert","90","297137","0.0-90.0","6pjv4goy","","","","","","","",""
"6938.22000000003","","","instructions","91","304076","0.0-91.0","6pjv4goy","[{""page_index"":0,""viewing_time"":2236.2449999999953},{""page_index"":1,""viewing_time"":1551.8950000000186},{""page_index"":2,""viewing_time"":3149.9249999999884}]","","","","","","",""
"6117.160000000033","","","instructions","92","310194","0.0-92.0","6pjv4goy","[{""page_index"":0,""viewing_time"":1444.0100000000093},{""page_index"":1,""viewing_time"":3659.085000000021},{""page_index"":2,""viewing_time"":1013.9550000000163}]","","","","","","",""
"","","","call-function","93","310195","0.0-93.0","6pjv4goy","","","","","","","",""
"null","","","html-keyboard-response","94","311700","0.0-94.0","6pjv4goy","","<span style=""color:Black; font-size:50px;"">Agent A","null","","","","",""
"null","","","video-keyboard-response","95","314793","0.0-95.0","6pjv4goy","","","null","","Agent A","veridical","STIM_SET_2_144/285959.bmp_pp93_L1_V1.0_veridical_freeview_isoTrue_fps144.mp4",""
"null","","","html-keyboard-response","96","316300","0.0-96.0","6pjv4goy","","<span style=""color:Black; font-size:50px;"">Agent B","null","","","","",""
"null","","","video-keyboard-response","97","319390","0.0-97.0","6pjv4goy","","","null","","Agent B","scrambled","STIM_SET_5/285959.bmp_pp93_L1_V1.0_veridical_freeview_isoTrue_Hflip_fps144.mp4",""
"","","","call-function","98","319391","0.0-98.0","6pjv4goy","","","","","","","",""
"3835.7849999999744","{""judgement"":1}","[0]","survey-likert","99","323228","0.0-99.0","6pjv4goy","","","","","","","","0"
"1814.6049999999814","{""confidence"":0}","[0]","survey-likert","100","325044","0.0-100.0","6pjv4goy","","","","","","","",""
"","","","call-function","101","325045","0.0-101.0","6pjv4goy","","","","","","","",""
"null","","","html-keyboard-response","102","326548","0.0-102.0","6pjv4goy","","<span style=""color:Black; font-size:50px;"">Agent A","null","","","","",""
"null","","","video-keyboard-response","103","329623","0.0-103.0","6pjv4goy","","","null","","Agent A","veridical","STIM_SET_2_144/1160247.bmp_pp54_L2_V1.0_veridical_freeview_isoTrue_fps144.mp4",""
"null","","","html-keyboard-response","104","331127","0.0-104.0","6pjv4goy","","<span style=""color:Black; font-size:50px;"">Agent B","null","","","","",""
"null","","","video-keyboard-response","105","334203","0.0-105.0","6pjv4goy","","","null","","Agent B","scrambled","STIM_SET_5/1160247.bmp_pp54_L2_V1.0_veridical_freeview_isoTrue_Hflip_fps144.mp4",""
"","","","call-function","106","334204","0.0-106.0","6pjv4goy","","","","","","","",""
"1514.9500000000116","{""judgement"":1}","[0]","survey-likert","107","335720","0.0-107.0","6pjv4goy","","","","","","","","0"
"1273.679999999993","{""confidence"":1}","[0]","survey-likert","108","336995","0.0-108.0","6pjv4goy","","","","","","","",""
"","","","call-function","109","336996","0.0-109.0","6pjv4goy","","","","","","","",""
"null","","","html-keyboard-response","110","338498","0.0-110.0","6pjv4goy","","<span style=""color:Black; font-size:50px;"">Agent A","null","","","","",""
"null","","","video-keyboard-response","111","341562","0.0-111.0","6pjv4goy","","","null","","Agent A","veridical","STIM_SET_2_144/713829.bmp_pp60_L3_V1.0_veridical_freeview_isoTrue_fps144.mp4",""
"null","","","html-keyboard-response","112","343065","0.0-112.0","6pjv4goy","","<span style=""color:Black; font-size:50px;"">Agent B","null","","","","",""
"null","","","video-keyboard-response","113","346130","0.0-113.0","6pjv4goy","","","null","","Agent B","scrambled","STIM_SET_5/713829.bmp_pp60_L3_V1.0_veridical_freeview_isoTrue_Hflip_fps144.mp4",""
"","","","call-function","114","346131","0.0-114.0","6pjv4goy","","","","","","","",""
"1519.649999999965","{""judgement"":0}","[0]","survey-likert","115","347652","0.0-115.0","6pjv4goy","","","","","","","","0"
"1233.5900000000256","{""confidence"":1}","[0]","survey-likert","116","348887","0.0-116.0","6pjv4goy","","","","","","","",""
"","","","call-function","117","348888","0.0-117.0","6pjv4goy","","","","","","","",""
"null","","","html-keyboard-response","118","350390","0.0-118.0","6pjv4goy","","<span style=""color:Black; font-size:50px;"">Agent A","null","","","","",""
"null","","","video-keyboard-response","119","353479","0.0-119.0","6pjv4goy","","","null","","Agent A","scrambled","STIM_SET_5/1591920.bmp_pp97_L3_V1_veridical_freeview_isoTrue_Hflip_fps144.mp4",""
"null","","","html-keyboard-response","120","354983","0.0-120.0","6pjv4goy","","<span style=""color:Black; font-size:50px;"">Agent B","null","","","","",""
"null","","","video-keyboard-response","121","358063","0.0-121.0","6pjv4goy","","","null","","Agent B","veridical","STIM_SET_2_144/1591920.bmp_pp97_L3_V1_veridical_freeview_isoTrue_fps144.mp4",""
"","","","call-function","122","358064","0.0-122.0","6pjv4goy","","","","","","","",""
"2171.225000000035","{""judgement"":1}","[0]","survey-likert","123","360237","0.0-123.0","6pjv4goy","","","","","","","","1"
"1437.149999999965","{""confidence"":1}","[0]","survey-likert","124","361677","0.0-124.0","6pjv4goy","","","","","","","",""
"","","","call-function","125","361678","0.0-125.0","6pjv4goy","","","","","","","",""
"null","","","html-keyboard-response","126","363185","0.0-126.0","6pjv4goy","","<span style=""color:Black; font-size:50px;"">Agent A","null","","","","",""
"null","","","video-keyboard-response","127","366248","0.0-127.0","6pjv4goy","","","null","","Agent A","veridical","STIM_SET_2_144/713328.bmp_pp86_L2_V1.0_veridical_freeview_isoTrue_fps144.mp4",""
"null","","","html-keyboard-response","128","367751","0.0-128.0","6pjv4goy","","<span style=""color:Black; font-size:50px;"">Agent B","null","","","","",""
"null","","","video-keyboard-response","129","370813","0.0-129.0","6pjv4goy","","","null","","Agent B","scrambled","STIM_SET_5/713328.bmp_pp86_L2_V1.0_veridical_freeview_isoTrue_Hflip_fps144.mp4",""
"","","","call-function","130","370814","0.0-130.0","6pjv4goy","","","","","","","",""
"2549.1350000000093","{""judgement"":0}","[0]","survey-likert","131","373364","0.0-131.0","6pjv4goy","","","","","","","","0"
"1336.2949999999837","{""confidence"":1}","[0]","survey-likert","132","374703","0.0-132.0","6pjv4goy","","","","","","","",""
"","","","call-function","133","374704","0.0-133.0","6pjv4goy","","","","","","","",""
"null","","","html-keyboard-response","134","376211","0.0-134.0","6pjv4goy","","<span style=""color:Black; font-size:50px;"">Agent A","null","","","","",""
"null","","","video-keyboard-response","135","379275","0.0-135.0","6pjv4goy","","","null","","Agent A","veridical","STIM_SET_2_144/285684.bmp_pp80_L3_V1.0_veridical_freeview_isoTrue_fps144.mp4",""
"null","","","html-keyboard-response","136","380782","0.0-136.0","6pjv4goy","","<span style=""color:Black; font-size:50px;"">Agent B","null","","","","",""
"null","","","video-keyboard-response","137","383844","0.0-137.0","6pjv4goy","","","null","","Agent B","scrambled","STIM_SET_5/285684.bmp_pp80_L3_V1.0_veridical_freeview_isoTrue_Hflip_fps144.mp4",""
"","","","call-function","138","383845","0.0-138.0","6pjv4goy","","","","","","","",""
"1569.7050000000163","{""judgement"":1}","[0]","survey-likert","139","385416","0.0-139.0","6pjv4goy","","","","","","","","0"
"1257.960000000021","{""confidence"":1}","[0]","survey-likert","140","386675","0.0-140.0","6pjv4goy","","","","","","","",""
"","","","call-function","141","386676","0.0-141.0","6pjv4goy","","","","","","","",""
"null","","","html-keyboard-response","142","388178","0.0-142.0","6pjv4goy","","<span style=""color:Black; font-size:50px;"">Agent A","null","","","","",""
"null","","","video-keyboard-response","143","391274","0.0-143.0","6pjv4goy","","","null","","Agent A","scrambled","STIM_SET_5/1592568.bmp_pp71_L1_V1.0_veridical_freeview_isoTrue_Hflip_fps144.mp4",""
"null","","","html-keyboard-response","144","392778","0.0-144.0","6pjv4goy","","<span style=""color:Black; font-size:50px;"">Agent B","null","","","","",""
"null","","","video-keyboard-response","145","395867","0.0-145.0","6pjv4goy","","","null","","Agent B","veridical","STIM_SET_2_144/1592568.bmp_pp71_L1_V1.0_veridical_freeview_isoTrue_fps144.mp4",""
"","","","call-function","146","395868","0.0-146.0","6pjv4goy","","","","","","","",""
"1555.0050000000047","{""judgement"":0}","[0]","survey-likert","147","397424","0.0-147.0","6pjv4goy","","","","","","","","1"
"1141.5050000000047","{""confidence"":1}","[0]","survey-likert","148","398567","0.0-148.0","6pjv4goy","","","","","","","",""
"","","","call-function","149","398568","0.0-149.0","6pjv4goy","","","","","","","",""
"null","","","html-keyboard-response","150","400071","0.0-150.0","6pjv4goy","","<span style=""color:Black; font-size:50px;"">Agent A","null","","","","",""
"null","","","video-keyboard-response","151","403164","0.0-151.0","6pjv4goy","","","null","","Agent A","scrambled","STIM_SET_5/498025.bmp_pp81_L1_V1.0_veridical_freeview_isoTrue_Hflip_fps144.mp4",""
"null","","","html-keyboard-response","152","404666","0.0-152.0","6pjv4goy","","<span style=""color:Black; font-size:50px;"">Agent B","null","","","","",""
"null","","","video-keyboard-response","153","407761","0.0-153.0","6pjv4goy","","","null","","Agent B","veridical","STIM_SET_2_144/498025.bmp_pp81_L1_V1.0_veridical_freeview_isoTrue_fps144.mp4",""
"","","","call-function","154","407762","0.0-154.0","6pjv4goy","","","","","","","",""
"1248.5650000000023","{""judgement"":1}","[0]","survey-likert","155","409011","0.0-155.0","6pjv4goy","","","","","","","","1"
"1419.734999999986","{""confidence"":0}","[0]","survey-likert","156","410432","0.0-156.0","6pjv4goy","","","","","","","",""
"","","","call-function","157","410433","0.0-157.0","6pjv4goy","","","","","","","",""
"null","","","html-keyboard-response","158","411939","0.0-158.0","6pjv4goy","","<span style=""color:Black; font-size:50px;"">Agent A","null","","","","",""
"null","","","video-keyboard-response","159","415056","0.0-159.0","6pjv4goy","","","null","","Agent A","scrambled","STIM_SET_5/1159508.bmp_pp151_L1_V1.0_veridical_freeview_isoTrue_Hflip_fps144.mp4",""
"null","","","html-keyboard-response","160","416558","0.0-160.0","6pjv4goy","","<span style=""color:Black; font-size:50px;"">Agent B","null","","","","",""
"null","","","video-keyboard-response","161","419643","0.0-161.0","6pjv4goy","","","null","","Agent B","veridical","STIM_SET_2_144/1159508.bmp_pp151_L1_V1.0_veridical_freeview_isoTrue_fps144.mp4",""
"","","","call-function","162","419644","0.0-162.0","6pjv4goy","","","","","","","",""
"1311.484999999986","{""judgement"":1}","[0]","survey-likert","163","420957","0.0-163.0","6pjv4goy","","","","","","","","1"
"1083.780000000028","{""confidence"":1}","[0]","survey-likert","164","422042","0.0-164.0","6pjv4goy","","","","","","","",""
"","","","call-function","165","422043","0.0-165.0","6pjv4goy","","","","","","","",""
"null","","","html-keyboard-response","166","423548","0.0-166.0","6pjv4goy","","<span style=""color:Black; font-size:50px;"">Agent A","null","","","","",""
"null","","","video-keyboard-response","167","426639","0.0-167.0","6pjv4goy","","","null","","Agent A","scrambled","STIM_SET_5/713274.bmp_pp73_L3_V1.0_veridical_freeview_isoTrue_Hflip_fps144.mp4",""
"null","","","html-keyboard-response","168","428146","0.0-168.0","6pjv4goy","","<span style=""color:Black; font-size:50px;"">Agent B","null","","","","",""
"null","","","video-keyboard-response","169","431214","0.0-169.0","6pjv4goy","","","null","","Agent B","veridical","STIM_SET_2_144/713274.bmp_pp73_L3_V1.0_veridical_freeview_isoTrue_fps144.mp4",""
"","","","call-function","170","431215","0.0-170.0","6pjv4goy","","","","","","","",""
"1379.7600000000093","{""judgement"":1}","[0]","survey-likert","171","432596","0.0-171.0","6pjv4goy","","","","","","","","1"
"1462.929999999993","{""confidence"":0}","[0]","survey-likert","172","434060","0.0-172.0","6pjv4goy","","","","","","","",""
"4985.849999999977","","","instructions","173","439047","0.0-173.0","6pjv4goy","[{""page_index"":0,""viewing_time"":2014.8499999999767},{""page_index"":1,""viewing_time"":1197.8649999999907},{""page_index"":2,""viewing_time"":1772.9800000000396}]","","","","","","",""
"3744.1149999999907","","","instructions","174","442792","0.0-174.0","6pjv4goy","[{""page_index"":0,""viewing_time"":1160.1049999999814},{""page_index"":1,""viewing_time"":1795.445000000007},{""page_index"":2,""viewing_time"":788.4550000000163}]","","","","","","",""
"","","","call-function","175","442793","0.0-175.0","6pjv4goy","","","","","","","",""
"null","","","html-keyboard-response","176","444298","0.0-176.0","6pjv4goy","","<span style=""color:Black; font-size:50px;"">Agent A","null","","","","",""
"null","","","video-keyboard-response","177","447373","0.0-177.0","6pjv4goy","","","null","","Agent A","scrambled","STIM_SET_5/1159874.bmp_pp96_L2_V1.0_veridical_freeview_isoTrue_Hflip_fps144.mp4",""
"null","","","html-keyboard-response","178","448876","0.0-178.0","6pjv4goy","","<span style=""color:Black; font-size:50px;"">Agent B","null","","","","",""
"null","","","video-keyboard-response","179","451956","0.0-179.0","6pjv4goy","","","null","","Agent B","veridical","STIM_SET_2_144/1159874.bmp_pp96_L2_V1.0_veridical_freeview_isoTrue_fps144.mp4",""
"","","","call-function","180","451957","0.0-180.0","6pjv4goy","","","","","","","",""
"1561.774999999965","{""judgement"":0}","[0]","survey-likert","181","453520","0.0-181.0","6pjv4goy","","","","","","","","1"
"1539.8550000000396","{""confidence"":1}","[0]","survey-likert","182","455061","0.0-182.0","6pjv4goy","","","","","","","",""
"","","","call-function","183","455062","0.0-183.0","6pjv4goy","","","","","","","",""
"null","","","html-keyboard-response","184","456569","0.0-184.0","6pjv4goy","","<span style=""color:Black; font-size:50px;"">Agent A","null","","","","",""
"null","","","video-keyboard-response","185","459634","0.0-185.0","6pjv4goy","","","null","","Agent A","scrambled","STIM_SET_5/1159392.bmp_pp96_L2_V1.0_veridical_freeview_isoTrue_Hflip_fps144.mp4",""
"null","","","html-keyboard-response","186","461138","0.0-186.0","6pjv4goy","","<span style=""color:Black; font-size:50px;"">Agent B","null","","","","",""
"null","","","video-keyboard-response","187","464217","0.0-187.0","6pjv4goy","","","null","","Agent B","veridical","STIM_SET_2_144/1159392.bmp_pp96_L2_V1.0_veridical_freeview_isoTrue_fps144.mp4",""
"","","","call-function","188","464218","0.0-188.0","6pjv4goy","","","","","","","",""
"1392.4199999999837","{""judgement"":1}","[0]","survey-likert","189","465611","0.0-189.0","6pjv4goy","","","","","","","","1"
"1640.344999999972","{""confidence"":0}","[0]","survey-likert","190","467253","0.0-190.0","6pjv4goy","","","","","","","",""
"","","","call-function","191","467254","0.0-191.0","6pjv4goy","","","","","","","",""
"null","","","html-keyboard-response","192","468757","0.0-192.0","6pjv4goy","","<span style=""color:Black; font-size:50px;"">Agent A","null","","","","",""
"null","","","video-keyboard-response","193","471854","0.0-193.0","6pjv4goy","","","null","","Agent A","veridical","STIM_SET_2_144/713770.bmp_pp89_L1_V1.0_veridical_freeview_isoTrue_fps144.mp4",""
"null","","","html-keyboard-response","194","473360","0.0-194.0","6pjv4goy","","<span style=""color:Black; font-size:50px;"">Agent B","null","","","","",""
"null","","","video-keyboard-response","195","476455","0.0-195.0","6pjv4goy","","","null","","Agent B","scrambled","STIM_SET_5/713770.bmp_pp89_L1_V1.0_veridical_freeview_isoTrue_Hflip_fps144.mp4",""
"","","","call-function","196","476456","0.0-196.0","6pjv4goy","","","","","","","",""
"1200.219999999972","{""judgement"":0}","[0]","survey-likert","197","477658","0.0-197.0","6pjv4goy","","","","","","","","0"
"1491.545000000042","{""confidence"":1}","[0]","survey-likert","198","479152","0.0-198.0","6pjv4goy","","","","","","","",""
"","","","call-function","199","479153","0.0-199.0","6pjv4goy","","","","","","","",""
"null","","","html-keyboard-response","200","480657","0.0-200.0","6pjv4goy","","<span style=""color:Black; font-size:50px;"">Agent A","null","","","","",""
"null","","","video-keyboard-response","201","483718","0.0-201.0","6pjv4goy","","","null","","Agent A","scrambled","STIM_SET_5/1159325.bmp_pp67_L2_V1.0_veridical_freeview_isoTrue_Hflip_fps144.mp4",""
"null","","","html-keyboard-response","202","485220","0.0-202.0","6pjv4goy","","<span style=""color:Black; font-size:50px;"">Agent B","null","","","","",""
"null","","","video-keyboard-response","203","488281","0.0-203.0","6pjv4goy","","","null","","Agent B","veridical","STIM_SET_2_144/1159325.bmp_pp67_L2_V1.0_veridical_freeview_isoTrue_fps144.mp4",""
"","","","call-function","204","488282","0.0-204.0","6pjv4goy","","","","","","","",""
"1033.1049999999814","{""judgement"":1}","[0]","survey-likert","205","489316","0.0-205.0","6pjv4goy","","","","","","","","1"
"1472.3899999999558","{""confidence"":1}","[0]","survey-likert","206","490791","0.0-206.0","6pjv4goy","","","","","","","",""
"","","","call-function","207","490791","0.0-207.0","6pjv4goy","","","","","","","",""
"null","","","html-keyboard-response","208","492293","0.0-208.0","6pjv4goy","","<span style=""color:Black; font-size:50px;"">Agent A","null","","","","",""
"null","","","video-keyboard-response","209","495366","0.0-209.0","6pjv4goy","","","null","","Agent A","veridical","STIM_SET_2_144/1159819.bmp_pp151_L1_V1.0_veridical_freeview_isoTrue_fps144.mp4",""
"null","","","html-keyboard-response","210","496871","0.0-210.0","6pjv4goy","","<span style=""color:Black; font-size:50px;"">Agent B","null","","","","",""
"null","","","video-keyboard-response","211","499940","0.0-211.0","6pjv4goy","","","null","","Agent B","scrambled","STIM_SET_5/1159819.bmp_pp151_L1_V1.0_veridical_freeview_isoTrue_Hflip_fps144.mp4",""
"","","","call-function","212","499941","0.0-212.0","6pjv4goy","","","","","","","",""
"2631.2550000000047","{""judgement"":1}","[0]","survey-likert","213","502573","0.0-213.0","6pjv4goy","","","","","","","","0"
"1169.7350000000442","{""confidence"":0}","[0]","survey-likert","214","503744","0.0-214.0","6pjv4goy","","","","","","","",""
"","","","call-function","215","503745","0.0-215.0","6pjv4goy","","","","","","","",""
"null","","","html-keyboard-response","216","505248","0.0-216.0","6pjv4goy","","<span style=""color:Black; font-size:50px;"">Agent A","null","","","","",""
"null","","","video-keyboard-response","217","508335","0.0-217.0","6pjv4goy","","","null","","Agent A","scrambled","STIM_SET_5/713788.bmp_pp52_L1_V1.0_veridical_freeview_isoTrue_Hflip_fps144.mp4",""
"null","","","html-keyboard-response","218","509838","0.0-218.0","6pjv4goy","","<span style=""color:Black; font-size:50px;"">Agent B","null","","","","",""
"null","","","video-keyboard-response","219","512919","0.0-219.0","6pjv4goy","","","null","","Agent B","veridical","STIM_SET_2_144/713788.bmp_pp52_L1_V1.0_veridical_freeview_isoTrue_fps144.mp4",""
"","","","call-function","220","512920","0.0-220.0","6pjv4goy","","","","","","","",""
"1469.7699999999604","{""judgement"":1}","[0]","survey-likert","221","514391","0.0-221.0","6pjv4goy","","","","","","","","1"
"2061.2600000000093","{""confidence"":1}","[0]","survey-likert","222","516454","0.0-222.0","6pjv4goy","","","","","","","",""
"","","","call-function","223","516455","0.0-223.0","6pjv4goy","","","","","","","",""
"null","","","html-keyboard-response","224","517956","0.0-224.0","6pjv4goy","","<span style=""color:Black; font-size:50px;"">Agent A","null","","","","",""
"null","","","video-keyboard-response","225","521032","0.0-225.0","6pjv4goy","","","null","","Agent A","veridical","STIM_SET_2_144/498326.bmp_pp57_L1_V1.0_veridical_freeview_isoTrue_fps144.mp4",""
"null","","","html-keyboard-response","226","522537","0.0-226.0","6pjv4goy","","<span style=""color:Black; font-size:50px;"">Agent B","null","","","","",""
"null","","","video-keyboard-response","227","525608","0.0-227.0","6pjv4goy","","","null","","Agent B","scrambled","STIM_SET_5/498326.bmp_pp57_L1_V1.0_veridical_freeview_isoTrue_Hflip_fps144.mp4",""
"","","","call-function","228","525609","0.0-228.0","6pjv4goy","","","","","","","",""
"1996.8850000000093","{""judgement"":0}","[0]","survey-likert","229","527607","0.0-229.0","6pjv4goy","","","","","","","","0"
"1513.109999999986","{""confidence"":0}","[0]","survey-likert","230","529121","0.0-230.0","6pjv4goy","","","","","","","",""
"","","","call-function","231","529123","0.0-231.0","6pjv4goy","","","","","","","",""
"null","","","html-keyboard-response","232","530625","0.0-232.0","6pjv4goy","","<span style=""color:Black; font-size:50px;"">Agent A","null","","","","",""
"null","","","video-keyboard-response","233","533709","0.0-233.0","6pjv4goy","","","null","","Agent A","veridical","STIM_SET_2_144/1592289.bmp_pp92_L3_V1.0_veridical_freeview_isoTrue_fps144.mp4",""
"null","","","html-keyboard-response","234","535216","0.0-234.0","6pjv4goy","","<span style=""color:Black; font-size:50px;"">Agent B","null","","","","",""
"null","","","video-keyboard-response","235","538298","0.0-235.0","6pjv4goy","","","null","","Agent B","scrambled","STIM_SET_5/1592289.bmp_pp92_L3_V1.0_veridical_freeview_isoTrue_Hflip_fps144.mp4",""
"","","","call-function","236","538299","0.0-236.0","6pjv4goy","","","","","","","",""
"2312.109999999986","{""judgement"":1}","[0]","survey-likert","237","540612","0.0-237.0","6pjv4goy","","","","","","","","0"
"1436.7750000000233","{""confidence"":0}","[0]","survey-likert","238","542051","0.0-238.0","6pjv4goy","","","","","","","",""
"","","","call-function","239","542052","0.0-239.0","6pjv4goy","","","","","","","",""
"null","","","html-keyboard-response","240","543555","0.0-240.0","6pjv4goy","","<span style=""color:Black; font-size:50px;"">Agent A","null","","","","",""
"null","","","video-keyboard-response","241","546637","0.0-241.0","6pjv4goy","","","null","","Agent A","veridical","STIM_SET_2_144/1592129.bmp_pp153_L3_V1.0_veridical_freeview_isoTrue_fps144.mp4",""
"null","","","html-keyboard-response","242","548142","0.0-242.0","6pjv4goy","","<span style=""color:Black; font-size:50px;"">Agent B","null","","","","",""
"null","","","video-keyboard-response","243","551206","0.0-243.0","6pjv4goy","","","null","","Agent B","scrambled","STIM_SET_5/1592129.bmp_pp153_L3_V1.0_veridical_freeview_isoTrue_Hflip_fps144.mp4",""
"","","","call-function","244","551207","0.0-244.0","6pjv4goy","","","","","","","",""
"2239.539999999921","{""judgement"":0}","[0]","survey-likert","245","553447","0.0-245.0","6pjv4goy","","","","","","","","0"
"1903.484999999986","{""confidence"":0}","[0]","survey-likert","246","555352","0.0-246.0","6pjv4goy","","","","","","","",""
"","","","call-function","247","555353","0.0-247.0","6pjv4goy","","","","","","","",""
"null","","","html-keyboard-response","248","556855","0.0-248.0","6pjv4goy","","<span style=""color:Black; font-size:50px;"">Agent A","null","","","","",""
"null","","","video-keyboard-response","249","559919","0.0-249.0","6pjv4goy","","","null","","Agent A","veridical","STIM_SET_2_144/1592857.bmp_pp52_L1_V1_veridical_freeview_isoTrue_fps144.mp4",""
"null","","","html-keyboard-response","250","561423","0.0-250.0","6pjv4goy","","<span style=""color:Black; font-size:50px;"">Agent B","null","","","","",""
"null","","","video-keyboard-response","251","564500","0.0-251.0","6pjv4goy","","","null","","Agent B","scrambled","STIM_SET_5/1592857.bmp_pp52_L1_V1_veridical_freeview_isoTrue_Hflip_fps144.mp4",""
"","","","call-function","252","564501","0.0-252.0","6pjv4goy","","","","","","","",""
"1423.6749999999302","{""judgement"":0}","[0]","survey-likert","253","565925","0.0-253.0","6pjv4goy","","","","","","","","0"
"1534.5050000000047","{""confidence"":1}","[0]","survey-likert","254","567461","0.0-254.0","6pjv4goy","","","","","","","",""
"3158.4349999999395","","","instructions","255","570621","0.0-255.0","6pjv4goy","[{""page_index"":0,""viewing_time"":1799.2099999999627},{""page_index"":1,""viewing_time"":718.109999999986},{""page_index"":2,""viewing_time"":640.9600000000792}]","","","","","","",""
"2340.054999999935","","","instructions","256","572961","0.0-256.0","6pjv4goy","[{""page_index"":0,""viewing_time"":653.9349999999395},{""page_index"":1,""viewing_time"":980.0100000000093},{""page_index"":2,""viewing_time"":706.0050000000047}]","","","","","","",""
"","","","call-function","257","572962","0.0-257.0","6pjv4goy","","","","","","","",""
"null","","","html-keyboard-response","258","574463","0.0-258.0","6pjv4goy","","<span style=""color:Black; font-size:50px;"">Agent A","null","","","","",""
"null","","","video-keyboard-response","259","577533","0.0-259.0","6pjv4goy","","","null","","Agent A","scrambled","STIM_SET_5/498261.bmp_pp84_L3_V1.0_veridical_freeview_isoTrue_Hflip_fps144.mp4",""
"null","","","html-keyboard-response","260","579040","0.0-260.0","6pjv4goy","","<span style=""color:Black; font-size:50px;"">Agent B","null","","","","",""
"null","","","video-keyboard-response","261","582126","0.0-261.0","6pjv4goy","","","null","","Agent B","veridical","STIM_SET_2_144/498261.bmp_pp84_L3_V1.0_veridical_freeview_isoTrue_fps144.mp4",""
"","","","call-function","262","582127","0.0-262.0","6pjv4goy","","","","","","","",""
"1511.9000000000233","{""judgement"":1}","[0]","survey-likert","263","583639","0.0-263.0","6pjv4goy","","","","","","","","1"
"1445.0649999999441","{""confidence"":0}","[0]","survey-likert","264","585086","0.0-264.0","6pjv4goy","","","","","","","",""
"","","","call-function","265","585088","0.0-265.0","6pjv4goy","","","","","","","",""
"null","","","html-keyboard-response","266","586591","0.0-266.0","6pjv4goy","","<span style=""color:Black; font-size:50px;"">Agent A","null","","","","",""
"null","","","video-keyboard-response","267","589659","0.0-267.0","6pjv4goy","","","null","","Agent A","scrambled","STIM_SET_5/1592201.bmp_pp97_L3_V1.0_veridical_freeview_isoTrue_Hflip_fps144.mp4",""
"null","","","html-keyboard-response","268","591167","0.0-268.0","6pjv4goy","","<span style=""color:Black; font-size:50px;"">Agent B","null","","","","",""
"null","","","video-keyboard-response","269","594238","0.0-269.0","6pjv4goy","","","null","","Agent B","veridical","STIM_SET_2_144/1592201.bmp_pp97_L3_V1.0_veridical_freeview_isoTrue_fps144.mp4",""
"","","","call-function","270","594239","0.0-270.0","6pjv4goy","","","","","","","",""
"1136.3100000000559","{""judgement"":1}","[0]","survey-likert","271","595377","0.0-271.0","6pjv4goy","","","","","","","","1"
"1057.5349999999162","{""confidence"":1}","[0]","survey-likert","272","596437","0.0-272.0","6pjv4goy","","","","","","","",""
"","","","call-function","273","596437","0.0-273.0","6pjv4goy","","","","","","","",""
"null","","","html-keyboard-response","274","597942","0.0-274.0","6pjv4goy","","<span style=""color:Black; font-size:50px;"">Agent A","null","","","","",""
"null","","","video-keyboard-response","275","601005","0.0-275.0","6pjv4goy","","","null","","Agent A","scrambled","STIM_SET_5/1591975.bmp_pp88_L2_V1.0_veridical_freeview_isoTrue_Hflip_fps144.mp4",""
"null","","","html-keyboard-response","276","602507","0.0-276.0","6pjv4goy","","<span style=""color:Black; font-size:50px;"">Agent B","null","","","","",""
"null","","","video-keyboard-response","277","605571","0.0-277.0","6pjv4goy","","","null","","Agent B","veridical","STIM_SET_2_144/1591975.bmp_pp88_L2_V1.0_veridical_freeview_isoTrue_fps144.mp4",""
"","","","call-function","278","605572","0.0-278.0","6pjv4goy","","","","","","","",""
"1676.3149999999441","{""judgement"":0}","[0]","survey-likert","279","607250","0.0-279.0","6pjv4goy","","","","","","","","1"
"1410.2050000000745","{""confidence"":0}","[0]","survey-likert","280","608662","0.0-280.0","6pjv4goy","","","","","","","",""
"","","","call-function","281","608662","0.0-281.0","6pjv4goy","","","","","","","",""
"null","","","html-keyboard-response","282","610164","0.0-282.0","6pjv4goy","","<span style=""color:Black; font-size:50px;"">Agent A","null","","","","",""
"null","","","video-keyboard-response","283","613242","0.0-283.0","6pjv4goy","","","null","","Agent A","veridical","STIM_SET_2_144/713742.bmp_pp91_L3_V1.0_veridical_freeview_isoTrue_fps144.mp4",""
"null","","","html-keyboard-response","284","614745","0.0-284.0","6pjv4goy","","<span style=""color:Black; font-size:50px;"">Agent B","null","","","","",""
"null","","","video-keyboard-response","285","617836","0.0-285.0","6pjv4goy","","","null","","Agent B","scrambled","STIM_SET_5/713742.bmp_pp91_L3_V1.0_veridical_freeview_isoTrue_Hflip_fps144.mp4",""
"","","","call-function","286","617837","0.0-286.0","6pjv4goy","","","","","","","",""
"1305.844999999972","{""judgement"":0}","[0]","survey-likert","287","619144","0.0-287.0","6pjv4goy","","","","","","","","0"
"1305.4150000000373","{""confidence"":1}","[0]","survey-likert","288","620452","0.0-288.0","6pjv4goy","","","","","","","",""
"","","","call-function","289","620453","0.0-289.0","6pjv4goy","","","","","","","",""
"null","","","html-keyboard-response","290","621957","0.0-290.0","6pjv4goy","","<span style=""color:Black; font-size:50px;"">Agent A","null","","","","",""
"null","","","video-keyboard-response","291","625042","0.0-291.0","6pjv4goy","","","null","","Agent A","veridical","STIM_SET_2_144/1159956.bmp_pp59_L3_V1.0_veridical_freeview_isoTrue_fps144.mp4",""
"null","","","html-keyboard-response","292","626546","0.0-292.0","6pjv4goy","","<span style=""color:Black; font-size:50px;"">Agent B","null","","","","",""
"null","","","video-keyboard-response","293","629625","0.0-293.0","6pjv4goy","","","null","","Agent B","scrambled","STIM_SET_5/1159956.bmp_pp59_L3_V1.0_veridical_freeview_isoTrue_Hflip_fps144.mp4",""
"","","","call-function","294","629626","0.0-294.0","6pjv4goy","","","","","","","",""
"1402.1299999998882","{""judgement"":1}","[0]","survey-likert","295","631029","0.0-295.0","6pjv4goy","","","","","","","","0"
"1549.0349999999162","{""confidence"":0}","[0]","survey-likert","296","632580","0.0-296.0","6pjv4goy","","","","","","","",""
"","","","call-function","297","632581","0.0-297.0","6pjv4goy","","","","","","","",""
"null","","","html-keyboard-response","298","634084","0.0-298.0","6pjv4goy","","<span style=""color:Black; font-size:50px;"">Agent A","null","","","","",""
"null","","","video-keyboard-response","299","637172","0.0-299.0","6pjv4goy","","","null","","Agent A","veridical","STIM_SET_2_144/713790.bmp_pp100_L3_V1_veridical_freeview_isoTrue_fps144.mp4",""
"null","","","html-keyboard-response","300","638678","0.0-300.0","6pjv4goy","","<span style=""color:Black; font-size:50px;"">Agent B","null","","","","",""
"null","","","video-keyboard-response","301","641769","0.0-301.0","6pjv4goy","","","null","","Agent B","scrambled","STIM_SET_5/713790.bmp_pp100_L3_V1_veridical_freeview_isoTrue_Hflip_fps144.mp4",""
"","","","call-function","302","641770","0.0-302.0","6pjv4goy","","","","","","","",""
"1600.4949999999953","{""judgement"":0}","[0]","survey-likert","303","643371","0.0-303.0","6pjv4goy","","","","","","","","0"
"1120.1599999999162","{""confidence"":0}","[0]","survey-likert","304","644493","0.0-304.0","6pjv4goy","","","","","","","",""
"","","","call-function","305","644494","0.0-305.0","6pjv4goy","","","","","","","",""
"null","","","html-keyboard-response","306","645996","0.0-306.0","6pjv4goy","","<span style=""color:Black; font-size:50px;"">Agent A","null","","","","",""
"null","","","video-keyboard-response","307","649072","0.0-307.0","6pjv4goy","","","null","","Agent A","veridical","STIM_SET_2_144/1159427.bmp_pp98_L1_V1.0_veridical_freeview_isoTrue_fps144.mp4",""
"null","","","html-keyboard-response","308","650574","0.0-308.0","6pjv4goy","","<span style=""color:Black; font-size:50px;"">Agent B","null","","","","",""
"null","","","video-keyboard-response","309","653651","0.0-309.0","6pjv4goy","","","null","","Agent B","scrambled","STIM_SET_5/1159427.bmp_pp98_L1_V1.0_veridical_freeview_isoTrue_Hflip_fps144.mp4",""
"","","","call-function","310","653652","0.0-310.0","6pjv4goy","","","","","","","",""
"1853.9300000000512","{""judgement"":0}","[0]","survey-likert","311","655507","0.0-311.0","6pjv4goy","","","","","","","","0"
"1094.344999999972","{""confidence"":1}","[0]","survey-likert","312","656603","0.0-312.0","6pjv4goy","","","","","","","",""
"","","","call-function","313","656604","0.0-313.0","6pjv4goy","","","","","","","",""
"null","","","html-keyboard-response","314","658107","0.0-314.0","6pjv4goy","","<span style=""color:Black; font-size:50px;"">Agent A","null","","","","",""
"null","","","video-keyboard-response","315","661180","0.0-315.0","6pjv4goy","","","null","","Agent A","veridical","STIM_SET_2_144/713858.bmp_pp57_L1_V1.0_veridical_freeview_isoTrue_fps144.mp4",""
"null","","","html-keyboard-response","316","662685","0.0-316.0","6pjv4goy","","<span style=""color:Black; font-size:50px;"">Agent B","null","","","","",""
"null","","","video-keyboard-response","317","665760","0.0-317.0","6pjv4goy","","","null","","Agent B","scrambled","STIM_SET_5/713858.bmp_pp57_L1_V1.0_veridical_freeview_isoTrue_Hflip_fps144.mp4",""
"","","","call-function","318","665761","0.0-318.0","6pjv4goy","","","","","","","",""
"2702.1350000000093","{""judgement"":1}","[0]","survey-likert","319","668464","0.0-319.0","6pjv4goy","","","","","","","","0"
"1617.875","{""confidence"":0}","[0]","survey-likert","320","670084","0.0-320.0","6pjv4goy","","","","","","","",""
"","","","call-function","321","670085","0.0-321.0","6pjv4goy","","","","","","","",""
"null","","","html-keyboard-response","322","671587","0.0-322.0","6pjv4goy","","<span style=""color:Black; font-size:50px;"">Agent A","null","","","","",""
"null","","","video-keyboard-response","323","674667","0.0-323.0","6pjv4goy","","","null","","Agent A","veridical","STIM_SET_2_144/1592168.bmp_pp71_L1_V1.0_veridical_freeview_isoTrue_fps144.mp4",""
"null","","","html-keyboard-response","324","676170","0.0-324.0","6pjv4goy","","<span style=""color:Black; font-size:50px;"">Agent B","null","","","","",""
"null","","","video-keyboard-response","325","679248","0.0-325.0","6pjv4goy","","","null","","Agent B","scrambled","STIM_SET_5/1592168.bmp_pp71_L1_V1.0_veridical_freeview_isoTrue_Hflip_fps144.mp4",""
"","","","call-function","326","679249","0.0-326.0","6pjv4goy","","","","","","","",""
"2482.390000000014","{""judgement"":0}","[0]","survey-likert","327","681732","0.0-327.0","6pjv4goy","","","","","","","","0"
"1663.1049999999814","{""confidence"":1}","[0]","survey-likert","328","683397","0.0-328.0","6pjv4goy","","","","","","","",""
"","","","call-function","329","683397","0.0-329.0","6pjv4goy","","","","","","","",""
"null","","","html-keyboard-response","330","684899","0.0-330.0","6pjv4goy","","<span style=""color:Black; font-size:50px;"">Agent A","null","","","","",""
"null","","","video-keyboard-response","331","687996","0.0-331.0","6pjv4goy","","","null","","Agent A","veridical","STIM_SET_2_144/285946.bmp_pp79_L2_V1.0_veridical_freeview_isoTrue_fps144.mp4",""
"null","","","html-keyboard-response","332","689498","0.0-332.0","6pjv4goy","","<span style=""color:Black; font-size:50px;"">Agent B","null","","","","",""
"null","","","video-keyboard-response","333","692598","0.0-333.0","6pjv4goy","","","null","","Agent B","scrambled","STIM_SET_5/285946.bmp_pp79_L2_V1.0_veridical_freeview_isoTrue_Hflip_fps144.mp4",""
"","","","call-function","334","692599","0.0-334.0","6pjv4goy","","","","","","","",""
"2387.405000000028","{""judgement"":1}","[0]","survey-likert","335","694988","0.0-335.0","6pjv4goy","","","","","","","","0"
"2478.3499999999767","{""confidence"":0}","[0]","survey-likert","336","697467","0.0-336.0","6pjv4goy","","","","","","","",""
"2777.405000000028","","","instructions","337","700246","0.0-337.0","6pjv4goy","[{""page_index"":0,""viewing_time"":1538.4650000000838},{""page_index"":1,""viewing_time"":668.8800000000047},{""page_index"":2,""viewing_time"":569.9099999999162}]","","","","","","",""
"2094.4550000000745","","","instructions","338","702342","0.0-338.0","6pjv4goy","[{""page_index"":0,""viewing_time"":649.0450000000419},{""page_index"":1,""viewing_time"":739.3649999999907},{""page_index"":2,""viewing_time"":705.7550000000047}]","","","","","","",""
"","","","call-function","339","702343","0.0-339.0","6pjv4goy","","","","","","","",""
"null","","","html-keyboard-response","340","703848","0.0-340.0","6pjv4goy","","<span style=""color:Black; font-size:50px;"">Agent A","null","","","","",""
"null","","","video-keyboard-response","341","706935","0.0-341.0","6pjv4goy","","","null","","Agent A","scrambled","STIM_SET_5/1592314.bmp_pp100_L3_V1.0_veridical_freeview_isoTrue_Hflip_fps144.mp4",""
"null","","","html-keyboard-response","342","708440","0.0-342.0","6pjv4goy","","<span style=""color:Black; font-size:50px;"">Agent B","null","","","","",""
"null","","","video-keyboard-response","343","711503","0.0-343.0","6pjv4goy","","","null","","Agent B","veridical","STIM_SET_2_144/1592314.bmp_pp100_L3_V1.0_veridical_freeview_isoTrue_fps144.mp4",""
"","","","call-function","344","711505","0.0-344.0","6pjv4goy","","","","","","","",""
"2237.6049999999814","{""judgement"":1}","[0]","survey-likert","345","713743","0.0-345.0","6pjv4goy","","","","","","","","1"
"1479.4449999999488","{""confidence"":0}","[0]","survey-likert","346","715224","0.0-346.0","6pjv4goy","","","","","","","",""
"","","","call-function","347","715225","0.0-347.0","6pjv4goy","","","","","","","",""
"null","","","html-keyboard-response","348","716730","0.0-348.0","6pjv4goy","","<span style=""color:Black; font-size:50px;"">Agent A","null","","","","",""
"null","","","video-keyboard-response","349","719799","0.0-349.0","6pjv4goy","","","null","","Agent A","veridical","STIM_SET_2_144/1592747.bmp_pp53_L2_V1.0_veridical_freeview_isoTrue_fps144.mp4",""
"null","","","html-keyboard-response","350","721306","0.0-350.0","6pjv4goy","","<span style=""color:Black; font-size:50px;"">Agent B","null","","","","",""
"null","","","video-keyboard-response","351","724373","0.0-351.0","6pjv4goy","","","null","","Agent B","scrambled","STIM_SET_5/1592747.bmp_pp53_L2_V1.0_veridical_freeview_isoTrue_Hflip_fps144.mp4",""
"","","","call-function","352","724374","0.0-352.0","6pjv4goy","","","","","","","",""
"1517.625","{""judgement"":1}","[0]","survey-likert","353","725893","0.0-353.0","6pjv4goy","","","","","","","","0"
"1247.8450000000885","{""confidence"":1}","[0]","survey-likert","354","727142","0.0-354.0","6pjv4goy","","","","","","","",""
"","","","call-function","355","727143","0.0-355.0","6pjv4goy","","","","","","","",""
"null","","","html-keyboard-response","356","728647","0.0-356.0","6pjv4goy","","<span style=""color:Black; font-size:50px;"">Agent A","null","","","","",""
"null","","","video-keyboard-response","357","731725","0.0-357.0","6pjv4goy","","","null","","Agent A","veridical","STIM_SET_2_144/713381.bmp_pp82_L2_V1.0_veridical_freeview_isoTrue_fps144.mp4",""
"null","","","html-keyboard-response","358","733229","0.0-358.0","6pjv4goy","","<span style=""color:Black; font-size:50px;"">Agent B","null","","","","",""
"null","","","video-keyboard-response","359","736317","0.0-359.0","6pjv4goy","","","null","","Agent B","scrambled","STIM_SET_5/713381.bmp_pp82_L2_V1.0_veridical_freeview_isoTrue_Hflip_fps144.mp4",""
"","","","call-function","360","736318","0.0-360.0","6pjv4goy","","","","","","","",""
"2000.9499999999534","{""judgement"":1}","[0]","survey-likert","361","738320","0.0-361.0","6pjv4goy","","","","","","","","0"
"1115","{""confidence"":1}","[0]","survey-likert","362","739436","0.0-362.0","6pjv4goy","","","","","","","",""
"","","","call-function","363","739438","0.0-363.0","6pjv4goy","","","","","","","",""
"null","","","html-keyboard-response","364","740943","0.0-364.0","6pjv4goy","","<span style=""color:Black; font-size:50px;"">Agent A","null","","","","",""
"null","","","video-keyboard-response","365","744020","0.0-365.0","6pjv4goy","","","null","","Agent A","veridical","STIM_SET_2_144/1592044.bmp_pp94_L2_V1.0_veridical_freeview_isoTrue_fps144.mp4",""
"null","","","html-keyboard-response","366","745526","0.0-366.0","6pjv4goy","","<span style=""color:Black; font-size:50px;"">Agent B","null","","","","",""
"null","","","video-keyboard-response","367","748603","0.0-367.0","6pjv4goy","","","null","","Agent B","scrambled","STIM_SET_5/1592044.bmp_pp94_L2_V1.0_veridical_freeview_isoTrue_Hflip_fps144.mp4",""
"","","","call-function","368","748604","0.0-368.0","6pjv4goy","","","","","","","",""
"1512.6450000000186","{""judgement"":1}","[0]","survey-likert","369","750118","0.0-369.0","6pjv4goy","","","","","","","","0"
"1072.7100000000792","{""confidence"":1}","[0]","survey-likert","370","751192","0.0-370.0","6pjv4goy","","","","","","","",""
"","","","call-function","371","751193","0.0-371.0","6pjv4goy","","","","","","","",""
"null","","","html-keyboard-response","372","752694","0.0-372.0","6pjv4goy","","<span style=""color:Black; font-size:50px;"">Agent A","null","","","","",""
"null","","","video-keyboard-response","373","755780","0.0-373.0","6pjv4goy","","","null","","Agent A","scrambled","STIM_SET_5/498258.bmp_pp51_L1_V1.0_veridical_freeview_isoTrue_Hflip_fps144.mp4",""
"null","","","html-keyboard-response","374","757284","0.0-374.0","6pjv4goy","","<span style=""color:Black; font-size:50px;"">Agent B","null","","","","",""
"null","","","video-keyboard-response","375","760368","0.0-375.0","6pjv4goy","","","null","","Agent B","veridical","STIM_SET_2_144/498258.bmp_pp51_L1_V1.0_veridical_freeview_isoTrue_fps144.mp4",""
"","","","call-function","376","760369","0.0-376.0","6pjv4goy","","","","","","","",""
"1015.8199999999488","{""judgement"":0}","[0]","survey-likert","377","761385","0.0-377.0","6pjv4goy","","","","","","","","1"
"2396.67499999993","{""confidence"":1}","[0]","survey-likert","378","763784","0.0-378.0","6pjv4goy","","","","","","","",""
"","","","call-function","379","763784","0.0-379.0","6pjv4goy","","","","","","","",""
"null","","","html-keyboard-response","380","765291","0.0-380.0","6pjv4goy","","<span style=""color:Black; font-size:50px;"">Agent A","null","","","","",""
"null","","","video-keyboard-response","381","768382","0.0-381.0","6pjv4goy","","","null","","Agent A","veridical","STIM_SET_2_144/1159592.bmp_pp91_L3_V1.0_veridical_freeview_isoTrue_fps144.mp4",""
"null","","","html-keyboard-response","382","769889","0.0-382.0","6pjv4goy","","<span style=""color:Black; font-size:50px;"">Agent B","null","","","","",""
"null","","","video-keyboard-response","383","772981","0.0-383.0","6pjv4goy","","","null","","Agent B","scrambled","STIM_SET_5/1159592.bmp_pp91_L3_V1.0_veridical_freeview_isoTrue_Hflip_fps144.mp4",""
"","","","call-function","384","772982","0.0-384.0","6pjv4goy","","","","","","","",""
"1486.1600000000326","{""judgement"":0}","[0]","survey-likert","385","774469","0.0-385.0","6pjv4goy","","","","","","","","0"
"1483.0100000000093","{""confidence"":1}","[0]","survey-likert","386","775954","0.0-386.0","6pjv4goy","","","","","","","",""
"","","","call-function","387","775955","0.0-387.0","6pjv4goy","","","","","","","",""
"null","","","html-keyboard-response","388","777460","0.0-388.0","6pjv4goy","","<span style=""color:Black; font-size:50px;"">Agent A","null","","","","",""
"null","","","video-keyboard-response","389","780526","0.0-389.0","6pjv4goy","","","null","","Agent A","veridical","STIM_SET_2_144/713652.bmp_pp89_L1_V1_veridical_freeview_isoTrue_fps144.mp4",""
"null","","","html-keyboard-response","390","782032","0.0-390.0","6pjv4goy","","<span style=""color:Black; font-size:50px;"">Agent B","null","","","","",""
"null","","","video-keyboard-response","391","785104","0.0-391.0","6pjv4goy","","","null","","Agent B","scrambled","STIM_SET_5/713652.bmp_pp89_L1_V1_veridical_freeview_isoTrue_Hflip_fps144.mp4",""
"","","","call-function","392","785105","0.0-392.0","6pjv4goy","","","","","","","",""
"1555.344999999972","{""judgement"":0}","[0]","survey-likert","393","786661","0.0-393.0","6pjv4goy","","","","","","","","0"
"1360.079999999958","{""confidence"":1}","[0]","survey-likert","394","788023","0.0-394.0","6pjv4goy","","","","","","","",""
"","","","call-function","395","788023","0.0-395.0","6pjv4goy","","","","","","","",""
"null","","","html-keyboard-response","396","789529","0.0-396.0","6pjv4goy","","<span style=""color:Black; font-size:50px;"">Agent A","null","","","","",""
"null","","","video-keyboard-response","397","792599","0.0-397.0","6pjv4goy","","","null","","Agent A","scrambled","STIM_SET_5/1592298.bmp_pp56_L3_V1.0_veridical_freeview_isoTrue_Hflip_fps144.mp4",""
"null","","","html-keyboard-response","398","794101","0.0-398.0","6pjv4goy","","<span style=""color:Black; font-size:50px;"">Agent B","null","","","","",""
"null","","","video-keyboard-response","399","797171","0.0-399.0","6pjv4goy","","","null","","Agent B","veridical","STIM_SET_2_144/1592298.bmp_pp56_L3_V1.0_veridical_freeview_isoTrue_fps144.mp4",""
"","","","call-function","400","797172","0.0-400.0","6pjv4goy","","","","","","","",""
"2638.1300000000047","{""judgement"":1}","[0]","survey-likert","401","799811","0.0-401.0","6pjv4goy","","","","","","","","1"
"1385.1950000000652","{""confidence"":1}","[0]","survey-likert","402","801198","0.0-402.0","6pjv4goy","","","","","","","",""
"","","","call-function","403","801199","0.0-403.0","6pjv4goy","","","","","","","",""
"null","","","html-keyboard-response","404","802704","0.0-404.0","6pjv4goy","","<span style=""color:Black; font-size:50px;"">Agent A","null","","","","",""
"null","","","video-keyboard-response","405","805785","0.0-405.0","6pjv4goy","","","null","","Agent A","scrambled","STIM_SET_5/713689.bmp_pp153_L3_V1.0_veridical_freeview_isoTrue_Hflip_fps144.mp4",""
"null","","","html-keyboard-response","406","807288","0.0-406.0","6pjv4goy","","<span style=""color:Black; font-size:50px;"">Agent B","null","","","","",""
"null","","","video-keyboard-response","407","810369","0.0-407.0","6pjv4goy","","","null","","Agent B","veridical","STIM_SET_2_144/713689.bmp_pp153_L3_V1.0_veridical_freeview_isoTrue_fps144.mp4",""
"","","","call-function","408","810371","0.0-408.0","6pjv4goy","","","","","","","",""
"1995.8100000000559","{""judgement"":1}","[0]","survey-likert","409","812368","0.0-409.0","6pjv4goy","","","","","","","","1"
"1659.9199999999255","{""confidence"":1}","[0]","survey-likert","410","814031","0.0-410.0","6pjv4goy","","","","","","","",""
"","","","call-function","411","814033","0.0-411.0","6pjv4goy","","","","","","","",""
"null","","","html-keyboard-response","412","815538","0.0-412.0","6pjv4goy","","<span style=""color:Black; font-size:50px;"">Agent A","null","","","","",""
"null","","","video-keyboard-response","413","818605","0.0-413.0","6pjv4goy","","","null","","Agent A","veridical","STIM_SET_2_144/1159860.bmp_pp152_L2_V1.0_veridical_freeview_isoTrue_fps144.mp4",""
"null","","","html-keyboard-response","414","820108","0.0-414.0","6pjv4goy","","<span style=""color:Black; font-size:50px;"">Agent B","null","","","","",""
"null","","","video-keyboard-response","415","823172","0.0-415.0","6pjv4goy","","","null","","Agent B","scrambled","STIM_SET_5/1159860.bmp_pp152_L2_V1.0_veridical_freeview_isoTrue_Hflip_fps144.mp4",""
"","","","call-function","416","823174","0.0-416.0","6pjv4goy","","","","","","","",""
"1867.969999999972","{""judgement"":0}","[0]","survey-likert","417","825043","0.0-417.0","6pjv4goy","","","","","","","","0"
"1195.7099999999627","{""confidence"":1}","[0]","survey-likert","418","826240","0.0-418.0","6pjv4goy","","","","","","","",""
"2781.085000000079","","","instructions","419","829023","0.0-419.0","6pjv4goy","[{""page_index"":0,""viewing_time"":1699.6650000000373},{""page_index"":1,""viewing_time"":489.0700000000652},{""page_index"":2,""viewing_time"":592.1849999999395}]","","","","","","",""
"1648.5899999999674","","","instructions","420","830672","0.0-420.0","6pjv4goy","[{""page_index"":0,""viewing_time"":506.43499999993946},{""page_index"":1,""viewing_time"":479.90500000002794},{""page_index"":2,""viewing_time"":662.1450000000186}]","","","","","","",""
"","","","call-function","421","830673","0.0-421.0","6pjv4goy","","","","","","","",""
"null","","","html-keyboard-response","422","832176","0.0-422.0","6pjv4goy","","<span style=""color:Black; font-size:50px;"">Agent A","null","","","","",""
"null","","","video-keyboard-response","423","835245","0.0-423.0","6pjv4goy","","","null","","Agent A","veridical","STIM_SET_2_144/1592305.bmp_pp65_L3_V1.0_veridical_freeview_isoTrue_fps144.mp4",""
"null","","","html-keyboard-response","424","836750","0.0-424.0","6pjv4goy","","<span style=""color:Black; font-size:50px;"">Agent B","null","","","","",""
"null","","","video-keyboard-response","425","839818","0.0-425.0","6pjv4goy","","","null","","Agent B","scrambled","STIM_SET_5/1592305.bmp_pp65_L3_V1.0_veridical_freeview_isoTrue_Hflip_fps144.mp4",""
"","","","call-function","426","839819","0.0-426.0","6pjv4goy","","","","","","","",""
"2510.1500000000233","{""judgement"":1}","[0]","survey-likert","427","842330","0.0-427.0","6pjv4goy","","","","","","","","0"
"1719.2600000000093","{""confidence"":1}","[0]","survey-likert","428","844051","0.0-428.0","6pjv4goy","","","","","","","",""
"","","","call-function","429","844052","0.0-429.0","6pjv4goy","","","","","","","",""
"null","","","html-keyboard-response","430","845556","0.0-430.0","6pjv4goy","","<span style=""color:Black; font-size:50px;"">Agent A","null","","","","",""
"null","","","video-keyboard-response","431","848640","0.0-431.0","6pjv4goy","","","null","","Agent A","scrambled","STIM_SET_5/150277.bmp_pp65_L3_V1.0_veridical_freeview_isoTrue_Hflip_fps144.mp4",""
"null","","","html-keyboard-response","432","850146","0.0-432.0","6pjv4goy","","<span style=""color:Black; font-size:50px;"">Agent B","null","","","","",""
"null","","","video-keyboard-response","433","853230","0.0-433.0","6pjv4goy","","","null","","Agent B","veridical","STIM_SET_2_144/150277.bmp_pp65_L3_V1.0_veridical_freeview_isoTrue_fps144.mp4",""
"","","","call-function","434","853231","0.0-434.0","6pjv4goy","","","","","","","",""
"1201.140000000014","{""judgement"":1}","[0]","survey-likert","435","854433","0.0-435.0","6pjv4goy","","","","","","","","1"
"1971.7850000000326","{""confidence"":1}","[0]","survey-likert","436","856406","0.0-436.0","6pjv4goy","","","","","","","",""
"","","","call-function","437","856407","0.0-437.0","6pjv4goy","","","","","","","",""
"null","","","html-keyboard-response","438","857909","0.0-438.0","6pjv4goy","","<span style=""color:Black; font-size:50px;"">Agent A","null","","","","",""
"null","","","video-keyboard-response","439","860987","0.0-439.0","6pjv4goy","","","null","","Agent A","scrambled","STIM_SET_5/1592567.bmp_pp70_L2_V1.0_veridical_freeview_isoTrue_Hflip_fps144.mp4",""
"null","","","html-keyboard-response","440","862490","0.0-440.0","6pjv4goy","","<span style=""color:Black; font-size:50px;"">Agent B","null","","","","",""
"null","","","video-keyboard-response","441","865566","0.0-441.0","6pjv4goy","","","null","","Agent B","veridical","STIM_SET_2_144/1592567.bmp_pp70_L2_V1.0_veridical_freeview_isoTrue_fps144.mp4",""
"","","","call-function","442","865567","0.0-442.0","6pjv4goy","","","","","","","",""
"1625.3350000000792","{""judgement"":1}","[0]","survey-likert","443","867193","0.0-443.0","6pjv4goy","","","","","","","","1"
"1366.1699999999255","{""confidence"":0}","[0]","survey-likert","444","868561","0.0-444.0","6pjv4goy","","","","","","","",""
"","","","call-function","445","868562","0.0-445.0","6pjv4goy","","","","","","","",""
"null","","","html-keyboard-response","446","870069","0.0-446.0","6pjv4goy","","<span style=""color:Black; font-size:50px;"">Agent A","null","","","","",""
"null","","","video-keyboard-response","447","873145","0.0-447.0","6pjv4goy","","","null","","Agent A","veridical","STIM_SET_2_144/1592951.bmp_pp80_L3_V1.0_veridical_freeview_isoTrue_fps144.mp4",""
"null","","","html-keyboard-response","448","874653","0.0-448.0","6pjv4goy","","<span style=""color:Black; font-size:50px;"">Agent B","null","","","","",""
"null","","","video-keyboard-response","449","877726","0.0-449.0","6pjv4goy","","","null","","Agent B","scrambled","STIM_SET_5/1592951.bmp_pp80_L3_V1.0_veridical_freeview_isoTrue_Hflip_fps144.mp4",""
"","","","call-function","450","877727","0.0-450.0","6pjv4goy","","","","","","","",""
"1507.3050000000512","{""judgement"":1}","[0]","survey-likert","451","879235","0.0-451.0","6pjv4goy","","","","","","","","0"
"1888.3400000000838","{""confidence"":0}","[0]","survey-likert","452","881125","0.0-452.0","6pjv4goy","","","","","","","",""
"","","","call-function","453","881126","0.0-453.0","6pjv4goy","","","","","","","",""
"null","","","html-keyboard-response","454","882630","0.0-454.0","6pjv4goy","","<span style=""color:Black; font-size:50px;"">Agent A","null","","","","",""
"null","","","video-keyboard-response","455","885697","0.0-455.0","6pjv4goy","","","null","","Agent A","veridical","STIM_SET_2_144/1592921.bmp_pp69_L3_V1.0_veridical_freeview_isoTrue_fps144.mp4",""
"null","","","html-keyboard-response","456","887201","0.0-456.0","6pjv4goy","","<span style=""color:Black; font-size:50px;"">Agent B","null","","","","",""
"null","","","video-keyboard-response","457","890272","0.0-457.0","6pjv4goy","","","null","","Agent B","scrambled","STIM_SET_5/1592921.bmp_pp69_L3_V1.0_veridical_freeview_isoTrue_Hflip_fps144.mp4",""
"","","","call-function","458","890273","0.0-458.0","6pjv4goy","","","","","","","",""
"1395.4399999999441","{""judgement"":0}","[0]","survey-likert","459","891669","0.0-459.0","6pjv4goy","","","","","","","","0"
"1156.9350000000559","{""confidence"":1}","[0]","survey-likert","460","892827","0.0-460.0","6pjv4goy","","","","","","","",""
"","","","call-function","461","892828","0.0-461.0","6pjv4goy","","","","","","","",""
"null","","","html-keyboard-response","462","894331","0.0-462.0","6pjv4goy","","<span style=""color:Black; font-size:50px;"">Agent A","null","","","","",""
"null","","","video-keyboard-response","463","897412","0.0-463.0","6pjv4goy","","","null","","Agent A","scrambled","STIM_SET_5/150463.bmp_pp55_L3_V1.0_veridical_freeview_isoTrue_Hflip_fps144.mp4",""
"null","","","html-keyboard-response","464","898916","0.0-464.0","6pjv4goy","","<span style=""color:Black; font-size:50px;"">Agent B","null","","","","",""
"null","","","video-keyboard-response","465","901987","0.0-465.0","6pjv4goy","","","null","","Agent B","veridical","STIM_SET_2_144/150463.bmp_pp55_L3_V1.0_veridical_freeview_isoTrue_fps144.mp4",""
"","","","call-function","466","901988","0.0-466.0","6pjv4goy","","","","","","","",""
"2338.015000000014","{""judgement"":1}","[0]","survey-likert","467","904327","0.0-467.0","6pjv4goy","","","","","","","","1"
"2083.564999999944","{""confidence"":1}","[0]","survey-likert","468","906412","0.0-468.0","6pjv4goy","","","","","","","",""
"","","","call-function","469","906413","0.0-469.0","6pjv4goy","","","","","","","",""
"null","","","html-keyboard-response","470","907919","0.0-470.0","6pjv4goy","","<span style=""color:Black; font-size:50px;"">Agent A","null","","","","",""
"null","","","video-keyboard-response","471","910989","0.0-471.0","6pjv4goy","","","null","","Agent A","veridical","STIM_SET_2_144/1159329.bmp_pp61_L2_V1.0_veridical_freeview_isoTrue_fps144.mp4",""
"null","","","html-keyboard-response","472","912492","0.0-472.0","6pjv4goy","","<span style=""color:Black; font-size:50px;"">Agent B","null","","","","",""
"null","","","video-keyboard-response","473","915574","0.0-473.0","6pjv4goy","","","null","","Agent B","scrambled","STIM_SET_5/1159329.bmp_pp61_L2_V1.0_veridical_freeview_isoTrue_Hflip_fps144.mp4",""
"","","","call-function","474","915575","0.0-474.0","6pjv4goy","","","","","","","",""
"1542.1999999999534","{""judgement"":1}","[0]","survey-likert","475","917118","0.0-475.0","6pjv4goy","","","","","","","","0"
"1182.6300000000047","{""confidence"":0}","[0]","survey-likert","476","918302","0.0-476.0","6pjv4goy","","","","","","","",""
"","","","call-function","477","918303","0.0-477.0","6pjv4goy","","","","","","","",""
"null","","","html-keyboard-response","478","919805","0.0-478.0","6pjv4goy","","<span style=""color:Black; font-size:50px;"">Agent A","null","","","","",""
"null","","","video-keyboard-response","479","922890","0.0-479.0","6pjv4goy","","","null","","Agent A","scrambled","STIM_SET_5/498396.bmp_pp99_L2_V1.0_veridical_freeview_isoTrue_Hflip_fps144.mp4",""
"null","","","html-keyboard-response","480","924394","0.0-480.0","6pjv4goy","","<span style=""color:Black; font-size:50px;"">Agent B","null","","","","",""
"null","","","video-keyboard-response","481","927481","0.0-481.0","6pjv4goy","","","null","","Agent B","veridical","STIM_SET_2_144/498396.bmp_pp99_L2_V1.0_veridical_freeview_isoTrue_fps144.mp4",""
"","","","call-function","482","927483","0.0-482.0","6pjv4goy","","","","","","","",""
"1130.3450000000885","{""judgement"":0}","[0]","survey-likert","483","928614","0.0-483.0","6pjv4goy","","","","","","","","1"
"2141.5050000000047","{""confidence"":0}","[0]","survey-likert","484","930758","0.0-484.0","6pjv4goy","","","","","","","",""
"","","","call-function","485","930760","0.0-485.0","6pjv4goy","","","","","","","",""
"null","","","html-keyboard-response","486","932267","0.0-486.0","6pjv4goy","","<span style=""color:Black; font-size:50px;"">Agent A","null","","","","",""
"null","","","video-keyboard-response","487","935342","0.0-487.0","6pjv4goy","","","null","","Agent A","veridical","STIM_SET_2_144/107909.bmp_pp95_L2_V1.0_veridical_freeview_isoTrue_fps144.mp4",""
"null","","","html-keyboard-response","488","936844","0.0-488.0","6pjv4goy","","<span style=""color:Black; font-size:50px;"">Agent B","null","","","","",""
"null","","","video-keyboard-response","489","939922","0.0-489.0","6pjv4goy","","","null","","Agent B","scrambled","STIM_SET_5/107909.bmp_pp95_L2_V1.0_veridical_freeview_isoTrue_Hflip_fps144.mp4",""
"","","","call-function","490","939924","0.0-490.0","6pjv4goy","","","","","","","",""
"4189.079999999958","{""judgement"":1}","[0]","survey-likert","491","944114","0.0-491.0","6pjv4goy","","","","","","","","0"
"1109.109999999986","{""confidence"":0}","[0]","survey-likert","492","945225","0.0-492.0","6pjv4goy","","","","","","","",""
"","","","call-function","493","945226","0.0-493.0","6pjv4goy","","","","","","","",""
"null","","","html-keyboard-response","494","946728","0.0-494.0","6pjv4goy","","<span style=""color:Black; font-size:50px;"">Agent A","null","","","","",""
"null","","","video-keyboard-response","495","949800","0.0-495.0","6pjv4goy","","","null","","Agent A","scrambled","STIM_SET_5/1592530.bmp_pp75_L1_V1.0_veridical_freeview_isoTrue_Hflip_fps144.mp4",""
"null","","","html-keyboard-response","496","951301","0.0-496.0","6pjv4goy","","<span style=""color:Black; font-size:50px;"">Agent B","null","","","","",""
"null","","","video-keyboard-response","497","954369","0.0-497.0","6pjv4goy","","","null","","Agent B","veridical","STIM_SET_2_144/1592530.bmp_pp75_L1_V1.0_veridical_freeview_isoTrue_fps144.mp4",""
"","","","call-function","498","954370","0.0-498.0","6pjv4goy","","","","","","","",""
"1944.3049999999348","{""judgement"":0}","[0]","survey-likert","499","956316","0.0-499.0","6pjv4goy","","","","","","","","1"
"1662.640000000014","{""confidence"":1}","[0]","survey-likert","500","957980","0.0-500.0","6pjv4goy","","","","","","","",""
"2103.6350000000093","","","instructions","501","960085","0.0-501.0","6pjv4goy","[{""page_index"":0,""viewing_time"":1307.405000000028},{""page_index"":1,""viewing_time"":325.80000000004657},{""page_index"":2,""viewing_time"":470.2750000000233}]","","","","","","",""
"1565.9099999999162","","","instructions","502","961651","0.0-502.0","6pjv4goy","[{""page_index"":0,""viewing_time"":424.78999999992084},{""page_index"":1,""viewing_time"":556.8250000000698},{""page_index"":2,""viewing_time"":584.0799999999581}]","","","","","","",""
"","","","call-function","503","961652","0.0-503.0","6pjv4goy","","","","","","","",""
"null","","","html-keyboard-response","504","963156","0.0-504.0","6pjv4goy","","<span style=""color:Black; font-size:50px;"">Agent A","null","","","","",""
"null","","","video-keyboard-response","505","966241","0.0-505.0","6pjv4goy","","","null","","Agent A","scrambled","STIM_SET_5/1592350.bmp_pp55_L3_V1.0_veridical_freeview_isoTrue_Hflip_fps144.mp4",""
"null","","","html-keyboard-response","506","967745","0.0-506.0","6pjv4goy","","<span style=""color:Black; font-size:50px;"">Agent B","null","","","","",""
"null","","","video-keyboard-response","507","970828","0.0-507.0","6pjv4goy","","","null","","Agent B","veridical","STIM_SET_2_144/1592350.bmp_pp55_L3_V1.0_veridical_freeview_isoTrue_fps144.mp4",""
"","","","call-function","508","970829","0.0-508.0","6pjv4goy","","","","","","","",""
"3238.719999999972","{""judgement"":0}","[0]","survey-likert","509","974069","0.0-509.0","6pjv4goy","","","","","","","","1"
"1714.7949999999255","{""confidence"":1}","[0]","survey-likert","510","975785","0.0-510.0","6pjv4goy","","","","","","","",""
"","","","call-function","511","975786","0.0-511.0","6pjv4goy","","","","","","","",""
"null","","","html-keyboard-response","512","977293","0.0-512.0","6pjv4goy","","<span style=""color:Black; font-size:50px;"">Agent A","null","","","","",""
"null","","","video-keyboard-response","513","980368","0.0-513.0","6pjv4goy","","","null","","Agent A","veridical","STIM_SET_2_144/107955.bmp_pp90_L2_V1.0_veridical_freeview_isoTrue_fps144.mp4",""
"null","","","html-keyboard-response","514","981875","0.0-514.0","6pjv4goy","","<span style=""color:Black; font-size:50px;"">Agent B","null","","","","",""
"null","","","video-keyboard-response","515","984951","0.0-515.0","6pjv4goy","","","null","","Agent B","scrambled","STIM_SET_5/107955.bmp_pp90_L2_V1.0_veridical_freeview_isoTrue_Hflip_fps144.mp4",""
"","","","call-function","516","984952","0.0-516.0","6pjv4goy","","","","","","","",""
"1163.2550000000047","{""judgement"":0}","[0]","survey-likert","517","986117","0.0-517.0","6pjv4goy","","","","","","","","0"
"1118.6500000000233","{""confidence"":1}","[0]","survey-likert","518","987237","0.0-518.0","6pjv4goy","","","","","","","",""
"","","","call-function","519","987238","0.0-519.0","6pjv4goy","","","","","","","",""
"null","","","html-keyboard-response","520","988744","0.0-520.0","6pjv4goy","","<span style=""color:Black; font-size:50px;"">Agent A","null","","","","",""
"null","","","video-keyboard-response","521","991860","0.0-521.0","6pjv4goy","","","null","","Agent A","veridical","STIM_SET_2_144/713920.bmp_pp76_L1_V1.0_veridical_freeview_isoTrue_fps144.mp4",""
"null","","","html-keyboard-response","522","993362","0.0-522.0","6pjv4goy","","<span style=""color:Black; font-size:50px;"">Agent B","null","","","","",""
"null","","","video-keyboard-response","523","996446","0.0-523.0","6pjv4goy","","","null","","Agent B","scrambled","STIM_SET_5/713920.bmp_pp76_L1_V1.0_veridical_freeview_isoTrue_Hflip_fps144.mp4",""
"","","","call-function","524","996447","0.0-524.0","6pjv4goy","","","","","","","",""
"1392.280000000028","{""judgement"":1}","[0]","survey-likert","525","997841","0.0-525.0","6pjv4goy","","","","","","","","0"
"1015.2999999999302","{""confidence"":1}","[0]","survey-likert","526","998858","0.0-526.0","6pjv4goy","","","","","","","",""
"","","","call-function","527","998859","0.0-527.0","6pjv4goy","","","","","","","",""
"null","","","html-keyboard-response","528","1000361","0.0-528.0","6pjv4goy","","<span style=""color:Black; font-size:50px;"">Agent A","null","","","","",""
"null","","","video-keyboard-response","529","1003434","0.0-529.0","6pjv4goy","","","null","","Agent A","scrambled","STIM_SET_5/1592025.bmp_pp68_L1_V1.0_veridical_freeview_isoTrue_Hflip_fps144.mp4",""
"null","","","html-keyboard-response","530","1004938","0.0-530.0","6pjv4goy","","<span style=""color:Black; font-size:50px;"">Agent B","null","","","","",""
"null","","","video-keyboard-response","531","1008006","0.0-531.0","6pjv4goy","","","null","","Agent B","veridical","STIM_SET_2_144/1592025.bmp_pp68_L1_V1.0_veridical_freeview_isoTrue_fps144.mp4",""
"","","","call-function","532","1008007","0.0-532.0","6pjv4goy","","","","","","","",""
"1662.1350000000093","{""judgement"":1}","[0]","survey-likert","533","1009670","0.0-533.0","6pjv4goy","","","","","","","","1"
"1035.9349999999395","{""confidence"":1}","[0]","survey-likert","534","1010708","0.0-534.0","6pjv4goy","","","","","","","",""
"","","","call-function","535","1010709","0.0-535.0","6pjv4goy","","","","","","","",""
"null","","","html-keyboard-response","536","1012210","0.0-536.0","6pjv4goy","","<span style=""color:Black; font-size:50px;"">Agent A","null","","","","",""
"null","","","video-keyboard-response","537","1015277","0.0-537.0","6pjv4goy","","","null","","Agent A","scrambled","STIM_SET_5/286034.bmp_pp69_L3_V1.0_veridical_freeview_isoTrue_Hflip_fps144.mp4",""
"null","","","html-keyboard-response","538","1016784","0.0-538.0","6pjv4goy","","<span style=""color:Black; font-size:50px;"">Agent B","null","","","","",""
"null","","","video-keyboard-response","539","1019845","0.0-539.0","6pjv4goy","","","null","","Agent B","veridical","STIM_SET_2_144/286034.bmp_pp69_L3_V1.0_veridical_freeview_isoTrue_fps144.mp4",""
"","","","call-function","540","1019846","0.0-540.0","6pjv4goy","","","","","","","",""
"1303.5","{""judgement"":1}","[0]","survey-likert","541","1021151","0.0-541.0","6pjv4goy","","","","","","","","1"
"1025.6750000000466","{""confidence"":1}","[0]","survey-likert","542","1022178","0.0-542.0","6pjv4goy","","","","","","","",""
"","","","call-function","543","1022179","0.0-543.0","6pjv4goy","","","","","","","",""
"null","","","html-keyboard-response","544","1023680","0.0-544.0","6pjv4goy","","<span style=""color:Black; font-size:50px;"">Agent A","null","","","","",""
"null","","","video-keyboard-response","545","1026774","0.0-545.0","6pjv4goy","","","null","","Agent A","veridical","STIM_SET_2_144/713633.bmp_pp58_L1_V1.0_veridical_freeview_isoTrue_fps144.mp4",""
"null","","","html-keyboard-response","546","1028277","0.0-546.0","6pjv4goy","","<span style=""color:Black; font-size:50px;"">Agent B","null","","","","",""
"null","","","video-keyboard-response","547","1031369","0.0-547.0","6pjv4goy","","","null","","Agent B","scrambled","STIM_SET_5/713633.bmp_pp58_L1_V1.0_veridical_freeview_isoTrue_Hflip_fps144.mp4",""
"","","","call-function","548","1031370","0.0-548.0","6pjv4goy","","","","","","","",""
"2517.6650000000373","{""judgement"":1}","[0]","survey-likert","549","1033888","0.0-549.0","6pjv4goy","","","","","","","","0"
"1226.8950000000186","{""confidence"":1}","[0]","survey-likert","550","1035117","0.0-550.0","6pjv4goy","","","","","","","",""
"","","","call-function","551","1035118","0.0-551.0","6pjv4goy","","","","","","","",""
"null","","","html-keyboard-response","552","1036623","0.0-552.0","6pjv4goy","","<span style=""color:Black; font-size:50px;"">Agent A","null","","","","",""
"null","","","video-keyboard-response","553","1039708","0.0-553.0","6pjv4goy","","","null","","Agent A","scrambled","STIM_SET_5/1159973.bmp_pp98_L1_V1.0_veridical_freeview_isoTrue_Hflip_fps144.mp4",""
"null","","","html-keyboard-response","554","1041215","0.0-554.0","6pjv4goy","","<span style=""color:Black; font-size:50px;"">Agent B","null","","","","",""
"null","","","video-keyboard-response","555","1044298","0.0-555.0","6pjv4goy","","","null","","Agent B","veridical","STIM_SET_2_144/1159973.bmp_pp98_L1_V1.0_veridical_freeview_isoTrue_fps144.mp4",""
"","","","call-function","556","1044299","0.0-556.0","6pjv4goy","","","","","","","",""
"1385.2999999999302","{""judgement"":0}","[0]","survey-likert","557","1045686","0.0-557.0","6pjv4goy","","","","","","","","1"
"2271.4550000000745","{""confidence"":0}","[0]","survey-likert","558","1047960","0.0-558.0","6pjv4goy","","","","","","","",""
"","","","call-function","559","1047962","0.0-559.0","6pjv4goy","","","","","","","",""
"null","","","html-keyboard-response","560","1049468","0.0-560.0","6pjv4goy","","<span style=""color:Black; font-size:50px;"">Agent A","null","","","","",""
"null","","","video-keyboard-response","561","1052546","0.0-561.0","6pjv4goy","","","null","","Agent A","scrambled","STIM_SET_5/498372.bmp_pp95_L2_V1_veridical_freeview_isoTrue_Hflip_fps144.mp4",""
"null","","","html-keyboard-response","562","1054053","0.0-562.0","6pjv4goy","","<span style=""color:Black; font-size:50px;"">Agent B","null","","","","",""
"null","","","video-keyboard-response","563","1057130","0.0-563.0","6pjv4goy","","","null","","Agent B","veridical","STIM_SET_2_144/498372.bmp_pp95_L2_V1_veridical_freeview_isoTrue_fps144.mp4",""
"","","","call-function","564","1057131","0.0-564.0","6pjv4goy","","","","","","","",""
"2016.3850000000093","{""judgement"":0}","[0]","survey-likert","565","1059148","0.0-565.0","6pjv4goy","","","","","","","","1"
"1931.905000000028","{""confidence"":0}","[0]","survey-likert","566","1061082","0.0-566.0","6pjv4goy","","","","","","","",""
"","","","call-function","567","1061083","0.0-567.0","6pjv4goy","","","","","","","",""
"null","","","html-keyboard-response","568","1062588","0.0-568.0","6pjv4goy","","<span style=""color:Black; font-size:50px;"">Agent A","null","","","","",""
"null","","","video-keyboard-response","569","1065652","0.0-569.0","6pjv4goy","","","null","","Agent A","veridical","STIM_SET_2_144/1160049.bmp_pp53_L2_V1.0_veridical_freeview_isoTrue_fps144.mp4",""
"null","","","html-keyboard-response","570","1067157","0.0-570.0","6pjv4goy","","<span style=""color:Black; font-size:50px;"">Agent B","null","","","","",""
"null","","","video-keyboard-response","571","1070217","0.0-571.0","6pjv4goy","","","null","","Agent B","scrambled","STIM_SET_5/1160049.bmp_pp53_L2_V1.0_veridical_freeview_isoTrue_Hflip_fps144.mp4",""
"","","","call-function","572","1070218","0.0-572.0","6pjv4goy","","","","","","","",""
"1473.339999999851","{""judgement"":0}","[0]","survey-likert","573","1071692","0.0-573.0","6pjv4goy","","","","","","","","0"
"1472.1399999998976","{""confidence"":1}","[0]","survey-likert","574","1073166","0.0-574.0","6pjv4goy","","","","","","","",""
"","","","call-function","575","1073167","0.0-575.0","6pjv4goy","","","","","","","",""
"null","","","html-keyboard-response","576","1074669","0.0-576.0","6pjv4goy","","<span style=""color:Black; font-size:50px;"">Agent A","null","","","","",""
"null","","","video-keyboard-response","577","1077753","0.0-577.0","6pjv4goy","","","null","","Agent A","scrambled","STIM_SET_5/1160189.bmp_pp64_L1_V1.0_veridical_freeview_isoTrue_Hflip_fps144.mp4",""
"null","","","html-keyboard-response","578","1079260","0.0-578.0","6pjv4goy","","<span style=""color:Black; font-size:50px;"">Agent B","null","","","","",""
"null","","","video-keyboard-response","579","1082344","0.0-579.0","6pjv4goy","","","null","","Agent B","veridical","STIM_SET_2_144/1160189.bmp_pp64_L1_V1.0_veridical_freeview_isoTrue_fps144.mp4",""
"","","","call-function","580","1082345","0.0-580.0","6pjv4goy","","","","","","","",""
"1945.3600000001024","{""judgement"":0}","[0]","survey-likert","581","1084291","0.0-581.0","6pjv4goy","","","","","","","","1"
"1158.1699999999255","{""confidence"":1}","[0]","survey-likert","582","1085450","0.0-582.0","6pjv4goy","","","","","","","",""
"2474.8900000001304","","","instructions","583","1087926","0.0-583.0","6pjv4goy","[{""page_index"":0,""viewing_time"":2474.6500000001397}]","","","","","","",""
"4182.135000000009","","","instructions","584","1092110","0.0-584.0","6pjv4goy","[{""page_index"":0,""viewing_time"":4182.030000000028}]","","","","","","",""
"9930.095000000205","{""post-1"":1}","[0]","survey-likert","585","1102041","0.0-585.0","6pjv4goy","","","","","","","",""
"7036.885000000009","{""post-1"":0}","[0]","survey-likert","586","1109080","0.0-586.0","6pjv4goy","","","","","","","",""
"9105.01000000001","{""post-2"":0}","[0]","survey-likert","587","1118187","0.0-587.0","6pjv4goy","","","","","","","",""
"3678.1100000001024","{""post-2"":0}","[0]","survey-likert","588","1121866","0.0-588.0","6pjv4goy","","","","","","","",""
"8108.854999999981","{""post-3"":1}","[0]","survey-likert","589","1129977","0.0-589.0","6pjv4goy","","","","","","","",""
"4386.485000000102","{""post-3"":0}","[0]","survey-likert","590","1134365","0.0-590.0","6pjv4goy","","","","","","","",""
"8291.645000000019","{""post-4"":0}","[0]","survey-likert","591","1142659","0.0-591.0","6pjv4goy","","","","","","","",""
"1740.6299999998882","{""post-4"":0}","[0]","survey-likert","592","1144402","0.0-592.0","6pjv4goy","","","","","","","",""
"9226.504999999888","{""post-5"":2}","[0]","survey-likert","593","1153631","0.0-593.0","6pjv4goy","","","","","","","",""
"2136.2399999999907","{""post-5"":2}","[0]","survey-likert","594","1155769","0.0-594.0","6pjv4goy","","","","","","","",""
"99275.30000000005","{""Q0"":""It was not easy to decide whether it was the real agent or fake agent. I did not really know what to look for to base my decision on. I ended up making my decision on the same principle every time. ""}","","survey-text","595","1255051","0.0-595.0","6pjv4goy","","","","","","","",""
"111688.3500000001","{""Q0"":""I found my confidence score to be the easiest part because I never felt confident in my choice. I based my decision on which agent viewed the image from left to right because humans are programmed to read books left to right. ""}","","survey-text","596","1366743","0.0-596.0","6pjv4goy","","","","","","","",""
"31318.85499999998","{""Q0"":""Coming up with a strategy and then trusting that strategy. I never felt confident picking one agent over the other. ""}","","survey-text","597","1398066","0.0-597.0","6pjv4goy","","","","","","","",""
"2735.0100000000093","","","instructions","598","1400803","0.0-598.0","6pjv4goy","[{""page_index"":0,""viewing_time"":2734.875}]","","","","","","",""
"51086.935000000056","{""Experimenter_end"":[""Printed ID# 6pjv4goy on consent form"",""Given subject SONA credit or payment"",""Given the subject debrief form""]}","[0]","survey-multi-select","599","1451892","0.0-599.0","6pjv4goy","","","","","","","",""
