"rt","responses","question_order","trial_type","trial_index","time_elapsed","internal_node_id","ID","view_history","stimulus","key_press","value","agent","condition","image","correct_answer"
"8097.205","{""Experimenter"":[""Confirmed subject's identity (ID card)"",""Confirmed normal or corrected-to-normal vision"",""Obtained consent (signature and date)"",""Checked the test room lighting"",""Checked computer screen lighting"",""Checked distance from screen to chin rest (50cm)"",""Cleaned and adjusted chin rest"",""Counterbalanced the order of the tasks"",""Opened the experiment in Firefox"",""Made the experiment full screen"",""Encouraged subject to silence phone, put away distractors, etc.""]}","[0]","survey-multi-select","0","8105","0.0-0.0","73n6wyuu","","","","","","","",""
"16154.404999999999","","","instructions","1","24261","0.0-1.0","73n6wyuu","[{""page_index"":0,""viewing_time"":16153.850000000002}]","","","","","","",""
"6861.185000000001","","","instructions","2","31124","0.0-2.0","73n6wyuu","[{""page_index"":0,""viewing_time"":932.9900000000016},{""page_index"":1,""viewing_time"":2572.0600000000013},{""page_index"":2,""viewing_time"":3356.0099999999984}]","","","","","","",""
"1482.7000000000007","","","instructions","3","32607","0.0-3.0","73n6wyuu","[{""page_index"":0,""viewing_time"":1482.5949999999975}]","","","","","","",""
"null","","","video-keyboard-response","4","35682","0.0-4.0","73n6wyuu","","","null","","","","",""
"10671.82","","","instructions","5","46354","0.0-5.0","73n6wyuu","[{""page_index"":0,""viewing_time"":2339.7350000000006},{""page_index"":1,""viewing_time"":1523.1849999999977},{""page_index"":2,""viewing_time"":872.7799999999988},{""page_index"":3,""viewing_time"":3249.9749999999985},{""page_index"":4,""viewing_time"":2686.0149999999994}]","","","","","","",""
"4851.915000000001","","","instructions","6","51207","0.0-6.0","73n6wyuu","[{""page_index"":0,""viewing_time"":4851.790000000001}]","","","","","","",""
"","","","call-function","7","51207","0.0-7.0","73n6wyuu","","","","","","","",""
"null","","","html-keyboard-response","8","52711","0.0-8.0","73n6wyuu","","<span style=""color:Black; font-size:50px;"">Agent A","null","","","","",""
"null","","","video-keyboard-response","9","55787","0.0-9.0","73n6wyuu","","","null","","Agent A","scrambled","STIM_SET_1/713017.bmp_pp152_L2_V1.0_scrambled_freeview_isoFalse.mp4",""
"null","","","html-keyboard-response","10","57293","0.0-10.0","73n6wyuu","","<span style=""color:Black; font-size:50px;"">Agent B","null","","","","",""
"null","","","video-keyboard-response","11","60367","0.0-11.0","73n6wyuu","","","null","","Agent B","veridical","STIM_SET_1/713017.bmp_pp152_L2_V1.0_veridical_freeview_isoFalse.mp4",""
"","","","call-function","12","60368","0.0-12.0","73n6wyuu","","","","","","","",""
"2286.2649999999994","{""judgement"":1}","[0]","survey-likert","13","62655","0.0-13.0","73n6wyuu","","","","","","","","1"
"1244.4149999999936","{""confidence"":2}","[0]","survey-likert","14","63901","0.0-14.0","73n6wyuu","","","","","","","",""
"","","","call-function","15","63901","0.0-15.0","73n6wyuu","","","","","","","",""
"null","","","html-keyboard-response","16","65402","0.0-16.0","73n6wyuu","","<span style=""color:Black; font-size:50px;"">Agent A","null","","","","",""
"null","","","video-keyboard-response","17","68475","0.0-17.0","73n6wyuu","","","null","","Agent A","veridical","STIM_SET_1/1592286.bmp_pp52_L1_V1.0_veridical_freeview_isoFalse.mp4",""
"null","","","html-keyboard-response","18","69980","0.0-18.0","73n6wyuu","","<span style=""color:Black; font-size:50px;"">Agent B","null","","","","",""
"null","","","video-keyboard-response","19","73098","0.0-19.0","73n6wyuu","","","null","","Agent B","scrambled","STIM_SET_1/1592286.bmp_pp52_L1_V1.0_scrambled_freeview_isoFalse.mp4",""
"","","","call-function","20","73098","0.0-20.0","73n6wyuu","","","","","","","",""
"1464.7050000000017","{""judgement"":0}","[0]","survey-likert","21","74565","0.0-21.0","73n6wyuu","","","","","","","","0"
"1398.3899999999994","{""confidence"":1}","[0]","survey-likert","22","75965","0.0-22.0","73n6wyuu","","","","","","","",""
"","","","call-function","23","75965","0.0-23.0","73n6wyuu","","","","","","","",""
"null","","","html-keyboard-response","24","77468","0.0-24.0","73n6wyuu","","<span style=""color:Black; font-size:50px;"">Agent A","null","","","","",""
"null","","","video-keyboard-response","25","80585","0.0-25.0","73n6wyuu","","","null","","Agent A","veridical","STIM_SET_1/285933.bmp_pp81_L1_V1.0_veridical_freeview_isoFalse.mp4",""
"null","","","html-keyboard-response","26","82091","0.0-26.0","73n6wyuu","","<span style=""color:Black; font-size:50px;"">Agent B","null","","","","",""
"null","","","video-keyboard-response","27","85205","0.0-27.0","73n6wyuu","","","null","","Agent B","scrambled","STIM_SET_1/285933.bmp_pp81_L1_V1.0_scrambled_freeview_isoFalse.mp4",""
"","","","call-function","28","85205","0.0-28.0","73n6wyuu","","","","","","","",""
"1836.0350000000035","{""judgement"":0}","[0]","survey-likert","29","87042","0.0-29.0","73n6wyuu","","","","","","","","0"
"861.1200000000099","{""confidence"":0}","[0]","survey-likert","30","87904","0.0-30.0","73n6wyuu","","","","","","","",""
"","","","call-function","31","87905","0.0-31.0","73n6wyuu","","","","","","","",""
"null","","","html-keyboard-response","32","89409","0.0-32.0","73n6wyuu","","<span style=""color:Black; font-size:50px;"">Agent A","null","","","","",""
"null","","","video-keyboard-response","33","92518","0.0-33.0","73n6wyuu","","","null","","Agent A","scrambled","STIM_SET_1/1159768.bmp_pp89_L1_V1.0_scrambled_freeview_isoFalse.mp4",""
"null","","","html-keyboard-response","34","94021","0.0-34.0","73n6wyuu","","<span style=""color:Black; font-size:50px;"">Agent B","null","","","","",""
"null","","","video-keyboard-response","35","97131","0.0-35.0","73n6wyuu","","","null","","Agent B","veridical","STIM_SET_1/1159768.bmp_pp89_L1_V1.0_veridical_freeview_isoFalse.mp4",""
"","","","call-function","36","97131","0.0-36.0","73n6wyuu","","","","","","","",""
"2919.625","{""judgement"":1}","[0]","survey-likert","37","100052","0.0-37.0","73n6wyuu","","","","","","","","1"
"960.9799999999959","{""confidence"":0}","[0]","survey-likert","38","101014","0.0-38.0","73n6wyuu","","","","","","","",""
"","","","call-function","39","101014","0.0-39.0","73n6wyuu","","","","","","","",""
"null","","","html-keyboard-response","40","102520","0.0-40.0","73n6wyuu","","<span style=""color:Black; font-size:50px;"">Agent A","null","","","","",""
"null","","","video-keyboard-response","41","105582","0.0-41.0","73n6wyuu","","","null","","Agent A","scrambled","STIM_SET_1/713779.bmp_pp152_L2_V1.0_scrambled_freeview_isoFalse.mp4",""
"null","","","html-keyboard-response","42","107089","0.0-42.0","73n6wyuu","","<span style=""color:Black; font-size:50px;"">Agent B","null","","","","",""
"null","","","video-keyboard-response","43","110174","0.0-43.0","73n6wyuu","","","null","","Agent B","veridical","STIM_SET_1/713779.bmp_pp152_L2_V1.0_veridical_freeview_isoFalse.mp4",""
"","","","call-function","44","110174","0.0-44.0","73n6wyuu","","","","","","","",""
"1178.7350000000006","{""judgement"":0}","[0]","survey-likert","45","111354","0.0-45.0","73n6wyuu","","","","","","","","1"
"1330.0800000000017","{""confidence"":3}","[0]","survey-likert","46","112685","0.0-46.0","73n6wyuu","","","","","","","",""
"","","","call-function","47","112686","0.0-47.0","73n6wyuu","","","","","","","",""
"null","","","html-keyboard-response","48","114190","0.0-48.0","73n6wyuu","","<span style=""color:Black; font-size:50px;"">Agent A","null","","","","",""
"null","","","video-keyboard-response","49","117303","0.0-49.0","73n6wyuu","","","null","","Agent A","scrambled","STIM_SET_1/498149.bmp_pp99_L2_V1.0_scrambled_freeview_isoFalse.mp4",""
"null","","","html-keyboard-response","50","118806","0.0-50.0","73n6wyuu","","<span style=""color:Black; font-size:50px;"">Agent B","null","","","","",""
"null","","","video-keyboard-response","51","121873","0.0-51.0","73n6wyuu","","","null","","Agent B","veridical","STIM_SET_1/498149.bmp_pp99_L2_V1.0_veridical_freeview_isoFalse.mp4",""
"","","","call-function","52","121873","0.0-52.0","73n6wyuu","","","","","","","",""
"1559.4700000000012","{""judgement"":1}","[0]","survey-likert","53","123434","0.0-53.0","73n6wyuu","","","","","","","","1"
"1215.1100000000006","{""confidence"":2}","[0]","survey-likert","54","124650","0.0-54.0","73n6wyuu","","","","","","","",""
"","","","call-function","55","124651","0.0-55.0","73n6wyuu","","","","","","","",""
"null","","","html-keyboard-response","56","126157","0.0-56.0","73n6wyuu","","<span style=""color:Black; font-size:50px;"">Agent A","null","","","","",""
"null","","","video-keyboard-response","57","129234","0.0-57.0","73n6wyuu","","","null","","Agent A","scrambled","STIM_SET_1/1591994.bmp_pp69_L3_V1.0_scrambled_freeview_isoFalse.mp4",""
"null","","","html-keyboard-response","58","130741","0.0-58.0","73n6wyuu","","<span style=""color:Black; font-size:50px;"">Agent B","null","","","","",""
"null","","","video-keyboard-response","59","133824","0.0-59.0","73n6wyuu","","","null","","Agent B","veridical","STIM_SET_1/1591994.bmp_pp69_L3_V1.0_veridical_freeview_isoFalse.mp4",""
"","","","call-function","60","133824","0.0-60.0","73n6wyuu","","","","","","","",""
"2020.7649999999849","{""judgement"":1}","[0]","survey-likert","61","135846","0.0-61.0","73n6wyuu","","","","","","","","1"
"1585.1300000000047","{""confidence"":1}","[0]","survey-likert","62","137433","0.0-62.0","73n6wyuu","","","","","","","",""
"","","","call-function","63","137433","0.0-63.0","73n6wyuu","","","","","","","",""
"null","","","html-keyboard-response","64","138935","0.0-64.0","73n6wyuu","","<span style=""color:Black; font-size:50px;"">Agent A","null","","","","",""
"null","","","video-keyboard-response","65","142016","0.0-65.0","73n6wyuu","","","null","","Agent A","scrambled","STIM_SET_1/1593146.bmp_pp93_L1_V1.0_scrambled_freeview_isoFalse.mp4",""
"null","","","html-keyboard-response","66","143518","0.0-66.0","73n6wyuu","","<span style=""color:Black; font-size:50px;"">Agent B","null","","","","",""
"null","","","video-keyboard-response","67","146595","0.0-67.0","73n6wyuu","","","null","","Agent B","veridical","STIM_SET_1/1593146.bmp_pp93_L1_V1.0_veridical_freeview_isoFalse.mp4",""
"","","","call-function","68","146596","0.0-68.0","73n6wyuu","","","","","","","",""
"1414.9349999999977","{""judgement"":0}","[0]","survey-likert","69","148011","0.0-69.0","73n6wyuu","","","","","","","","1"
"1065.125","{""confidence"":2}","[0]","survey-likert","70","149078","0.0-70.0","73n6wyuu","","","","","","","",""
"","","","call-function","71","149078","0.0-71.0","73n6wyuu","","","","","","","",""
"null","","","html-keyboard-response","72","150580","0.0-72.0","73n6wyuu","","<span style=""color:Black; font-size:50px;"">Agent A","null","","","","",""
"null","","","video-keyboard-response","73","153704","0.0-73.0","73n6wyuu","","","null","","Agent A","veridical","STIM_SET_1/285905.bmp_pp57_L1_V1.0_veridical_freeview_isoFalse.mp4",""
"null","","","html-keyboard-response","74","155209","0.0-74.0","73n6wyuu","","<span style=""color:Black; font-size:50px;"">Agent B","null","","","","",""
"null","","","video-keyboard-response","75","158327","0.0-75.0","73n6wyuu","","","null","","Agent B","scrambled","STIM_SET_1/285905.bmp_pp57_L1_V1.0_scrambled_freeview_isoFalse.mp4",""
"","","","call-function","76","158328","0.0-76.0","73n6wyuu","","","","","","","",""
"1553.015000000014","{""judgement"":0}","[0]","survey-likert","77","159883","0.0-77.0","73n6wyuu","","","","","","","","0"
"1678.8250000000116","{""confidence"":1}","[0]","survey-likert","78","161563","0.0-78.0","73n6wyuu","","","","","","","",""
"","","","call-function","79","161563","0.0-79.0","73n6wyuu","","","","","","","",""
"null","","","html-keyboard-response","80","163066","0.0-80.0","73n6wyuu","","<span style=""color:Black; font-size:50px;"">Agent A","null","","","","",""
"null","","","video-keyboard-response","81","166173","0.0-81.0","73n6wyuu","","","null","","Agent A","veridical","STIM_SET_1/713403.bmp_pp80_L3_V1.0_veridical_freeview_isoFalse.mp4",""
"null","","","html-keyboard-response","82","167675","0.0-82.0","73n6wyuu","","<span style=""color:Black; font-size:50px;"">Agent B","null","","","","",""
"null","","","video-keyboard-response","83","170780","0.0-83.0","73n6wyuu","","","null","","Agent B","scrambled","STIM_SET_1/713403.bmp_pp80_L3_V1.0_scrambled_freeview_isoFalse.mp4",""
"","","","call-function","84","170781","0.0-84.0","73n6wyuu","","","","","","","",""
"2202.529999999999","{""judgement"":0}","[0]","survey-likert","85","172984","0.0-85.0","73n6wyuu","","","","","","","","0"
"1126.1949999999779","{""confidence"":2}","[0]","survey-likert","86","174111","0.0-86.0","73n6wyuu","","","","","","","",""
"29610.98999999999","","","instructions","87","203723","0.0-87.0","73n6wyuu","[{""page_index"":0,""viewing_time"":1270.804999999993},{""page_index"":1,""viewing_time"":27694.040000000008},{""page_index"":2,""viewing_time"":645.984999999986}]","","","","","","",""
"2017.4349999999977","","","instructions","88","205741","0.0-88.0","73n6wyuu","[{""page_index"":0,""viewing_time"":421.66500000000815},{""page_index"":1,""viewing_time"":969.789999999979},{""page_index"":2,""viewing_time"":625.8550000000105}]","","","","","","",""
"","","","call-function","89","205741","0.0-89.0","73n6wyuu","","","","","","","",""
"null","","","html-keyboard-response","90","207244","0.0-90.0","73n6wyuu","","<span style=""color:Black; font-size:50px;"">Agent A","null","","","","",""
"null","","","video-keyboard-response","91","210316","0.0-91.0","73n6wyuu","","","null","","Agent A","veridical","STIM_SET_1/1592581.bmp_pp100_L3_V1.0_veridical_freeview_isoFalse.mp4",""
"null","","","html-keyboard-response","92","211820","0.0-92.0","73n6wyuu","","<span style=""color:Black; font-size:50px;"">Agent B","null","","","","",""
"null","","","video-keyboard-response","93","214893","0.0-93.0","73n6wyuu","","","null","","Agent B","scrambled","STIM_SET_1/1592581.bmp_pp100_L3_V1.0_scrambled_freeview_isoFalse.mp4",""
"","","","call-function","94","214894","0.0-94.0","73n6wyuu","","","","","","","",""
"1804.0999999999767","{""judgement"":0}","[0]","survey-likert","95","216699","0.0-95.0","73n6wyuu","","","","","","","","0"
"1814.2749999999942","{""confidence"":1}","[0]","survey-likert","96","218514","0.0-96.0","73n6wyuu","","","","","","","",""
"","","","call-function","97","218515","0.0-97.0","73n6wyuu","","","","","","","",""
"null","","","html-keyboard-response","98","220019","0.0-98.0","73n6wyuu","","<span style=""color:Black; font-size:50px;"">Agent A","null","","","","",""
"null","","","video-keyboard-response","99","223093","0.0-99.0","73n6wyuu","","","null","","Agent A","scrambled","STIM_SET_1/1159515.bmp_pp84_L3_V1.0_scrambled_freeview_isoFalse.mp4",""
"null","","","html-keyboard-response","100","224594","0.0-100.0","73n6wyuu","","<span style=""color:Black; font-size:50px;"">Agent B","null","","","","",""
"null","","","video-keyboard-response","101","227668","0.0-101.0","73n6wyuu","","","null","","Agent B","veridical","STIM_SET_1/1159515.bmp_pp84_L3_V1.0_veridical_freeview_isoFalse.mp4",""
"","","","call-function","102","227669","0.0-102.0","73n6wyuu","","","","","","","",""
"1607.8550000000105","{""judgement"":1}","[0]","survey-likert","103","229277","0.0-103.0","73n6wyuu","","","","","","","","1"
"1130.5500000000175","{""confidence"":0}","[0]","survey-likert","104","230409","0.0-104.0","73n6wyuu","","","","","","","",""
"","","","call-function","105","230409","0.0-105.0","73n6wyuu","","","","","","","",""
"null","","","html-keyboard-response","106","231916","0.0-106.0","73n6wyuu","","<span style=""color:Black; font-size:50px;"">Agent A","null","","","","",""
"null","","","video-keyboard-response","107","235034","0.0-107.0","73n6wyuu","","","null","","Agent A","veridical","STIM_SET_1/1592804.bmp_pp91_L3_V1.0_veridical_freeview_isoFalse.mp4",""
"null","","","html-keyboard-response","108","236540","0.0-108.0","73n6wyuu","","<span style=""color:Black; font-size:50px;"">Agent B","null","","","","",""
"null","","","video-keyboard-response","109","239657","0.0-109.0","73n6wyuu","","","null","","Agent B","scrambled","STIM_SET_1/1592804.bmp_pp91_L3_V1.0_scrambled_freeview_isoFalse.mp4",""
"","","","call-function","110","239658","0.0-110.0","73n6wyuu","","","","","","","",""
"1561.7649999999849","{""judgement"":1}","[0]","survey-likert","111","241220","0.0-111.0","73n6wyuu","","","","","","","","0"
"4358.890000000014","{""confidence"":1}","[0]","survey-likert","112","245580","0.0-112.0","73n6wyuu","","","","","","","",""
"","","","call-function","113","245581","0.0-113.0","73n6wyuu","","","","","","","",""
"null","","","html-keyboard-response","114","247082","0.0-114.0","73n6wyuu","","<span style=""color:Black; font-size:50px;"">Agent A","null","","","","",""
"null","","","video-keyboard-response","115","250199","0.0-115.0","73n6wyuu","","","null","","Agent A","scrambled","STIM_SET_1/1592397.bmp_pp85_L3_V1.0_scrambled_freeview_isoFalse.mp4",""
"null","","","html-keyboard-response","116","251702","0.0-116.0","73n6wyuu","","<span style=""color:Black; font-size:50px;"">Agent B","null","","","","",""
"null","","","video-keyboard-response","117","254820","0.0-117.0","73n6wyuu","","","null","","Agent B","veridical","STIM_SET_1/1592397.bmp_pp85_L3_V1.0_veridical_freeview_isoFalse.mp4",""
"","","","call-function","118","254820","0.0-118.0","73n6wyuu","","","","","","","",""
"2061.554999999993","{""judgement"":0}","[0]","survey-likert","119","256883","0.0-119.0","73n6wyuu","","","","","","","","1"
"1758.4550000000163","{""confidence"":1}","[0]","survey-likert","120","258642","0.0-120.0","73n6wyuu","","","","","","","",""
"","","","call-function","121","258643","0.0-121.0","73n6wyuu","","","","","","","",""
"null","","","html-keyboard-response","122","260146","0.0-122.0","73n6wyuu","","<span style=""color:Black; font-size:50px;"">Agent A","null","","","","",""
"null","","","video-keyboard-response","123","263255","0.0-123.0","73n6wyuu","","","null","","Agent A","scrambled","STIM_SET_1/1593035.bmp_pp94_L2_V1.0_scrambled_freeview_isoFalse.mp4",""
"null","","","html-keyboard-response","124","264761","0.0-124.0","73n6wyuu","","<span style=""color:Black; font-size:50px;"">Agent B","null","","","","",""
"null","","","video-keyboard-response","125","267873","0.0-125.0","73n6wyuu","","","null","","Agent B","veridical","STIM_SET_1/1593035.bmp_pp94_L2_V1.0_veridical_freeview_isoFalse.mp4",""
"","","","call-function","126","267874","0.0-126.0","73n6wyuu","","","","","","","",""
"1686.859999999986","{""judgement"":1}","[0]","survey-likert","127","269562","0.0-127.0","73n6wyuu","","","","","","","","1"
"1709.5100000000093","{""confidence"":1}","[0]","survey-likert","128","271274","0.0-128.0","73n6wyuu","","","","","","","",""
"","","","call-function","129","271275","0.0-129.0","73n6wyuu","","","","","","","",""
"null","","","html-keyboard-response","130","272777","0.0-130.0","73n6wyuu","","<span style=""color:Black; font-size:50px;"">Agent A","null","","","","",""
"null","","","video-keyboard-response","131","275855","0.0-131.0","73n6wyuu","","","null","","Agent A","scrambled","STIM_SET_1/713371.bmp_pp68_L1_V1.0_scrambled_freeview_isoFalse.mp4",""
"null","","","html-keyboard-response","132","277358","0.0-132.0","73n6wyuu","","<span style=""color:Black; font-size:50px;"">Agent B","null","","","","",""
"null","","","video-keyboard-response","133","280447","0.0-133.0","73n6wyuu","","","null","","Agent B","veridical","STIM_SET_1/713371.bmp_pp68_L1_V1.0_veridical_freeview_isoFalse.mp4",""
"","","","call-function","134","280448","0.0-134.0","73n6wyuu","","","","","","","",""
"4020.405000000028","{""judgement"":0}","[0]","survey-likert","135","284469","0.0-135.0","73n6wyuu","","","","","","","","1"
"1237.8649999999907","{""confidence"":0}","[0]","survey-likert","136","285709","0.0-136.0","73n6wyuu","","","","","","","",""
"","","","call-function","137","285709","0.0-137.0","73n6wyuu","","","","","","","",""
"null","","","html-keyboard-response","138","287211","0.0-138.0","73n6wyuu","","<span style=""color:Black; font-size:50px;"">Agent A","null","","","","",""
"null","","","video-keyboard-response","139","290295","0.0-139.0","73n6wyuu","","","null","","Agent A","scrambled","STIM_SET_1/713593.bmp_pp64_L1_V1.0_scrambled_freeview_isoFalse.mp4",""
"null","","","html-keyboard-response","140","291799","0.0-140.0","73n6wyuu","","<span style=""color:Black; font-size:50px;"">Agent B","null","","","","",""
"null","","","video-keyboard-response","141","294879","0.0-141.0","73n6wyuu","","","null","","Agent B","veridical","STIM_SET_1/713593.bmp_pp64_L1_V1.0_veridical_freeview_isoFalse.mp4",""
"","","","call-function","142","294880","0.0-142.0","73n6wyuu","","","","","","","",""
"1179.1749999999884","{""judgement"":1}","[0]","survey-likert","143","296060","0.0-143.0","73n6wyuu","","","","","","","","1"
"1182.780000000028","{""confidence"":2}","[0]","survey-likert","144","297244","0.0-144.0","73n6wyuu","","","","","","","",""
"","","","call-function","145","297244","0.0-145.0","73n6wyuu","","","","","","","",""
"null","","","html-keyboard-response","146","298745","0.0-146.0","73n6wyuu","","<span style=""color:Black; font-size:50px;"">Agent A","null","","","","",""
"null","","","video-keyboard-response","147","301866","0.0-147.0","73n6wyuu","","","null","","Agent A","veridical","STIM_SET_1/1159855.bmp_pp99_L2_V1.0_veridical_freeview_isoFalse.mp4",""
"null","","","html-keyboard-response","148","303371","0.0-148.0","73n6wyuu","","<span style=""color:Black; font-size:50px;"">Agent B","null","","","","",""
"null","","","video-keyboard-response","149","306489","0.0-149.0","73n6wyuu","","","null","","Agent B","scrambled","STIM_SET_1/1159855.bmp_pp99_L2_V1.0_scrambled_freeview_isoFalse.mp4",""
"","","","call-function","150","306489","0.0-150.0","73n6wyuu","","","","","","","",""
"1840.7449999999953","{""judgement"":0}","[0]","survey-likert","151","308331","0.0-151.0","73n6wyuu","","","","","","","","0"
"1085.664999999979","{""confidence"":3}","[0]","survey-likert","152","309417","0.0-152.0","73n6wyuu","","","","","","","",""
"","","","call-function","153","309418","0.0-153.0","73n6wyuu","","","","","","","",""
"null","","","html-keyboard-response","154","310924","0.0-154.0","73n6wyuu","","<span style=""color:Black; font-size:50px;"">Agent A","null","","","","",""
"null","","","video-keyboard-response","155","314030","0.0-155.0","73n6wyuu","","","null","","Agent A","veridical","STIM_SET_1/713796.bmp_pp84_L3_V1.0_veridical_freeview_isoFalse.mp4",""
"null","","","html-keyboard-response","156","315533","0.0-156.0","73n6wyuu","","<span style=""color:Black; font-size:50px;"">Agent B","null","","","","",""
"null","","","video-keyboard-response","157","318637","0.0-157.0","73n6wyuu","","","null","","Agent B","scrambled","STIM_SET_1/713796.bmp_pp84_L3_V1.0_scrambled_freeview_isoFalse.mp4",""
"","","","call-function","158","318637","0.0-158.0","73n6wyuu","","","","","","","",""
"1483.375","{""judgement"":0}","[0]","survey-likert","159","320122","0.0-159.0","73n6wyuu","","","","","","","","0"
"1224.8950000000186","{""confidence"":2}","[0]","survey-likert","160","321348","0.0-160.0","73n6wyuu","","","","","","","",""
"","","","call-function","161","321348","0.0-161.0","73n6wyuu","","","","","","","",""
"null","","","html-keyboard-response","162","322852","0.0-162.0","73n6wyuu","","<span style=""color:Black; font-size:50px;"">Agent A","null","","","","",""
"null","","","video-keyboard-response","163","325967","0.0-163.0","73n6wyuu","","","null","","Agent A","veridical","STIM_SET_1/1592499.bmp_pp96_L2_V1.0_veridical_freeview_isoFalse.mp4",""
"null","","","html-keyboard-response","164","327471","0.0-164.0","73n6wyuu","","<span style=""color:Black; font-size:50px;"">Agent B","null","","","","",""
"null","","","video-keyboard-response","165","330586","0.0-165.0","73n6wyuu","","","null","","Agent B","scrambled","STIM_SET_1/1592499.bmp_pp96_L2_V1.0_scrambled_freeview_isoFalse.mp4",""
"","","","call-function","166","330586","0.0-166.0","73n6wyuu","","","","","","","",""
"1366.1849999999977","{""judgement"":1}","[0]","survey-likert","167","331953","0.0-167.0","73n6wyuu","","","","","","","","0"
"861.109999999986","{""confidence"":1}","[0]","survey-likert","168","332815","0.0-168.0","73n6wyuu","","","","","","","",""
"35769.17499999999","","","instructions","169","368585","0.0-169.0","73n6wyuu","[{""page_index"":0,""viewing_time"":2137.7999999999884},{""page_index"":1,""viewing_time"":33151.185},{""page_index"":2,""viewing_time"":479.9400000000023}]","","","","","","",""
"7040.299999999988","","","instructions","170","375626","0.0-170.0","73n6wyuu","[{""page_index"":0,""viewing_time"":674.2299999999814},{""page_index"":1,""viewing_time"":853.9000000000233},{""page_index"":2,""viewing_time"":5512.054999999993}]","","","","","","",""
"","","","call-function","171","375627","0.0-171.0","73n6wyuu","","","","","","","",""
"null","","","html-keyboard-response","172","377130","0.0-172.0","73n6wyuu","","<span style=""color:Black; font-size:50px;"">Agent A","null","","","","",""
"null","","","video-keyboard-response","173","380200","0.0-173.0","73n6wyuu","","","null","","Agent A","veridical","STIM_SET_1/713135.bmp_pp54_L2_V1.0_veridical_freeview_isoFalse.mp4",""
"null","","","html-keyboard-response","174","381704","0.0-174.0","73n6wyuu","","<span style=""color:Black; font-size:50px;"">Agent B","null","","","","",""
"null","","","video-keyboard-response","175","384774","0.0-175.0","73n6wyuu","","","null","","Agent B","scrambled","STIM_SET_1/713135.bmp_pp54_L2_V1.0_scrambled_freeview_isoFalse.mp4",""
"","","","call-function","176","384775","0.0-176.0","73n6wyuu","","","","","","","",""
"2596.929999999993","{""judgement"":0}","[0]","survey-likert","177","387373","0.0-177.0","73n6wyuu","","","","","","","","0"
"1495.1650000000373","{""confidence"":0}","[0]","survey-likert","178","388869","0.0-178.0","73n6wyuu","","","","","","","",""
"","","","call-function","179","388869","0.0-179.0","73n6wyuu","","","","","","","",""
"null","","","html-keyboard-response","180","390373","0.0-180.0","73n6wyuu","","<span style=""color:Black; font-size:50px;"">Agent A","null","","","","",""
"null","","","video-keyboard-response","181","393454","0.0-181.0","73n6wyuu","","","null","","Agent A","scrambled","STIM_SET_1/1592807.bmp_pp68_L1_V1.0_scrambled_freeview_isoFalse.mp4",""
"null","","","html-keyboard-response","182","394956","0.0-182.0","73n6wyuu","","<span style=""color:Black; font-size:50px;"">Agent B","null","","","","",""
"null","","","video-keyboard-response","183","398037","0.0-183.0","73n6wyuu","","","null","","Agent B","veridical","STIM_SET_1/1592807.bmp_pp68_L1_V1.0_veridical_freeview_isoFalse.mp4",""
"","","","call-function","184","398038","0.0-184.0","73n6wyuu","","","","","","","",""
"2725.6650000000373","{""judgement"":0}","[0]","survey-likert","185","400765","0.0-185.0","73n6wyuu","","","","","","","","1"
"1167.024999999965","{""confidence"":1}","[0]","survey-likert","186","401933","0.0-186.0","73n6wyuu","","","","","","","",""
"","","","call-function","187","401933","0.0-187.0","73n6wyuu","","","","","","","",""
"null","","","html-keyboard-response","188","403434","0.0-188.0","73n6wyuu","","<span style=""color:Black; font-size:50px;"">Agent A","null","","","","",""
"null","","","video-keyboard-response","189","406553","0.0-189.0","73n6wyuu","","","null","","Agent A","veridical","STIM_SET_1/713620.bmp_pp65_L3_V1.0_veridical_freeview_isoFalse.mp4",""
"null","","","html-keyboard-response","190","408060","0.0-190.0","73n6wyuu","","<span style=""color:Black; font-size:50px;"">Agent B","null","","","","",""
"null","","","video-keyboard-response","191","411142","0.0-191.0","73n6wyuu","","","null","","Agent B","scrambled","STIM_SET_1/713620.bmp_pp65_L3_V1.0_scrambled_freeview_isoFalse.mp4",""
"","","","call-function","192","411142","0.0-192.0","73n6wyuu","","","","","","","",""
"1657.75","{""judgement"":0}","[0]","survey-likert","193","412802","0.0-193.0","73n6wyuu","","","","","","","","0"
"999.929999999993","{""confidence"":2}","[0]","survey-likert","194","413803","0.0-194.0","73n6wyuu","","","","","","","",""
"","","","call-function","195","413804","0.0-195.0","73n6wyuu","","","","","","","",""
"null","","","html-keyboard-response","196","415307","0.0-196.0","73n6wyuu","","<span style=""color:Black; font-size:50px;"">Agent A","null","","","","",""
"null","","","video-keyboard-response","197","418376","0.0-197.0","73n6wyuu","","","null","","Agent A","scrambled","STIM_SET_1/713089.bmp_pp60_L3_V1.0_scrambled_freeview_isoFalse.mp4",""
"null","","","html-keyboard-response","198","419879","0.0-198.0","73n6wyuu","","<span style=""color:Black; font-size:50px;"">Agent B","null","","","","",""
"null","","","video-keyboard-response","199","422948","0.0-199.0","73n6wyuu","","","null","","Agent B","veridical","STIM_SET_1/713089.bmp_pp60_L3_V1.0_veridical_freeview_isoFalse.mp4",""
"","","","call-function","200","422948","0.0-200.0","73n6wyuu","","","","","","","",""
"2001.570000000007","{""judgement"":1}","[0]","survey-likert","201","424951","0.0-201.0","73n6wyuu","","","","","","","","1"
"1019.7749999999651","{""confidence"":1}","[0]","survey-likert","202","425972","0.0-202.0","73n6wyuu","","","","","","","",""
"","","","call-function","203","425973","0.0-203.0","73n6wyuu","","","","","","","",""
"null","","","html-keyboard-response","204","427476","0.0-204.0","73n6wyuu","","<span style=""color:Black; font-size:50px;"">Agent A","null","","","","",""
"null","","","video-keyboard-response","205","430554","0.0-205.0","73n6wyuu","","","null","","Agent A","scrambled","STIM_SET_1/498155.bmp_pp61_L2_V1.0_scrambled_freeview_isoFalse.mp4",""
"null","","","html-keyboard-response","206","432059","0.0-206.0","73n6wyuu","","<span style=""color:Black; font-size:50px;"">Agent B","null","","","","",""
"null","","","video-keyboard-response","207","435138","0.0-207.0","73n6wyuu","","","null","","Agent B","veridical","STIM_SET_1/498155.bmp_pp61_L2_V1.0_veridical_freeview_isoFalse.mp4",""
"","","","call-function","208","435139","0.0-208.0","73n6wyuu","","","","","","","",""
"1571.3099999999977","{""judgement"":1}","[0]","survey-likert","209","436711","0.0-209.0","73n6wyuu","","","","","","","","1"
"896.484999999986","{""confidence"":2}","[0]","survey-likert","210","437608","0.0-210.0","73n6wyuu","","","","","","","",""
"","","","call-function","211","437609","0.0-211.0","73n6wyuu","","","","","","","",""
"null","","","html-keyboard-response","212","439114","0.0-212.0","73n6wyuu","","<span style=""color:Black; font-size:50px;"">Agent A","null","","","","",""
"null","","","video-keyboard-response","213","442238","0.0-213.0","73n6wyuu","","","null","","Agent A","scrambled","STIM_SET_1/1591954.bmp_pp62_L2_V1.0_scrambled_freeview_isoFalse.mp4",""
"null","","","html-keyboard-response","214","443744","0.0-214.0","73n6wyuu","","<span style=""color:Black; font-size:50px;"">Agent B","null","","","","",""
"null","","","video-keyboard-response","215","446870","0.0-215.0","73n6wyuu","","","null","","Agent B","veridical","STIM_SET_1/1591954.bmp_pp62_L2_V1.0_veridical_freeview_isoFalse.mp4",""
"","","","call-function","216","446871","0.0-216.0","73n6wyuu","","","","","","","",""
"1920.4400000000023","{""judgement"":1}","[0]","survey-likert","217","448792","0.0-217.0","73n6wyuu","","","","","","","","1"
"1278.5449999999837","{""confidence"":1}","[0]","survey-likert","218","450071","0.0-218.0","73n6wyuu","","","","","","","",""
"","","","call-function","219","450072","0.0-219.0","73n6wyuu","","","","","","","",""
"null","","","html-keyboard-response","220","451578","0.0-220.0","73n6wyuu","","<span style=""color:Black; font-size:50px;"">Agent A","null","","","","",""
"null","","","video-keyboard-response","221","454695","0.0-221.0","73n6wyuu","","","null","","Agent A","scrambled","STIM_SET_1/498175.bmp_pp154_L1_V1.0_scrambled_freeview_isoFalse.mp4",""
"null","","","html-keyboard-response","222","456200","0.0-222.0","73n6wyuu","","<span style=""color:Black; font-size:50px;"">Agent B","null","","","","",""
"null","","","video-keyboard-response","223","459317","0.0-223.0","73n6wyuu","","","null","","Agent B","veridical","STIM_SET_1/498175.bmp_pp154_L1_V1.0_veridical_freeview_isoFalse.mp4",""
"","","","call-function","224","459317","0.0-224.0","73n6wyuu","","","","","","","",""
"1989.6350000000093","{""judgement"":1}","[0]","survey-likert","225","461308","0.0-225.0","73n6wyuu","","","","","","","","1"
"1099.609999999986","{""confidence"":0}","[0]","survey-likert","226","462408","0.0-226.0","73n6wyuu","","","","","","","",""
"","","","call-function","227","462409","0.0-227.0","73n6wyuu","","","","","","","",""
"null","","","html-keyboard-response","228","463915","0.0-228.0","73n6wyuu","","<span style=""color:Black; font-size:50px;"">Agent A","null","","","","",""
"null","","","video-keyboard-response","229","467029","0.0-229.0","73n6wyuu","","","null","","Agent A","veridical","STIM_SET_1/285994.bmp_pp92_L3_V1.0_veridical_freeview_isoFalse.mp4",""
"null","","","html-keyboard-response","230","468535","0.0-230.0","73n6wyuu","","<span style=""color:Black; font-size:50px;"">Agent B","null","","","","",""
"null","","","video-keyboard-response","231","471645","0.0-231.0","73n6wyuu","","","null","","Agent B","scrambled","STIM_SET_1/285994.bmp_pp92_L3_V1.0_scrambled_freeview_isoFalse.mp4",""
"","","","call-function","232","471645","0.0-232.0","73n6wyuu","","","","","","","",""
"2203.8349999999627","{""judgement"":1}","[0]","survey-likert","233","473850","0.0-233.0","73n6wyuu","","","","","","","","0"
"1738.4249999999884","{""confidence"":2}","[0]","survey-likert","234","475589","0.0-234.0","73n6wyuu","","","","","","","",""
"","","","call-function","235","475590","0.0-235.0","73n6wyuu","","","","","","","",""
"null","","","html-keyboard-response","236","477093","0.0-236.0","73n6wyuu","","<span style=""color:Black; font-size:50px;"">Agent A","null","","","","",""
"null","","","video-keyboard-response","237","480208","0.0-237.0","73n6wyuu","","","null","","Agent A","veridical","STIM_SET_1/1159447.bmp_pp70_L2_V1.0_veridical_freeview_isoFalse.mp4",""
"null","","","html-keyboard-response","238","481712","0.0-238.0","73n6wyuu","","<span style=""color:Black; font-size:50px;"">Agent B","null","","","","",""
"null","","","video-keyboard-response","239","484781","0.0-239.0","73n6wyuu","","","null","","Agent B","scrambled","STIM_SET_1/1159447.bmp_pp70_L2_V1.0_scrambled_freeview_isoFalse.mp4",""
"","","","call-function","240","484782","0.0-240.0","73n6wyuu","","","","","","","",""
"1270.3300000000163","{""judgement"":0}","[0]","survey-likert","241","486053","0.0-241.0","73n6wyuu","","","","","","","","0"
"1127.0250000000233","{""confidence"":2}","[0]","survey-likert","242","487181","0.0-242.0","73n6wyuu","","","","","","","",""
"","","","call-function","243","487181","0.0-243.0","73n6wyuu","","","","","","","",""
"null","","","html-keyboard-response","244","488685","0.0-244.0","73n6wyuu","","<span style=""color:Black; font-size:50px;"">Agent A","null","","","","",""
"null","","","video-keyboard-response","245","491756","0.0-245.0","73n6wyuu","","","null","","Agent A","veridical","STIM_SET_1/1159882.bmp_pp61_L2_V1.0_veridical_freeview_isoFalse.mp4",""
"null","","","html-keyboard-response","246","493261","0.0-246.0","73n6wyuu","","<span style=""color:Black; font-size:50px;"">Agent B","null","","","","",""
"null","","","video-keyboard-response","247","496331","0.0-247.0","73n6wyuu","","","null","","Agent B","scrambled","STIM_SET_1/1159882.bmp_pp61_L2_V1.0_scrambled_freeview_isoFalse.mp4",""
"","","","call-function","248","496332","0.0-248.0","73n6wyuu","","","","","","","",""
"1560.204999999958","{""judgement"":1}","[0]","survey-likert","249","497893","0.0-249.0","73n6wyuu","","","","","","","","0"
"1175.509999999951","{""confidence"":2}","[0]","survey-likert","250","499070","0.0-250.0","73n6wyuu","","","","","","","",""
"29650.910000000033","","","instructions","251","528721","0.0-251.0","73n6wyuu","[{""page_index"":0,""viewing_time"":1824.75},{""page_index"":1,""viewing_time"":27265.035000000033},{""page_index"":2,""viewing_time"":560.9649999999674}]","","","","","","",""
"2133.564999999944","","","instructions","252","530855","0.0-252.0","73n6wyuu","[{""page_index"":0,""viewing_time"":453.5899999999674},{""page_index"":1,""viewing_time"":834.875},{""page_index"":2,""viewing_time"":844.9949999999953}]","","","","","","",""
"","","","call-function","253","530856","0.0-253.0","73n6wyuu","","","","","","","",""
"null","","","html-keyboard-response","254","532358","0.0-254.0","73n6wyuu","","<span style=""color:Black; font-size:50px;"">Agent A","null","","","","",""
"null","","","video-keyboard-response","255","535438","0.0-255.0","73n6wyuu","","","null","","Agent A","veridical","STIM_SET_1/1160127.bmp_pp90_L2_V1.0_veridical_freeview_isoFalse.mp4",""
"null","","","html-keyboard-response","256","536941","0.0-256.0","73n6wyuu","","<span style=""color:Black; font-size:50px;"">Agent B","null","","","","",""
"null","","","video-keyboard-response","257","540050","0.0-257.0","73n6wyuu","","","null","","Agent B","scrambled","STIM_SET_1/1160127.bmp_pp90_L2_V1.0_scrambled_freeview_isoFalse.mp4",""
"","","","call-function","258","540050","0.0-258.0","73n6wyuu","","","","","","","",""
"1928.6949999999488","{""judgement"":0}","[0]","survey-likert","259","541980","0.0-259.0","73n6wyuu","","","","","","","","0"
"1680.1199999999953","{""confidence"":1}","[0]","survey-likert","260","543661","0.0-260.0","73n6wyuu","","","","","","","",""
"","","","call-function","261","543661","0.0-261.0","73n6wyuu","","","","","","","",""
"null","","","html-keyboard-response","262","545164","0.0-262.0","73n6wyuu","","<span style=""color:Black; font-size:50px;"">Agent A","null","","","","",""
"null","","","video-keyboard-response","263","548244","0.0-263.0","73n6wyuu","","","null","","Agent A","veridical","STIM_SET_1/713707.bmp_pp154_L1_V1.0_veridical_freeview_isoFalse.mp4",""
"null","","","html-keyboard-response","264","549750","0.0-264.0","73n6wyuu","","<span style=""color:Black; font-size:50px;"">Agent B","null","","","","",""
"null","","","video-keyboard-response","265","552877","0.0-265.0","73n6wyuu","","","null","","Agent B","scrambled","STIM_SET_1/713707.bmp_pp154_L1_V1.0_scrambled_freeview_isoFalse.mp4",""
"","","","call-function","266","552879","0.0-266.0","73n6wyuu","","","","","","","",""
"1670.2649999998976","{""judgement"":0}","[0]","survey-likert","267","554551","0.0-267.0","73n6wyuu","","","","","","","","0"
"1164.1599999999162","{""confidence"":2}","[0]","survey-likert","268","555717","0.0-268.0","73n6wyuu","","","","","","","",""
"","","","call-function","269","555717","0.0-269.0","73n6wyuu","","","","","","","",""
"null","","","html-keyboard-response","270","557220","0.0-270.0","73n6wyuu","","<span style=""color:Black; font-size:50px;"">Agent A","null","","","","",""
"null","","","video-keyboard-response","271","560294","0.0-271.0","73n6wyuu","","","null","","Agent A","veridical","STIM_SET_1/1592934.bmp_pp63_L1_V1.0_veridical_freeview_isoFalse.mp4",""
"null","","","html-keyboard-response","272","561801","0.0-272.0","73n6wyuu","","<span style=""color:Black; font-size:50px;"">Agent B","null","","","","",""
"null","","","video-keyboard-response","273","564874","0.0-273.0","73n6wyuu","","","null","","Agent B","scrambled","STIM_SET_1/1592934.bmp_pp63_L1_V1.0_scrambled_freeview_isoFalse.mp4",""
"","","","call-function","274","564875","0.0-274.0","73n6wyuu","","","","","","","",""
"1151.25","{""judgement"":0}","[0]","survey-likert","275","566027","0.0-275.0","73n6wyuu","","","","","","","","0"
"1491.4649999999674","{""confidence"":0}","[0]","survey-likert","276","567520","0.0-276.0","73n6wyuu","","","","","","","",""
"","","","call-function","277","567521","0.0-277.0","73n6wyuu","","","","","","","",""
"null","","","html-keyboard-response","278","569024","0.0-278.0","73n6wyuu","","<span style=""color:Black; font-size:50px;"">Agent A","null","","","","",""
"null","","","video-keyboard-response","279","572096","0.0-279.0","73n6wyuu","","","null","","Agent A","veridical","STIM_SET_1/1159572.bmp_pp71_L1_V1.0_veridical_freeview_isoFalse.mp4",""
"null","","","html-keyboard-response","280","573601","0.0-280.0","73n6wyuu","","<span style=""color:Black; font-size:50px;"">Agent B","null","","","","",""
"null","","","video-keyboard-response","281","576669","0.0-281.0","73n6wyuu","","","null","","Agent B","scrambled","STIM_SET_1/1159572.bmp_pp71_L1_V1.0_scrambled_freeview_isoFalse.mp4",""
"","","","call-function","282","576670","0.0-282.0","73n6wyuu","","","","","","","",""
"1438.5200000000186","{""judgement"":0}","[0]","survey-likert","283","578109","0.0-283.0","73n6wyuu","","","","","","","","0"
"1115.4150000000373","{""confidence"":2}","[0]","survey-likert","284","579226","0.0-284.0","73n6wyuu","","","","","","","",""
"","","","call-function","285","579227","0.0-285.0","73n6wyuu","","","","","","","",""
"null","","","html-keyboard-response","286","580730","0.0-286.0","73n6wyuu","","<span style=""color:Black; font-size:50px;"">Agent A","null","","","","",""
"null","","","video-keyboard-response","287","583849","0.0-287.0","73n6wyuu","","","null","","Agent A","scrambled","STIM_SET_1/285751.bmp_pp55_L3_V1.0_scrambled_freeview_isoFalse.mp4",""
"null","","","html-keyboard-response","288","585356","0.0-288.0","73n6wyuu","","<span style=""color:Black; font-size:50px;"">Agent B","null","","","","",""
"null","","","video-keyboard-response","289","588475","0.0-289.0","73n6wyuu","","","null","","Agent B","veridical","STIM_SET_1/285751.bmp_pp55_L3_V1.0_veridical_freeview_isoFalse.mp4",""
"","","","call-function","290","588476","0.0-290.0","73n6wyuu","","","","","","","",""
"1547.5999999999767","{""judgement"":0}","[0]","survey-likert","291","590024","0.0-291.0","73n6wyuu","","","","","","","","1"
"1516.7799999999115","{""confidence"":2}","[0]","survey-likert","292","591542","0.0-292.0","73n6wyuu","","","","","","","",""
"","","","call-function","293","591543","0.0-293.0","73n6wyuu","","","","","","","",""
"null","","","html-keyboard-response","294","593046","0.0-294.0","73n6wyuu","","<span style=""color:Black; font-size:50px;"">Agent A","null","","","","",""
"null","","","video-keyboard-response","295","596166","0.0-295.0","73n6wyuu","","","null","","Agent A","veridical","STIM_SET_1/713211.bmp_pp100_L3_V1.0_veridical_freeview_isoFalse.mp4",""
"null","","","html-keyboard-response","296","597671","0.0-296.0","73n6wyuu","","<span style=""color:Black; font-size:50px;"">Agent B","null","","","","",""
"null","","","video-keyboard-response","297","600789","0.0-297.0","73n6wyuu","","","null","","Agent B","scrambled","STIM_SET_1/713211.bmp_pp100_L3_V1.0_scrambled_freeview_isoFalse.mp4",""
"","","","call-function","298","600789","0.0-298.0","73n6wyuu","","","","","","","",""
"1188.0899999999674","{""judgement"":0}","[0]","survey-likert","299","601978","0.0-299.0","73n6wyuu","","","","","","","","0"
"1093.9000000000233","{""confidence"":2}","[0]","survey-likert","300","603073","0.0-300.0","73n6wyuu","","","","","","","",""
"","","","call-function","301","603073","0.0-301.0","73n6wyuu","","","","","","","",""
"null","","","html-keyboard-response","302","604578","0.0-302.0","73n6wyuu","","<span style=""color:Black; font-size:50px;"">Agent A","null","","","","",""
"null","","","video-keyboard-response","303","607693","0.0-303.0","73n6wyuu","","","null","","Agent A","scrambled","STIM_SET_1/713749.bmp_pp88_L2_V1.0_scrambled_freeview_isoFalse.mp4",""
"null","","","html-keyboard-response","304","609196","0.0-304.0","73n6wyuu","","<span style=""color:Black; font-size:50px;"">Agent B","null","","","","",""
"null","","","video-keyboard-response","305","612312","0.0-305.0","73n6wyuu","","","null","","Agent B","veridical","STIM_SET_1/713749.bmp_pp88_L2_V1.0_veridical_freeview_isoFalse.mp4",""
"","","","call-function","306","612312","0.0-306.0","73n6wyuu","","","","","","","",""
"1717.8850000000093","{""judgement"":1}","[0]","survey-likert","307","614031","0.0-307.0","73n6wyuu","","","","","","","","1"
"1137.9099999999162","{""confidence"":2}","[0]","survey-likert","308","615170","0.0-308.0","73n6wyuu","","","","","","","",""
"","","","call-function","309","615171","0.0-309.0","73n6wyuu","","","","","","","",""
"null","","","html-keyboard-response","310","616674","0.0-310.0","73n6wyuu","","<span style=""color:Black; font-size:50px;"">Agent A","null","","","","",""
"null","","","video-keyboard-response","311","619769","0.0-311.0","73n6wyuu","","","null","","Agent A","veridical","STIM_SET_1/713684.bmp_pp85_L3_V1.0_veridical_freeview_isoFalse.mp4",""
"null","","","html-keyboard-response","312","621273","0.0-312.0","73n6wyuu","","<span style=""color:Black; font-size:50px;"">Agent B","null","","","","",""
"null","","","video-keyboard-response","313","624334","0.0-313.0","73n6wyuu","","","null","","Agent B","scrambled","STIM_SET_1/713684.bmp_pp85_L3_V1.0_scrambled_freeview_isoFalse.mp4",""
"","","","call-function","314","624335","0.0-314.0","73n6wyuu","","","","","","","",""
"1456.9949999999953","{""judgement"":0}","[0]","survey-likert","315","625792","0.0-315.0","73n6wyuu","","","","","","","","0"
"1282.6500000000233","{""confidence"":0}","[0]","survey-likert","316","627076","0.0-316.0","73n6wyuu","","","","","","","",""
"","","","call-function","317","627077","0.0-317.0","73n6wyuu","","","","","","","",""
"null","","","html-keyboard-response","318","628583","0.0-318.0","73n6wyuu","","<span style=""color:Black; font-size:50px;"">Agent A","null","","","","",""
"null","","","video-keyboard-response","319","631659","0.0-319.0","73n6wyuu","","","null","","Agent A","veridical","STIM_SET_1/1159440.bmp_pp98_L1_V1.0_veridical_freeview_isoFalse.mp4",""
"null","","","html-keyboard-response","320","633159","0.0-320.0","73n6wyuu","","<span style=""color:Black; font-size:50px;"">Agent B","null","","","","",""
"null","","","video-keyboard-response","321","636233","0.0-321.0","73n6wyuu","","","null","","Agent B","scrambled","STIM_SET_1/1159440.bmp_pp98_L1_V1.0_scrambled_freeview_isoFalse.mp4",""
"","","","call-function","322","636233","0.0-322.0","73n6wyuu","","","","","","","",""
"1776.8850000000093","{""judgement"":0}","[0]","survey-likert","323","638011","0.0-323.0","73n6wyuu","","","","","","","","0"
"910.125","{""confidence"":1}","[0]","survey-likert","324","638922","0.0-324.0","73n6wyuu","","","","","","","",""
"","","","call-function","325","638923","0.0-325.0","73n6wyuu","","","","","","","",""
"null","","","html-keyboard-response","326","640427","0.0-326.0","73n6wyuu","","<span style=""color:Black; font-size:50px;"">Agent A","null","","","","",""
"null","","","video-keyboard-response","327","643496","0.0-327.0","73n6wyuu","","","null","","Agent A","scrambled","STIM_SET_1/1159621.bmp_pp92_L3_V1.0_scrambled_freeview_isoFalse.mp4",""
"null","","","html-keyboard-response","328","644999","0.0-328.0","73n6wyuu","","<span style=""color:Black; font-size:50px;"">Agent B","null","","","","",""
"null","","","video-keyboard-response","329","648114","0.0-329.0","73n6wyuu","","","null","","Agent B","veridical","STIM_SET_1/1159621.bmp_pp92_L3_V1.0_veridical_freeview_isoFalse.mp4",""
"","","","call-function","330","648115","0.0-330.0","73n6wyuu","","","","","","","",""
"1659.375","{""judgement"":1}","[0]","survey-likert","331","649775","0.0-331.0","73n6wyuu","","","","","","","","1"
"892.6799999999348","{""confidence"":1}","[0]","survey-likert","332","650669","0.0-332.0","73n6wyuu","","","","","","","",""
"40672.09999999998","","","instructions","333","691342","0.0-333.0","73n6wyuu","[{""page_index"":0,""viewing_time"":1740.829999999958},{""page_index"":1,""viewing_time"":38096.95000000007},{""page_index"":2,""viewing_time"":834.1650000000373}]","","","","","","",""
"1700.4249999999302","","","instructions","334","693043","0.0-334.0","73n6wyuu","[{""page_index"":0,""viewing_time"":434.4049999999115},{""page_index"":1,""viewing_time"":765.0900000000838},{""page_index"":2,""viewing_time"":500.8049999999348}]","","","","","","",""
"","","","call-function","335","693043","0.0-335.0","73n6wyuu","","","","","","","",""
"null","","","html-keyboard-response","336","694545","0.0-336.0","73n6wyuu","","<span style=""color:Black; font-size:50px;"">Agent A","null","","","","",""
"null","","","video-keyboard-response","337","697611","0.0-337.0","73n6wyuu","","","null","","Agent A","scrambled","STIM_SET_1/1592351.bmp_pp51_L1_V1.0_scrambled_freeview_isoFalse.mp4",""
"null","","","html-keyboard-response","338","699114","0.0-338.0","73n6wyuu","","<span style=""color:Black; font-size:50px;"">Agent B","null","","","","",""
"null","","","video-keyboard-response","339","702181","0.0-339.0","73n6wyuu","","","null","","Agent B","veridical","STIM_SET_1/1592351.bmp_pp51_L1_V1.0_veridical_freeview_isoFalse.mp4",""
"","","","call-function","340","702181","0.0-340.0","73n6wyuu","","","","","","","",""
"1458.0449999999255","{""judgement"":1}","[0]","survey-likert","341","703640","0.0-341.0","73n6wyuu","","","","","","","","1"
"1472.4450000000652","{""confidence"":1}","[0]","survey-likert","342","705114","0.0-342.0","73n6wyuu","","","","","","","",""
"","","","call-function","343","705115","0.0-343.0","73n6wyuu","","","","","","","",""
"null","","","html-keyboard-response","344","706621","0.0-344.0","73n6wyuu","","<span style=""color:Black; font-size:50px;"">Agent A","null","","","","",""
"null","","","video-keyboard-response","345","709691","0.0-345.0","73n6wyuu","","","null","","Agent A","scrambled","STIM_SET_1/1592727.bmp_pp59_L3_V1.0_scrambled_freeview_isoFalse.mp4",""
"null","","","html-keyboard-response","346","711193","0.0-346.0","73n6wyuu","","<span style=""color:Black; font-size:50px;"">Agent B","null","","","","",""
"null","","","video-keyboard-response","347","714265","0.0-347.0","73n6wyuu","","","null","","Agent B","veridical","STIM_SET_1/1592727.bmp_pp59_L3_V1.0_veridical_freeview_isoFalse.mp4",""
"","","","call-function","348","714266","0.0-348.0","73n6wyuu","","","","","","","",""
"1498.2100000000792","{""judgement"":1}","[0]","survey-likert","349","715766","0.0-349.0","73n6wyuu","","","","","","","","1"
"1475.0350000000326","{""confidence"":2}","[0]","survey-likert","350","717243","0.0-350.0","73n6wyuu","","","","","","","",""
"","","","call-function","351","717243","0.0-351.0","73n6wyuu","","","","","","","",""
"null","","","html-keyboard-response","352","718745","0.0-352.0","73n6wyuu","","<span style=""color:Black; font-size:50px;"">Agent A","null","","","","",""
"null","","","video-keyboard-response","353","721825","0.0-353.0","73n6wyuu","","","null","","Agent A","veridical","STIM_SET_1/61537.bmp_pp73_L3_V1.0_veridical_freeview_isoFalse.mp4",""
"null","","","html-keyboard-response","354","723329","0.0-354.0","73n6wyuu","","<span style=""color:Black; font-size:50px;"">Agent B","null","","","","",""
"null","","","video-keyboard-response","355","726405","0.0-355.0","73n6wyuu","","","null","","Agent B","scrambled","STIM_SET_1/61537.bmp_pp73_L3_V1.0_scrambled_freeview_isoFalse.mp4",""
"","","","call-function","356","726406","0.0-356.0","73n6wyuu","","","","","","","",""
"1747.5849999999627","{""judgement"":0}","[0]","survey-likert","357","728154","0.0-357.0","73n6wyuu","","","","","","","","0"
"1429.6149999999907","{""confidence"":3}","[0]","survey-likert","358","729585","0.0-358.0","73n6wyuu","","","","","","","",""
"","","","call-function","359","729586","0.0-359.0","73n6wyuu","","","","","","","",""
"null","","","html-keyboard-response","360","731091","0.0-360.0","73n6wyuu","","<span style=""color:Black; font-size:50px;"">Agent A","null","","","","",""
"null","","","video-keyboard-response","361","734178","0.0-361.0","73n6wyuu","","","null","","Agent A","veridical","STIM_SET_1/1593041.bmp_pp58_L1_V1.0_veridical_freeview_isoFalse.mp4",""
"null","","","html-keyboard-response","362","735682","0.0-362.0","73n6wyuu","","<span style=""color:Black; font-size:50px;"">Agent B","null","","","","",""
"null","","","video-keyboard-response","363","738769","0.0-363.0","73n6wyuu","","","null","","Agent B","scrambled","STIM_SET_1/1593041.bmp_pp58_L1_V1.0_scrambled_freeview_isoFalse.mp4",""
"","","","call-function","364","738769","0.0-364.0","73n6wyuu","","","","","","","",""
"1825.5100000000093","{""judgement"":0}","[0]","survey-likert","365","740595","0.0-365.0","73n6wyuu","","","","","","","","0"
"961.6299999998882","{""confidence"":2}","[0]","survey-likert","366","741558","0.0-366.0","73n6wyuu","","","","","","","",""
"","","","call-function","367","741559","0.0-367.0","73n6wyuu","","","","","","","",""
"null","","","html-keyboard-response","368","743061","0.0-368.0","73n6wyuu","","<span style=""color:Black; font-size:50px;"">Agent A","null","","","","",""
"null","","","video-keyboard-response","369","746141","0.0-369.0","73n6wyuu","","","null","","Agent A","veridical","STIM_SET_1/1159777.bmp_pp77_L3_V1.0_veridical_freeview_isoFalse.mp4",""
"null","","","html-keyboard-response","370","747644","0.0-370.0","73n6wyuu","","<span style=""color:Black; font-size:50px;"">Agent B","null","","","","",""
"null","","","video-keyboard-response","371","750726","0.0-371.0","73n6wyuu","","","null","","Agent B","scrambled","STIM_SET_1/1159777.bmp_pp77_L3_V1.0_scrambled_freeview_isoFalse.mp4",""
"","","","call-function","372","750726","0.0-372.0","73n6wyuu","","","","","","","",""
"1441.1699999999255","{""judgement"":0}","[0]","survey-likert","373","752168","0.0-373.0","73n6wyuu","","","","","","","","0"
"2127.3249999999534","{""confidence"":2}","[0]","survey-likert","374","754297","0.0-374.0","73n6wyuu","","","","","","","",""
"","","","call-function","375","754297","0.0-375.0","73n6wyuu","","","","","","","",""
"null","","","html-keyboard-response","376","755799","0.0-376.0","73n6wyuu","","<span style=""color:Black; font-size:50px;"">Agent A","null","","","","",""
"null","","","video-keyboard-response","377","758893","0.0-377.0","73n6wyuu","","","null","","Agent A","scrambled","STIM_SET_1/286001.bmp_pp54_L2_V1.0_scrambled_freeview_isoFalse.mp4",""
"null","","","html-keyboard-response","378","760400","0.0-378.0","73n6wyuu","","<span style=""color:Black; font-size:50px;"">Agent B","null","","","","",""
"null","","","video-keyboard-response","379","763493","0.0-379.0","73n6wyuu","","","null","","Agent B","veridical","STIM_SET_1/286001.bmp_pp54_L2_V1.0_veridical_freeview_isoFalse.mp4",""
"","","","call-function","380","763494","0.0-380.0","73n6wyuu","","","","","","","",""
"2244.7550000000047","{""judgement"":0}","[0]","survey-likert","381","765740","0.0-381.0","73n6wyuu","","","","","","","","1"
"1356.5500000000466","{""confidence"":2}","[0]","survey-likert","382","767097","0.0-382.0","73n6wyuu","","","","","","","",""
"","","","call-function","383","767098","0.0-383.0","73n6wyuu","","","","","","","",""
"null","","","html-keyboard-response","384","768603","0.0-384.0","73n6wyuu","","<span style=""color:Black; font-size:50px;"">Agent A","null","","","","",""
"null","","","video-keyboard-response","385","771720","0.0-385.0","73n6wyuu","","","null","","Agent A","scrambled","STIM_SET_1/1591876.bmp_pp63_L1_V1.0_scrambled_freeview_isoFalse.mp4",""
"null","","","html-keyboard-response","386","773221","0.0-386.0","73n6wyuu","","<span style=""color:Black; font-size:50px;"">Agent B","null","","","","",""
"null","","","video-keyboard-response","387","776297","0.0-387.0","73n6wyuu","","","null","","Agent B","veridical","STIM_SET_1/1591876.bmp_pp63_L1_V1.0_veridical_freeview_isoFalse.mp4",""
"","","","call-function","388","776297","0.0-388.0","73n6wyuu","","","","","","","",""
"1493.234999999986","{""judgement"":1}","[0]","survey-likert","389","777792","0.0-389.0","73n6wyuu","","","","","","","","1"
"1002.9150000000373","{""confidence"":2}","[0]","survey-likert","390","778796","0.0-390.0","73n6wyuu","","","","","","","",""
"","","","call-function","391","778796","0.0-391.0","73n6wyuu","","","","","","","",""
"null","","","html-keyboard-response","392","780303","0.0-392.0","73n6wyuu","","<span style=""color:Black; font-size:50px;"">Agent A","null","","","","",""
"null","","","video-keyboard-response","393","783381","0.0-393.0","73n6wyuu","","","null","","Agent A","scrambled","STIM_SET_1/713666.bmp_pp97_L3_V1.0_scrambled_freeview_isoFalse.mp4",""
"null","","","html-keyboard-response","394","784885","0.0-394.0","73n6wyuu","","<span style=""color:Black; font-size:50px;"">Agent B","null","","","","",""
"null","","","video-keyboard-response","395","787964","0.0-395.0","73n6wyuu","","","null","","Agent B","veridical","STIM_SET_1/713666.bmp_pp97_L3_V1.0_veridical_freeview_isoFalse.mp4",""
"","","","call-function","396","787964","0.0-396.0","73n6wyuu","","","","","","","",""
"1245.5299999999115","{""judgement"":0}","[0]","survey-likert","397","789211","0.0-397.0","73n6wyuu","","","","","","","","1"
"1193.5050000000047","{""confidence"":0}","[0]","survey-likert","398","790405","0.0-398.0","73n6wyuu","","","","","","","",""
"","","","call-function","399","790406","0.0-399.0","73n6wyuu","","","","","","","",""
"null","","","html-keyboard-response","400","791906","0.0-400.0","73n6wyuu","","<span style=""color:Black; font-size:50px;"">Agent A","null","","","","",""
"null","","","video-keyboard-response","401","794980","0.0-401.0","73n6wyuu","","","null","","Agent A","scrambled","STIM_SET_1/1592890.bmp_pp82_L2_V1.0_scrambled_freeview_isoFalse.mp4",""
"null","","","html-keyboard-response","402","796482","0.0-402.0","73n6wyuu","","<span style=""color:Black; font-size:50px;"">Agent B","null","","","","",""
"null","","","video-keyboard-response","403","799559","0.0-403.0","73n6wyuu","","","null","","Agent B","veridical","STIM_SET_1/1592890.bmp_pp82_L2_V1.0_veridical_freeview_isoFalse.mp4",""
"","","","call-function","404","799560","0.0-404.0","73n6wyuu","","","","","","","",""
"1508.0649999999441","{""judgement"":0}","[0]","survey-likert","405","801070","0.0-405.0","73n6wyuu","","","","","","","","1"
"1068.1900000000605","{""confidence"":1}","[0]","survey-likert","406","802139","0.0-406.0","73n6wyuu","","","","","","","",""
"","","","call-function","407","802140","0.0-407.0","73n6wyuu","","","","","","","",""
"null","","","html-keyboard-response","408","803644","0.0-408.0","73n6wyuu","","<span style=""color:Black; font-size:50px;"">Agent A","null","","","","",""
"null","","","video-keyboard-response","409","806718","0.0-409.0","73n6wyuu","","","null","","Agent A","veridical","STIM_SET_1/1159829.bmp_pp91_L3_V1.0_veridical_freeview_isoFalse.mp4",""
"null","","","html-keyboard-response","410","808223","0.0-410.0","73n6wyuu","","<span style=""color:Black; font-size:50px;"">Agent B","null","","","","",""
"null","","","video-keyboard-response","411","811296","0.0-411.0","73n6wyuu","","","null","","Agent B","scrambled","STIM_SET_1/1159829.bmp_pp91_L3_V1.0_scrambled_freeview_isoFalse.mp4",""
"","","","call-function","412","811297","0.0-412.0","73n6wyuu","","","","","","","",""
"2117.4150000000373","{""judgement"":1}","[0]","survey-likert","413","813416","0.0-413.0","73n6wyuu","","","","","","","","0"
"1153.4399999999441","{""confidence"":1}","[0]","survey-likert","414","814571","0.0-414.0","73n6wyuu","","","","","","","",""
"54604.50999999989","","","instructions","415","869176","0.0-415.0","73n6wyuu","[{""page_index"":0,""viewing_time"":969.5499999999302},{""page_index"":1,""viewing_time"":53116.34999999998},{""page_index"":2,""viewing_time"":518.4500000000698}]","","","","","","",""
"1927.3350000000792","","","instructions","416","871104","0.0-416.0","73n6wyuu","[{""page_index"":0,""viewing_time"":529.3800000000047},{""page_index"":1,""viewing_time"":647.0250000000233},{""page_index"":2,""viewing_time"":750.8200000000652}]","","","","","","",""
"","","","call-function","417","871105","0.0-417.0","73n6wyuu","","","","","","","",""
"null","","","html-keyboard-response","418","872612","0.0-418.0","73n6wyuu","","<span style=""color:Black; font-size:50px;"">Agent A","null","","","","",""
"null","","","video-keyboard-response","419","875688","0.0-419.0","73n6wyuu","","","null","","Agent A","scrambled","STIM_SET_1/498253.bmp_pp67_L2_V1.0_scrambled_freeview_isoFalse.mp4",""
"null","","","html-keyboard-response","420","877194","0.0-420.0","73n6wyuu","","<span style=""color:Black; font-size:50px;"">Agent B","null","","","","",""
"null","","","video-keyboard-response","421","880271","0.0-421.0","73n6wyuu","","","null","","Agent B","veridical","STIM_SET_1/498253.bmp_pp67_L2_V1.0_veridical_freeview_isoFalse.mp4",""
"","","","call-function","422","880272","0.0-422.0","73n6wyuu","","","","","","","",""
"2004.7449999999953","{""judgement"":0}","[0]","survey-likert","423","882278","0.0-423.0","73n6wyuu","","","","","","","","1"
"1052.3200000000652","{""confidence"":1}","[0]","survey-likert","424","883331","0.0-424.0","73n6wyuu","","","","","","","",""
"","","","call-function","425","883332","0.0-425.0","73n6wyuu","","","","","","","",""
"null","","","html-keyboard-response","426","884834","0.0-426.0","73n6wyuu","","<span style=""color:Black; font-size:50px;"">Agent A","null","","","","",""
"null","","","video-keyboard-response","427","887896","0.0-427.0","73n6wyuu","","","null","","Agent A","veridical","STIM_SET_1/713760.bmp_pp81_L1_V1.0_veridical_freeview_isoFalse.mp4",""
"null","","","html-keyboard-response","428","889399","0.0-428.0","73n6wyuu","","<span style=""color:Black; font-size:50px;"">Agent B","null","","","","",""
"null","","","video-keyboard-response","429","892460","0.0-429.0","73n6wyuu","","","null","","Agent B","scrambled","STIM_SET_1/713760.bmp_pp81_L1_V1.0_scrambled_freeview_isoFalse.mp4",""
"","","","call-function","430","892461","0.0-430.0","73n6wyuu","","","","","","","",""
"2045.4249999999302","{""judgement"":0}","[0]","survey-likert","431","894507","0.0-431.0","73n6wyuu","","","","","","","","0"
"1089.4449999999488","{""confidence"":2}","[0]","survey-likert","432","895597","0.0-432.0","73n6wyuu","","","","","","","",""
"","","","call-function","433","895598","0.0-433.0","73n6wyuu","","","","","","","",""
"null","","","html-keyboard-response","434","897101","0.0-434.0","73n6wyuu","","<span style=""color:Black; font-size:50px;"">Agent A","null","","","","",""
"null","","","video-keyboard-response","435","900208","0.0-435.0","73n6wyuu","","","null","","Agent A","veridical","STIM_SET_1/1592817.bmp_pp55_L3_V1.0_veridical_freeview_isoFalse.mp4",""
"null","","","html-keyboard-response","436","901709","0.0-436.0","73n6wyuu","","<span style=""color:Black; font-size:50px;"">Agent B","null","","","","",""
"null","","","video-keyboard-response","437","904812","0.0-437.0","73n6wyuu","","","null","","Agent B","scrambled","STIM_SET_1/1592817.bmp_pp55_L3_V1.0_scrambled_freeview_isoFalse.mp4",""
"","","","call-function","438","904813","0.0-438.0","73n6wyuu","","","","","","","",""
"1302.3150000000605","{""judgement"":0}","[0]","survey-likert","439","906116","0.0-439.0","73n6wyuu","","","","","","","","0"
"1238.1199999999953","{""confidence"":1}","[0]","survey-likert","440","907355","0.0-440.0","73n6wyuu","","","","","","","",""
"","","","call-function","441","907355","0.0-441.0","73n6wyuu","","","","","","","",""
"null","","","html-keyboard-response","442","908857","0.0-442.0","73n6wyuu","","<span style=""color:Black; font-size:50px;"">Agent A","null","","","","",""
"null","","","video-keyboard-response","443","911929","0.0-443.0","73n6wyuu","","","null","","Agent A","veridical","STIM_SET_1/497950.bmp_pp151_L1_V1.0_veridical_freeview_isoFalse.mp4",""
"null","","","html-keyboard-response","444","913434","0.0-444.0","73n6wyuu","","<span style=""color:Black; font-size:50px;"">Agent B","null","","","","",""
"null","","","video-keyboard-response","445","916506","0.0-445.0","73n6wyuu","","","null","","Agent B","scrambled","STIM_SET_1/497950.bmp_pp151_L1_V1.0_scrambled_freeview_isoFalse.mp4",""
"","","","call-function","446","916506","0.0-446.0","73n6wyuu","","","","","","","",""
"2269.594999999972","{""judgement"":0}","[0]","survey-likert","447","918777","0.0-447.0","73n6wyuu","","","","","","","","0"
"2996.429999999935","{""confidence"":3}","[0]","survey-likert","448","921774","0.0-448.0","73n6wyuu","","","","","","","",""
"","","","call-function","449","921775","0.0-449.0","73n6wyuu","","","","","","","",""
"null","","","html-keyboard-response","450","923277","0.0-450.0","73n6wyuu","","<span style=""color:Black; font-size:50px;"">Agent A","null","","","","",""
"null","","","video-keyboard-response","451","926387","0.0-451.0","73n6wyuu","","","null","","Agent A","veridical","STIM_SET_1/1592362.bmp_pp95_L2_V1.0_veridical_freeview_isoFalse.mp4",""
"null","","","html-keyboard-response","452","927892","0.0-452.0","73n6wyuu","","<span style=""color:Black; font-size:50px;"">Agent B","null","","","","",""
"null","","","video-keyboard-response","453","931004","0.0-453.0","73n6wyuu","","","null","","Agent B","scrambled","STIM_SET_1/1592362.bmp_pp95_L2_V1.0_scrambled_freeview_isoFalse.mp4",""
"","","","call-function","454","931005","0.0-454.0","73n6wyuu","","","","","","","",""
"1922.0600000000559","{""judgement"":1}","[0]","survey-likert","455","932928","0.0-455.0","73n6wyuu","","","","","","","","0"
"1020.9749999999767","{""confidence"":1}","[0]","survey-likert","456","933950","0.0-456.0","73n6wyuu","","","","","","","",""
"","","","call-function","457","933950","0.0-457.0","73n6wyuu","","","","","","","",""
"null","","","html-keyboard-response","458","935455","0.0-458.0","73n6wyuu","","<span style=""color:Black; font-size:50px;"">Agent A","null","","","","",""
"null","","","video-keyboard-response","459","938579","0.0-459.0","73n6wyuu","","","null","","Agent A","veridical","STIM_SET_1/1592372.bmp_pp76_L1_V1.0_veridical_freeview_isoFalse.mp4",""
"null","","","html-keyboard-response","460","940081","0.0-460.0","73n6wyuu","","<span style=""color:Black; font-size:50px;"">Agent B","null","","","","",""
"null","","","video-keyboard-response","461","943157","0.0-461.0","73n6wyuu","","","null","","Agent B","scrambled","STIM_SET_1/1592372.bmp_pp76_L1_V1.0_scrambled_freeview_isoFalse.mp4",""
"","","","call-function","462","943158","0.0-462.0","73n6wyuu","","","","","","","",""
"1744.4600000000792","{""judgement"":1}","[0]","survey-likert","463","944903","0.0-463.0","73n6wyuu","","","","","","","","0"
"1164.9749999999767","{""confidence"":1}","[0]","survey-likert","464","946069","0.0-464.0","73n6wyuu","","","","","","","",""
"","","","call-function","465","946069","0.0-465.0","73n6wyuu","","","","","","","",""
"null","","","html-keyboard-response","466","947572","0.0-466.0","73n6wyuu","","<span style=""color:Black; font-size:50px;"">Agent A","null","","","","",""
"null","","","video-keyboard-response","467","950653","0.0-467.0","73n6wyuu","","","null","","Agent A","scrambled","STIM_SET_1/1159675.bmp_pp77_L3_V1.0_scrambled_freeview_isoFalse.mp4",""
"null","","","html-keyboard-response","468","952157","0.0-468.0","73n6wyuu","","<span style=""color:Black; font-size:50px;"">Agent B","null","","","","",""
"null","","","video-keyboard-response","469","955237","0.0-469.0","73n6wyuu","","","null","","Agent B","veridical","STIM_SET_1/1159675.bmp_pp77_L3_V1.0_veridical_freeview_isoFalse.mp4",""
"","","","call-function","470","955238","0.0-470.0","73n6wyuu","","","","","","","",""
"2834.8549999999814","{""judgement"":1}","[0]","survey-likert","471","958074","0.0-471.0","73n6wyuu","","","","","","","","1"
"1721.7849999999162","{""confidence"":0}","[0]","survey-likert","472","959798","0.0-472.0","73n6wyuu","","","","","","","",""
"","","","call-function","473","959800","0.0-473.0","73n6wyuu","","","","","","","",""
"null","","","html-keyboard-response","474","961301","0.0-474.0","73n6wyuu","","<span style=""color:Black; font-size:50px;"">Agent A","null","","","","",""
"null","","","video-keyboard-response","475","964378","0.0-475.0","73n6wyuu","","","null","","Agent A","scrambled","STIM_SET_1/1159784.bmp_pp73_L3_V1.0_scrambled_freeview_isoFalse.mp4",""
"null","","","html-keyboard-response","476","965882","0.0-476.0","73n6wyuu","","<span style=""color:Black; font-size:50px;"">Agent B","null","","","","",""
"null","","","video-keyboard-response","477","968964","0.0-477.0","73n6wyuu","","","null","","Agent B","veridical","STIM_SET_1/1159784.bmp_pp73_L3_V1.0_veridical_freeview_isoFalse.mp4",""
"","","","call-function","478","968965","0.0-478.0","73n6wyuu","","","","","","","",""
"2297.909999999916","{""judgement"":0}","[0]","survey-likert","479","971264","0.0-479.0","73n6wyuu","","","","","","","","1"
"939.2050000000745","{""confidence"":1}","[0]","survey-likert","480","972204","0.0-480.0","73n6wyuu","","","","","","","",""
"","","","call-function","481","972205","0.0-481.0","73n6wyuu","","","","","","","",""
"null","","","html-keyboard-response","482","973708","0.0-482.0","73n6wyuu","","<span style=""color:Black; font-size:50px;"">Agent A","null","","","","",""
"null","","","video-keyboard-response","483","976780","0.0-483.0","73n6wyuu","","","null","","Agent A","veridical","STIM_SET_1/713513.bmp_pp62_L2_V1.0_veridical_freeview_isoFalse.mp4",""
"null","","","html-keyboard-response","484","978284","0.0-484.0","73n6wyuu","","<span style=""color:Black; font-size:50px;"">Agent B","null","","","","",""
"null","","","video-keyboard-response","485","981356","0.0-485.0","73n6wyuu","","","null","","Agent B","scrambled","STIM_SET_1/713513.bmp_pp62_L2_V1.0_scrambled_freeview_isoFalse.mp4",""
"","","","call-function","486","981357","0.0-486.0","73n6wyuu","","","","","","","",""
"1390.0549999999348","{""judgement"":1}","[0]","survey-likert","487","982748","0.0-487.0","73n6wyuu","","","","","","","","0"
"1227.1199999999953","{""confidence"":1}","[0]","survey-likert","488","983976","0.0-488.0","73n6wyuu","","","","","","","",""
"","","","call-function","489","983977","0.0-489.0","73n6wyuu","","","","","","","",""
"null","","","html-keyboard-response","490","985482","0.0-490.0","73n6wyuu","","<span style=""color:Black; font-size:50px;"">Agent A","null","","","","",""
"null","","","video-keyboard-response","491","988567","0.0-491.0","73n6wyuu","","","null","","Agent A","veridical","STIM_SET_1/1591961.bmp_pp67_L2_V1.0_veridical_freeview_isoFalse.mp4",""
"null","","","html-keyboard-response","492","990072","0.0-492.0","73n6wyuu","","<span style=""color:Black; font-size:50px;"">Agent B","null","","","","",""
"null","","","video-keyboard-response","493","993195","0.0-493.0","73n6wyuu","","","null","","Agent B","scrambled","STIM_SET_1/1591961.bmp_pp67_L2_V1.0_scrambled_freeview_isoFalse.mp4",""
"","","","call-function","494","993195","0.0-494.0","73n6wyuu","","","","","","","",""
"1483.8099999999395","{""judgement"":0}","[0]","survey-likert","495","994680","0.0-495.0","73n6wyuu","","","","","","","","0"
"1192.9749999999767","{""confidence"":1}","[0]","survey-likert","496","995874","0.0-496.0","73n6wyuu","","","","","","","",""
"34204.7300000001","","","instructions","497","1030080","0.0-497.0","73n6wyuu","[{""page_index"":0,""viewing_time"":1860.1450000000186},{""page_index"":1,""viewing_time"":31285.580000000075},{""page_index"":2,""viewing_time"":1058.8499999999767}]","","","","","","",""
"2051.3649999999907","","","instructions","498","1032131","0.0-498.0","73n6wyuu","[{""page_index"":0,""viewing_time"":682.5599999999395},{""page_index"":1,""viewing_time"":783.9200000000419},{""page_index"":2,""viewing_time"":584.7750000000233}]","","","","","","",""
"","","","call-function","499","1032132","0.0-499.0","73n6wyuu","","","","","","","",""
"null","","","html-keyboard-response","500","1033633","0.0-500.0","73n6wyuu","","<span style=""color:Black; font-size:50px;"">Agent A","null","","","","",""
"null","","","video-keyboard-response","501","1036700","0.0-501.0","73n6wyuu","","","null","","Agent A","veridical","STIM_SET_1/1592619.bmp_pp56_L3_V1.0_veridical_freeview_isoFalse.mp4",""
"null","","","html-keyboard-response","502","1038201","0.0-502.0","73n6wyuu","","<span style=""color:Black; font-size:50px;"">Agent B","null","","","","",""
"null","","","video-keyboard-response","503","1041270","0.0-503.0","73n6wyuu","","","null","","Agent B","scrambled","STIM_SET_1/1592619.bmp_pp56_L3_V1.0_scrambled_freeview_isoFalse.mp4",""
"","","","call-function","504","1041270","0.0-504.0","73n6wyuu","","","","","","","",""
"2999.070000000065","{""judgement"":0}","[0]","survey-likert","505","1044270","0.0-505.0","73n6wyuu","","","","","","","","0"
"1450.5500000000466","{""confidence"":3}","[0]","survey-likert","506","1045722","0.0-506.0","73n6wyuu","","","","","","","",""
"","","","call-function","507","1045722","0.0-507.0","73n6wyuu","","","","","","","",""
"null","","","html-keyboard-response","508","1047224","0.0-508.0","73n6wyuu","","<span style=""color:Black; font-size:50px;"">Agent A","null","","","","",""
"null","","","video-keyboard-response","509","1050299","0.0-509.0","73n6wyuu","","","null","","Agent A","scrambled","STIM_SET_1/498111.bmp_pp88_L2_V1.0_scrambled_freeview_isoFalse.mp4",""
"null","","","html-keyboard-response","510","1051804","0.0-510.0","73n6wyuu","","<span style=""color:Black; font-size:50px;"">Agent B","null","","","","",""
"null","","","video-keyboard-response","511","1054881","0.0-511.0","73n6wyuu","","","null","","Agent B","veridical","STIM_SET_1/498111.bmp_pp88_L2_V1.0_veridical_freeview_isoFalse.mp4",""
"","","","call-function","512","1054881","0.0-512.0","73n6wyuu","","","","","","","",""
"1824.880000000121","{""judgement"":1}","[0]","survey-likert","513","1056707","0.0-513.0","73n6wyuu","","","","","","","","1"
"1932.9850000001024","{""confidence"":2}","[0]","survey-likert","514","1058641","0.0-514.0","73n6wyuu","","","","","","","",""
"","","","call-function","515","1058641","0.0-515.0","73n6wyuu","","","","","","","",""
"null","","","html-keyboard-response","516","1060146","0.0-516.0","73n6wyuu","","<span style=""color:Black; font-size:50px;"">Agent A","null","","","","",""
"null","","","video-keyboard-response","517","1063253","0.0-517.0","73n6wyuu","","","null","","Agent A","scrambled","STIM_SET_1/1159813.bmp_pp79_L2_V1.0_scrambled_freeview_isoFalse.mp4",""
"null","","","html-keyboard-response","518","1064756","0.0-518.0","73n6wyuu","","<span style=""color:Black; font-size:50px;"">Agent B","null","","","","",""
"null","","","video-keyboard-response","519","1067866","0.0-519.0","73n6wyuu","","","null","","Agent B","veridical","STIM_SET_1/1159813.bmp_pp79_L2_V1.0_veridical_freeview_isoFalse.mp4",""
"","","","call-function","520","1067867","0.0-520.0","73n6wyuu","","","","","","","",""
"2585.3950000000186","{""judgement"":0}","[0]","survey-likert","521","1070453","0.0-521.0","73n6wyuu","","","","","","","","1"
"1312.3949999997858","{""confidence"":2}","[0]","survey-likert","522","1071767","0.0-522.0","73n6wyuu","","","","","","","",""
"","","","call-function","523","1071769","0.0-523.0","73n6wyuu","","","","","","","",""
"null","","","html-keyboard-response","524","1073272","0.0-524.0","73n6wyuu","","<span style=""color:Black; font-size:50px;"">Agent A","null","","","","",""
"null","","","video-keyboard-response","525","1076339","0.0-525.0","73n6wyuu","","","null","","Agent A","veridical","STIM_SET_1/1159446.bmp_pp60_L3_V1.0_veridical_freeview_isoFalse.mp4",""
"null","","","html-keyboard-response","526","1077843","0.0-526.0","73n6wyuu","","<span style=""color:Black; font-size:50px;"">Agent B","null","","","","",""
"null","","","video-keyboard-response","527","1080908","0.0-527.0","73n6wyuu","","","null","","Agent B","scrambled","STIM_SET_1/1159446.bmp_pp60_L3_V1.0_scrambled_freeview_isoFalse.mp4",""
"","","","call-function","528","1080909","0.0-528.0","73n6wyuu","","","","","","","",""
"1756.8850000000093","{""judgement"":1}","[0]","survey-likert","529","1082667","0.0-529.0","73n6wyuu","","","","","","","","0"
"2874.965000000084","{""confidence"":1}","[0]","survey-likert","530","1085543","0.0-530.0","73n6wyuu","","","","","","","",""
"","","","call-function","531","1085544","0.0-531.0","73n6wyuu","","","","","","","",""
"null","","","html-keyboard-response","532","1087048","0.0-532.0","73n6wyuu","","<span style=""color:Black; font-size:50px;"">Agent A","null","","","","",""
"null","","","video-keyboard-response","533","1090123","0.0-533.0","73n6wyuu","","","null","","Agent A","scrambled","STIM_SET_1/1160168.bmp_pp53_L2_V1.0_scrambled_freeview_isoFalse.mp4",""
"null","","","html-keyboard-response","534","1091626","0.0-534.0","73n6wyuu","","<span style=""color:Black; font-size:50px;"">Agent B","null","","","","",""
"null","","","video-keyboard-response","535","1094699","0.0-535.0","73n6wyuu","","","null","","Agent B","veridical","STIM_SET_1/1160168.bmp_pp53_L2_V1.0_veridical_freeview_isoFalse.mp4",""
"","","","call-function","536","1094699","0.0-536.0","73n6wyuu","","","","","","","",""
"1590.8400000000838","{""judgement"":0}","[0]","survey-likert","537","1096291","0.0-537.0","73n6wyuu","","","","","","","","1"
"1358.2099999999627","{""confidence"":2}","[0]","survey-likert","538","1097650","0.0-538.0","73n6wyuu","","","","","","","",""
"","","","call-function","539","1097651","0.0-539.0","73n6wyuu","","","","","","","",""
"null","","","html-keyboard-response","540","1099152","0.0-540.0","73n6wyuu","","<span style=""color:Black; font-size:50px;"">Agent A","null","","","","",""
"null","","","video-keyboard-response","541","1102271","0.0-541.0","73n6wyuu","","","null","","Agent A","scrambled","STIM_SET_1/1592657.bmp_pp98_L1_V1.0_scrambled_freeview_isoFalse.mp4",""
"null","","","html-keyboard-response","542","1103776","0.0-542.0","73n6wyuu","","<span style=""color:Black; font-size:50px;"">Agent B","null","","","","",""
"null","","","video-keyboard-response","543","1106894","0.0-543.0","73n6wyuu","","","null","","Agent B","veridical","STIM_SET_1/1592657.bmp_pp98_L1_V1.0_veridical_freeview_isoFalse.mp4",""
"","","","call-function","544","1106894","0.0-544.0","73n6wyuu","","","","","","","",""
"1245.4350000000559","{""judgement"":0}","[0]","survey-likert","545","1108141","0.0-545.0","73n6wyuu","","","","","","","","1"
"2281.1500000001397","{""confidence"":3}","[0]","survey-likert","546","1110423","0.0-546.0","73n6wyuu","","","","","","","",""
"","","","call-function","547","1110424","0.0-547.0","73n6wyuu","","","","","","","",""
"null","","","html-keyboard-response","548","1111926","0.0-548.0","73n6wyuu","","<span style=""color:Black; font-size:50px;"">Agent A","null","","","","",""
"null","","","video-keyboard-response","549","1114998","0.0-549.0","73n6wyuu","","","null","","Agent A","veridical","STIM_SET_1/713681.bmp_pp86_L2_V1.0_veridical_freeview_isoFalse.mp4",""
"null","","","html-keyboard-response","550","1116500","0.0-550.0","73n6wyuu","","<span style=""color:Black; font-size:50px;"">Agent B","null","","","","",""
"null","","","video-keyboard-response","551","1119612","0.0-551.0","73n6wyuu","","","null","","Agent B","scrambled","STIM_SET_1/713681.bmp_pp86_L2_V1.0_scrambled_freeview_isoFalse.mp4",""
"","","","call-function","552","1119613","0.0-552.0","73n6wyuu","","","","","","","",""
"2429.559999999823","{""judgement"":0}","[0]","survey-likert","553","1122043","0.0-553.0","73n6wyuu","","","","","","","","0"
"1343.9199999999255","{""confidence"":0}","[0]","survey-likert","554","1123388","0.0-554.0","73n6wyuu","","","","","","","",""
"","","","call-function","555","1123389","0.0-555.0","73n6wyuu","","","","","","","",""
"null","","","html-keyboard-response","556","1124889","0.0-556.0","73n6wyuu","","<span style=""color:Black; font-size:50px;"">Agent A","null","","","","",""
"null","","","video-keyboard-response","557","1128002","0.0-557.0","73n6wyuu","","","null","","Agent A","scrambled","STIM_SET_1/1592133.bmp_pp75_L1_V1.0_scrambled_freeview_isoFalse.mp4",""
"null","","","html-keyboard-response","558","1129508","0.0-558.0","73n6wyuu","","<span style=""color:Black; font-size:50px;"">Agent B","null","","","","",""
"null","","","video-keyboard-response","559","1132619","0.0-559.0","73n6wyuu","","","null","","Agent B","veridical","STIM_SET_1/1592133.bmp_pp75_L1_V1.0_veridical_freeview_isoFalse.mp4",""
"","","","call-function","560","1132621","0.0-560.0","73n6wyuu","","","","","","","",""
"2291.1350000000093","{""judgement"":1}","[0]","survey-likert","561","1134914","0.0-561.0","73n6wyuu","","","","","","","","1"
"13219.550000000047","{""confidence"":1}","[0]","survey-likert","562","1148135","0.0-562.0","73n6wyuu","","","","","","","",""
"","","","call-function","563","1148135","0.0-563.0","73n6wyuu","","","","","","","",""
"null","","","html-keyboard-response","564","1149640","0.0-564.0","73n6wyuu","","<span style=""color:Black; font-size:50px;"">Agent A","null","","","","",""
"null","","","video-keyboard-response","565","1152719","0.0-565.0","73n6wyuu","","","null","","Agent A","scrambled","STIM_SET_1/712977.bmp_pp51_L1_V1.0_scrambled_freeview_isoFalse.mp4",""
"null","","","html-keyboard-response","566","1154226","0.0-566.0","73n6wyuu","","<span style=""color:Black; font-size:50px;"">Agent B","null","","","","",""
"null","","","video-keyboard-response","567","1157307","0.0-567.0","73n6wyuu","","","null","","Agent B","veridical","STIM_SET_1/712977.bmp_pp51_L1_V1.0_veridical_freeview_isoFalse.mp4",""
"","","","call-function","568","1157308","0.0-568.0","73n6wyuu","","","","","","","",""
"1617.9199999999255","{""judgement"":0}","[0]","survey-likert","569","1158927","0.0-569.0","73n6wyuu","","","","","","","","1"
"1406.3549999999814","{""confidence"":2}","[0]","survey-likert","570","1160335","0.0-570.0","73n6wyuu","","","","","","","",""
"","","","call-function","571","1160335","0.0-571.0","73n6wyuu","","","","","","","",""
"null","","","html-keyboard-response","572","1161840","0.0-572.0","73n6wyuu","","<span style=""color:Black; font-size:50px;"">Agent A","null","","","","",""
"null","","","video-keyboard-response","573","1164912","0.0-573.0","73n6wyuu","","","null","","Agent A","scrambled","STIM_SET_1/498170.bmp_pp153_L3_V1.0_scrambled_freeview_isoFalse.mp4",""
"null","","","html-keyboard-response","574","1166414","0.0-574.0","73n6wyuu","","<span style=""color:Black; font-size:50px;"">Agent B","null","","","","",""
"null","","","video-keyboard-response","575","1169486","0.0-575.0","73n6wyuu","","","null","","Agent B","veridical","STIM_SET_1/498170.bmp_pp153_L3_V1.0_veridical_freeview_isoFalse.mp4",""
"","","","call-function","576","1169486","0.0-576.0","73n6wyuu","","","","","","","",""
"2355.534999999916","{""judgement"":1}","[0]","survey-likert","577","1171843","0.0-577.0","73n6wyuu","","","","","","","","1"
"1521.5100000000093","{""confidence"":0}","[0]","survey-likert","578","1173366","0.0-578.0","73n6wyuu","","","","","","","",""
"2185.094999999972","","","instructions","579","1175551","0.0-579.0","73n6wyuu","[{""page_index"":0,""viewing_time"":2184.939999999944}]","","","","","","",""
"1432.714999999851","","","instructions","580","1176984","0.0-580.0","73n6wyuu","[{""page_index"":0,""viewing_time"":1432.4899999999907}]","","","","","","",""
"5900.945000000065","{""post-1"":2}","[0]","survey-likert","581","1182887","0.0-581.0","73n6wyuu","","","","","","","",""
"2347.5200000000186","{""post-1"":0}","[0]","survey-likert","582","1185235","0.0-582.0","73n6wyuu","","","","","","","",""
"4204.595000000205","{""post-2"":2}","[0]","survey-likert","583","1189441","0.0-583.0","73n6wyuu","","","","","","","",""
"1872.1699999999255","{""post-2"":0}","[0]","survey-likert","584","1191315","0.0-584.0","73n6wyuu","","","","","","","",""
"3171.3950000000186","{""post-3"":3}","[0]","survey-likert","585","1194487","0.0-585.0","73n6wyuu","","","","","","","",""
"3465.280000000028","{""post-3"":1}","[0]","survey-likert","586","1197954","0.0-586.0","73n6wyuu","","","","","","","",""
"6079.965000000084","{""post-4"":2}","[0]","survey-likert","587","1204035","0.0-587.0","73n6wyuu","","","","","","","",""
"4029.3850000000093","{""post-4"":1}","[0]","survey-likert","588","1208065","0.0-588.0","73n6wyuu","","","","","","","",""
"4328.840000000084","{""post-5"":2}","[0]","survey-likert","589","1212396","0.0-589.0","73n6wyuu","","","","","","","",""
"6613.870000000112","{""post-5"":2}","[0]","survey-likert","590","1219012","0.0-590.0","73n6wyuu","","","","","","","",""
"62976.304999999935","{""Q0"":""Turn brightness up on some of the darker images so I can see what is going on better""}","","survey-text","591","1281994","0.0-591.0","73n6wyuu","","","","","","","",""
"38563.80999999982","{""Q0"":""I looked for areas in the image that I would pay attention to such as faces, text, etc and looked for how the agent viewed those things""}","","survey-text","592","1320561","0.0-592.0","73n6wyuu","","","","","","","",""
"29369.97499999986","{""Q0"":""In some trials the agents attention did not move around a lot so it was hard to tell""}","","survey-text","593","1349934","0.0-593.0","73n6wyuu","","","","","","","",""
"42304.15000000014","","","instructions","594","1392240","0.0-594.0","73n6wyuu","[{""page_index"":0,""viewing_time"":42304.01000000001}]","","","","","","",""
"41896.8899999999","{""Experimenter_end"":[""Printed ID# 73n6wyuu on consent form"",""Given subject SONA credit or payment"",""Given the subject debrief form""]}","[0]","survey-multi-select","595","1434140","0.0-595.0","73n6wyuu","","","","","","","",""
