"rt","responses","question_order","trial_type","trial_index","time_elapsed","internal_node_id","ID","view_history","stimulus","key_press","value","agent","condition","image","correct_answer"
"104336.91","{""Experimenter"":[""Confirmed subject's identity (ID card)"",""Confirmed normal or corrected-to-normal vision"",""Obtained consent (signature and date)"",""Checked the test room lighting"",""Checked computer screen lighting"",""Checked distance from screen to chin rest (50cm)"",""Cleaned and adjusted chin rest"",""Counterbalanced the order of the tasks"",""Opened the experiment in Firefox"",""Made the experiment full screen"",""Encouraged subject to silence phone, put away distractors, etc.""]}","[0]","survey-multi-select","0","104346","0.0-0.0","74dn64n2","","","","","","","",""
"34711.05","","","instructions","1","139060","0.0-1.0","74dn64n2","[{""page_index"":0,""viewing_time"":34710.40000000001}]","","","","","","",""
"15269.48999999999","","","instructions","2","154331","0.0-2.0","74dn64n2","[{""page_index"":0,""viewing_time"":2130.0599999999977},{""page_index"":1,""viewing_time"":7058.9800000000105},{""page_index"":2,""viewing_time"":6080.315000000002}]","","","","","","",""
"3566.8800000000047","","","instructions","3","157900","0.0-3.0","74dn64n2","[{""page_index"":0,""viewing_time"":3566.7699999999895}]","","","","","","",""
"null","","","video-keyboard-response","4","160990","0.0-4.0","74dn64n2","","","null","","","","",""
"21308.579999999987","","","instructions","5","182300","0.0-5.0","74dn64n2","[{""page_index"":0,""viewing_time"":4827.940000000002},{""page_index"":1,""viewing_time"":3702.6300000000047},{""page_index"":2,""viewing_time"":1222.2749999999942},{""page_index"":3,""viewing_time"":4894.774999999994},{""page_index"":4,""viewing_time"":6660.820000000007}]","","","","","","",""
"5648.860000000015","","","instructions","6","187950","0.0-6.0","74dn64n2","[{""page_index"":0,""viewing_time"":5648.7149999999965}]","","","","","","",""
"","","","call-function","7","187951","0.0-7.0","74dn64n2","","","","","","","",""
"null","","","html-keyboard-response","8","189457","0.0-8.0","74dn64n2","","<span style=""color:Black; font-size:50px;"">Agent A","null","","","","",""
"null","","","video-keyboard-response","9","192716","0.0-9.0","74dn64n2","","","null","","Agent A","scrambled","FOR_REV_BLOBBY_STIM/1592807.bmp_pp68_L1_V1.0_veridical_freeview_isoFalse_fps144_reversed_REAL.mp4",""
"null","","","html-keyboard-response","10","194220","0.0-10.0","74dn64n2","","<span style=""color:Black; font-size:50px;"">Agent B","null","","","","",""
"null","","","video-keyboard-response","11","197212","0.0-11.0","74dn64n2","","","null","","Agent B","veridical","FOR_REV_BLOBBY_STIM/1592807.bmp_pp68_L1_V1.0_veridical_freeview_isoFalse_fps144.mp4",""
"","","","call-function","12","197213","0.0-12.0","74dn64n2","","","","","","","",""
"3091.9349999999977","{""judgement"":1}","[0]","survey-likert","13","200308","0.0-13.0","74dn64n2","","","","","","","","1"
"4283.2850000000035","{""confidence"":1}","[0]","survey-likert","14","204593","0.0-14.0","74dn64n2","","","","","","","",""
"","","","call-function","15","204594","0.0-15.0","74dn64n2","","","","","","","",""
"null","","","html-keyboard-response","16","206098","0.0-16.0","74dn64n2","","<span style=""color:Black; font-size:50px;"">Agent A","null","","","","",""
"null","","","video-keyboard-response","17","209245","0.0-17.0","74dn64n2","","","null","","Agent A","veridical","FOR_REV_BLOBBY_STIM/1592397.bmp_pp85_L3_V1.0_veridical_freeview_isoFalse_fps144.mp4",""
"null","","","html-keyboard-response","18","210748","0.0-18.0","74dn64n2","","<span style=""color:Black; font-size:50px;"">Agent B","null","","","","",""
"null","","","video-keyboard-response","19","213630","0.0-19.0","74dn64n2","","","null","","Agent B","scrambled","FOR_REV_BLOBBY_STIM/1592397.bmp_pp85_L3_V1.0_veridical_freeview_isoFalse_fps144_reversed_REAL.mp4",""
"","","","call-function","20","213631","0.0-20.0","74dn64n2","","","","","","","",""
"5748.3000000000175","{""judgement"":1}","[0]","survey-likert","21","219382","0.0-21.0","74dn64n2","","","","","","","","0"
"1448.5350000000035","{""confidence"":2}","[0]","survey-likert","22","220833","0.0-22.0","74dn64n2","","","","","","","",""
"","","","call-function","23","220834","0.0-23.0","74dn64n2","","","","","","","",""
"null","","","html-keyboard-response","24","222337","0.0-24.0","74dn64n2","","<span style=""color:Black; font-size:50px;"">Agent A","null","","","","",""
"null","","","video-keyboard-response","25","224871","0.0-25.0","74dn64n2","","","null","","Agent A","scrambled","FOR_REV_BLOBBY_STIM/1159813.bmp_pp79_L2_V1.0_veridical_freeview_isoFalse_fps144_reversed_REAL.mp4",""
"null","","","html-keyboard-response","26","226375","0.0-26.0","74dn64n2","","<span style=""color:Black; font-size:50px;"">Agent B","null","","","","",""
"null","","","video-keyboard-response","27","229324","0.0-27.0","74dn64n2","","","null","","Agent B","veridical","FOR_REV_BLOBBY_STIM/1159813.bmp_pp79_L2_V1.0_veridical_freeview_isoFalse_fps144.mp4",""
"","","","call-function","28","229325","0.0-28.0","74dn64n2","","","","","","","",""
"4508.994999999995","{""judgement"":0}","[0]","survey-likert","29","233835","0.0-29.0","74dn64n2","","","","","","","","1"
"1984.2900000000081","{""confidence"":0}","[0]","survey-likert","30","235821","0.0-30.0","74dn64n2","","","","","","","",""
"","","","call-function","31","235822","0.0-31.0","74dn64n2","","","","","","","",""
"null","","","html-keyboard-response","32","237325","0.0-32.0","74dn64n2","","<span style=""color:Black; font-size:50px;"">Agent A","null","","","","",""
"null","","","video-keyboard-response","33","240426","0.0-33.0","74dn64n2","","","null","","Agent A","scrambled","FOR_REV_BLOBBY_STIM/1592286.bmp_pp52_L1_V1.0_veridical_freeview_isoFalse_fps144_reversed_REAL.mp4",""
"null","","","html-keyboard-response","34","241932","0.0-34.0","74dn64n2","","<span style=""color:Black; font-size:50px;"">Agent B","null","","","","",""
"null","","","video-keyboard-response","35","244913","0.0-35.0","74dn64n2","","","null","","Agent B","veridical","FOR_REV_BLOBBY_STIM/1592286.bmp_pp52_L1_V1.0_veridical_freeview_isoFalse_fps144.mp4",""
"","","","call-function","36","244914","0.0-36.0","74dn64n2","","","","","","","",""
"1748.6199999999953","{""judgement"":1}","[0]","survey-likert","37","246664","0.0-37.0","74dn64n2","","","","","","","","1"
"3429.2399999999907","{""confidence"":3}","[0]","survey-likert","38","250095","0.0-38.0","74dn64n2","","","","","","","",""
"","","","call-function","39","250096","0.0-39.0","74dn64n2","","","","","","","",""
"null","","","html-keyboard-response","40","251601","0.0-40.0","74dn64n2","","<span style=""color:Black; font-size:50px;"">Agent A","null","","","","",""
"null","","","video-keyboard-response","41","254600","0.0-41.0","74dn64n2","","","null","","Agent A","scrambled","FOR_REV_BLOBBY_STIM/1592619.bmp_pp56_L3_V1.0_veridical_freeview_isoFalse_fps144_reversed_REAL.mp4",""
"null","","","html-keyboard-response","42","256104","0.0-42.0","74dn64n2","","<span style=""color:Black; font-size:50px;"">Agent B","null","","","","",""
"null","","","video-keyboard-response","43","260428","0.0-43.0","74dn64n2","","","null","","Agent B","veridical","FOR_REV_BLOBBY_STIM/1592619.bmp_pp56_L3_V1.0_veridical_freeview_isoFalse_fps144.mp4",""
"","","","call-function","44","260430","0.0-44.0","74dn64n2","","","","","","","",""
"1695.390000000014","{""judgement"":0}","[0]","survey-likert","45","262127","0.0-45.0","74dn64n2","","","","","","","","1"
"1839.039999999979","{""confidence"":3}","[0]","survey-likert","46","263968","0.0-46.0","74dn64n2","","","","","","","",""
"","","","call-function","47","263970","0.0-47.0","74dn64n2","","","","","","","",""
"null","","","html-keyboard-response","48","265497","0.0-48.0","74dn64n2","","<span style=""color:Black; font-size:50px;"">Agent A","null","","","","",""
"null","","","video-keyboard-response","49","268071","0.0-49.0","74dn64n2","","","null","","Agent A","scrambled","FOR_REV_BLOBBY_STIM/1159515.bmp_pp84_L3_V1.0_veridical_freeview_isoFalse_fps144_reversed_REAL.mp4",""
"null","","","html-keyboard-response","50","269577","0.0-50.0","74dn64n2","","<span style=""color:Black; font-size:50px;"">Agent B","null","","","","",""
"null","","","video-keyboard-response","51","272110","0.0-51.0","74dn64n2","","","null","","Agent B","veridical","FOR_REV_BLOBBY_STIM/1159515.bmp_pp84_L3_V1.0_veridical_freeview_isoFalse_fps144.mp4",""
"","","","call-function","52","272111","0.0-52.0","74dn64n2","","","","","","","",""
"2125.5650000000023","{""judgement"":0}","[0]","survey-likert","53","274238","0.0-53.0","74dn64n2","","","","","","","","1"
"2234.195000000007","{""confidence"":2}","[0]","survey-likert","54","276474","0.0-54.0","74dn64n2","","","","","","","",""
"","","","call-function","55","276475","0.0-55.0","74dn64n2","","","","","","","",""
"null","","","html-keyboard-response","56","277980","0.0-56.0","74dn64n2","","<span style=""color:Black; font-size:50px;"">Agent A","null","","","","",""
"null","","","video-keyboard-response","57","280817","0.0-57.0","74dn64n2","","","null","","Agent A","scrambled","FOR_REV_BLOBBY_STIM/713666.bmp_pp97_L3_V1.0_veridical_freeview_isoFalse_fps144_reversed_REAL.mp4",""
"null","","","html-keyboard-response","58","282326","0.0-58.0","74dn64n2","","<span style=""color:Black; font-size:50px;"">Agent B","null","","","","",""
"null","","","video-keyboard-response","59","285208","0.0-59.0","74dn64n2","","","null","","Agent B","veridical","FOR_REV_BLOBBY_STIM/713666.bmp_pp97_L3_V1.0_veridical_freeview_isoFalse_fps144.mp4",""
"","","","call-function","60","285209","0.0-60.0","74dn64n2","","","","","","","",""
"2116.7799999999697","{""judgement"":1}","[0]","survey-likert","61","287327","0.0-61.0","74dn64n2","","","","","","","","1"
"2137.5350000000326","{""confidence"":0}","[0]","survey-likert","62","289466","0.0-62.0","74dn64n2","","","","","","","",""
"","","","call-function","63","289467","0.0-63.0","74dn64n2","","","","","","","",""
"null","","","html-keyboard-response","64","290972","0.0-64.0","74dn64n2","","<span style=""color:Black; font-size:50px;"">Agent A","null","","","","",""
"null","","","video-keyboard-response","65","293596","0.0-65.0","74dn64n2","","","null","","Agent A","veridical","FOR_REV_BLOBBY_STIM/713760.bmp_pp81_L1_V1.0_veridical_freeview_isoFalse_fps144.mp4",""
"null","","","html-keyboard-response","66","295101","0.0-66.0","74dn64n2","","<span style=""color:Black; font-size:50px;"">Agent B","null","","","","",""
"null","","","video-keyboard-response","67","297688","0.0-67.0","74dn64n2","","","null","","Agent B","scrambled","FOR_REV_BLOBBY_STIM/713760.bmp_pp81_L1_V1.0_veridical_freeview_isoFalse_fps144_reversed_REAL.mp4",""
"","","","call-function","68","297689","0.0-68.0","74dn64n2","","","","","","","",""
"3167.8099999999977","{""judgement"":0}","[0]","survey-likert","69","300858","0.0-69.0","74dn64n2","","","","","","","","0"
"1490.8549999999814","{""confidence"":2}","[0]","survey-likert","70","302350","0.0-70.0","74dn64n2","","","","","","","",""
"","","","call-function","71","302351","0.0-71.0","74dn64n2","","","","","","","",""
"null","","","html-keyboard-response","72","303854","0.0-72.0","74dn64n2","","<span style=""color:Black; font-size:50px;"">Agent A","null","","","","",""
"null","","","video-keyboard-response","73","306642","0.0-73.0","74dn64n2","","","null","","Agent A","scrambled","FOR_REV_BLOBBY_STIM/285933.bmp_pp81_L1_V1.0_veridical_freeview_isoFalse_fps144_reversed_REAL.mp4",""
"null","","","html-keyboard-response","74","308146","0.0-74.0","74dn64n2","","<span style=""color:Black; font-size:50px;"">Agent B","null","","","","",""
"null","","","video-keyboard-response","75","310956","0.0-75.0","74dn64n2","","","null","","Agent B","veridical","FOR_REV_BLOBBY_STIM/285933.bmp_pp81_L1_V1.0_veridical_freeview_isoFalse_fps144.mp4",""
"","","","call-function","76","310957","0.0-76.0","74dn64n2","","","","","","","",""
"1531.0449999999837","{""judgement"":1}","[0]","survey-likert","77","312489","0.0-77.0","74dn64n2","","","","","","","","1"
"2122.7600000000093","{""confidence"":2}","[0]","survey-likert","78","314613","0.0-78.0","74dn64n2","","","","","","","",""
"","","","call-function","79","314615","0.0-79.0","74dn64n2","","","","","","","",""
"null","","","html-keyboard-response","80","316120","0.0-80.0","74dn64n2","","<span style=""color:Black; font-size:50px;"">Agent A","null","","","","",""
"null","","","video-keyboard-response","81","319010","0.0-81.0","74dn64n2","","","null","","Agent A","veridical","FOR_REV_BLOBBY_STIM/498175.bmp_pp154_L1_V1.0_veridical_freeview_isoFalse_fps144.mp4",""
"null","","","html-keyboard-response","82","320516","0.0-82.0","74dn64n2","","<span style=""color:Black; font-size:50px;"">Agent B","null","","","","",""
"null","","","video-keyboard-response","83","323672","0.0-83.0","74dn64n2","","","null","","Agent B","scrambled","FOR_REV_BLOBBY_STIM/498175.bmp_pp154_L1_V1.0_veridical_freeview_isoFalse_fps144_reversed_REAL.mp4",""
"","","","call-function","84","323673","0.0-84.0","74dn64n2","","","","","","","",""
"3135.9649999999674","{""judgement"":0}","[0]","survey-likert","85","326810","0.0-85.0","74dn64n2","","","","","","","","0"
"2513.4400000000023","{""confidence"":3}","[0]","survey-likert","86","329325","0.0-86.0","74dn64n2","","","","","","","",""
"10236.179999999993","","","instructions","87","339562","0.0-87.0","74dn64n2","[{""page_index"":0,""viewing_time"":1407.929999999993},{""page_index"":1,""viewing_time"":1514.0950000000303},{""page_index"":2,""viewing_time"":7313.885000000009}]","","","","","","",""
"4766.940000000002","","","instructions","88","344330","0.0-88.0","74dn64n2","[{""page_index"":0,""viewing_time"":1196.6049999999814},{""page_index"":1,""viewing_time"":2539.1149999999907},{""page_index"":2,""viewing_time"":1031.0950000000303}]","","","","","","",""
"","","","call-function","89","344331","0.0-89.0","74dn64n2","","","","","","","",""
"null","","","html-keyboard-response","90","345836","0.0-90.0","74dn64n2","","<span style=""color:Black; font-size:50px;"">Agent A","null","","","","",""
"null","","","video-keyboard-response","91","348666","0.0-91.0","74dn64n2","","","null","","Agent A","scrambled","FOR_REV_BLOBBY_STIM/1159882.bmp_pp61_L2_V1.0_veridical_freeview_isoFalse_fps144_reversed_REAL.mp4",""
"null","","","html-keyboard-response","92","350170","0.0-92.0","74dn64n2","","<span style=""color:Black; font-size:50px;"">Agent B","null","","","","",""
"null","","","video-keyboard-response","93","352990","0.0-93.0","74dn64n2","","","null","","Agent B","veridical","FOR_REV_BLOBBY_STIM/1159882.bmp_pp61_L2_V1.0_veridical_freeview_isoFalse_fps144.mp4",""
"","","","call-function","94","352991","0.0-94.0","74dn64n2","","","","","","","",""
"1720.8950000000186","{""judgement"":1}","[0]","survey-likert","95","354714","0.0-95.0","74dn64n2","","","","","","","","1"
"2160.2299999999814","{""confidence"":3}","[0]","survey-likert","96","356876","0.0-96.0","74dn64n2","","","","","","","",""
"","","","call-function","97","356877","0.0-97.0","74dn64n2","","","","","","","",""
"null","","","html-keyboard-response","98","358381","0.0-98.0","74dn64n2","","<span style=""color:Black; font-size:50px;"">Agent A","null","","","","",""
"null","","","video-keyboard-response","99","361219","0.0-99.0","74dn64n2","","","null","","Agent A","veridical","FOR_REV_BLOBBY_STIM/1160127.bmp_pp90_L2_V1.0_veridical_freeview_isoFalse_fps144.mp4",""
"null","","","html-keyboard-response","100","362722","0.0-100.0","74dn64n2","","<span style=""color:Black; font-size:50px;"">Agent B","null","","","","",""
"null","","","video-keyboard-response","101","365724","0.0-101.0","74dn64n2","","","null","","Agent B","scrambled","FOR_REV_BLOBBY_STIM/1160127.bmp_pp90_L2_V1.0_veridical_freeview_isoFalse_fps144_reversed_REAL.mp4",""
"","","","call-function","102","365725","0.0-102.0","74dn64n2","","","","","","","",""
"2154.8400000000256","{""judgement"":0}","[0]","survey-likert","103","367882","0.0-103.0","74dn64n2","","","","","","","","0"
"2184.0350000000326","{""confidence"":1}","[0]","survey-likert","104","370068","0.0-104.0","74dn64n2","","","","","","","",""
"","","","call-function","105","370069","0.0-105.0","74dn64n2","","","","","","","",""
"null","","","html-keyboard-response","106","371573","0.0-106.0","74dn64n2","","<span style=""color:Black; font-size:50px;"">Agent A","null","","","","",""
"null","","","video-keyboard-response","107","374281","0.0-107.0","74dn64n2","","","null","","Agent A","veridical","FOR_REV_BLOBBY_STIM/1592133.bmp_pp75_L1_V1.0_veridical_freeview_isoFalse_fps144.mp4",""
"null","","","html-keyboard-response","108","376474","0.0-108.0","74dn64n2","","<span style=""color:Black; font-size:50px;"">Agent B","null","","","","",""
"null","","","video-keyboard-response","109","379260","0.0-109.0","74dn64n2","","","null","","Agent B","scrambled","FOR_REV_BLOBBY_STIM/1592133.bmp_pp75_L1_V1.0_veridical_freeview_isoFalse_fps144_reversed_REAL.mp4",""
"","","","call-function","110","379261","0.0-110.0","74dn64n2","","","","","","","",""
"1700.0050000000047","{""judgement"":0}","[0]","survey-likert","111","380963","0.0-111.0","74dn64n2","","","","","","","","0"
"2815.2699999999604","{""confidence"":1}","[0]","survey-likert","112","383780","0.0-112.0","74dn64n2","","","","","","","",""
"","","","call-function","113","383782","0.0-113.0","74dn64n2","","","","","","","",""
"null","","","html-keyboard-response","114","385331","0.0-114.0","74dn64n2","","<span style=""color:Black; font-size:50px;"">Agent A","null","","","","",""
"null","","","video-keyboard-response","115","388188","0.0-115.0","74dn64n2","","","null","","Agent A","scrambled","FOR_REV_BLOBBY_STIM/1159447.bmp_pp70_L2_V1.0_veridical_freeview_isoFalse_fps144_reversed_REAL.mp4",""
"null","","","html-keyboard-response","116","389693","0.0-116.0","74dn64n2","","<span style=""color:Black; font-size:50px;"">Agent B","null","","","","",""
"null","","","video-keyboard-response","117","392556","0.0-117.0","74dn64n2","","","null","","Agent B","veridical","FOR_REV_BLOBBY_STIM/1159447.bmp_pp70_L2_V1.0_veridical_freeview_isoFalse_fps144.mp4",""
"","","","call-function","118","392557","0.0-118.0","74dn64n2","","","","","","","",""
"1913.9899999999907","{""judgement"":1}","[0]","survey-likert","119","394472","0.0-119.0","74dn64n2","","","","","","","","1"
"1810.6149999999907","{""confidence"":3}","[0]","survey-likert","120","396285","0.0-120.0","74dn64n2","","","","","","","",""
"","","","call-function","121","396286","0.0-121.0","74dn64n2","","","","","","","",""
"null","","","html-keyboard-response","122","397789","0.0-122.0","74dn64n2","","<span style=""color:Black; font-size:50px;"">Agent A","null","","","","",""
"null","","","video-keyboard-response","123","400503","0.0-123.0","74dn64n2","","","null","","Agent A","scrambled","FOR_REV_BLOBBY_STIM/1592934.bmp_pp63_L1_V1.0_veridical_freeview_isoFalse_fps144_reversed_REAL.mp4",""
"null","","","html-keyboard-response","124","402008","0.0-124.0","74dn64n2","","<span style=""color:Black; font-size:50px;"">Agent B","null","","","","",""
"null","","","video-keyboard-response","125","404743","0.0-125.0","74dn64n2","","","null","","Agent B","veridical","FOR_REV_BLOBBY_STIM/1592934.bmp_pp63_L1_V1.0_veridical_freeview_isoFalse_fps144.mp4",""
"","","","call-function","126","404744","0.0-126.0","74dn64n2","","","","","","","",""
"2034.070000000007","{""judgement"":0}","[0]","survey-likert","127","406779","0.0-127.0","74dn64n2","","","","","","","","1"
"1257.1699999999837","{""confidence"":2}","[0]","survey-likert","128","408039","0.0-128.0","74dn64n2","","","","","","","",""
"","","","call-function","129","408040","0.0-129.0","74dn64n2","","","","","","","",""
"null","","","html-keyboard-response","130","409543","0.0-130.0","74dn64n2","","<span style=""color:Black; font-size:50px;"">Agent A","null","","","","",""
"null","","","video-keyboard-response","131","412435","0.0-131.0","74dn64n2","","","null","","Agent A","scrambled","FOR_REV_BLOBBY_STIM/713089.bmp_pp60_L3_V1.0_veridical_freeview_isoFalse_fps144_reversed_REAL.mp4",""
"null","","","html-keyboard-response","132","413938","0.0-132.0","74dn64n2","","<span style=""color:Black; font-size:50px;"">Agent B","null","","","","",""
"null","","","video-keyboard-response","133","416850","0.0-133.0","74dn64n2","","","null","","Agent B","veridical","FOR_REV_BLOBBY_STIM/713089.bmp_pp60_L3_V1.0_veridical_freeview_isoFalse_fps144.mp4",""
"","","","call-function","134","416852","0.0-134.0","74dn64n2","","","","","","","",""
"1260.320000000007","{""judgement"":1}","[0]","survey-likert","135","418113","0.0-135.0","74dn64n2","","","","","","","","1"
"2624.3150000000023","{""confidence"":3}","[0]","survey-likert","136","420740","0.0-136.0","74dn64n2","","","","","","","",""
"","","","call-function","137","420740","0.0-137.0","74dn64n2","","","","","","","",""
"null","","","html-keyboard-response","138","422242","0.0-138.0","74dn64n2","","<span style=""color:Black; font-size:50px;"">Agent A","null","","","","",""
"null","","","video-keyboard-response","139","425228","0.0-139.0","74dn64n2","","","null","","Agent A","scrambled","FOR_REV_BLOBBY_STIM/713135.bmp_pp54_L2_V1.0_veridical_freeview_isoFalse_fps144_reversed_REAL.mp4",""
"null","","","html-keyboard-response","140","426733","0.0-140.0","74dn64n2","","<span style=""color:Black; font-size:50px;"">Agent B","null","","","","",""
"null","","","video-keyboard-response","141","429544","0.0-141.0","74dn64n2","","","null","","Agent B","veridical","FOR_REV_BLOBBY_STIM/713135.bmp_pp54_L2_V1.0_veridical_freeview_isoFalse_fps144.mp4",""
"","","","call-function","142","429545","0.0-142.0","74dn64n2","","","","","","","",""
"1201.509999999951","{""judgement"":1}","[0]","survey-likert","143","430747","0.0-143.0","74dn64n2","","","","","","","","1"
"1631.5449999999837","{""confidence"":3}","[0]","survey-likert","144","432381","0.0-144.0","74dn64n2","","","","","","","",""
"","","","call-function","145","432382","0.0-145.0","74dn64n2","","","","","","","",""
"null","","","html-keyboard-response","146","433885","0.0-146.0","74dn64n2","","<span style=""color:Black; font-size:50px;"">Agent A","null","","","","",""
"null","","","video-keyboard-response","147","436750","0.0-147.0","74dn64n2","","","null","","Agent A","veridical","FOR_REV_BLOBBY_STIM/713620.bmp_pp65_L3_V1.0_veridical_freeview_isoFalse_fps144.mp4",""
"null","","","html-keyboard-response","148","438257","0.0-148.0","74dn64n2","","<span style=""color:Black; font-size:50px;"">Agent B","null","","","","",""
"null","","","video-keyboard-response","149","441066","0.0-149.0","74dn64n2","","","null","","Agent B","scrambled","FOR_REV_BLOBBY_STIM/713620.bmp_pp65_L3_V1.0_veridical_freeview_isoFalse_fps144_reversed_REAL.mp4",""
"","","","call-function","150","441067","0.0-150.0","74dn64n2","","","","","","","",""
"1769.2550000000047","{""judgement"":0}","[0]","survey-likert","151","442837","0.0-151.0","74dn64n2","","","","","","","","0"
"1524.570000000007","{""confidence"":1}","[0]","survey-likert","152","444364","0.0-152.0","74dn64n2","","","","","","","",""
"","","","call-function","153","444365","0.0-153.0","74dn64n2","","","","","","","",""
"null","","","html-keyboard-response","154","445868","0.0-154.0","74dn64n2","","<span style=""color:Black; font-size:50px;"">Agent A","null","","","","",""
"null","","","video-keyboard-response","155","448743","0.0-155.0","74dn64n2","","","null","","Agent A","veridical","FOR_REV_BLOBBY_STIM/1591954.bmp_pp62_L2_V1.0_veridical_freeview_isoFalse_fps144.mp4",""
"null","","","html-keyboard-response","156","450248","0.0-156.0","74dn64n2","","<span style=""color:Black; font-size:50px;"">Agent B","null","","","","",""
"null","","","video-keyboard-response","157","455698","0.0-157.0","74dn64n2","","","null","","Agent B","scrambled","FOR_REV_BLOBBY_STIM/1591954.bmp_pp62_L2_V1.0_veridical_freeview_isoFalse_fps144_reversed_REAL.mp4",""
"","","","call-function","158","455699","0.0-158.0","74dn64n2","","","","","","","",""
"1449.5699999999488","{""judgement"":0}","[0]","survey-likert","159","457150","0.0-159.0","74dn64n2","","","","","","","","0"
"2052.5","{""confidence"":3}","[0]","survey-likert","160","459204","0.0-160.0","74dn64n2","","","","","","","",""
"","","","call-function","161","459206","0.0-161.0","74dn64n2","","","","","","","",""
"null","","","html-keyboard-response","162","460708","0.0-162.0","74dn64n2","","<span style=""color:Black; font-size:50px;"">Agent A","null","","","","",""
"null","","","video-keyboard-response","163","463260","0.0-163.0","74dn64n2","","","null","","Agent A","veridical","FOR_REV_BLOBBY_STIM/1591876.bmp_pp63_L1_V1.0_veridical_freeview_isoFalse_fps144.mp4",""
"null","","","html-keyboard-response","164","464765","0.0-164.0","74dn64n2","","<span style=""color:Black; font-size:50px;"">Agent B","null","","","","",""
"null","","","video-keyboard-response","165","467314","0.0-165.0","74dn64n2","","","null","","Agent B","scrambled","FOR_REV_BLOBBY_STIM/1591876.bmp_pp63_L1_V1.0_veridical_freeview_isoFalse_fps144_reversed_REAL.mp4",""
"","","","call-function","166","467315","0.0-166.0","74dn64n2","","","","","","","",""
"1784.8199999999488","{""judgement"":0}","[0]","survey-likert","167","469100","0.0-167.0","74dn64n2","","","","","","","","0"
"3538.304999999993","{""confidence"":3}","[0]","survey-likert","168","472641","0.0-168.0","74dn64n2","","","","","","","",""
"13616.229999999981","","","instructions","169","486259","0.0-169.0","74dn64n2","[{""page_index"":0,""viewing_time"":7707.130000000005},{""page_index"":1,""viewing_time"":1801.899999999965},{""page_index"":2,""viewing_time"":4107}]","","","","","","",""
"3673.695000000007","","","instructions","170","489934","0.0-170.0","74dn64n2","[{""page_index"":0,""viewing_time"":607.7999999999884},{""page_index"":1,""viewing_time"":2465.9199999999837},{""page_index"":2,""viewing_time"":599.8550000000396}]","","","","","","",""
"","","","call-function","171","489934","0.0-171.0","74dn64n2","","","","","","","",""
"null","","","html-keyboard-response","172","491437","0.0-172.0","74dn64n2","","<span style=""color:Black; font-size:50px;"">Agent A","null","","","","",""
"null","","","video-keyboard-response","173","494242","0.0-173.0","74dn64n2","","","null","","Agent A","veridical","FOR_REV_BLOBBY_STIM/1159855.bmp_pp99_L2_V1.0_veridical_freeview_isoFalse_fps144.mp4",""
"null","","","html-keyboard-response","174","495747","0.0-174.0","74dn64n2","","<span style=""color:Black; font-size:50px;"">Agent B","null","","","","",""
"null","","","video-keyboard-response","175","498548","0.0-175.0","74dn64n2","","","null","","Agent B","scrambled","FOR_REV_BLOBBY_STIM/1159855.bmp_pp99_L2_V1.0_veridical_freeview_isoFalse_fps144_reversed_REAL.mp4",""
"","","","call-function","176","498549","0.0-176.0","74dn64n2","","","","","","","",""
"1081.4349999999977","{""judgement"":1}","[0]","survey-likert","177","499632","0.0-177.0","74dn64n2","","","","","","","","0"
"1106.2849999999744","{""confidence"":3}","[0]","survey-likert","178","500740","0.0-178.0","74dn64n2","","","","","","","",""
"","","","call-function","179","500741","0.0-179.0","74dn64n2","","","","","","","",""
"null","","","html-keyboard-response","180","502247","0.0-180.0","74dn64n2","","<span style=""color:Black; font-size:50px;"">Agent A","null","","","","",""
"null","","","video-keyboard-response","181","505186","0.0-181.0","74dn64n2","","","null","","Agent A","veridical","FOR_REV_BLOBBY_STIM/713403.bmp_pp80_L3_V1.0_veridical_freeview_isoFalse_fps144.mp4",""
"null","","","html-keyboard-response","182","506690","0.0-182.0","74dn64n2","","<span style=""color:Black; font-size:50px;"">Agent B","null","","","","",""
"null","","","video-keyboard-response","183","509537","0.0-183.0","74dn64n2","","","null","","Agent B","scrambled","FOR_REV_BLOBBY_STIM/713403.bmp_pp80_L3_V1.0_veridical_freeview_isoFalse_fps144_reversed_REAL.mp4",""
"","","","call-function","184","509538","0.0-184.0","74dn64n2","","","","","","","",""
"1432.265000000014","{""judgement"":0}","[0]","survey-likert","185","510971","0.0-185.0","74dn64n2","","","","","","","","0"
"2109.5499999999884","{""confidence"":3}","[0]","survey-likert","186","513083","0.0-186.0","74dn64n2","","","","","","","",""
"","","","call-function","187","513084","0.0-187.0","74dn64n2","","","","","","","",""
"null","","","html-keyboard-response","188","514589","0.0-188.0","74dn64n2","","<span style=""color:Black; font-size:50px;"">Agent A","null","","","","",""
"null","","","video-keyboard-response","189","517319","0.0-189.0","74dn64n2","","","null","","Agent A","veridical","FOR_REV_BLOBBY_STIM/713779.bmp_pp152_L2_V1.0_veridical_freeview_isoFalse_fps144.mp4",""
"null","","","html-keyboard-response","190","518824","0.0-190.0","74dn64n2","","<span style=""color:Black; font-size:50px;"">Agent B","null","","","","",""
"null","","","video-keyboard-response","191","521443","0.0-191.0","74dn64n2","","","null","","Agent B","scrambled","FOR_REV_BLOBBY_STIM/713779.bmp_pp152_L2_V1.0_veridical_freeview_isoFalse_fps144_reversed_REAL.mp4",""
"","","","call-function","192","521444","0.0-192.0","74dn64n2","","","","","","","",""
"1580.4099999999744","{""judgement"":0}","[0]","survey-likert","193","523026","0.0-193.0","74dn64n2","","","","","","","","0"
"1179.3899999999558","{""confidence"":0}","[0]","survey-likert","194","524208","0.0-194.0","74dn64n2","","","","","","","",""
"","","","call-function","195","524209","0.0-195.0","74dn64n2","","","","","","","",""
"null","","","html-keyboard-response","196","525713","0.0-196.0","74dn64n2","","<span style=""color:Black; font-size:50px;"">Agent A","null","","","","",""
"null","","","video-keyboard-response","197","528498","0.0-197.0","74dn64n2","","","null","","Agent A","veridical","FOR_REV_BLOBBY_STIM/713681.bmp_pp86_L2_V1.0_veridical_freeview_isoFalse_fps144.mp4",""
"null","","","html-keyboard-response","198","530003","0.0-198.0","74dn64n2","","<span style=""color:Black; font-size:50px;"">Agent B","null","","","","",""
"null","","","video-keyboard-response","199","532790","0.0-199.0","74dn64n2","","","null","","Agent B","scrambled","FOR_REV_BLOBBY_STIM/713681.bmp_pp86_L2_V1.0_veridical_freeview_isoFalse_fps144_reversed_REAL.mp4",""
"","","","call-function","200","532792","0.0-200.0","74dn64n2","","","","","","","",""
"2238.9749999999767","{""judgement"":0}","[0]","survey-likert","201","535033","0.0-201.0","74dn64n2","","","","","","","","0"
"1535.2700000000186","{""confidence"":3}","[0]","survey-likert","202","536570","0.0-202.0","74dn64n2","","","","","","","",""
"","","","call-function","203","536571","0.0-203.0","74dn64n2","","","","","","","",""
"null","","","html-keyboard-response","204","538076","0.0-204.0","74dn64n2","","<span style=""color:Black; font-size:50px;"">Agent A","null","","","","",""
"null","","","video-keyboard-response","205","540895","0.0-205.0","74dn64n2","","","null","","Agent A","scrambled","FOR_REV_BLOBBY_STIM/1592351.bmp_pp51_L1_V1.0_veridical_freeview_isoFalse_fps144_reversed_REAL.mp4",""
"null","","","html-keyboard-response","206","542403","0.0-206.0","74dn64n2","","<span style=""color:Black; font-size:50px;"">Agent B","null","","","","",""
"null","","","video-keyboard-response","207","545244","0.0-207.0","74dn64n2","","","null","","Agent B","veridical","FOR_REV_BLOBBY_STIM/1592351.bmp_pp51_L1_V1.0_veridical_freeview_isoFalse_fps144.mp4",""
"","","","call-function","208","545246","0.0-208.0","74dn64n2","","","","","","","",""
"4298.979999999981","{""judgement"":0}","[0]","survey-likert","209","549546","0.0-209.0","74dn64n2","","","","","","","","1"
"2234.07500000007","{""confidence"":0}","[0]","survey-likert","210","551782","0.0-210.0","74dn64n2","","","","","","","",""
"","","","call-function","211","551783","0.0-211.0","74dn64n2","","","","","","","",""
"null","","","html-keyboard-response","212","553288","0.0-212.0","74dn64n2","","<span style=""color:Black; font-size:50px;"">Agent A","null","","","","",""
"null","","","video-keyboard-response","213","556139","0.0-213.0","74dn64n2","","","null","","Agent A","veridical","FOR_REV_BLOBBY_STIM/1159777.bmp_pp77_L3_V1.0_veridical_freeview_isoFalse_fps144.mp4",""
"null","","","html-keyboard-response","214","557645","0.0-214.0","74dn64n2","","<span style=""color:Black; font-size:50px;"">Agent B","null","","","","",""
"null","","","video-keyboard-response","215","560460","0.0-215.0","74dn64n2","","","null","","Agent B","scrambled","FOR_REV_BLOBBY_STIM/1159777.bmp_pp77_L3_V1.0_veridical_freeview_isoFalse_fps144_reversed_REAL.mp4",""
"","","","call-function","216","560461","0.0-216.0","74dn64n2","","","","","","","",""
"2132.4400000000605","{""judgement"":0}","[0]","survey-likert","217","562595","0.0-217.0","74dn64n2","","","","","","","","0"
"1712.6049999999814","{""confidence"":3}","[0]","survey-likert","218","564310","0.0-218.0","74dn64n2","","","","","","","",""
"","","","call-function","219","564311","0.0-219.0","74dn64n2","","","","","","","",""
"null","","","html-keyboard-response","220","565816","0.0-220.0","74dn64n2","","<span style=""color:Black; font-size:50px;"">Agent A","null","","","","",""
"null","","","video-keyboard-response","221","568605","0.0-221.0","74dn64n2","","","null","","Agent A","veridical","FOR_REV_BLOBBY_STIM/1592804.bmp_pp91_L3_V1.0_veridical_freeview_isoFalse_fps144.mp4",""
"null","","","html-keyboard-response","222","570109","0.0-222.0","74dn64n2","","<span style=""color:Black; font-size:50px;"">Agent B","null","","","","",""
"null","","","video-keyboard-response","223","572898","0.0-223.0","74dn64n2","","","null","","Agent B","scrambled","FOR_REV_BLOBBY_STIM/1592804.bmp_pp91_L3_V1.0_veridical_freeview_isoFalse_fps144_reversed_REAL.mp4",""
"","","","call-function","224","572899","0.0-224.0","74dn64n2","","","","","","","",""
"1790.5750000000698","{""judgement"":0}","[0]","survey-likert","225","574691","0.0-225.0","74dn64n2","","","","","","","","0"
"1271.2200000000885","{""confidence"":3}","[0]","survey-likert","226","575964","0.0-226.0","74dn64n2","","","","","","","",""
"","","","call-function","227","575965","0.0-227.0","74dn64n2","","","","","","","",""
"null","","","html-keyboard-response","228","577469","0.0-228.0","74dn64n2","","<span style=""color:Black; font-size:50px;"">Agent A","null","","","","",""
"null","","","video-keyboard-response","229","580315","0.0-229.0","74dn64n2","","","null","","Agent A","veridical","FOR_REV_BLOBBY_STIM/1592362.bmp_pp95_L2_V1.0_veridical_freeview_isoFalse_fps144.mp4",""
"null","","","html-keyboard-response","230","581819","0.0-230.0","74dn64n2","","<span style=""color:Black; font-size:50px;"">Agent B","null","","","","",""
"null","","","video-keyboard-response","231","584649","0.0-231.0","74dn64n2","","","null","","Agent B","scrambled","FOR_REV_BLOBBY_STIM/1592362.bmp_pp95_L2_V1.0_veridical_freeview_isoFalse_fps144_reversed_REAL.mp4",""
"","","","call-function","232","584651","0.0-232.0","74dn64n2","","","","","","","",""
"1589.734999999986","{""judgement"":0}","[0]","survey-likert","233","586242","0.0-233.0","74dn64n2","","","","","","","","0"
"1216.3950000000186","{""confidence"":3}","[0]","survey-likert","234","587460","0.0-234.0","74dn64n2","","","","","","","",""
"","","","call-function","235","587461","0.0-235.0","74dn64n2","","","","","","","",""
"null","","","html-keyboard-response","236","588968","0.0-236.0","74dn64n2","","<span style=""color:Black; font-size:50px;"">Agent A","null","","","","",""
"null","","","video-keyboard-response","237","591794","0.0-237.0","74dn64n2","","","null","","Agent A","scrambled","FOR_REV_BLOBBY_STIM/712977.bmp_pp51_L1_V1.0_veridical_freeview_isoFalse_fps144_reversed_REAL.mp4",""
"null","","","html-keyboard-response","238","593299","0.0-238.0","74dn64n2","","<span style=""color:Black; font-size:50px;"">Agent B","null","","","","",""
"null","","","video-keyboard-response","239","596231","0.0-239.0","74dn64n2","","","null","","Agent B","veridical","FOR_REV_BLOBBY_STIM/712977.bmp_pp51_L1_V1.0_veridical_freeview_isoFalse_fps144.mp4",""
"","","","call-function","240","596233","0.0-240.0","74dn64n2","","","","","","","",""
"1244.8099999999395","{""judgement"":1}","[0]","survey-likert","241","597478","0.0-241.0","74dn64n2","","","","","","","","1"
"1769.344999999972","{""confidence"":0}","[0]","survey-likert","242","599250","0.0-242.0","74dn64n2","","","","","","","",""
"","","","call-function","243","599251","0.0-243.0","74dn64n2","","","","","","","",""
"null","","","html-keyboard-response","244","600755","0.0-244.0","74dn64n2","","<span style=""color:Black; font-size:50px;"">Agent A","null","","","","",""
"null","","","video-keyboard-response","245","603576","0.0-245.0","74dn64n2","","","null","","Agent A","veridical","FOR_REV_BLOBBY_STIM/1592890.bmp_pp82_L2_V1.0_veridical_freeview_isoFalse_fps144.mp4",""
"null","","","html-keyboard-response","246","605080","0.0-246.0","74dn64n2","","<span style=""color:Black; font-size:50px;"">Agent B","null","","","","",""
"null","","","video-keyboard-response","247","607869","0.0-247.0","74dn64n2","","","null","","Agent B","scrambled","FOR_REV_BLOBBY_STIM/1592890.bmp_pp82_L2_V1.0_veridical_freeview_isoFalse_fps144_reversed_REAL.mp4",""
"","","","call-function","248","607870","0.0-248.0","74dn64n2","","","","","","","",""
"2089","{""judgement"":0}","[0]","survey-likert","249","609960","0.0-249.0","74dn64n2","","","","","","","","0"
"2125.29999999993","{""confidence"":3}","[0]","survey-likert","250","612087","0.0-250.0","74dn64n2","","","","","","","",""
"43444.064999999944","","","instructions","251","655532","0.0-251.0","74dn64n2","[{""page_index"":0,""viewing_time"":41270.33999999997},{""page_index"":1,""viewing_time"":974.4949999999953},{""page_index"":2,""viewing_time"":1199.0600000000559}]","","","","","","",""
"2700.7649999998976","","","instructions","252","658234","0.0-252.0","74dn64n2","[{""page_index"":0,""viewing_time"":1183.079999999958},{""page_index"":1,""viewing_time"":991.6949999999488},{""page_index"":2,""viewing_time"":525.8699999999953}]","","","","","","",""
"","","","call-function","253","658235","0.0-253.0","74dn64n2","","","","","","","",""
"null","","","html-keyboard-response","254","659739","0.0-254.0","74dn64n2","","<span style=""color:Black; font-size:50px;"">Agent A","null","","","","",""
"null","","","video-keyboard-response","255","662326","0.0-255.0","74dn64n2","","","null","","Agent A","scrambled","FOR_REV_BLOBBY_STIM/286001.bmp_pp54_L2_V1.0_veridical_freeview_isoFalse_fps144_reversed_REAL.mp4",""
"null","","","html-keyboard-response","256","663832","0.0-256.0","74dn64n2","","<span style=""color:Black; font-size:50px;"">Agent B","null","","","","",""
"null","","","video-keyboard-response","257","666428","0.0-257.0","74dn64n2","","","null","","Agent B","veridical","FOR_REV_BLOBBY_STIM/286001.bmp_pp54_L2_V1.0_veridical_freeview_isoFalse_fps144.mp4",""
"","","","call-function","258","666429","0.0-258.0","74dn64n2","","","","","","","",""
"1310.2399999999907","{""judgement"":1}","[0]","survey-likert","259","667740","0.0-259.0","74dn64n2","","","","","","","","1"
"1529.875","{""confidence"":3}","[0]","survey-likert","260","669272","0.0-260.0","74dn64n2","","","","","","","",""
"","","","call-function","261","669273","0.0-261.0","74dn64n2","","","","","","","",""
"null","","","html-keyboard-response","262","670776","0.0-262.0","74dn64n2","","<span style=""color:Black; font-size:50px;"">Agent A","null","","","","",""
"null","","","video-keyboard-response","263","673645","0.0-263.0","74dn64n2","","","null","","Agent A","scrambled","FOR_REV_BLOBBY_STIM/1159572.bmp_pp71_L1_V1.0_veridical_freeview_isoFalse_fps144_reversed_REAL.mp4",""
"null","","","html-keyboard-response","264","675149","0.0-264.0","74dn64n2","","<span style=""color:Black; font-size:50px;"">Agent B","null","","","","",""
"null","","","video-keyboard-response","265","678039","0.0-265.0","74dn64n2","","","null","","Agent B","veridical","FOR_REV_BLOBBY_STIM/1159572.bmp_pp71_L1_V1.0_veridical_freeview_isoFalse_fps144.mp4",""
"","","","call-function","266","678040","0.0-266.0","74dn64n2","","","","","","","",""
"1565.094999999972","{""judgement"":0}","[0]","survey-likert","267","679606","0.0-267.0","74dn64n2","","","","","","","","1"
"1213.0899999999674","{""confidence"":0}","[0]","survey-likert","268","680822","0.0-268.0","74dn64n2","","","","","","","",""
"","","","call-function","269","680823","0.0-269.0","74dn64n2","","","","","","","",""
"null","","","html-keyboard-response","270","682328","0.0-270.0","74dn64n2","","<span style=""color:Black; font-size:50px;"">Agent A","null","","","","",""
"null","","","video-keyboard-response","271","685171","0.0-271.0","74dn64n2","","","null","","Agent A","scrambled","FOR_REV_BLOBBY_STIM/713371.bmp_pp68_L1_V1.0_veridical_freeview_isoFalse_fps144_reversed_REAL.mp4",""
"null","","","html-keyboard-response","272","686716","0.0-272.0","74dn64n2","","<span style=""color:Black; font-size:50px;"">Agent B","null","","","","",""
"null","","","video-keyboard-response","273","689597","0.0-273.0","74dn64n2","","","null","","Agent B","veridical","FOR_REV_BLOBBY_STIM/713371.bmp_pp68_L1_V1.0_veridical_freeview_isoFalse_fps144.mp4",""
"","","","call-function","274","689600","0.0-274.0","74dn64n2","","","","","","","",""
"1256.5250000000233","{""judgement"":1}","[0]","survey-likert","275","690858","0.0-275.0","74dn64n2","","","","","","","","1"
"1219.515000000014","{""confidence"":3}","[0]","survey-likert","276","692079","0.0-276.0","74dn64n2","","","","","","","",""
"","","","call-function","277","692080","0.0-277.0","74dn64n2","","","","","","","",""
"null","","","html-keyboard-response","278","693582","0.0-278.0","74dn64n2","","<span style=""color:Black; font-size:50px;"">Agent A","null","","","","",""
"null","","","video-keyboard-response","279","696262","0.0-279.0","74dn64n2","","","null","","Agent A","scrambled","FOR_REV_BLOBBY_STIM/713707.bmp_pp154_L1_V1.0_veridical_freeview_isoFalse_fps144_reversed_REAL.mp4",""
"null","","","html-keyboard-response","280","697769","0.0-280.0","74dn64n2","","<span style=""color:Black; font-size:50px;"">Agent B","null","","","","",""
"null","","","video-keyboard-response","281","700419","0.0-281.0","74dn64n2","","","null","","Agent B","veridical","FOR_REV_BLOBBY_STIM/713707.bmp_pp154_L1_V1.0_veridical_freeview_isoFalse_fps144.mp4",""
"","","","call-function","282","700420","0.0-282.0","74dn64n2","","","","","","","",""
"2136.9100000000326","{""judgement"":0}","[0]","survey-likert","283","702558","0.0-283.0","74dn64n2","","","","","","","","1"
"1224.359999999986","{""confidence"":0}","[0]","survey-likert","284","703785","0.0-284.0","74dn64n2","","","","","","","",""
"","","","call-function","285","703786","0.0-285.0","74dn64n2","","","","","","","",""
"null","","","html-keyboard-response","286","705288","0.0-286.0","74dn64n2","","<span style=""color:Black; font-size:50px;"">Agent A","null","","","","",""
"null","","","video-keyboard-response","287","707966","0.0-287.0","74dn64n2","","","null","","Agent A","veridical","FOR_REV_BLOBBY_STIM/713211.bmp_pp100_L3_V1.0_veridical_freeview_isoFalse_fps144.mp4",""
"null","","","html-keyboard-response","288","709470","0.0-288.0","74dn64n2","","<span style=""color:Black; font-size:50px;"">Agent B","null","","","","",""
"null","","","video-keyboard-response","289","712184","0.0-289.0","74dn64n2","","","null","","Agent B","scrambled","FOR_REV_BLOBBY_STIM/713211.bmp_pp100_L3_V1.0_veridical_freeview_isoFalse_fps144_reversed_REAL.mp4",""
"","","","call-function","290","712185","0.0-290.0","74dn64n2","","","","","","","",""
"1120.0100000000093","{""judgement"":0}","[0]","survey-likert","291","713306","0.0-291.0","74dn64n2","","","","","","","","0"
"1246.390000000014","{""confidence"":3}","[0]","survey-likert","292","714554","0.0-292.0","74dn64n2","","","","","","","",""
"","","","call-function","293","714555","0.0-293.0","74dn64n2","","","","","","","",""
"null","","","html-keyboard-response","294","716060","0.0-294.0","74dn64n2","","<span style=""color:Black; font-size:50px;"">Agent A","null","","","","",""
"null","","","video-keyboard-response","295","718797","0.0-295.0","74dn64n2","","","null","","Agent A","scrambled","FOR_REV_BLOBBY_STIM/1160168.bmp_pp53_L2_V1.0_veridical_freeview_isoFalse_fps144_reversed_REAL.mp4",""
"null","","","html-keyboard-response","296","720301","0.0-296.0","74dn64n2","","<span style=""color:Black; font-size:50px;"">Agent B","null","","","","",""
"null","","","video-keyboard-response","297","723038","0.0-297.0","74dn64n2","","","null","","Agent B","veridical","FOR_REV_BLOBBY_STIM/1160168.bmp_pp53_L2_V1.0_veridical_freeview_isoFalse_fps144.mp4",""
"","","","call-function","298","723039","0.0-298.0","74dn64n2","","","","","","","",""
"1349.4100000000326","{""judgement"":1}","[0]","survey-likert","299","724389","0.0-299.0","74dn64n2","","","","","","","","1"
"1180.8999999999069","{""confidence"":1}","[0]","survey-likert","300","725572","0.0-300.0","74dn64n2","","","","","","","",""
"","","","call-function","301","725573","0.0-301.0","74dn64n2","","","","","","","",""
"null","","","html-keyboard-response","302","727079","0.0-302.0","74dn64n2","","<span style=""color:Black; font-size:50px;"">Agent A","null","","","","",""
"null","","","video-keyboard-response","303","729901","0.0-303.0","74dn64n2","","","null","","Agent A","scrambled","FOR_REV_BLOBBY_STIM/1591994.bmp_pp69_L3_V1.0_veridical_freeview_isoFalse_fps144_reversed_REAL.mp4",""
"null","","","html-keyboard-response","304","731406","0.0-304.0","74dn64n2","","<span style=""color:Black; font-size:50px;"">Agent B","null","","","","",""
"null","","","video-keyboard-response","305","734226","0.0-305.0","74dn64n2","","","null","","Agent B","veridical","FOR_REV_BLOBBY_STIM/1591994.bmp_pp69_L3_V1.0_veridical_freeview_isoFalse_fps144.mp4",""
"","","","call-function","306","734228","0.0-306.0","74dn64n2","","","","","","","",""
"1185.6500000000233","{""judgement"":1}","[0]","survey-likert","307","735414","0.0-307.0","74dn64n2","","","","","","","","1"
"1875.5200000000186","{""confidence"":1}","[0]","survey-likert","308","737292","0.0-308.0","74dn64n2","","","","","","","",""
"","","","call-function","309","737293","0.0-309.0","74dn64n2","","","","","","","",""
"null","","","html-keyboard-response","310","738798","0.0-310.0","74dn64n2","","<span style=""color:Black; font-size:50px;"">Agent A","null","","","","",""
"null","","","video-keyboard-response","311","740440","0.0-311.0","74dn64n2","","","null","","Agent A","scrambled","FOR_REV_BLOBBY_STIM/713684.bmp_pp85_L3_V1.0_veridical_freeview_isoFalse_fps144_reversed_REAL.mp4",""
"null","","","html-keyboard-response","312","741942","0.0-312.0","74dn64n2","","<span style=""color:Black; font-size:50px;"">Agent B","null","","","","",""
"null","","","video-keyboard-response","313","743698","0.0-313.0","74dn64n2","","","null","","Agent B","veridical","FOR_REV_BLOBBY_STIM/713684.bmp_pp85_L3_V1.0_veridical_freeview_isoFalse_fps144.mp4",""
"","","","call-function","314","743699","0.0-314.0","74dn64n2","","","","","","","",""
"1987.2899999999208","{""judgement"":1}","[0]","survey-likert","315","745688","0.0-315.0","74dn64n2","","","","","","","","1"
"2778.2249999999767","{""confidence"":0}","[0]","survey-likert","316","748468","0.0-316.0","74dn64n2","","","","","","","",""
"","","","call-function","317","748469","0.0-317.0","74dn64n2","","","","","","","",""
"null","","","html-keyboard-response","318","749977","0.0-318.0","74dn64n2","","<span style=""color:Black; font-size:50px;"">Agent A","null","","","","",""
"null","","","video-keyboard-response","319","752617","0.0-319.0","74dn64n2","","","null","","Agent A","veridical","FOR_REV_BLOBBY_STIM/61537.bmp_pp73_L3_V1.0_veridical_freeview_isoFalse_fps144.mp4",""
"null","","","html-keyboard-response","320","754120","0.0-320.0","74dn64n2","","<span style=""color:Black; font-size:50px;"">Agent B","null","","","","",""
"null","","","video-keyboard-response","321","756845","0.0-321.0","74dn64n2","","","null","","Agent B","scrambled","FOR_REV_BLOBBY_STIM/61537.bmp_pp73_L3_V1.0_veridical_freeview_isoFalse_fps144_reversed_REAL.mp4",""
"","","","call-function","322","756846","0.0-322.0","74dn64n2","","","","","","","",""
"1341.8050000000512","{""judgement"":0}","[0]","survey-likert","323","758189","0.0-323.0","74dn64n2","","","","","","","","0"
"2530.1699999999255","{""confidence"":2}","[0]","survey-likert","324","760721","0.0-324.0","74dn64n2","","","","","","","",""
"","","","call-function","325","760722","0.0-325.0","74dn64n2","","","","","","","",""
"null","","","html-keyboard-response","326","762223","0.0-326.0","74dn64n2","","<span style=""color:Black; font-size:50px;"">Agent A","null","","","","",""
"null","","","video-keyboard-response","327","764733","0.0-327.0","74dn64n2","","","null","","Agent A","veridical","FOR_REV_BLOBBY_STIM/713513.bmp_pp62_L2_V1.0_veridical_freeview_isoFalse_fps144.mp4",""
"null","","","html-keyboard-response","328","766235","0.0-328.0","74dn64n2","","<span style=""color:Black; font-size:50px;"">Agent B","null","","","","",""
"null","","","video-keyboard-response","329","768749","0.0-329.0","74dn64n2","","","null","","Agent B","scrambled","FOR_REV_BLOBBY_STIM/713513.bmp_pp62_L2_V1.0_veridical_freeview_isoFalse_fps144_reversed_REAL.mp4",""
"","","","call-function","330","768750","0.0-330.0","74dn64n2","","","","","","","",""
"1997.3800000000047","{""judgement"":0}","[0]","survey-likert","331","770748","0.0-331.0","74dn64n2","","","","","","","","0"
"2070.0050000000047","{""confidence"":1}","[0]","survey-likert","332","772820","0.0-332.0","74dn64n2","","","","","","","",""
"2054.4799999999814","","","instructions","333","774876","0.0-333.0","74dn64n2","[{""page_index"":0,""viewing_time"":955.0700000000652},{""page_index"":1,""viewing_time"":589.1450000000186},{""page_index"":2,""viewing_time"":510.0899999999674}]","","","","","","",""
"2489.3699999999953","","","instructions","334","777366","0.0-334.0","74dn64n2","[{""page_index"":0,""viewing_time"":438.34499999997206},{""page_index"":1,""viewing_time"":1442.0849999999627},{""page_index"":2,""viewing_time"":608.8250000000698}]","","","","","","",""
"","","","call-function","335","777367","0.0-335.0","74dn64n2","","","","","","","",""
"null","","","html-keyboard-response","336","778872","0.0-336.0","74dn64n2","","<span style=""color:Black; font-size:50px;"">Agent A","null","","","","",""
"null","","","video-keyboard-response","337","781592","0.0-337.0","74dn64n2","","","null","","Agent A","scrambled","FOR_REV_BLOBBY_STIM/498170.bmp_pp153_L3_V1.0_veridical_freeview_isoFalse_fps144_reversed_REAL.mp4",""
"null","","","html-keyboard-response","338","783095","0.0-338.0","74dn64n2","","<span style=""color:Black; font-size:50px;"">Agent B","null","","","","",""
"null","","","video-keyboard-response","339","785839","0.0-339.0","74dn64n2","","","null","","Agent B","veridical","FOR_REV_BLOBBY_STIM/498170.bmp_pp153_L3_V1.0_veridical_freeview_isoFalse_fps144.mp4",""
"","","","call-function","340","785840","0.0-340.0","74dn64n2","","","","","","","",""
"1952.670000000042","{""judgement"":1}","[0]","survey-likert","341","787794","0.0-341.0","74dn64n2","","","","","","","","1"
"1387.6350000000093","{""confidence"":0}","[0]","survey-likert","342","789183","0.0-342.0","74dn64n2","","","","","","","",""
"","","","call-function","343","789184","0.0-343.0","74dn64n2","","","","","","","",""
"null","","","html-keyboard-response","344","790686","0.0-344.0","74dn64n2","","<span style=""color:Black; font-size:50px;"">Agent A","null","","","","",""
"null","","","video-keyboard-response","345","793539","0.0-345.0","74dn64n2","","","null","","Agent A","veridical","FOR_REV_BLOBBY_STIM/1159829.bmp_pp91_L3_V1.0_veridical_freeview_isoFalse_fps144.mp4",""
"null","","","html-keyboard-response","346","795043","0.0-346.0","74dn64n2","","<span style=""color:Black; font-size:50px;"">Agent B","null","","","","",""
"null","","","video-keyboard-response","347","797855","0.0-347.0","74dn64n2","","","null","","Agent B","scrambled","FOR_REV_BLOBBY_STIM/1159829.bmp_pp91_L3_V1.0_veridical_freeview_isoFalse_fps144_reversed_REAL.mp4",""
"","","","call-function","348","797856","0.0-348.0","74dn64n2","","","","","","","",""
"1381.9000000000233","{""judgement"":0}","[0]","survey-likert","349","799239","0.0-349.0","74dn64n2","","","","","","","","0"
"1688.4750000000931","{""confidence"":2}","[0]","survey-likert","350","800929","0.0-350.0","74dn64n2","","","","","","","",""
"","","","call-function","351","800931","0.0-351.0","74dn64n2","","","","","","","",""
"null","","","html-keyboard-response","352","802435","0.0-352.0","74dn64n2","","<span style=""color:Black; font-size:50px;"">Agent A","null","","","","",""
"null","","","video-keyboard-response","353","805288","0.0-353.0","74dn64n2","","","null","","Agent A","scrambled","FOR_REV_BLOBBY_STIM/1159440.bmp_pp98_L1_V1.0_veridical_freeview_isoFalse_fps144_reversed_REAL.mp4",""
"null","","","html-keyboard-response","354","806792","0.0-354.0","74dn64n2","","<span style=""color:Black; font-size:50px;"">Agent B","null","","","","",""
"null","","","video-keyboard-response","355","809690","0.0-355.0","74dn64n2","","","null","","Agent B","veridical","FOR_REV_BLOBBY_STIM/1159440.bmp_pp98_L1_V1.0_veridical_freeview_isoFalse_fps144.mp4",""
"","","","call-function","356","809692","0.0-356.0","74dn64n2","","","","","","","",""
"2025.7799999999115","{""judgement"":1}","[0]","survey-likert","357","811718","0.0-357.0","74dn64n2","","","","","","","","1"
"1418.9899999999907","{""confidence"":2}","[0]","survey-likert","358","813139","0.0-358.0","74dn64n2","","","","","","","",""
"","","","call-function","359","813140","0.0-359.0","74dn64n2","","","","","","","",""
"null","","","html-keyboard-response","360","814643","0.0-360.0","74dn64n2","","<span style=""color:Black; font-size:50px;"">Agent A","null","","","","",""
"null","","","video-keyboard-response","361","817480","0.0-361.0","74dn64n2","","","null","","Agent A","veridical","FOR_REV_BLOBBY_STIM/1159784.bmp_pp73_L3_V1.0_veridical_freeview_isoFalse_fps144.mp4",""
"null","","","html-keyboard-response","362","818983","0.0-362.0","74dn64n2","","<span style=""color:Black; font-size:50px;"">Agent B","null","","","","",""
"null","","","video-keyboard-response","363","821805","0.0-363.0","74dn64n2","","","null","","Agent B","scrambled","FOR_REV_BLOBBY_STIM/1159784.bmp_pp73_L3_V1.0_veridical_freeview_isoFalse_fps144_reversed_REAL.mp4",""
"","","","call-function","364","821807","0.0-364.0","74dn64n2","","","","","","","",""
"1284.265000000014","{""judgement"":0}","[0]","survey-likert","365","823093","0.0-365.0","74dn64n2","","","","","","","","0"
"972.4350000000559","{""confidence"":2}","[0]","survey-likert","366","824069","0.0-366.0","74dn64n2","","","","","","","",""
"","","","call-function","367","824070","0.0-367.0","74dn64n2","","","","","","","",""
"null","","","html-keyboard-response","368","825577","0.0-368.0","74dn64n2","","<span style=""color:Black; font-size:50px;"">Agent A","null","","","","",""
"null","","","video-keyboard-response","369","828342","0.0-369.0","74dn64n2","","","null","","Agent A","scrambled","FOR_REV_BLOBBY_STIM/1592499.bmp_pp96_L2_V1.0_veridical_freeview_isoFalse_fps144_reversed_REAL.mp4",""
"null","","","html-keyboard-response","370","829847","0.0-370.0","74dn64n2","","<span style=""color:Black; font-size:50px;"">Agent B","null","","","","",""
"null","","","video-keyboard-response","371","832704","0.0-371.0","74dn64n2","","","null","","Agent B","veridical","FOR_REV_BLOBBY_STIM/1592499.bmp_pp96_L2_V1.0_veridical_freeview_isoFalse_fps144.mp4",""
"","","","call-function","372","832707","0.0-372.0","74dn64n2","","","","","","","",""
"2686.7550000000047","{""judgement"":0}","[0]","survey-likert","373","835395","0.0-373.0","74dn64n2","","","","","","","","1"
"1339.6000000000931","{""confidence"":0}","[0]","survey-likert","374","836737","0.0-374.0","74dn64n2","","","","","","","",""
"","","","call-function","375","836738","0.0-375.0","74dn64n2","","","","","","","",""
"null","","","html-keyboard-response","376","838239","0.0-376.0","74dn64n2","","<span style=""color:Black; font-size:50px;"">Agent A","null","","","","",""
"null","","","video-keyboard-response","377","840777","0.0-377.0","74dn64n2","","","null","","Agent A","scrambled","FOR_REV_BLOBBY_STIM/713796.bmp_pp84_L3_V1.0_veridical_freeview_isoFalse_fps144_reversed_REAL.mp4",""
"null","","","html-keyboard-response","378","842281","0.0-378.0","74dn64n2","","<span style=""color:Black; font-size:50px;"">Agent B","null","","","","",""
"null","","","video-keyboard-response","379","844822","0.0-379.0","74dn64n2","","","null","","Agent B","veridical","FOR_REV_BLOBBY_STIM/713796.bmp_pp84_L3_V1.0_veridical_freeview_isoFalse_fps144.mp4",""
"","","","call-function","380","844823","0.0-380.0","74dn64n2","","","","","","","",""
"1474.0550000000512","{""judgement"":1}","[0]","survey-likert","381","846298","0.0-381.0","74dn64n2","","","","","","","","1"
"1579.6900000000605","{""confidence"":3}","[0]","survey-likert","382","847880","0.0-382.0","74dn64n2","","","","","","","",""
"","","","call-function","383","847881","0.0-383.0","74dn64n2","","","","","","","",""
"null","","","html-keyboard-response","384","849385","0.0-384.0","74dn64n2","","<span style=""color:Black; font-size:50px;"">Agent A","null","","","","",""
"null","","","video-keyboard-response","385","852248","0.0-385.0","74dn64n2","","","null","","Agent A","scrambled","FOR_REV_BLOBBY_STIM/713593.bmp_pp64_L1_V1.0_veridical_freeview_isoFalse_fps144_reversed_REAL.mp4",""
"null","","","html-keyboard-response","386","853753","0.0-386.0","74dn64n2","","<span style=""color:Black; font-size:50px;"">Agent B","null","","","","",""
"null","","","video-keyboard-response","387","856655","0.0-387.0","74dn64n2","","","null","","Agent B","veridical","FOR_REV_BLOBBY_STIM/713593.bmp_pp64_L1_V1.0_veridical_freeview_isoFalse_fps144.mp4",""
"","","","call-function","388","856656","0.0-388.0","74dn64n2","","","","","","","",""
"2115.579999999958","{""judgement"":1}","[0]","survey-likert","389","858772","0.0-389.0","74dn64n2","","","","","","","","1"
"1397.5750000000698","{""confidence"":3}","[0]","survey-likert","390","860172","0.0-390.0","74dn64n2","","","","","","","",""
"","","","call-function","391","860173","0.0-391.0","74dn64n2","","","","","","","",""
"null","","","html-keyboard-response","392","861678","0.0-392.0","74dn64n2","","<span style=""color:Black; font-size:50px;"">Agent A","null","","","","",""
"null","","","video-keyboard-response","393","864605","0.0-393.0","74dn64n2","","","null","","Agent A","veridical","FOR_REV_BLOBBY_STIM/285905.bmp_pp57_L1_V1.0_veridical_freeview_isoFalse_fps144.mp4",""
"null","","","html-keyboard-response","394","866107","0.0-394.0","74dn64n2","","<span style=""color:Black; font-size:50px;"">Agent B","null","","","","",""
"null","","","video-keyboard-response","395","869029","0.0-395.0","74dn64n2","","","null","","Agent B","scrambled","FOR_REV_BLOBBY_STIM/285905.bmp_pp57_L1_V1.0_veridical_freeview_isoFalse_fps144_reversed_REAL.mp4",""
"","","","call-function","396","869030","0.0-396.0","74dn64n2","","","","","","","",""
"1829.9799999999814","{""judgement"":0}","[0]","survey-likert","397","870862","0.0-397.0","74dn64n2","","","","","","","","0"
"1733.0400000000373","{""confidence"":3}","[0]","survey-likert","398","872597","0.0-398.0","74dn64n2","","","","","","","",""
"","","","call-function","399","872598","0.0-399.0","74dn64n2","","","","","","","",""
"null","","","html-keyboard-response","400","874102","0.0-400.0","74dn64n2","","<span style=""color:Black; font-size:50px;"">Agent A","null","","","","",""
"null","","","video-keyboard-response","401","876957","0.0-401.0","74dn64n2","","","null","","Agent A","veridical","FOR_REV_BLOBBY_STIM/1591961.bmp_pp67_L2_V1.0_veridical_freeview_isoFalse_fps144.mp4",""
"null","","","html-keyboard-response","402","878462","0.0-402.0","74dn64n2","","<span style=""color:Black; font-size:50px;"">Agent B","null","","","","",""
"null","","","video-keyboard-response","403","881331","0.0-403.0","74dn64n2","","","null","","Agent B","scrambled","FOR_REV_BLOBBY_STIM/1591961.bmp_pp67_L2_V1.0_veridical_freeview_isoFalse_fps144_reversed_REAL.mp4",""
"","","","call-function","404","881332","0.0-404.0","74dn64n2","","","","","","","",""
"1292.0899999999674","{""judgement"":0}","[0]","survey-likert","405","882625","0.0-405.0","74dn64n2","","","","","","","","0"
"2894.1750000000466","{""confidence"":3}","[0]","survey-likert","406","885521","0.0-406.0","74dn64n2","","","","","","","",""
"","","","call-function","407","885523","0.0-407.0","74dn64n2","","","","","","","",""
"null","","","html-keyboard-response","408","887029","0.0-408.0","74dn64n2","","<span style=""color:Black; font-size:50px;"">Agent A","null","","","","",""
"null","","","video-keyboard-response","409","889792","0.0-409.0","74dn64n2","","","null","","Agent A","scrambled","FOR_REV_BLOBBY_STIM/1592817.bmp_pp55_L3_V1.0_veridical_freeview_isoFalse_fps144_reversed_REAL.mp4",""
"null","","","html-keyboard-response","410","891295","0.0-410.0","74dn64n2","","<span style=""color:Black; font-size:50px;"">Agent B","null","","","","",""
"null","","","video-keyboard-response","411","894062","0.0-411.0","74dn64n2","","","null","","Agent B","veridical","FOR_REV_BLOBBY_STIM/1592817.bmp_pp55_L3_V1.0_veridical_freeview_isoFalse_fps144.mp4",""
"","","","call-function","412","894064","0.0-412.0","74dn64n2","","","","","","","",""
"1325.704999999958","{""judgement"":1}","[0]","survey-likert","413","895391","0.0-413.0","74dn64n2","","","","","","","","1"
"1421.6149999999907","{""confidence"":3}","[0]","survey-likert","414","896814","0.0-414.0","74dn64n2","","","","","","","",""
"2355.180000000051","","","instructions","415","899171","0.0-415.0","74dn64n2","[{""page_index"":0,""viewing_time"":1437.9250000000466},{""page_index"":1,""viewing_time"":491.9449999999488},{""page_index"":2,""viewing_time"":425.05000000004657}]","","","","","","",""
"1758.8699999999953","","","instructions","416","900931","0.0-416.0","74dn64n2","[{""page_index"":0,""viewing_time"":408.60999999998603},{""page_index"":1,""viewing_time"":772.3950000000186},{""page_index"":2,""viewing_time"":577.7399999999907}]","","","","","","",""
"","","","call-function","417","900932","0.0-417.0","74dn64n2","","","","","","","",""
"null","","","html-keyboard-response","418","902434","0.0-418.0","74dn64n2","","<span style=""color:Black; font-size:50px;"">Agent A","null","","","","",""
"null","","","video-keyboard-response","419","905225","0.0-419.0","74dn64n2","","","null","","Agent A","scrambled","FOR_REV_BLOBBY_STIM/1159768.bmp_pp89_L1_V1.0_veridical_freeview_isoFalse_fps144_reversed_REAL.mp4",""
"null","","","html-keyboard-response","420","906729","0.0-420.0","74dn64n2","","<span style=""color:Black; font-size:50px;"">Agent B","null","","","","",""
"null","","","video-keyboard-response","421","909523","0.0-421.0","74dn64n2","","","null","","Agent B","veridical","FOR_REV_BLOBBY_STIM/1159768.bmp_pp89_L1_V1.0_veridical_freeview_isoFalse_fps144.mp4",""
"","","","call-function","422","909524","0.0-422.0","74dn64n2","","","","","","","",""
"1470.5","{""judgement"":0}","[0]","survey-likert","423","910995","0.0-423.0","74dn64n2","","","","","","","","1"
"968.484999999986","{""confidence"":2}","[0]","survey-likert","424","911966","0.0-424.0","74dn64n2","","","","","","","",""
"","","","call-function","425","911967","0.0-425.0","74dn64n2","","","","","","","",""
"null","","","html-keyboard-response","426","913468","0.0-426.0","74dn64n2","","<span style=""color:Black; font-size:50px;"">Agent A","null","","","","",""
"null","","","video-keyboard-response","427","916307","0.0-427.0","74dn64n2","","","null","","Agent A","scrambled","FOR_REV_BLOBBY_STIM/498253.bmp_pp67_L2_V1.0_veridical_freeview_isoFalse_fps144_reversed_REAL.mp4",""
"null","","","html-keyboard-response","428","917811","0.0-428.0","74dn64n2","","<span style=""color:Black; font-size:50px;"">Agent B","null","","","","",""
"null","","","video-keyboard-response","429","920675","0.0-429.0","74dn64n2","","","null","","Agent B","veridical","FOR_REV_BLOBBY_STIM/498253.bmp_pp67_L2_V1.0_veridical_freeview_isoFalse_fps144.mp4",""
"","","","call-function","430","920676","0.0-430.0","74dn64n2","","","","","","","",""
"1302.594999999972","{""judgement"":1}","[0]","survey-likert","431","921980","0.0-431.0","74dn64n2","","","","","","","","1"
"1229.0199999999022","{""confidence"":2}","[0]","survey-likert","432","923211","0.0-432.0","74dn64n2","","","","","","","",""
"","","","call-function","433","923212","0.0-433.0","74dn64n2","","","","","","","",""
"null","","","html-keyboard-response","434","924713","0.0-434.0","74dn64n2","","<span style=""color:Black; font-size:50px;"">Agent A","null","","","","",""
"null","","","video-keyboard-response","435","927576","0.0-435.0","74dn64n2","","","null","","Agent A","veridical","FOR_REV_BLOBBY_STIM/497950.bmp_pp151_L1_V1.0_veridical_freeview_isoFalse_fps144.mp4",""
"null","","","html-keyboard-response","436","929080","0.0-436.0","74dn64n2","","<span style=""color:Black; font-size:50px;"">Agent B","null","","","","",""
"null","","","video-keyboard-response","437","931948","0.0-437.0","74dn64n2","","","null","","Agent B","scrambled","FOR_REV_BLOBBY_STIM/497950.bmp_pp151_L1_V1.0_veridical_freeview_isoFalse_fps144_reversed_REAL.mp4",""
"","","","call-function","438","931949","0.0-438.0","74dn64n2","","","","","","","",""
"1625.8099999999395","{""judgement"":0}","[0]","survey-likert","439","933575","0.0-439.0","74dn64n2","","","","","","","","0"
"1479.1049999999814","{""confidence"":3}","[0]","survey-likert","440","935056","0.0-440.0","74dn64n2","","","","","","","",""
"","","","call-function","441","935057","0.0-441.0","74dn64n2","","","","","","","",""
"null","","","html-keyboard-response","442","936563","0.0-442.0","74dn64n2","","<span style=""color:Black; font-size:50px;"">Agent A","null","","","","",""
"null","","","video-keyboard-response","443","939352","0.0-443.0","74dn64n2","","","null","","Agent A","veridical","FOR_REV_BLOBBY_STIM/713749.bmp_pp88_L2_V1.0_veridical_freeview_isoFalse_fps144.mp4",""
"null","","","html-keyboard-response","444","940857","0.0-444.0","74dn64n2","","<span style=""color:Black; font-size:50px;"">Agent B","null","","","","",""
"null","","","video-keyboard-response","445","943619","0.0-445.0","74dn64n2","","","null","","Agent B","scrambled","FOR_REV_BLOBBY_STIM/713749.bmp_pp88_L2_V1.0_veridical_freeview_isoFalse_fps144_reversed_REAL.mp4",""
"","","","call-function","446","943621","0.0-446.0","74dn64n2","","","","","","","",""
"1775.1050000000978","{""judgement"":1}","[0]","survey-likert","447","945397","0.0-447.0","74dn64n2","","","","","","","","0"
"2320.2550000000047","{""confidence"":2}","[0]","survey-likert","448","947719","0.0-448.0","74dn64n2","","","","","","","",""
"","","","call-function","449","947721","0.0-449.0","74dn64n2","","","","","","","",""
"null","","","html-keyboard-response","450","949224","0.0-450.0","74dn64n2","","<span style=""color:Black; font-size:50px;"">Agent A","null","","","","",""
"null","","","video-keyboard-response","451","952057","0.0-451.0","74dn64n2","","","null","","Agent A","scrambled","FOR_REV_BLOBBY_STIM/1593041.bmp_pp58_L1_V1.0_veridical_freeview_isoFalse_fps144_reversed_REAL.mp4",""
"null","","","html-keyboard-response","452","953561","0.0-452.0","74dn64n2","","<span style=""color:Black; font-size:50px;"">Agent B","null","","","","",""
"null","","","video-keyboard-response","453","956393","0.0-453.0","74dn64n2","","","null","","Agent B","veridical","FOR_REV_BLOBBY_STIM/1593041.bmp_pp58_L1_V1.0_veridical_freeview_isoFalse_fps144.mp4",""
"","","","call-function","454","956395","0.0-454.0","74dn64n2","","","","","","","",""
"1500.7350000001024","{""judgement"":0}","[0]","survey-likert","455","957897","0.0-455.0","74dn64n2","","","","","","","","1"
"2076.984999999986","{""confidence"":2}","[0]","survey-likert","456","959976","0.0-456.0","74dn64n2","","","","","","","",""
"","","","call-function","457","959978","0.0-457.0","74dn64n2","","","","","","","",""
"null","","","html-keyboard-response","458","961481","0.0-458.0","74dn64n2","","<span style=""color:Black; font-size:50px;"">Agent A","null","","","","",""
"null","","","video-keyboard-response","459","964190","0.0-459.0","74dn64n2","","","null","","Agent A","scrambled","FOR_REV_BLOBBY_STIM/1592727.bmp_pp59_L3_V1.0_veridical_freeview_isoFalse_fps144_reversed_REAL.mp4",""
"null","","","html-keyboard-response","460","965695","0.0-460.0","74dn64n2","","<span style=""color:Black; font-size:50px;"">Agent B","null","","","","",""
"null","","","video-keyboard-response","461","968375","0.0-461.0","74dn64n2","","","null","","Agent B","veridical","FOR_REV_BLOBBY_STIM/1592727.bmp_pp59_L3_V1.0_veridical_freeview_isoFalse_fps144.mp4",""
"","","","call-function","462","968377","0.0-462.0","74dn64n2","","","","","","","",""
"2903.655000000028","{""judgement"":0}","[0]","survey-likert","463","971282","0.0-463.0","74dn64n2","","","","","","","","1"
"3634.6300000000047","{""confidence"":1}","[0]","survey-likert","464","974919","0.0-464.0","74dn64n2","","","","","","","",""
"","","","call-function","465","974921","0.0-465.0","74dn64n2","","","","","","","",""
"null","","","html-keyboard-response","466","976423","0.0-466.0","74dn64n2","","<span style=""color:Black; font-size:50px;"">Agent A","null","","","","",""
"null","","","video-keyboard-response","467","979106","0.0-467.0","74dn64n2","","","null","","Agent A","scrambled","FOR_REV_BLOBBY_STIM/1592372.bmp_pp76_L1_V1.0_veridical_freeview_isoFalse_fps144_reversed_REAL.mp4",""
"null","","","html-keyboard-response","468","980611","0.0-468.0","74dn64n2","","<span style=""color:Black; font-size:50px;"">Agent B","null","","","","",""
"null","","","video-keyboard-response","469","983294","0.0-469.0","74dn64n2","","","null","","Agent B","veridical","FOR_REV_BLOBBY_STIM/1592372.bmp_pp76_L1_V1.0_veridical_freeview_isoFalse_fps144.mp4",""
"","","","call-function","470","983295","0.0-470.0","74dn64n2","","","","","","","",""
"1797.8250000000698","{""judgement"":0}","[0]","survey-likert","471","985094","0.0-471.0","74dn64n2","","","","","","","","1"
"2267.195000000065","{""confidence"":0}","[0]","survey-likert","472","987363","0.0-472.0","74dn64n2","","","","","","","",""
"","","","call-function","473","987364","0.0-473.0","74dn64n2","","","","","","","",""
"null","","","html-keyboard-response","474","988867","0.0-474.0","74dn64n2","","<span style=""color:Black; font-size:50px;"">Agent A","null","","","","",""
"null","","","video-keyboard-response","475","991715","0.0-475.0","74dn64n2","","","null","","Agent A","scrambled","FOR_REV_BLOBBY_STIM/285751.bmp_pp55_L3_V1.0_veridical_freeview_isoFalse_fps144_reversed_REAL.mp4",""
"null","","","html-keyboard-response","476","993220","0.0-476.0","74dn64n2","","<span style=""color:Black; font-size:50px;"">Agent B","null","","","","",""
"null","","","video-keyboard-response","477","996062","0.0-477.0","74dn64n2","","","null","","Agent B","veridical","FOR_REV_BLOBBY_STIM/285751.bmp_pp55_L3_V1.0_veridical_freeview_isoFalse_fps144.mp4",""
"","","","call-function","478","996063","0.0-478.0","74dn64n2","","","","","","","",""
"1321.9599999999627","{""judgement"":1}","[0]","survey-likert","479","997386","0.0-479.0","74dn64n2","","","","","","","","1"
"2064.1699999999255","{""confidence"":2}","[0]","survey-likert","480","999452","0.0-480.0","74dn64n2","","","","","","","",""
"","","","call-function","481","999453","0.0-481.0","74dn64n2","","","","","","","",""
"null","","","html-keyboard-response","482","1000957","0.0-482.0","74dn64n2","","<span style=""color:Black; font-size:50px;"">Agent A","null","","","","",""
"null","","","video-keyboard-response","483","1003614","0.0-483.0","74dn64n2","","","null","","Agent A","scrambled","FOR_REV_BLOBBY_STIM/498149.bmp_pp99_L2_V1.0_veridical_freeview_isoFalse_fps144_reversed_REAL.mp4",""
"null","","","html-keyboard-response","484","1005119","0.0-484.0","74dn64n2","","<span style=""color:Black; font-size:50px;"">Agent B","null","","","","",""
"null","","","video-keyboard-response","485","1007790","0.0-485.0","74dn64n2","","","null","","Agent B","veridical","FOR_REV_BLOBBY_STIM/498149.bmp_pp99_L2_V1.0_veridical_freeview_isoFalse_fps144.mp4",""
"","","","call-function","486","1007791","0.0-486.0","74dn64n2","","","","","","","",""
"1709.7850000000326","{""judgement"":0}","[0]","survey-likert","487","1009502","0.0-487.0","74dn64n2","","","","","","","","1"
"1635.1149999999907","{""confidence"":1}","[0]","survey-likert","488","1011139","0.0-488.0","74dn64n2","","","","","","","",""
"","","","call-function","489","1011140","0.0-489.0","74dn64n2","","","","","","","",""
"null","","","html-keyboard-response","490","1012641","0.0-490.0","74dn64n2","","<span style=""color:Black; font-size:50px;"">Agent A","null","","","","",""
"null","","","video-keyboard-response","491","1015407","0.0-491.0","74dn64n2","","","null","","Agent A","veridical","FOR_REV_BLOBBY_STIM/1592581.bmp_pp100_L3_V1.0_veridical_freeview_isoFalse_fps144.mp4",""
"null","","","html-keyboard-response","492","1016910","0.0-492.0","74dn64n2","","<span style=""color:Black; font-size:50px;"">Agent B","null","","","","",""
"null","","","video-keyboard-response","493","1019678","0.0-493.0","74dn64n2","","","null","","Agent B","scrambled","FOR_REV_BLOBBY_STIM/1592581.bmp_pp100_L3_V1.0_veridical_freeview_isoFalse_fps144_reversed_REAL.mp4",""
"","","","call-function","494","1019679","0.0-494.0","74dn64n2","","","","","","","",""
"4588.790000000037","{""judgement"":0}","[0]","survey-likert","495","1024269","0.0-495.0","74dn64n2","","","","","","","","0"
"2242.3000000000466","{""confidence"":1}","[0]","survey-likert","496","1026513","0.0-496.0","74dn64n2","","","","","","","",""
"12141.859999999986","","","instructions","497","1038656","0.0-497.0","74dn64n2","[{""page_index"":0,""viewing_time"":11177.640000000014},{""page_index"":1,""viewing_time"":537.0050000000047},{""page_index"":2,""viewing_time"":427.0449999999255}]","","","","","","",""
"1965.015000000014","","","instructions","498","1040622","0.0-498.0","74dn64n2","[{""page_index"":0,""viewing_time"":445.8549999999814},{""page_index"":1,""viewing_time"":1001.0400000000373},{""page_index"":2,""viewing_time"":518}]","","","","","","",""
"","","","call-function","499","1040623","0.0-499.0","74dn64n2","","","","","","","",""
"null","","","html-keyboard-response","500","1042126","0.0-500.0","74dn64n2","","<span style=""color:Black; font-size:50px;"">Agent A","null","","","","",""
"null","","","video-keyboard-response","501","1044965","0.0-501.0","74dn64n2","","","null","","Agent A","scrambled","FOR_REV_BLOBBY_STIM/713017.bmp_pp152_L2_V1.0_veridical_freeview_isoFalse_fps144_reversed_REAL.mp4",""
"null","","","html-keyboard-response","502","1046468","0.0-502.0","74dn64n2","","<span style=""color:Black; font-size:50px;"">Agent B","null","","","","",""
"null","","","video-keyboard-response","503","1049307","0.0-503.0","74dn64n2","","","null","","Agent B","veridical","FOR_REV_BLOBBY_STIM/713017.bmp_pp152_L2_V1.0_veridical_freeview_isoFalse_fps144.mp4",""
"","","","call-function","504","1049308","0.0-504.0","74dn64n2","","","","","","","",""
"1322.5500000000466","{""judgement"":1}","[0]","survey-likert","505","1050632","0.0-505.0","74dn64n2","","","","","","","","1"
"1331.0049999998882","{""confidence"":1}","[0]","survey-likert","506","1051965","0.0-506.0","74dn64n2","","","","","","","",""
"","","","call-function","507","1051966","0.0-507.0","74dn64n2","","","","","","","",""
"null","","","html-keyboard-response","508","1053471","0.0-508.0","74dn64n2","","<span style=""color:Black; font-size:50px;"">Agent A","null","","","","",""
"null","","","video-keyboard-response","509","1056350","0.0-509.0","74dn64n2","","","null","","Agent A","scrambled","FOR_REV_BLOBBY_STIM/1593035.bmp_pp94_L2_V1.0_veridical_freeview_isoFalse_fps144_reversed_REAL.mp4",""
"null","","","html-keyboard-response","510","1057854","0.0-510.0","74dn64n2","","<span style=""color:Black; font-size:50px;"">Agent B","null","","","","",""
"null","","","video-keyboard-response","511","1060745","0.0-511.0","74dn64n2","","","null","","Agent B","veridical","FOR_REV_BLOBBY_STIM/1593035.bmp_pp94_L2_V1.0_veridical_freeview_isoFalse_fps144.mp4",""
"","","","call-function","512","1060746","0.0-512.0","74dn64n2","","","","","","","",""
"1812.155000000028","{""judgement"":0}","[0]","survey-likert","513","1062559","0.0-513.0","74dn64n2","","","","","","","","1"
"1927.0349999999162","{""confidence"":2}","[0]","survey-likert","514","1064488","0.0-514.0","74dn64n2","","","","","","","",""
"","","","call-function","515","1064489","0.0-515.0","74dn64n2","","","","","","","",""
"null","","","html-keyboard-response","516","1065993","0.0-516.0","74dn64n2","","<span style=""color:Black; font-size:50px;"">Agent A","null","","","","",""
"null","","","video-keyboard-response","517","1068837","0.0-517.0","74dn64n2","","","null","","Agent A","scrambled","FOR_REV_BLOBBY_STIM/1159675.bmp_pp77_L3_V1.0_veridical_freeview_isoFalse_fps144_reversed_REAL.mp4",""
"null","","","html-keyboard-response","518","1070340","0.0-518.0","74dn64n2","","<span style=""color:Black; font-size:50px;"">Agent B","null","","","","",""
"null","","","video-keyboard-response","519","1073201","0.0-519.0","74dn64n2","","","null","","Agent B","veridical","FOR_REV_BLOBBY_STIM/1159675.bmp_pp77_L3_V1.0_veridical_freeview_isoFalse_fps144.mp4",""
"","","","call-function","520","1073202","0.0-520.0","74dn64n2","","","","","","","",""
"1911.7899999998044","{""judgement"":1}","[0]","survey-likert","521","1075115","0.0-521.0","74dn64n2","","","","","","","","1"
"1445.4750000000931","{""confidence"":0}","[0]","survey-likert","522","1076562","0.0-522.0","74dn64n2","","","","","","","",""
"","","","call-function","523","1076563","0.0-523.0","74dn64n2","","","","","","","",""
"null","","","html-keyboard-response","524","1078068","0.0-524.0","74dn64n2","","<span style=""color:Black; font-size:50px;"">Agent A","null","","","","",""
"null","","","video-keyboard-response","525","1080686","0.0-525.0","74dn64n2","","","null","","Agent A","scrambled","FOR_REV_BLOBBY_STIM/1593146.bmp_pp93_L1_V1.0_veridical_freeview_isoFalse_fps144_reversed_REAL.mp4",""
"null","","","html-keyboard-response","526","1082214","0.0-526.0","74dn64n2","","<span style=""color:Black; font-size:50px;"">Agent B","null","","","","",""
"null","","","video-keyboard-response","527","1084829","0.0-527.0","74dn64n2","","","null","","Agent B","veridical","FOR_REV_BLOBBY_STIM/1593146.bmp_pp93_L1_V1.0_veridical_freeview_isoFalse_fps144.mp4",""
"","","","call-function","528","1084831","0.0-528.0","74dn64n2","","","","","","","",""
"1606.1850000000559","{""judgement"":0}","[0]","survey-likert","529","1086438","0.0-529.0","74dn64n2","","","","","","","","1"
"1401.5150000001304","{""confidence"":1}","[0]","survey-likert","530","1087841","0.0-530.0","74dn64n2","","","","","","","",""
"","","","call-function","531","1087842","0.0-531.0","74dn64n2","","","","","","","",""
"null","","","html-keyboard-response","532","1089348","0.0-532.0","74dn64n2","","<span style=""color:Black; font-size:50px;"">Agent A","null","","","","",""
"null","","","video-keyboard-response","533","1092060","0.0-533.0","74dn64n2","","","null","","Agent A","scrambled","FOR_REV_BLOBBY_STIM/285994.bmp_pp92_L3_V1.0_veridical_freeview_isoFalse_fps144_reversed_REAL.mp4",""
"null","","","html-keyboard-response","534","1093604","0.0-534.0","74dn64n2","","<span style=""color:Black; font-size:50px;"">Agent B","null","","","","",""
"null","","","video-keyboard-response","535","1096345","0.0-535.0","74dn64n2","","","null","","Agent B","veridical","FOR_REV_BLOBBY_STIM/285994.bmp_pp92_L3_V1.0_veridical_freeview_isoFalse_fps144.mp4",""
"","","","call-function","536","1096347","0.0-536.0","74dn64n2","","","","","","","",""
"1325.8249999999534","{""judgement"":1}","[0]","survey-likert","537","1097675","0.0-537.0","74dn64n2","","","","","","","","1"
"2325.560000000056","{""confidence"":2}","[0]","survey-likert","538","1100002","0.0-538.0","74dn64n2","","","","","","","",""
"","","","call-function","539","1100003","0.0-539.0","74dn64n2","","","","","","","",""
"null","","","html-keyboard-response","540","1101508","0.0-540.0","74dn64n2","","<span style=""color:Black; font-size:50px;"">Agent A","null","","","","",""
"null","","","video-keyboard-response","541","1104250","0.0-541.0","74dn64n2","","","null","","Agent A","scrambled","FOR_REV_BLOBBY_STIM/498111.bmp_pp88_L2_V1.0_veridical_freeview_isoFalse_fps144_reversed_REAL.mp4",""
"null","","","html-keyboard-response","542","1105754","0.0-542.0","74dn64n2","","<span style=""color:Black; font-size:50px;"">Agent B","null","","","","",""
"null","","","video-keyboard-response","543","1108481","0.0-543.0","74dn64n2","","","null","","Agent B","veridical","FOR_REV_BLOBBY_STIM/498111.bmp_pp88_L2_V1.0_veridical_freeview_isoFalse_fps144.mp4",""
"","","","call-function","544","1108482","0.0-544.0","74dn64n2","","","","","","","",""
"1395.5550000001676","{""judgement"":0}","[0]","survey-likert","545","1109879","0.0-545.0","74dn64n2","","","","","","","","1"
"940.3249999999534","{""confidence"":1}","[0]","survey-likert","546","1110822","0.0-546.0","74dn64n2","","","","","","","",""
"","","","call-function","547","1110823","0.0-547.0","74dn64n2","","","","","","","",""
"null","","","html-keyboard-response","548","1112326","0.0-548.0","74dn64n2","","<span style=""color:Black; font-size:50px;"">Agent A","null","","","","",""
"null","","","video-keyboard-response","549","1115111","0.0-549.0","74dn64n2","","","null","","Agent A","veridical","FOR_REV_BLOBBY_STIM/1159621.bmp_pp92_L3_V1.0_veridical_freeview_isoFalse_fps144.mp4",""
"null","","","html-keyboard-response","550","1116617","0.0-550.0","74dn64n2","","<span style=""color:Black; font-size:50px;"">Agent B","null","","","","",""
"null","","","video-keyboard-response","551","1119417","0.0-551.0","74dn64n2","","","null","","Agent B","scrambled","FOR_REV_BLOBBY_STIM/1159621.bmp_pp92_L3_V1.0_veridical_freeview_isoFalse_fps144_reversed_REAL.mp4",""
"","","","call-function","552","1119418","0.0-552.0","74dn64n2","","","","","","","",""
"1637.8899999998976","{""judgement"":0}","[0]","survey-likert","553","1121057","0.0-553.0","74dn64n2","","","","","","","","0"
"1491.755000000121","{""confidence"":3}","[0]","survey-likert","554","1122553","0.0-554.0","74dn64n2","","","","","","","",""
"","","","call-function","555","1122555","0.0-555.0","74dn64n2","","","","","","","",""
"null","","","html-keyboard-response","556","1124057","0.0-556.0","74dn64n2","","<span style=""color:Black; font-size:50px;"">Agent A","null","","","","",""
"null","","","video-keyboard-response","557","1126803","0.0-557.0","74dn64n2","","","null","","Agent A","scrambled","FOR_REV_BLOBBY_STIM/1159446.bmp_pp60_L3_V1.0_veridical_freeview_isoFalse_fps144_reversed_REAL.mp4",""
"null","","","html-keyboard-response","558","1128308","0.0-558.0","74dn64n2","","<span style=""color:Black; font-size:50px;"">Agent B","null","","","","",""
"null","","","video-keyboard-response","559","1131063","0.0-559.0","74dn64n2","","","null","","Agent B","veridical","FOR_REV_BLOBBY_STIM/1159446.bmp_pp60_L3_V1.0_veridical_freeview_isoFalse_fps144.mp4",""
"","","","call-function","560","1131065","0.0-560.0","74dn64n2","","","","","","","",""
"970.8850000000093","{""judgement"":1}","[0]","survey-likert","561","1132038","0.0-561.0","74dn64n2","","","","","","","","1"
"1351.660000000149","{""confidence"":3}","[0]","survey-likert","562","1133391","0.0-562.0","74dn64n2","","","","","","","",""
"","","","call-function","563","1133392","0.0-563.0","74dn64n2","","","","","","","",""
"null","","","html-keyboard-response","564","1134895","0.0-564.0","74dn64n2","","<span style=""color:Black; font-size:50px;"">Agent A","null","","","","",""
"null","","","video-keyboard-response","565","1137758","0.0-565.0","74dn64n2","","","null","","Agent A","veridical","FOR_REV_BLOBBY_STIM/1592657.bmp_pp98_L1_V1.0_veridical_freeview_isoFalse_fps144.mp4",""
"null","","","html-keyboard-response","566","1139265","0.0-566.0","74dn64n2","","<span style=""color:Black; font-size:50px;"">Agent B","null","","","","",""
"null","","","video-keyboard-response","567","1142113","0.0-567.0","74dn64n2","","","null","","Agent B","scrambled","FOR_REV_BLOBBY_STIM/1592657.bmp_pp98_L1_V1.0_veridical_freeview_isoFalse_fps144_reversed_REAL.mp4",""
"","","","call-function","568","1142114","0.0-568.0","74dn64n2","","","","","","","",""
"1533.8600000001024","{""judgement"":0}","[0]","survey-likert","569","1143649","0.0-569.0","74dn64n2","","","","","","","","0"
"1248.3149999999441","{""confidence"":3}","[0]","survey-likert","570","1144899","0.0-570.0","74dn64n2","","","","","","","",""
"","","","call-function","571","1144900","0.0-571.0","74dn64n2","","","","","","","",""
"null","","","html-keyboard-response","572","1146404","0.0-572.0","74dn64n2","","<span style=""color:Black; font-size:50px;"">Agent A","null","","","","",""
"null","","","video-keyboard-response","573","1149184","0.0-573.0","74dn64n2","","","null","","Agent A","veridical","FOR_REV_BLOBBY_STIM/498155.bmp_pp61_L2_V1.0_veridical_freeview_isoFalse_fps144.mp4",""
"null","","","html-keyboard-response","574","1150687","0.0-574.0","74dn64n2","","<span style=""color:Black; font-size:50px;"">Agent B","null","","","","",""
"null","","","video-keyboard-response","575","1153465","0.0-575.0","74dn64n2","","","null","","Agent B","scrambled","FOR_REV_BLOBBY_STIM/498155.bmp_pp61_L2_V1.0_veridical_freeview_isoFalse_fps144_reversed_REAL.mp4",""
"","","","call-function","576","1153466","0.0-576.0","74dn64n2","","","","","","","",""
"2410.2900000000373","{""judgement"":0}","[0]","survey-likert","577","1155878","0.0-577.0","74dn64n2","","","","","","","","0"
"1884.8799999998882","{""confidence"":0}","[0]","survey-likert","578","1157764","0.0-578.0","74dn64n2","","","","","","","",""
"2334.6100000001024","","","instructions","579","1160100","0.0-579.0","74dn64n2","[{""page_index"":0,""viewing_time"":2334.439999999944}]","","","","","","",""
"2734.8850000000093","","","instructions","580","1162836","0.0-580.0","74dn64n2","[{""page_index"":0,""viewing_time"":2734.625}]","","","","","","",""
"11700.319999999832","{""post-1"":3}","[0]","survey-likert","581","1174539","0.0-581.0","74dn64n2","","","","","","","",""
"16789.580000000075","{""post-1"":1}","[0]","survey-likert","582","1191330","0.0-582.0","74dn64n2","","","","","","","",""
"9034.064999999944","{""post-2"":3}","[0]","survey-likert","583","1200366","0.0-583.0","74dn64n2","","","","","","","",""
"7061.010000000009","{""post-2"":0}","[0]","survey-likert","584","1207429","0.0-584.0","74dn64n2","","","","","","","",""
"7870.804999999935","{""post-3"":3}","[0]","survey-likert","585","1215302","0.0-585.0","74dn64n2","","","","","","","",""
"5154.320000000065","{""post-3"":1}","[0]","survey-likert","586","1220460","0.0-586.0","74dn64n2","","","","","","","",""
"6886.190000000177","{""post-4"":2}","[0]","survey-likert","587","1227349","0.0-587.0","74dn64n2","","","","","","","",""
"2314.5200000000186","{""post-4"":0}","[0]","survey-likert","588","1229667","0.0-588.0","74dn64n2","","","","","","","",""
"8476.215000000084","{""post-5"":0}","[0]","survey-likert","589","1238146","0.0-589.0","74dn64n2","","","","","","","",""
"4169.229999999981","{""post-5"":2}","[0]","survey-likert","590","1242317","0.0-590.0","74dn64n2","","","","","","","",""
"305955.76","{""Q0"":""Once I settled into the task, it became immediately clear to me when a video was human or fake if there were people/words in the image that the agents were paying attention to. I felt like a human would default to looking at a face first, normally in the central part of the image, before scanning the rest of the image in a left to right fashion (in the way that English and many languages with similar alphabets are read left to right), or would move from foreground to background. Fake images would instead begin at those ending background/other objects points and then move their attention to the person or words on screen. Those images were easy to judge. It was more difficult to tell which agent was which when the attention patterns were less consistent with that which I just described, or if they started and ended their attention at the same point (or focused entirely on the people in the image, forcing me to then judge which person I would have focused on first to try to figure out which was the human condition).""}","","survey-text","591","1548388","0.0-591.0","74dn64n2","","","","","","","",""
"198204.8700000001","{""Q0"":""I found images with people, text, and obvious foreground/background elements the easiest to judge. I believe that humans will default to looking first at a human in an image before setting off on a scan of the image from left to right (especially if there is text to be read) or from the foreground elements to the background elements. The fake agent would step through these patterns backwards, which made it very easy to tell that it was fake as I don't believe a human would first look at a background, ignoring a human. It also felt easy when a screen was involved in an image, because I believe that humans have a natural curiosity if not a nosiness that would make them first look at what a screen might show before looking at any other element of an image.""}","","survey-text","592","1746600","0.0-592.0","74dn64n2","","","","","","","",""
"206885.25","{""Q0"":""I found it hard to judge images that did not feature humans, text, or anything particularly attention grabbing in the image. Then it was hard to find any pattern of viewing that I could believe is more human, as the scanning of the image would be more random than if there was something obvious that could draw a human's attention. There was also a specific image with two humans next to one another where the human agent only looked at the faces, back and forth. This meant that the fake agent's attention looked almost exactly the same, so I therefore had to decide which human would be \""more attention grabbing\"" to try to deduce which agent was human, based only on the intervals that each human in the image was looked at with.""}","","survey-text","593","1953493","0.0-593.0","74dn64n2","","","","","","","",""
"3179.0550000001676","","","instructions","594","1956675","0.0-594.0","74dn64n2","[{""page_index"":0,""viewing_time"":3178.815000000177}]","","","","","","",""
"23436.715000000084","{""Experimenter_end"":[""Printed ID# 74dn64n2 on consent form"",""Given subject SONA credit or payment"",""Given the subject debrief form""]}","[0]","survey-multi-select","595","1980115","0.0-595.0","74dn64n2","","","","","","","",""
