"rt","responses","question_order","trial_type","trial_index","time_elapsed","internal_node_id","ID","view_history","stimulus","key_press","value","agent","condition","image","correct_answer"
"80778.68000000001","{""Experimenter"":[""Confirmed subject's identity"",""Confirmed normal or corrected-to-normal vision"",""Obtained consent (signature and date)"",""Checked the test room lighting"",""Checked computer screen lighting"",""Checked distance from screen to chin rest (50cm)"",""Cleaned and adjusted chin rest"",""Counterbalanced the order of the tasks"",""Opened the experiment in Firefox"",""Made the experiment full screen"",""Encouraged subject to silence phone, put away distractors, etc.""]}","[0]","survey-multi-select","0","80787","0.0-0.0","7yd9t1ql","","","","","","","",""
"29309.660000000003","","","instructions","1","110098","0.0-1.0","7yd9t1ql","[{""page_index"":0,""viewing_time"":29309.509999999995}]","","","","","","",""
"18644.020000000004","","","instructions","2","128743","0.0-2.0","7yd9t1ql","[{""page_index"":0,""viewing_time"":9277.930000000008},{""page_index"":1,""viewing_time"":2041.9399999999878},{""page_index"":2,""viewing_time"":7324.029999999999}]","","","","","","",""
"5555.234999999986","","","instructions","3","134299","0.0-3.0","7yd9t1ql","[{""page_index"":0,""viewing_time"":5555.130000000005}]","","","","","","",""
"null","","","video-keyboard-response","4","137375","0.0-4.0","7yd9t1ql","","","null","","","","",""
"16293.330000000016","","","instructions","5","153669","0.0-5.0","7yd9t1ql","[{""page_index"":0,""viewing_time"":4269.305000000022},{""page_index"":1,""viewing_time"":3762.014999999985},{""page_index"":2,""viewing_time"":8261.904999999999}]","","","","","","",""
"5050.734999999986","","","instructions","6","158720","0.0-6.0","7yd9t1ql","[{""page_index"":0,""viewing_time"":5050.625}]","","","","","","",""
"1778.2649999999849","","","instructions","7","160499","0.0-7.0","7yd9t1ql","[{""page_index"":0,""viewing_time"":1778.0499999999884}]","","","","","","",""
"null","","","video-keyboard-response","8","163573","0.0-8.0","7yd9t1ql","","","null","","","","",""
"18379.389999999985","","","instructions","9","181954","0.0-9.0","7yd9t1ql","[{""page_index"":0,""viewing_time"":1629.0799999999872},{""page_index"":1,""viewing_time"":3515.790000000008},{""page_index"":2,""viewing_time"":13233.920000000013}]","","","","","","",""
"57.55500000002212","","","instructions","10","182012","0.0-10.0","7yd9t1ql","[{""page_index"":0,""viewing_time"":57.43000000002212}]","","","","","","",""
"","","","call-function","11","182013","0.0-11.0","7yd9t1ql","","","","","","","",""
"null","","","html-keyboard-response","12","183515","0.0-12.0","7yd9t1ql","","<span style=""color:Black; font-size:50px;"">Agent A","null","","","","",""
"null","","","video-keyboard-response","13","186591","0.0-13.0","7yd9t1ql","","","null","","Agent A","scrambled","STIM_SET_2/713920.bmp_pp76_L1_V1.0_scrambled_freeview_isoTrue.mp4",""
"null","","","html-keyboard-response","14","188096","0.0-14.0","7yd9t1ql","","<span style=""color:Black; font-size:50px;"">Agent B","null","","","","",""
"null","","","video-keyboard-response","15","191171","0.0-15.0","7yd9t1ql","","","null","","Agent B","veridical","STIM_SET_2/713920.bmp_pp76_L1_V1.0_veridical_freeview_isoTrue.mp4",""
"","","","call-function","16","191172","0.0-16.0","7yd9t1ql","","","","","","","",""
"3047.404999999999","{""judgement"":1}","[0]","survey-likert","17","194221","0.0-17.0","7yd9t1ql","","","","","","","","1"
"5944.940000000002","{""confidence"":0}","[0]","survey-likert","18","200167","0.0-18.0","7yd9t1ql","","","","","","","",""
"","","","call-function","19","200168","0.0-19.0","7yd9t1ql","","","","","","","",""
"null","","","html-keyboard-response","20","201672","0.0-20.0","7yd9t1ql","","<span style=""color:Black; font-size:50px;"">Agent A","null","","","","",""
"null","","","video-keyboard-response","21","204740","0.0-21.0","7yd9t1ql","","","null","","Agent A","veridical","STIM_SET_2/285684.bmp_pp80_L3_V1.0_veridical_freeview_isoTrue.mp4",""
"null","","","html-keyboard-response","22","206242","0.0-22.0","7yd9t1ql","","<span style=""color:Black; font-size:50px;"">Agent B","null","","","","",""
"null","","","video-keyboard-response","23","209310","0.0-23.0","7yd9t1ql","","","null","","Agent B","scrambled","STIM_SET_2/285684.bmp_pp80_L3_V1.0_scrambled_freeview_isoTrue.mp4",""
"","","","call-function","24","209311","0.0-24.0","7yd9t1ql","","","","","","","",""
"1538.5599999999977","{""judgement"":0}","[0]","survey-likert","25","210850","0.0-25.0","7yd9t1ql","","","","","","","","0"
"3384.4400000000023","{""confidence"":2}","[0]","survey-likert","26","214236","0.0-26.0","7yd9t1ql","","","","","","","",""
"","","","call-function","27","214236","0.0-27.0","7yd9t1ql","","","","","","","",""
"null","","","html-keyboard-response","28","215742","0.0-28.0","7yd9t1ql","","<span style=""color:Black; font-size:50px;"">Agent A","null","","","","",""
"null","","","video-keyboard-response","29","218844","0.0-29.0","7yd9t1ql","","","null","","Agent A","scrambled","STIM_SET_2/1592047.bmp_pp51_L1_V1.0_scrambled_freeview_isoTrue.mp4",""
"null","","","html-keyboard-response","30","220349","0.0-30.0","7yd9t1ql","","<span style=""color:Black; font-size:50px;"">Agent B","null","","","","",""
"null","","","video-keyboard-response","31","223444","0.0-31.0","7yd9t1ql","","","null","","Agent B","veridical","STIM_SET_2/1592047.bmp_pp51_L1_V1.0_veridical_freeview_isoTrue.mp4",""
"","","","call-function","32","223444","0.0-32.0","7yd9t1ql","","","","","","","",""
"3085.375","{""judgement"":1}","[0]","survey-likert","33","226531","0.0-33.0","7yd9t1ql","","","","","","","","1"
"1559.8099999999977","{""confidence"":0}","[0]","survey-likert","34","228091","0.0-34.0","7yd9t1ql","","","","","","","",""
"","","","call-function","35","228092","0.0-35.0","7yd9t1ql","","","","","","","",""
"null","","","html-keyboard-response","36","229595","0.0-36.0","7yd9t1ql","","<span style=""color:Black; font-size:50px;"">Agent A","null","","","","",""
"null","","","video-keyboard-response","37","232654","0.0-37.0","7yd9t1ql","","","null","","Agent A","veridical","STIM_SET_2/1159860.bmp_pp152_L2_V1.0_veridical_freeview_isoTrue.mp4",""
"null","","","html-keyboard-response","38","234156","0.0-38.0","7yd9t1ql","","<span style=""color:Black; font-size:50px;"">Agent B","null","","","","",""
"null","","","video-keyboard-response","39","237213","0.0-39.0","7yd9t1ql","","","null","","Agent B","scrambled","STIM_SET_2/1159860.bmp_pp152_L2_V1.0_scrambled_freeview_isoTrue.mp4",""
"","","","call-function","40","237214","0.0-40.0","7yd9t1ql","","","","","","","",""
"1719.0199999999895","{""judgement"":0}","[0]","survey-likert","41","238933","0.0-41.0","7yd9t1ql","","","","","","","","0"
"1626.6999999999825","{""confidence"":1}","[0]","survey-likert","42","240561","0.0-42.0","7yd9t1ql","","","","","","","",""
"","","","call-function","43","240562","0.0-43.0","7yd9t1ql","","","","","","","",""
"null","","","html-keyboard-response","44","242064","0.0-44.0","7yd9t1ql","","<span style=""color:Black; font-size:50px;"">Agent A","null","","","","",""
"null","","","video-keyboard-response","45","245169","0.0-45.0","7yd9t1ql","","","null","","Agent A","veridical","STIM_SET_2/498372.bmp_pp95_L2_V1_veridical_freeview_isoTrue.mp4",""
"null","","","html-keyboard-response","46","246675","0.0-46.0","7yd9t1ql","","<span style=""color:Black; font-size:50px;"">Agent B","null","","","","",""
"null","","","video-keyboard-response","47","249757","0.0-47.0","7yd9t1ql","","","null","","Agent B","scrambled","STIM_SET_2/498372.bmp_pp95_L2_V1_scrambled_freeview_isoTrue.mp4",""
"","","","call-function","48","249758","0.0-48.0","7yd9t1ql","","","","","","","",""
"2369.2999999999884","{""judgement"":1}","[0]","survey-likert","49","252128","0.0-49.0","7yd9t1ql","","","","","","","","0"
"1411.7949999999837","{""confidence"":1}","[0]","survey-likert","50","253541","0.0-50.0","7yd9t1ql","","","","","","","",""
"","","","call-function","51","253541","0.0-51.0","7yd9t1ql","","","","","","","",""
"null","","","html-keyboard-response","52","255046","0.0-52.0","7yd9t1ql","","<span style=""color:Black; font-size:50px;"">Agent A","null","","","","",""
"null","","","video-keyboard-response","53","258122","0.0-53.0","7yd9t1ql","","","null","","Agent A","scrambled","STIM_SET_2/498025.bmp_pp81_L1_V1.0_scrambled_freeview_isoTrue.mp4",""
"null","","","html-keyboard-response","54","259626","0.0-54.0","7yd9t1ql","","<span style=""color:Black; font-size:50px;"">Agent B","null","","","","",""
"null","","","video-keyboard-response","55","262719","0.0-55.0","7yd9t1ql","","","null","","Agent B","veridical","STIM_SET_2/498025.bmp_pp81_L1_V1.0_veridical_freeview_isoTrue.mp4",""
"","","","call-function","56","262720","0.0-56.0","7yd9t1ql","","","","","","","",""
"4823.23000000004","{""judgement"":1}","[0]","survey-likert","57","267544","0.0-57.0","7yd9t1ql","","","","","","","","1"
"2759.4250000000466","{""confidence"":1}","[0]","survey-likert","58","270305","0.0-58.0","7yd9t1ql","","","","","","","",""
"","","","call-function","59","270305","0.0-59.0","7yd9t1ql","","","","","","","",""
"null","","","html-keyboard-response","60","271808","0.0-60.0","7yd9t1ql","","<span style=""color:Black; font-size:50px;"">Agent A","null","","","","",""
"null","","","video-keyboard-response","61","274883","0.0-61.0","7yd9t1ql","","","null","","Agent A","veridical","STIM_SET_2/498396.bmp_pp99_L2_V1.0_veridical_freeview_isoTrue.mp4",""
"null","","","html-keyboard-response","62","276385","0.0-62.0","7yd9t1ql","","<span style=""color:Black; font-size:50px;"">Agent B","null","","","","",""
"null","","","video-keyboard-response","63","279460","0.0-63.0","7yd9t1ql","","","null","","Agent B","scrambled","STIM_SET_2/498396.bmp_pp99_L2_V1.0_scrambled_freeview_isoTrue.mp4",""
"","","","call-function","64","279461","0.0-64.0","7yd9t1ql","","","","","","","",""
"1602.0849999999627","{""judgement"":0}","[0]","survey-likert","65","281064","0.0-65.0","7yd9t1ql","","","","","","","","0"
"2790.8250000000116","{""confidence"":1}","[0]","survey-likert","66","283856","0.0-66.0","7yd9t1ql","","","","","","","",""
"","","","call-function","67","283857","0.0-67.0","7yd9t1ql","","","","","","","",""
"null","","","html-keyboard-response","68","285359","0.0-68.0","7yd9t1ql","","<span style=""color:Black; font-size:50px;"">Agent A","null","","","","",""
"null","","","video-keyboard-response","69","288432","0.0-69.0","7yd9t1ql","","","null","","Agent A","veridical","STIM_SET_2/1159508.bmp_pp151_L1_V1.0_veridical_freeview_isoTrue.mp4",""
"null","","","html-keyboard-response","70","289933","0.0-70.0","7yd9t1ql","","<span style=""color:Black; font-size:50px;"">Agent B","null","","","","",""
"null","","","video-keyboard-response","71","293033","0.0-71.0","7yd9t1ql","","","null","","Agent B","scrambled","STIM_SET_2/1159508.bmp_pp151_L1_V1.0_scrambled_freeview_isoTrue.mp4",""
"","","","call-function","72","293033","0.0-72.0","7yd9t1ql","","","","","","","",""
"3100.804999999993","{""judgement"":0}","[0]","survey-likert","73","296135","0.0-73.0","7yd9t1ql","","","","","","","","0"
"1569.0449999999837","{""confidence"":1}","[0]","survey-likert","74","297705","0.0-74.0","7yd9t1ql","","","","","","","",""
"","","","call-function","75","297706","0.0-75.0","7yd9t1ql","","","","","","","",""
"null","","","html-keyboard-response","76","299208","0.0-76.0","7yd9t1ql","","<span style=""color:Black; font-size:50px;"">Agent A","null","","","","",""
"null","","","video-keyboard-response","77","302313","0.0-77.0","7yd9t1ql","","","null","","Agent A","veridical","STIM_SET_2/107955.bmp_pp90_L2_V1.0_veridical_freeview_isoTrue.mp4",""
"null","","","html-keyboard-response","78","303818","0.0-78.0","7yd9t1ql","","<span style=""color:Black; font-size:50px;"">Agent B","null","","","","",""
"null","","","video-keyboard-response","79","306877","0.0-79.0","7yd9t1ql","","","null","","Agent B","scrambled","STIM_SET_2/107955.bmp_pp90_L2_V1.0_scrambled_freeview_isoTrue.mp4",""
"","","","call-function","80","306878","0.0-80.0","7yd9t1ql","","","","","","","",""
"1664.585000000021","{""judgement"":0}","[0]","survey-likert","81","308543","0.0-81.0","7yd9t1ql","","","","","","","","0"
"1989.2200000000303","{""confidence"":2}","[0]","survey-likert","82","310534","0.0-82.0","7yd9t1ql","","","","","","","",""
"","","","call-function","83","310535","0.0-83.0","7yd9t1ql","","","","","","","",""
"null","","","html-keyboard-response","84","312036","0.0-84.0","7yd9t1ql","","<span style=""color:Black; font-size:50px;"">Agent A","null","","","","",""
"null","","","video-keyboard-response","85","315098","0.0-85.0","7yd9t1ql","","","null","","Agent A","scrambled","STIM_SET_2/713328.bmp_pp86_L2_V1.0_scrambled_freeview_isoTrue.mp4",""
"null","","","html-keyboard-response","86","316603","0.0-86.0","7yd9t1ql","","<span style=""color:Black; font-size:50px;"">Agent B","null","","","","",""
"null","","","video-keyboard-response","87","319701","0.0-87.0","7yd9t1ql","","","null","","Agent B","veridical","STIM_SET_2/713328.bmp_pp86_L2_V1.0_veridical_freeview_isoTrue.mp4",""
"","","","call-function","88","319702","0.0-88.0","7yd9t1ql","","","","","","","",""
"2256.0349999999744","{""judgement"":1}","[0]","survey-likert","89","321959","0.0-89.0","7yd9t1ql","","","","","","","","1"
"5092.359999999986","{""confidence"":2}","[0]","survey-likert","90","327053","0.0-90.0","7yd9t1ql","","","","","","","",""
"5331.719999999972","","","instructions","91","332385","0.0-91.0","7yd9t1ql","[{""page_index"":0,""viewing_time"":2491.0999999999767},{""page_index"":1,""viewing_time"":1491.4700000000303},{""page_index"":2,""viewing_time"":1348.9949999999953}]","","","","","","",""
"6012.035000000033","","","instructions","92","338399","0.0-92.0","7yd9t1ql","[{""page_index"":0,""viewing_time"":1334.530000000028},{""page_index"":1,""viewing_time"":2341.5100000000093},{""page_index"":2,""viewing_time"":2335.875}]","","","","","","",""
"","","","call-function","93","338400","0.0-93.0","7yd9t1ql","","","","","","","",""
"null","","","html-keyboard-response","94","339902","0.0-94.0","7yd9t1ql","","<span style=""color:Black; font-size:50px;"">Agent A","null","","","","",""
"null","","","video-keyboard-response","95","342984","0.0-95.0","7yd9t1ql","","","null","","Agent A","scrambled","STIM_SET_2/713770.bmp_pp89_L1_V1.0_scrambled_freeview_isoTrue.mp4",""
"null","","","html-keyboard-response","96","344489","0.0-96.0","7yd9t1ql","","<span style=""color:Black; font-size:50px;"">Agent B","null","","","","",""
"null","","","video-keyboard-response","97","347566","0.0-97.0","7yd9t1ql","","","null","","Agent B","veridical","STIM_SET_2/713770.bmp_pp89_L1_V1.0_veridical_freeview_isoTrue.mp4",""
"","","","call-function","98","347567","0.0-98.0","7yd9t1ql","","","","","","","",""
"4362.929999999993","{""judgement"":0}","[0]","survey-likert","99","351931","0.0-99.0","7yd9t1ql","","","","","","","","1"
"2381.140000000014","{""confidence"":1}","[0]","survey-likert","100","354313","0.0-100.0","7yd9t1ql","","","","","","","",""
"","","","call-function","101","354314","0.0-101.0","7yd9t1ql","","","","","","","",""
"null","","","html-keyboard-response","102","355818","0.0-102.0","7yd9t1ql","","<span style=""color:Black; font-size:50px;"">Agent A","null","","","","",""
"null","","","video-keyboard-response","103","358891","0.0-103.0","7yd9t1ql","","","null","","Agent A","scrambled","STIM_SET_2/1592921.bmp_pp69_L3_V1.0_scrambled_freeview_isoTrue.mp4",""
"null","","","html-keyboard-response","104","360394","0.0-104.0","7yd9t1ql","","<span style=""color:Black; font-size:50px;"">Agent B","null","","","","",""
"null","","","video-keyboard-response","105","363469","0.0-105.0","7yd9t1ql","","","null","","Agent B","veridical","STIM_SET_2/1592921.bmp_pp69_L3_V1.0_veridical_freeview_isoTrue.mp4",""
"","","","call-function","106","363469","0.0-106.0","7yd9t1ql","","","","","","","",""
"2680.5499999999884","{""judgement"":0}","[0]","survey-likert","107","366151","0.0-107.0","7yd9t1ql","","","","","","","","1"
"1643.5050000000047","{""confidence"":2}","[0]","survey-likert","108","367796","0.0-108.0","7yd9t1ql","","","","","","","",""
"","","","call-function","109","367797","0.0-109.0","7yd9t1ql","","","","","","","",""
"null","","","html-keyboard-response","110","369300","0.0-110.0","7yd9t1ql","","<span style=""color:Black; font-size:50px;"">Agent A","null","","","","",""
"null","","","video-keyboard-response","111","372405","0.0-111.0","7yd9t1ql","","","null","","Agent A","scrambled","STIM_SET_2/713788.bmp_pp52_L1_V1.0_scrambled_freeview_isoTrue.mp4",""
"null","","","html-keyboard-response","112","373907","0.0-112.0","7yd9t1ql","","<span style=""color:Black; font-size:50px;"">Agent B","null","","","","",""
"null","","","video-keyboard-response","113","377006","0.0-113.0","7yd9t1ql","","","null","","Agent B","veridical","STIM_SET_2/713788.bmp_pp52_L1_V1.0_veridical_freeview_isoTrue.mp4",""
"","","","call-function","114","377007","0.0-114.0","7yd9t1ql","","","","","","","",""
"2087.4749999999767","{""judgement"":1}","[0]","survey-likert","115","379095","0.0-115.0","7yd9t1ql","","","","","","","","1"
"1708.75","{""confidence"":1}","[0]","survey-likert","116","380805","0.0-116.0","7yd9t1ql","","","","","","","",""
"","","","call-function","117","380806","0.0-117.0","7yd9t1ql","","","","","","","",""
"null","","","html-keyboard-response","118","382310","0.0-118.0","7yd9t1ql","","<span style=""color:Black; font-size:50px;"">Agent A","null","","","","",""
"null","","","video-keyboard-response","119","385413","0.0-119.0","7yd9t1ql","","","null","","Agent A","veridical","STIM_SET_2/150277.bmp_pp65_L3_V1.0_veridical_freeview_isoTrue.mp4",""
"null","","","html-keyboard-response","120","386913","0.0-120.0","7yd9t1ql","","<span style=""color:Black; font-size:50px;"">Agent B","null","","","","",""
"null","","","video-keyboard-response","121","390017","0.0-121.0","7yd9t1ql","","","null","","Agent B","scrambled","STIM_SET_2/150277.bmp_pp65_L3_V1.0_scrambled_freeview_isoTrue.mp4",""
"","","","call-function","122","390018","0.0-122.0","7yd9t1ql","","","","","","","",""
"3301.609999999986","{""judgement"":0}","[0]","survey-likert","123","393321","0.0-123.0","7yd9t1ql","","","","","","","","0"
"1916.2050000000163","{""confidence"":1}","[0]","survey-likert","124","395239","0.0-124.0","7yd9t1ql","","","","","","","",""
"","","","call-function","125","395240","0.0-125.0","7yd9t1ql","","","","","","","",""
"null","","","html-keyboard-response","126","396744","0.0-126.0","7yd9t1ql","","<span style=""color:Black; font-size:50px;"">Agent A","null","","","","",""
"null","","","video-keyboard-response","127","399802","0.0-127.0","7yd9t1ql","","","null","","Agent A","veridical","STIM_SET_2/1159325.bmp_pp67_L2_V1.0_veridical_freeview_isoTrue.mp4",""
"null","","","html-keyboard-response","128","401308","0.0-128.0","7yd9t1ql","","<span style=""color:Black; font-size:50px;"">Agent B","null","","","","",""
"null","","","video-keyboard-response","129","404369","0.0-129.0","7yd9t1ql","","","null","","Agent B","scrambled","STIM_SET_2/1159325.bmp_pp67_L2_V1.0_scrambled_freeview_isoTrue.mp4",""
"","","","call-function","130","404370","0.0-130.0","7yd9t1ql","","","","","","","",""
"2029.0100000000093","{""judgement"":0}","[0]","survey-likert","131","406400","0.0-131.0","7yd9t1ql","","","","","","","","0"
"2147.3800000000047","{""confidence"":3}","[0]","survey-likert","132","408549","0.0-132.0","7yd9t1ql","","","","","","","",""
"","","","call-function","133","408550","0.0-133.0","7yd9t1ql","","","","","","","",""
"null","","","html-keyboard-response","134","410056","0.0-134.0","7yd9t1ql","","<span style=""color:Black; font-size:50px;"">Agent A","null","","","","",""
"null","","","video-keyboard-response","135","413125","0.0-135.0","7yd9t1ql","","","null","","Agent A","veridical","STIM_SET_2/713652.bmp_pp89_L1_V1_veridical_freeview_isoTrue.mp4",""
"null","","","html-keyboard-response","136","414628","0.0-136.0","7yd9t1ql","","<span style=""color:Black; font-size:50px;"">Agent B","null","","","","",""
"null","","","video-keyboard-response","137","417697","0.0-137.0","7yd9t1ql","","","null","","Agent B","scrambled","STIM_SET_2/713652.bmp_pp89_L1_V1_scrambled_freeview_isoTrue.mp4",""
"","","","call-function","138","417697","0.0-138.0","7yd9t1ql","","","","","","","",""
"2465.0200000000186","{""judgement"":0}","[0]","survey-likert","139","420163","0.0-139.0","7yd9t1ql","","","","","","","","0"
"2838.9500000000116","{""confidence"":2}","[0]","survey-likert","140","423003","0.0-140.0","7yd9t1ql","","","","","","","",""
"","","","call-function","141","423004","0.0-141.0","7yd9t1ql","","","","","","","",""
"null","","","html-keyboard-response","142","424509","0.0-142.0","7yd9t1ql","","<span style=""color:Black; font-size:50px;"">Agent A","null","","","","",""
"null","","","video-keyboard-response","143","427609","0.0-143.0","7yd9t1ql","","","null","","Agent A","veridical","STIM_SET_2/1591975.bmp_pp88_L2_V1.0_veridical_freeview_isoTrue.mp4",""
"null","","","html-keyboard-response","144","429113","0.0-144.0","7yd9t1ql","","<span style=""color:Black; font-size:50px;"">Agent B","null","","","","",""
"null","","","video-keyboard-response","145","432210","0.0-145.0","7yd9t1ql","","","null","","Agent B","scrambled","STIM_SET_2/1591975.bmp_pp88_L2_V1.0_scrambled_freeview_isoTrue.mp4",""
"","","","call-function","146","432210","0.0-146.0","7yd9t1ql","","","","","","","",""
"2202.5650000000023","{""judgement"":1}","[0]","survey-likert","147","434414","0.0-147.0","7yd9t1ql","","","","","","","","0"
"2309.5","{""confidence"":1}","[0]","survey-likert","148","436724","0.0-148.0","7yd9t1ql","","","","","","","",""
"","","","call-function","149","436725","0.0-149.0","7yd9t1ql","","","","","","","",""
"null","","","html-keyboard-response","150","438228","0.0-150.0","7yd9t1ql","","<span style=""color:Black; font-size:50px;"">Agent A","null","","","","",""
"null","","","video-keyboard-response","151","441324","0.0-151.0","7yd9t1ql","","","null","","Agent A","scrambled","STIM_SET_2/713689.bmp_pp153_L3_V1.0_scrambled_freeview_isoTrue.mp4",""
"null","","","html-keyboard-response","152","442828","0.0-152.0","7yd9t1ql","","<span style=""color:Black; font-size:50px;"">Agent B","null","","","","",""
"null","","","video-keyboard-response","153","445928","0.0-153.0","7yd9t1ql","","","null","","Agent B","veridical","STIM_SET_2/713689.bmp_pp153_L3_V1.0_veridical_freeview_isoTrue.mp4",""
"","","","call-function","154","445929","0.0-154.0","7yd9t1ql","","","","","","","",""
"1514.6350000000093","{""judgement"":1}","[0]","survey-likert","155","447444","0.0-155.0","7yd9t1ql","","","","","","","","1"
"1860.5400000000373","{""confidence"":2}","[0]","survey-likert","156","449306","0.0-156.0","7yd9t1ql","","","","","","","",""
"","","","call-function","157","449307","0.0-157.0","7yd9t1ql","","","","","","","",""
"null","","","html-keyboard-response","158","450811","0.0-158.0","7yd9t1ql","","<span style=""color:Black; font-size:50px;"">Agent A","null","","","","",""
"null","","","video-keyboard-response","159","453907","0.0-159.0","7yd9t1ql","","","null","","Agent A","scrambled","STIM_SET_2/1592201.bmp_pp97_L3_V1.0_scrambled_freeview_isoTrue.mp4",""
"null","","","html-keyboard-response","160","455408","0.0-160.0","7yd9t1ql","","<span style=""color:Black; font-size:50px;"">Agent B","null","","","","",""
"null","","","video-keyboard-response","161","458506","0.0-161.0","7yd9t1ql","","","null","","Agent B","veridical","STIM_SET_2/1592201.bmp_pp97_L3_V1.0_veridical_freeview_isoTrue.mp4",""
"","","","call-function","162","458506","0.0-162.0","7yd9t1ql","","","","","","","",""
"2595.75","{""judgement"":0}","[0]","survey-likert","163","461103","0.0-163.0","7yd9t1ql","","","","","","","","1"
"1830.0050000000047","{""confidence"":2}","[0]","survey-likert","164","462934","0.0-164.0","7yd9t1ql","","","","","","","",""
"","","","call-function","165","462935","0.0-165.0","7yd9t1ql","","","","","","","",""
"null","","","html-keyboard-response","166","464437","0.0-166.0","7yd9t1ql","","<span style=""color:Black; font-size:50px;"">Agent A","null","","","","",""
"null","","","video-keyboard-response","167","467519","0.0-167.0","7yd9t1ql","","","null","","Agent A","veridical","STIM_SET_2/1592168.bmp_pp71_L1_V1.0_veridical_freeview_isoTrue.mp4",""
"null","","","html-keyboard-response","168","469025","0.0-168.0","7yd9t1ql","","<span style=""color:Black; font-size:50px;"">Agent B","null","","","","",""
"null","","","video-keyboard-response","169","472103","0.0-169.0","7yd9t1ql","","","null","","Agent B","scrambled","STIM_SET_2/1592168.bmp_pp71_L1_V1.0_scrambled_freeview_isoTrue.mp4",""
"","","","call-function","170","472104","0.0-170.0","7yd9t1ql","","","","","","","",""
"1557.8349999999627","{""judgement"":1}","[0]","survey-likert","171","473664","0.0-171.0","7yd9t1ql","","","","","","","","0"
"2148.405000000028","{""confidence"":1}","[0]","survey-likert","172","475814","0.0-172.0","7yd9t1ql","","","","","","","",""
"7760.530000000028","","","instructions","173","483576","0.0-173.0","7yd9t1ql","[{""page_index"":0,""viewing_time"":4142.180000000051},{""page_index"":1,""viewing_time"":1916.1449999999604},{""page_index"":2,""viewing_time"":1702.0499999999884}]","","","","","","",""
"3555.2000000000116","","","instructions","174","487131","0.0-174.0","7yd9t1ql","[{""page_index"":0,""viewing_time"":996.5199999999604},{""page_index"":1,""viewing_time"":1967.7449999999953},{""page_index"":2,""viewing_time"":590.8250000000116}]","","","","","","",""
"","","","call-function","175","487132","0.0-175.0","7yd9t1ql","","","","","","","",""
"null","","","html-keyboard-response","176","488633","0.0-176.0","7yd9t1ql","","<span style=""color:Black; font-size:50px;"">Agent A","null","","","","",""
"null","","","video-keyboard-response","177","491705","0.0-177.0","7yd9t1ql","","","null","","Agent A","veridical","STIM_SET_2/498258.bmp_pp51_L1_V1.0_veridical_freeview_isoTrue.mp4",""
"null","","","html-keyboard-response","178","493211","0.0-178.0","7yd9t1ql","","<span style=""color:Black; font-size:50px;"">Agent B","null","","","","",""
"null","","","video-keyboard-response","179","496284","0.0-179.0","7yd9t1ql","","","null","","Agent B","scrambled","STIM_SET_2/498258.bmp_pp51_L1_V1.0_scrambled_freeview_isoTrue.mp4",""
"","","","call-function","180","496284","0.0-180.0","7yd9t1ql","","","","","","","",""
"1870.75","{""judgement"":0}","[0]","survey-likert","181","498156","0.0-181.0","7yd9t1ql","","","","","","","","0"
"1653.4899999999907","{""confidence"":3}","[0]","survey-likert","182","499812","0.0-182.0","7yd9t1ql","","","","","","","",""
"","","","call-function","183","499812","0.0-183.0","7yd9t1ql","","","","","","","",""
"null","","","html-keyboard-response","184","501317","0.0-184.0","7yd9t1ql","","<span style=""color:Black; font-size:50px;"">Agent A","null","","","","",""
"null","","","video-keyboard-response","185","504385","0.0-185.0","7yd9t1ql","","","null","","Agent A","scrambled","STIM_SET_2/285715.bmp_pp67_L2_V1.0_scrambled_freeview_isoTrue.mp4",""
"null","","","html-keyboard-response","186","505889","0.0-186.0","7yd9t1ql","","<span style=""color:Black; font-size:50px;"">Agent B","null","","","","",""
"null","","","video-keyboard-response","187","508970","0.0-187.0","7yd9t1ql","","","null","","Agent B","veridical","STIM_SET_2/285715.bmp_pp67_L2_V1.0_veridical_freeview_isoTrue.mp4",""
"","","","call-function","188","508970","0.0-188.0","7yd9t1ql","","","","","","","",""
"1635.280000000028","{""judgement"":1}","[0]","survey-likert","189","510606","0.0-189.0","7yd9t1ql","","","","","","","","1"
"1081.0750000000116","{""confidence"":2}","[0]","survey-likert","190","511689","0.0-190.0","7yd9t1ql","","","","","","","",""
"","","","call-function","191","511689","0.0-191.0","7yd9t1ql","","","","","","","",""
"null","","","html-keyboard-response","192","513195","0.0-192.0","7yd9t1ql","","<span style=""color:Black; font-size:50px;"">Agent A","null","","","","",""
"null","","","video-keyboard-response","193","516285","0.0-193.0","7yd9t1ql","","","null","","Agent A","scrambled","STIM_SET_2/285932.bmp_pp64_L1_V1.0_scrambled_freeview_isoTrue.mp4",""
"null","","","html-keyboard-response","194","517788","0.0-194.0","7yd9t1ql","","<span style=""color:Black; font-size:50px;"">Agent B","null","","","","",""
"null","","","video-keyboard-response","195","520879","0.0-195.0","7yd9t1ql","","","null","","Agent B","veridical","STIM_SET_2/285932.bmp_pp64_L1_V1.0_veridical_freeview_isoTrue.mp4",""
"","","","call-function","196","520880","0.0-196.0","7yd9t1ql","","","","","","","",""
"1595.125","{""judgement"":0}","[0]","survey-likert","197","522476","0.0-197.0","7yd9t1ql","","","","","","","","1"
"2234.2449999999953","{""confidence"":1}","[0]","survey-likert","198","524711","0.0-198.0","7yd9t1ql","","","","","","","",""
"","","","call-function","199","524712","0.0-199.0","7yd9t1ql","","","","","","","",""
"null","","","html-keyboard-response","200","526213","0.0-200.0","7yd9t1ql","","<span style=""color:Black; font-size:50px;"">Agent A","null","","","","",""
"null","","","video-keyboard-response","201","529316","0.0-201.0","7yd9t1ql","","","null","","Agent A","scrambled","STIM_SET_2/1159874.bmp_pp96_L2_V1.0_scrambled_freeview_isoTrue.mp4",""
"null","","","html-keyboard-response","202","530822","0.0-202.0","7yd9t1ql","","<span style=""color:Black; font-size:50px;"">Agent B","null","","","","",""
"null","","","video-keyboard-response","203","533922","0.0-203.0","7yd9t1ql","","","null","","Agent B","veridical","STIM_SET_2/1159874.bmp_pp96_L2_V1.0_veridical_freeview_isoTrue.mp4",""
"","","","call-function","204","533923","0.0-204.0","7yd9t1ql","","","","","","","",""
"2213.305000000051","{""judgement"":1}","[0]","survey-likert","205","536138","0.0-205.0","7yd9t1ql","","","","","","","","1"
"1714.6450000000186","{""confidence"":2}","[0]","survey-likert","206","537854","0.0-206.0","7yd9t1ql","","","","","","","",""
"","","","call-function","207","537855","0.0-207.0","7yd9t1ql","","","","","","","",""
"null","","","html-keyboard-response","208","539358","0.0-208.0","7yd9t1ql","","<span style=""color:Black; font-size:50px;"">Agent A","null","","","","",""
"null","","","video-keyboard-response","209","542423","0.0-209.0","7yd9t1ql","","","null","","Agent A","veridical","STIM_SET_2/1592951.bmp_pp80_L3_V1.0_veridical_freeview_isoTrue.mp4",""
"null","","","html-keyboard-response","210","543924","0.0-210.0","7yd9t1ql","","<span style=""color:Black; font-size:50px;"">Agent B","null","","","","",""
"null","","","video-keyboard-response","211","546990","0.0-211.0","7yd9t1ql","","","null","","Agent B","scrambled","STIM_SET_2/1592951.bmp_pp80_L3_V1.0_scrambled_freeview_isoTrue.mp4",""
"","","","call-function","212","546991","0.0-212.0","7yd9t1ql","","","","","","","",""
"1547.9299999999348","{""judgement"":0}","[0]","survey-likert","213","548540","0.0-213.0","7yd9t1ql","","","","","","","","0"
"3012.6049999999814","{""confidence"":1}","[0]","survey-likert","214","551554","0.0-214.0","7yd9t1ql","","","","","","","",""
"","","","call-function","215","551554","0.0-215.0","7yd9t1ql","","","","","","","",""
"null","","","html-keyboard-response","216","553056","0.0-216.0","7yd9t1ql","","<span style=""color:Black; font-size:50px;"">Agent A","null","","","","",""
"null","","","video-keyboard-response","217","556127","0.0-217.0","7yd9t1ql","","","null","","Agent A","veridical","STIM_SET_2/498326.bmp_pp57_L1_V1.0_veridical_freeview_isoTrue.mp4",""
"null","","","html-keyboard-response","218","557631","0.0-218.0","7yd9t1ql","","<span style=""color:Black; font-size:50px;"">Agent B","null","","","","",""
"null","","","video-keyboard-response","219","560699","0.0-219.0","7yd9t1ql","","","null","","Agent B","scrambled","STIM_SET_2/498326.bmp_pp57_L1_V1.0_scrambled_freeview_isoTrue.mp4",""
"","","","call-function","220","560699","0.0-220.0","7yd9t1ql","","","","","","","",""
"1830.329999999958","{""judgement"":0}","[0]","survey-likert","221","562530","0.0-221.0","7yd9t1ql","","","","","","","","0"
"1740.2299999999814","{""confidence"":1}","[0]","survey-likert","222","564272","0.0-222.0","7yd9t1ql","","","","","","","",""
"","","","call-function","223","564272","0.0-223.0","7yd9t1ql","","","","","","","",""
"null","","","html-keyboard-response","224","565777","0.0-224.0","7yd9t1ql","","<span style=""color:Black; font-size:50px;"">Agent A","null","","","","",""
"null","","","video-keyboard-response","225","568876","0.0-225.0","7yd9t1ql","","","null","","Agent A","scrambled","STIM_SET_2/1592044.bmp_pp94_L2_V1.0_scrambled_freeview_isoTrue.mp4",""
"null","","","html-keyboard-response","226","570380","0.0-226.0","7yd9t1ql","","<span style=""color:Black; font-size:50px;"">Agent B","null","","","","",""
"null","","","video-keyboard-response","227","573477","0.0-227.0","7yd9t1ql","","","null","","Agent B","veridical","STIM_SET_2/1592044.bmp_pp94_L2_V1.0_veridical_freeview_isoTrue.mp4",""
"","","","call-function","228","573478","0.0-228.0","7yd9t1ql","","","","","","","",""
"2712.655000000028","{""judgement"":1}","[0]","survey-likert","229","576191","0.0-229.0","7yd9t1ql","","","","","","","","1"
"1601.2150000000838","{""confidence"":1}","[0]","survey-likert","230","577794","0.0-230.0","7yd9t1ql","","","","","","","",""
"","","","call-function","231","577794","0.0-231.0","7yd9t1ql","","","","","","","",""
"null","","","html-keyboard-response","232","579299","0.0-232.0","7yd9t1ql","","<span style=""color:Black; font-size:50px;"">Agent A","null","","","","",""
"null","","","video-keyboard-response","233","582404","0.0-233.0","7yd9t1ql","","","null","","Agent A","veridical","STIM_SET_2/713633.bmp_pp58_L1_V1.0_veridical_freeview_isoTrue.mp4",""
"null","","","html-keyboard-response","234","583908","0.0-234.0","7yd9t1ql","","<span style=""color:Black; font-size:50px;"">Agent B","null","","","","",""
"null","","","video-keyboard-response","235","587009","0.0-235.0","7yd9t1ql","","","null","","Agent B","scrambled","STIM_SET_2/713633.bmp_pp58_L1_V1.0_scrambled_freeview_isoTrue.mp4",""
"","","","call-function","236","587009","0.0-236.0","7yd9t1ql","","","","","","","",""
"2163.515000000014","{""judgement"":0}","[0]","survey-likert","237","589173","0.0-237.0","7yd9t1ql","","","","","","","","0"
"1199.454999999958","{""confidence"":2}","[0]","survey-likert","238","590374","0.0-238.0","7yd9t1ql","","","","","","","",""
"","","","call-function","239","590375","0.0-239.0","7yd9t1ql","","","","","","","",""
"null","","","html-keyboard-response","240","591881","0.0-240.0","7yd9t1ql","","<span style=""color:Black; font-size:50px;"">Agent A","null","","","","",""
"null","","","video-keyboard-response","241","594946","0.0-241.0","7yd9t1ql","","","null","","Agent A","veridical","STIM_SET_2/61513.bmp_pp75_L1_V1.0_veridical_freeview_isoTrue.mp4",""
"null","","","html-keyboard-response","242","596451","0.0-242.0","7yd9t1ql","","<span style=""color:Black; font-size:50px;"">Agent B","null","","","","",""
"null","","","video-keyboard-response","243","599528","0.0-243.0","7yd9t1ql","","","null","","Agent B","scrambled","STIM_SET_2/61513.bmp_pp75_L1_V1.0_scrambled_freeview_isoTrue.mp4",""
"","","","call-function","244","599530","0.0-244.0","7yd9t1ql","","","","","","","",""
"2136.9749999999767","{""judgement"":0}","[0]","survey-likert","245","601668","0.0-245.0","7yd9t1ql","","","","","","","","0"
"2275.9400000000605","{""confidence"":0}","[0]","survey-likert","246","603946","0.0-246.0","7yd9t1ql","","","","","","","",""
"","","","call-function","247","603947","0.0-247.0","7yd9t1ql","","","","","","","",""
"null","","","html-keyboard-response","248","605449","0.0-248.0","7yd9t1ql","","<span style=""color:Black; font-size:50px;"">Agent A","null","","","","",""
"null","","","video-keyboard-response","249","608517","0.0-249.0","7yd9t1ql","","","null","","Agent A","scrambled","STIM_SET_2/1591920.bmp_pp97_L3_V1_scrambled_freeview_isoTrue.mp4",""
"null","","","html-keyboard-response","250","610023","0.0-250.0","7yd9t1ql","","<span style=""color:Black; font-size:50px;"">Agent B","null","","","","",""
"null","","","video-keyboard-response","251","613096","0.0-251.0","7yd9t1ql","","","null","","Agent B","veridical","STIM_SET_2/1591920.bmp_pp97_L3_V1_veridical_freeview_isoTrue.mp4",""
"","","","call-function","252","613096","0.0-252.0","7yd9t1ql","","","","","","","",""
"1646.3499999999767","{""judgement"":1}","[0]","survey-likert","253","614744","0.0-253.0","7yd9t1ql","","","","","","","","1"
"1137.0400000000373","{""confidence"":2}","[0]","survey-likert","254","615882","0.0-254.0","7yd9t1ql","","","","","","","",""
"153063.47999999998","","","instructions","255","768947","0.0-255.0","7yd9t1ql","[{""page_index"":0,""viewing_time"":3789.25},{""page_index"":1,""viewing_time"":147952.8949999999},{""page_index"":2,""viewing_time"":1321.1800000000512}]","","","","","","",""
"5071.784999999916","","","instructions","256","774019","0.0-256.0","7yd9t1ql","[{""page_index"":0,""viewing_time"":1436.6599999999162},{""page_index"":1,""viewing_time"":2018.4500000000698},{""page_index"":2,""viewing_time"":1616.5649999999441}]","","","","","","",""
"","","","call-function","257","774020","0.0-257.0","7yd9t1ql","","","","","","","",""
"null","","","html-keyboard-response","258","775521","0.0-258.0","7yd9t1ql","","<span style=""color:Black; font-size:50px;"">Agent A","null","","","","",""
"null","","","video-keyboard-response","259","778587","0.0-259.0","7yd9t1ql","","","null","","Agent A","scrambled","STIM_SET_2/1592314.bmp_pp100_L3_V1.0_scrambled_freeview_isoTrue.mp4",""
"null","","","html-keyboard-response","260","780088","0.0-260.0","7yd9t1ql","","<span style=""color:Black; font-size:50px;"">Agent B","null","","","","",""
"null","","","video-keyboard-response","261","783156","0.0-261.0","7yd9t1ql","","","null","","Agent B","veridical","STIM_SET_2/1592314.bmp_pp100_L3_V1.0_veridical_freeview_isoTrue.mp4",""
"","","","call-function","262","783157","0.0-262.0","7yd9t1ql","","","","","","","",""
"2926.5100000000093","{""judgement"":1}","[0]","survey-likert","263","786084","0.0-263.0","7yd9t1ql","","","","","","","","1"
"1008.640000000014","{""confidence"":2}","[0]","survey-likert","264","787094","0.0-264.0","7yd9t1ql","","","","","","","",""
"","","","call-function","265","787095","0.0-265.0","7yd9t1ql","","","","","","","",""
"null","","","html-keyboard-response","266","788601","0.0-266.0","7yd9t1ql","","<span style=""color:Black; font-size:50px;"">Agent A","null","","","","",""
"null","","","video-keyboard-response","267","791671","0.0-267.0","7yd9t1ql","","","null","","Agent A","scrambled","STIM_SET_2/1592017.bmp_pp154_L1_V1.0_scrambled_freeview_isoTrue.mp4",""
"null","","","html-keyboard-response","268","793172","0.0-268.0","7yd9t1ql","","<span style=""color:Black; font-size:50px;"">Agent B","null","","","","",""
"null","","","video-keyboard-response","269","796240","0.0-269.0","7yd9t1ql","","","null","","Agent B","veridical","STIM_SET_2/1592017.bmp_pp154_L1_V1.0_veridical_freeview_isoTrue.mp4",""
"","","","call-function","270","796240","0.0-270.0","7yd9t1ql","","","","","","","",""
"2420.5950000000885","{""judgement"":1}","[0]","survey-likert","271","798663","0.0-271.0","7yd9t1ql","","","","","","","","1"
"1721.3099999999395","{""confidence"":3}","[0]","survey-likert","272","800386","0.0-272.0","7yd9t1ql","","","","","","","",""
"","","","call-function","273","800387","0.0-273.0","7yd9t1ql","","","","","","","",""
"null","","","html-keyboard-response","274","801891","0.0-274.0","7yd9t1ql","","<span style=""color:Black; font-size:50px;"">Agent A","null","","","","",""
"null","","","video-keyboard-response","275","804963","0.0-275.0","7yd9t1ql","","","null","","Agent A","scrambled","STIM_SET_2/1159329.bmp_pp61_L2_V1.0_scrambled_freeview_isoTrue.mp4",""
"null","","","html-keyboard-response","276","806469","0.0-276.0","7yd9t1ql","","<span style=""color:Black; font-size:50px;"">Agent B","null","","","","",""
"null","","","video-keyboard-response","277","809545","0.0-277.0","7yd9t1ql","","","null","","Agent B","veridical","STIM_SET_2/1159329.bmp_pp61_L2_V1.0_veridical_freeview_isoTrue.mp4",""
"","","","call-function","278","809546","0.0-278.0","7yd9t1ql","","","","","","","",""
"2099.32500000007","{""judgement"":0}","[0]","survey-likert","279","811646","0.0-279.0","7yd9t1ql","","","","","","","","1"
"2413.04999999993","{""confidence"":0}","[0]","survey-likert","280","814061","0.0-280.0","7yd9t1ql","","","","","","","",""
"","","","call-function","281","814061","0.0-281.0","7yd9t1ql","","","","","","","",""
"null","","","html-keyboard-response","282","815565","0.0-282.0","7yd9t1ql","","<span style=""color:Black; font-size:50px;"">Agent A","null","","","","",""
"null","","","video-keyboard-response","283","818628","0.0-283.0","7yd9t1ql","","","null","","Agent A","veridical","STIM_SET_2/498398.bmp_pp81_L1_V1.0_veridical_freeview_isoTrue.mp4",""
"null","","","html-keyboard-response","284","820133","0.0-284.0","7yd9t1ql","","<span style=""color:Black; font-size:50px;"">Agent B","null","","","","",""
"null","","","video-keyboard-response","285","823196","0.0-285.0","7yd9t1ql","","","null","","Agent B","scrambled","STIM_SET_2/498398.bmp_pp81_L1_V1.0_scrambled_freeview_isoTrue.mp4",""
"","","","call-function","286","823197","0.0-286.0","7yd9t1ql","","","","","","","",""
"1382.5100000000093","{""judgement"":1}","[0]","survey-likert","287","824580","0.0-287.0","7yd9t1ql","","","","","","","","0"
"1917.25","{""confidence"":0}","[0]","survey-likert","288","826499","0.0-288.0","7yd9t1ql","","","","","","","",""
"","","","call-function","289","826499","0.0-289.0","7yd9t1ql","","","","","","","",""
"null","","","html-keyboard-response","290","828003","0.0-290.0","7yd9t1ql","","<span style=""color:Black; font-size:50px;"">Agent A","null","","","","",""
"null","","","video-keyboard-response","291","831111","0.0-291.0","7yd9t1ql","","","null","","Agent A","veridical","STIM_SET_2/285959.bmp_pp93_L1_V1.0_veridical_freeview_isoTrue.mp4",""
"null","","","html-keyboard-response","292","832613","0.0-292.0","7yd9t1ql","","<span style=""color:Black; font-size:50px;"">Agent B","null","","","","",""
"null","","","video-keyboard-response","293","835716","0.0-293.0","7yd9t1ql","","","null","","Agent B","scrambled","STIM_SET_2/285959.bmp_pp93_L1_V1.0_scrambled_freeview_isoTrue.mp4",""
"","","","call-function","294","835716","0.0-294.0","7yd9t1ql","","","","","","","",""
"2069.9250000000466","{""judgement"":0}","[0]","survey-likert","295","837788","0.0-295.0","7yd9t1ql","","","","","","","","0"
"990.0799999999581","{""confidence"":1}","[0]","survey-likert","296","838779","0.0-296.0","7yd9t1ql","","","","","","","",""
"","","","call-function","297","838780","0.0-297.0","7yd9t1ql","","","","","","","",""
"null","","","html-keyboard-response","298","840284","0.0-298.0","7yd9t1ql","","<span style=""color:Black; font-size:50px;"">Agent A","null","","","","",""
"null","","","video-keyboard-response","299","843376","0.0-299.0","7yd9t1ql","","","null","","Agent A","scrambled","STIM_SET_2/1592038.bmp_pp79_L2_V1.0_scrambled_freeview_isoTrue.mp4",""
"null","","","html-keyboard-response","300","844879","0.0-300.0","7yd9t1ql","","<span style=""color:Black; font-size:50px;"">Agent B","null","","","","",""
"null","","","video-keyboard-response","301","847978","0.0-301.0","7yd9t1ql","","","null","","Agent B","veridical","STIM_SET_2/1592038.bmp_pp79_L2_V1.0_veridical_freeview_isoTrue.mp4",""
"","","","call-function","302","847979","0.0-302.0","7yd9t1ql","","","","","","","",""
"1249.3249999999534","{""judgement"":0}","[0]","survey-likert","303","849229","0.0-303.0","7yd9t1ql","","","","","","","","1"
"1921.905000000028","{""confidence"":2}","[0]","survey-likert","304","851152","0.0-304.0","7yd9t1ql","","","","","","","",""
"","","","call-function","305","851153","0.0-305.0","7yd9t1ql","","","","","","","",""
"null","","","html-keyboard-response","306","852654","0.0-306.0","7yd9t1ql","","<span style=""color:Black; font-size:50px;"">Agent A","null","","","","",""
"null","","","video-keyboard-response","307","855758","0.0-307.0","7yd9t1ql","","","null","","Agent A","scrambled","STIM_SET_2/713858.bmp_pp57_L1_V1.0_scrambled_freeview_isoTrue.mp4",""
"null","","","html-keyboard-response","308","857259","0.0-308.0","7yd9t1ql","","<span style=""color:Black; font-size:50px;"">Agent B","null","","","","",""
"null","","","video-keyboard-response","309","860364","0.0-309.0","7yd9t1ql","","","null","","Agent B","veridical","STIM_SET_2/713858.bmp_pp57_L1_V1.0_veridical_freeview_isoTrue.mp4",""
"","","","call-function","310","860365","0.0-310.0","7yd9t1ql","","","","","","","",""
"1628.655000000028","{""judgement"":0}","[0]","survey-likert","311","861994","0.0-311.0","7yd9t1ql","","","","","","","","1"
"981.5999999999767","{""confidence"":1}","[0]","survey-likert","312","862977","0.0-312.0","7yd9t1ql","","","","","","","",""
"","","","call-function","313","862978","0.0-313.0","7yd9t1ql","","","","","","","",""
"null","","","html-keyboard-response","314","864480","0.0-314.0","7yd9t1ql","","<span style=""color:Black; font-size:50px;"">Agent A","null","","","","",""
"null","","","video-keyboard-response","315","867638","0.0-315.0","7yd9t1ql","","","null","","Agent A","veridical","STIM_SET_2/1592298.bmp_pp56_L3_V1.0_veridical_freeview_isoTrue.mp4",""
"null","","","html-keyboard-response","316","869141","0.0-316.0","7yd9t1ql","","<span style=""color:Black; font-size:50px;"">Agent B","null","","","","",""
"null","","","video-keyboard-response","317","872211","0.0-317.0","7yd9t1ql","","","null","","Agent B","scrambled","STIM_SET_2/1592298.bmp_pp56_L3_V1.0_scrambled_freeview_isoTrue.mp4",""
"","","","call-function","318","872212","0.0-318.0","7yd9t1ql","","","","","","","",""
"2269.92499999993","{""judgement"":1}","[0]","survey-likert","319","874482","0.0-319.0","7yd9t1ql","","","","","","","","0"
"3153.530000000028","{""confidence"":2}","[0]","survey-likert","320","877637","0.0-320.0","7yd9t1ql","","","","","","","",""
"","","","call-function","321","877638","0.0-321.0","7yd9t1ql","","","","","","","",""
"null","","","html-keyboard-response","322","879143","0.0-322.0","7yd9t1ql","","<span style=""color:Black; font-size:50px;"">Agent A","null","","","","",""
"null","","","video-keyboard-response","323","882230","0.0-323.0","7yd9t1ql","","","null","","Agent A","veridical","STIM_SET_2/1160189.bmp_pp64_L1_V1.0_veridical_freeview_isoTrue.mp4",""
"null","","","html-keyboard-response","324","883736","0.0-324.0","7yd9t1ql","","<span style=""color:Black; font-size:50px;"">Agent B","null","","","","",""
"null","","","video-keyboard-response","325","886811","0.0-325.0","7yd9t1ql","","","null","","Agent B","scrambled","STIM_SET_2/1160189.bmp_pp64_L1_V1.0_scrambled_freeview_isoTrue.mp4",""
"","","","call-function","326","886813","0.0-326.0","7yd9t1ql","","","","","","","",""
"2107.695000000065","{""judgement"":0}","[0]","survey-likert","327","888922","0.0-327.0","7yd9t1ql","","","","","","","","0"
"1327.1050000000978","{""confidence"":3}","[0]","survey-likert","328","890251","0.0-328.0","7yd9t1ql","","","","","","","",""
"","","","call-function","329","890251","0.0-329.0","7yd9t1ql","","","","","","","",""
"null","","","html-keyboard-response","330","891753","0.0-330.0","7yd9t1ql","","<span style=""color:Black; font-size:50px;"">Agent A","null","","","","",""
"null","","","video-keyboard-response","331","894833","0.0-331.0","7yd9t1ql","","","null","","Agent A","veridical","STIM_SET_2/1592568.bmp_pp71_L1_V1.0_veridical_freeview_isoTrue.mp4",""
"null","","","html-keyboard-response","332","896340","0.0-332.0","7yd9t1ql","","<span style=""color:Black; font-size:50px;"">Agent B","null","","","","",""
"null","","","video-keyboard-response","333","899418","0.0-333.0","7yd9t1ql","","","null","","Agent B","scrambled","STIM_SET_2/1592568.bmp_pp71_L1_V1.0_scrambled_freeview_isoTrue.mp4",""
"","","","call-function","334","899419","0.0-334.0","7yd9t1ql","","","","","","","",""
"1844.7399999999907","{""judgement"":0}","[0]","survey-likert","335","901264","0.0-335.0","7yd9t1ql","","","","","","","","0"
"1459.5700000000652","{""confidence"":1}","[0]","survey-likert","336","902726","0.0-336.0","7yd9t1ql","","","","","","","",""
"3770.1149999999907","","","instructions","337","906496","0.0-337.0","7yd9t1ql","[{""page_index"":0,""viewing_time"":2332.1900000000605},{""page_index"":1,""viewing_time"":1093.8049999999348},{""page_index"":2,""viewing_time"":343.9700000000885}]","","","","","","",""
"2344.5999999999767","","","instructions","338","908842","0.0-338.0","7yd9t1ql","[{""page_index"":0,""viewing_time"":364.4899999999907},{""page_index"":1,""viewing_time"":1541.9550000000745},{""page_index"":2,""viewing_time"":438.04999999993015}]","","","","","","",""
"","","","call-function","339","908842","0.0-339.0","7yd9t1ql","","","","","","","",""
"null","","","html-keyboard-response","340","910346","0.0-340.0","7yd9t1ql","","<span style=""color:Black; font-size:50px;"">Agent A","null","","","","",""
"null","","","video-keyboard-response","341","913414","0.0-341.0","7yd9t1ql","","","null","","Agent A","veridical","STIM_SET_2/1592150.bmp_pp77_L3_V1.0_veridical_freeview_isoTrue.mp4",""
"null","","","html-keyboard-response","342","914919","0.0-342.0","7yd9t1ql","","<span style=""color:Black; font-size:50px;"">Agent B","null","","","","",""
"null","","","video-keyboard-response","343","918016","0.0-343.0","7yd9t1ql","","","null","","Agent B","scrambled","STIM_SET_2/1592150.bmp_pp77_L3_V1.0_scrambled_freeview_isoTrue.mp4",""
"","","","call-function","344","918016","0.0-344.0","7yd9t1ql","","","","","","","",""
"1429.2099999999627","{""judgement"":0}","[0]","survey-likert","345","919446","0.0-345.0","7yd9t1ql","","","","","","","","0"
"892.9299999999348","{""confidence"":2}","[0]","survey-likert","346","920340","0.0-346.0","7yd9t1ql","","","","","","","",""
"","","","call-function","347","920341","0.0-347.0","7yd9t1ql","","","","","","","",""
"null","","","html-keyboard-response","348","921845","0.0-348.0","7yd9t1ql","","<span style=""color:Black; font-size:50px;"">Agent A","null","","","","",""
"null","","","video-keyboard-response","349","924947","0.0-349.0","7yd9t1ql","","","null","","Agent A","veridical","STIM_SET_2/1592350.bmp_pp55_L3_V1.0_veridical_freeview_isoTrue.mp4",""
"null","","","html-keyboard-response","350","926452","0.0-350.0","7yd9t1ql","","<span style=""color:Black; font-size:50px;"">Agent B","null","","","","",""
"null","","","video-keyboard-response","351","929556","0.0-351.0","7yd9t1ql","","","null","","Agent B","scrambled","STIM_SET_2/1592350.bmp_pp55_L3_V1.0_scrambled_freeview_isoTrue.mp4",""
"","","","call-function","352","929556","0.0-352.0","7yd9t1ql","","","","","","","",""
"2010.3300000000745","{""judgement"":0}","[0]","survey-likert","353","931567","0.0-353.0","7yd9t1ql","","","","","","","","0"
"1270.3949999999022","{""confidence"":0}","[0]","survey-likert","354","932839","0.0-354.0","7yd9t1ql","","","","","","","",""
"","","","call-function","355","932840","0.0-355.0","7yd9t1ql","","","","","","","",""
"null","","","html-keyboard-response","356","934344","0.0-356.0","7yd9t1ql","","<span style=""color:Black; font-size:50px;"">Agent A","null","","","","",""
"null","","","video-keyboard-response","357","937446","0.0-357.0","7yd9t1ql","","","null","","Agent A","veridical","STIM_SET_2/1592530.bmp_pp75_L1_V1.0_veridical_freeview_isoTrue.mp4",""
"null","","","html-keyboard-response","358","938949","0.0-358.0","7yd9t1ql","","<span style=""color:Black; font-size:50px;"">Agent B","null","","","","",""
"null","","","video-keyboard-response","359","942051","0.0-359.0","7yd9t1ql","","","null","","Agent B","scrambled","STIM_SET_2/1592530.bmp_pp75_L1_V1.0_scrambled_freeview_isoTrue.mp4",""
"","","","call-function","360","942052","0.0-360.0","7yd9t1ql","","","","","","","",""
"1370.8649999999907","{""judgement"":0}","[0]","survey-likert","361","943424","0.0-361.0","7yd9t1ql","","","","","","","","0"
"1865.579999999958","{""confidence"":2}","[0]","survey-likert","362","945290","0.0-362.0","7yd9t1ql","","","","","","","",""
"","","","call-function","363","945291","0.0-363.0","7yd9t1ql","","","","","","","",""
"null","","","html-keyboard-response","364","946793","0.0-364.0","7yd9t1ql","","<span style=""color:Black; font-size:50px;"">Agent A","null","","","","",""
"null","","","video-keyboard-response","365","949893","0.0-365.0","7yd9t1ql","","","null","","Agent A","scrambled","STIM_SET_2/1159956.bmp_pp59_L3_V1.0_scrambled_freeview_isoTrue.mp4",""
"null","","","html-keyboard-response","366","951395","0.0-366.0","7yd9t1ql","","<span style=""color:Black; font-size:50px;"">Agent B","null","","","","",""
"null","","","video-keyboard-response","367","954462","0.0-367.0","7yd9t1ql","","","null","","Agent B","veridical","STIM_SET_2/1159956.bmp_pp59_L3_V1.0_veridical_freeview_isoTrue.mp4",""
"","","","call-function","368","954462","0.0-368.0","7yd9t1ql","","","","","","","",""
"1509.6149999999907","{""judgement"":0}","[0]","survey-likert","369","955973","0.0-369.0","7yd9t1ql","","","","","","","","1"
"1491.484999999986","{""confidence"":1}","[0]","survey-likert","370","957465","0.0-370.0","7yd9t1ql","","","","","","","",""
"","","","call-function","371","957466","0.0-371.0","7yd9t1ql","","","","","","","",""
"null","","","html-keyboard-response","372","958968","0.0-372.0","7yd9t1ql","","<span style=""color:Black; font-size:50px;"">Agent A","null","","","","",""
"null","","","video-keyboard-response","373","962047","0.0-373.0","7yd9t1ql","","","null","","Agent A","scrambled","STIM_SET_2/713790.bmp_pp100_L3_V1_scrambled_freeview_isoTrue.mp4",""
"null","","","html-keyboard-response","374","963551","0.0-374.0","7yd9t1ql","","<span style=""color:Black; font-size:50px;"">Agent B","null","","","","",""
"null","","","video-keyboard-response","375","966630","0.0-375.0","7yd9t1ql","","","null","","Agent B","veridical","STIM_SET_2/713790.bmp_pp100_L3_V1_veridical_freeview_isoTrue.mp4",""
"","","","call-function","376","966631","0.0-376.0","7yd9t1ql","","","","","","","",""
"1318.625","{""judgement"":1}","[0]","survey-likert","377","967950","0.0-377.0","7yd9t1ql","","","","","","","","1"
"1107.6799999999348","{""confidence"":1}","[0]","survey-likert","378","969059","0.0-378.0","7yd9t1ql","","","","","","","",""
"","","","call-function","379","969060","0.0-379.0","7yd9t1ql","","","","","","","",""
"null","","","html-keyboard-response","380","970564","0.0-380.0","7yd9t1ql","","<span style=""color:Black; font-size:50px;"">Agent A","null","","","","",""
"null","","","video-keyboard-response","381","973669","0.0-381.0","7yd9t1ql","","","null","","Agent A","veridical","STIM_SET_2/713274.bmp_pp73_L3_V1.0_veridical_freeview_isoTrue.mp4",""
"null","","","html-keyboard-response","382","975173","0.0-382.0","7yd9t1ql","","<span style=""color:Black; font-size:50px;"">Agent B","null","","","","",""
"null","","","video-keyboard-response","383","982519","0.0-383.0","7yd9t1ql","","","null","","Agent B","scrambled","STIM_SET_2/713274.bmp_pp73_L3_V1.0_scrambled_freeview_isoTrue.mp4",""
"","","","call-function","384","982521","0.0-384.0","7yd9t1ql","","","","","","","",""
"2303.2750000000233","{""judgement"":1}","[0]","survey-likert","385","984826","0.0-385.0","7yd9t1ql","","","","","","","","0"
"978.9649999999674","{""confidence"":1}","[0]","survey-likert","386","985806","0.0-386.0","7yd9t1ql","","","","","","","",""
"","","","call-function","387","985807","0.0-387.0","7yd9t1ql","","","","","","","",""
"null","","","html-keyboard-response","388","987309","0.0-388.0","7yd9t1ql","","<span style=""color:Black; font-size:50px;"">Agent A","null","","","","",""
"null","","","video-keyboard-response","389","990387","0.0-389.0","7yd9t1ql","","","null","","Agent A","scrambled","STIM_SET_2/1159592.bmp_pp91_L3_V1.0_scrambled_freeview_isoTrue.mp4",""
"null","","","html-keyboard-response","390","991890","0.0-390.0","7yd9t1ql","","<span style=""color:Black; font-size:50px;"">Agent B","null","","","","",""
"null","","","video-keyboard-response","391","994969","0.0-391.0","7yd9t1ql","","","null","","Agent B","veridical","STIM_SET_2/1159592.bmp_pp91_L3_V1.0_veridical_freeview_isoTrue.mp4",""
"","","","call-function","392","994969","0.0-392.0","7yd9t1ql","","","","","","","",""
"1604.6199999999953","{""judgement"":1}","[0]","survey-likert","393","996575","0.0-393.0","7yd9t1ql","","","","","","","","1"
"1151.579999999958","{""confidence"":1}","[0]","survey-likert","394","997728","0.0-394.0","7yd9t1ql","","","","","","","",""
"","","","call-function","395","997729","0.0-395.0","7yd9t1ql","","","","","","","",""
"null","","","html-keyboard-response","396","999230","0.0-396.0","7yd9t1ql","","<span style=""color:Black; font-size:50px;"">Agent A","null","","","","",""
"null","","","video-keyboard-response","397","1002307","0.0-397.0","7yd9t1ql","","","null","","Agent A","veridical","STIM_SET_2/713381.bmp_pp82_L2_V1.0_veridical_freeview_isoTrue.mp4",""
"null","","","html-keyboard-response","398","1003810","0.0-398.0","7yd9t1ql","","<span style=""color:Black; font-size:50px;"">Agent B","null","","","","",""
"null","","","video-keyboard-response","399","1006912","0.0-399.0","7yd9t1ql","","","null","","Agent B","scrambled","STIM_SET_2/713381.bmp_pp82_L2_V1.0_scrambled_freeview_isoTrue.mp4",""
"","","","call-function","400","1006912","0.0-400.0","7yd9t1ql","","","","","","","",""
"1707.6049999999814","{""judgement"":0}","[0]","survey-likert","401","1008621","0.0-401.0","7yd9t1ql","","","","","","","","0"
"1590.7249999999767","{""confidence"":0}","[0]","survey-likert","402","1010213","0.0-402.0","7yd9t1ql","","","","","","","",""
"","","","call-function","403","1010214","0.0-403.0","7yd9t1ql","","","","","","","",""
"null","","","html-keyboard-response","404","1011715","0.0-404.0","7yd9t1ql","","<span style=""color:Black; font-size:50px;"">Agent A","null","","","","",""
"null","","","video-keyboard-response","405","1014810","0.0-405.0","7yd9t1ql","","","null","","Agent A","scrambled","STIM_SET_2/1592129.bmp_pp153_L3_V1.0_scrambled_freeview_isoTrue.mp4",""
"null","","","html-keyboard-response","406","1016312","0.0-406.0","7yd9t1ql","","<span style=""color:Black; font-size:50px;"">Agent B","null","","","","",""
"null","","","video-keyboard-response","407","1019408","0.0-407.0","7yd9t1ql","","","null","","Agent B","veridical","STIM_SET_2/1592129.bmp_pp153_L3_V1.0_veridical_freeview_isoTrue.mp4",""
"","","","call-function","408","1019408","0.0-408.0","7yd9t1ql","","","","","","","",""
"1514.8999999999069","{""judgement"":1}","[0]","survey-likert","409","1020924","0.0-409.0","7yd9t1ql","","","","","","","","1"
"908.8450000000885","{""confidence"":2}","[0]","survey-likert","410","1021835","0.0-410.0","7yd9t1ql","","","","","","","",""
"","","","call-function","411","1021836","0.0-411.0","7yd9t1ql","","","","","","","",""
"null","","","html-keyboard-response","412","1023336","0.0-412.0","7yd9t1ql","","<span style=""color:Black; font-size:50px;"">Agent A","null","","","","",""
"null","","","video-keyboard-response","413","1026437","0.0-413.0","7yd9t1ql","","","null","","Agent A","veridical","STIM_SET_2/1160049.bmp_pp53_L2_V1.0_veridical_freeview_isoTrue.mp4",""
"null","","","html-keyboard-response","414","1027939","0.0-414.0","7yd9t1ql","","<span style=""color:Black; font-size:50px;"">Agent B","null","","","","",""
"null","","","video-keyboard-response","415","1031034","0.0-415.0","7yd9t1ql","","","null","","Agent B","scrambled","STIM_SET_2/1160049.bmp_pp53_L2_V1.0_scrambled_freeview_isoTrue.mp4",""
"","","","call-function","416","1031034","0.0-416.0","7yd9t1ql","","","","","","","",""
"1728.4250000000466","{""judgement"":0}","[0]","survey-likert","417","1032764","0.0-417.0","7yd9t1ql","","","","","","","","0"
"1196.6049999999814","{""confidence"":1}","[0]","survey-likert","418","1033962","0.0-418.0","7yd9t1ql","","","","","","","",""
"2534.375","","","instructions","419","1036497","0.0-419.0","7yd9t1ql","[{""page_index"":0,""viewing_time"":823.3399999999674},{""page_index"":1,""viewing_time"":1102.969999999972},{""page_index"":2,""viewing_time"":607.9000000000233}]","","","","","","",""
"4758.464999999967","","","instructions","420","1041256","0.0-420.0","7yd9t1ql","[{""page_index"":0,""viewing_time"":348.33499999996275},{""page_index"":1,""viewing_time"":392.11999999999534},{""page_index"":2,""viewing_time"":1217.8800000000047},{""page_index"":1,""viewing_time"":1259.0550000000512},{""page_index"":0,""viewing_time"":776.9499999999534},{""page_index"":1,""viewing_time"":379.98499999998603},{""page_index"":2,""viewing_time"":384.03000000002794}]","","","","","","",""
"","","","call-function","421","1041256","0.0-421.0","7yd9t1ql","","","","","","","",""
"null","","","html-keyboard-response","422","1042761","0.0-422.0","7yd9t1ql","","<span style=""color:Black; font-size:50px;"">Agent A","null","","","","",""
"null","","","video-keyboard-response","423","1045834","0.0-423.0","7yd9t1ql","","","null","","Agent A","veridical","STIM_SET_2/1592289.bmp_pp92_L3_V1.0_veridical_freeview_isoTrue.mp4",""
"null","","","html-keyboard-response","424","1047338","0.0-424.0","7yd9t1ql","","<span style=""color:Black; font-size:50px;"">Agent B","null","","","","",""
"null","","","video-keyboard-response","425","1050413","0.0-425.0","7yd9t1ql","","","null","","Agent B","scrambled","STIM_SET_2/1592289.bmp_pp92_L3_V1.0_scrambled_freeview_isoTrue.mp4",""
"","","","call-function","426","1050415","0.0-426.0","7yd9t1ql","","","","","","","",""
"2079.475000000093","{""judgement"":0}","[0]","survey-likert","427","1052496","0.0-427.0","7yd9t1ql","","","","","","","","0"
"1479.2099999999627","{""confidence"":3}","[0]","survey-likert","428","1053977","0.0-428.0","7yd9t1ql","","","","","","","",""
"","","","call-function","429","1053977","0.0-429.0","7yd9t1ql","","","","","","","",""
"null","","","html-keyboard-response","430","1055484","0.0-430.0","7yd9t1ql","","<span style=""color:Black; font-size:50px;"">Agent A","null","","","","",""
"null","","","video-keyboard-response","431","1058553","0.0-431.0","7yd9t1ql","","","null","","Agent A","veridical","STIM_SET_2/1159427.bmp_pp98_L1_V1.0_veridical_freeview_isoTrue.mp4",""
"null","","","html-keyboard-response","432","1060059","0.0-432.0","7yd9t1ql","","<span style=""color:Black; font-size:50px;"">Agent B","null","","","","",""
"null","","","video-keyboard-response","433","1063131","0.0-433.0","7yd9t1ql","","","null","","Agent B","scrambled","STIM_SET_2/1159427.bmp_pp98_L1_V1.0_scrambled_freeview_isoTrue.mp4",""
"","","","call-function","434","1063131","0.0-434.0","7yd9t1ql","","","","","","","",""
"3822.6400000001304","{""judgement"":1}","[0]","survey-likert","435","1066955","0.0-435.0","7yd9t1ql","","","","","","","","0"
"2507.875","{""confidence"":2}","[0]","survey-likert","436","1069465","0.0-436.0","7yd9t1ql","","","","","","","",""
"","","","call-function","437","1069466","0.0-437.0","7yd9t1ql","","","","","","","",""
"null","","","html-keyboard-response","438","1070966","0.0-438.0","7yd9t1ql","","<span style=""color:Black; font-size:50px;"">Agent A","null","","","","",""
"null","","","video-keyboard-response","439","1074044","0.0-439.0","7yd9t1ql","","","null","","Agent A","veridical","STIM_SET_2/107909.bmp_pp95_L2_V1.0_veridical_freeview_isoTrue.mp4",""
"null","","","html-keyboard-response","440","1075549","0.0-440.0","7yd9t1ql","","<span style=""color:Black; font-size:50px;"">Agent B","null","","","","",""
"null","","","video-keyboard-response","441","1078654","0.0-441.0","7yd9t1ql","","","null","","Agent B","scrambled","STIM_SET_2/107909.bmp_pp95_L2_V1.0_scrambled_freeview_isoTrue.mp4",""
"","","","call-function","442","1078655","0.0-442.0","7yd9t1ql","","","","","","","",""
"1791.9399999999441","{""judgement"":0}","[0]","survey-likert","443","1080448","0.0-443.0","7yd9t1ql","","","","","","","","0"
"1566.655000000028","{""confidence"":1}","[0]","survey-likert","444","1082016","0.0-444.0","7yd9t1ql","","","","","","","",""
"","","","call-function","445","1082016","0.0-445.0","7yd9t1ql","","","","","","","",""
"null","","","html-keyboard-response","446","1083517","0.0-446.0","7yd9t1ql","","<span style=""color:Black; font-size:50px;"">Agent A","null","","","","",""
"null","","","video-keyboard-response","447","1086619","0.0-447.0","7yd9t1ql","","","null","","Agent A","veridical","STIM_SET_2/1159819.bmp_pp151_L1_V1.0_veridical_freeview_isoTrue.mp4",""
"null","","","html-keyboard-response","448","1088121","0.0-448.0","7yd9t1ql","","<span style=""color:Black; font-size:50px;"">Agent B","null","","","","",""
"null","","","video-keyboard-response","449","1091221","0.0-449.0","7yd9t1ql","","","null","","Agent B","scrambled","STIM_SET_2/1159819.bmp_pp151_L1_V1.0_scrambled_freeview_isoTrue.mp4",""
"","","","call-function","450","1091222","0.0-450.0","7yd9t1ql","","","","","","","",""
"1632.8999999999069","{""judgement"":0}","[0]","survey-likert","451","1092856","0.0-451.0","7yd9t1ql","","","","","","","","0"
"1409.6500000001397","{""confidence"":2}","[0]","survey-likert","452","1094267","0.0-452.0","7yd9t1ql","","","","","","","",""
"","","","call-function","453","1094267","0.0-453.0","7yd9t1ql","","","","","","","",""
"null","","","html-keyboard-response","454","1095772","0.0-454.0","7yd9t1ql","","<span style=""color:Black; font-size:50px;"">Agent A","null","","","","",""
"null","","","video-keyboard-response","455","1098877","0.0-455.0","7yd9t1ql","","","null","","Agent A","veridical","STIM_SET_2/713742.bmp_pp91_L3_V1.0_veridical_freeview_isoTrue.mp4",""
"null","","","html-keyboard-response","456","1100378","0.0-456.0","7yd9t1ql","","<span style=""color:Black; font-size:50px;"">Agent B","null","","","","",""
"null","","","video-keyboard-response","457","1103485","0.0-457.0","7yd9t1ql","","","null","","Agent B","scrambled","STIM_SET_2/713742.bmp_pp91_L3_V1.0_scrambled_freeview_isoTrue.mp4",""
"","","","call-function","458","1103486","0.0-458.0","7yd9t1ql","","","","","","","",""
"2144.1750000000466","{""judgement"":1}","[0]","survey-likert","459","1105631","0.0-459.0","7yd9t1ql","","","","","","","","0"
"1942.5550000001676","{""confidence"":1}","[0]","survey-likert","460","1107574","0.0-460.0","7yd9t1ql","","","","","","","",""
"","","","call-function","461","1107575","0.0-461.0","7yd9t1ql","","","","","","","",""
"null","","","html-keyboard-response","462","1109079","0.0-462.0","7yd9t1ql","","<span style=""color:Black; font-size:50px;"">Agent A","null","","","","",""
"null","","","video-keyboard-response","463","1112176","0.0-463.0","7yd9t1ql","","","null","","Agent A","scrambled","STIM_SET_2/713829.bmp_pp60_L3_V1.0_scrambled_freeview_isoTrue.mp4",""
"null","","","html-keyboard-response","464","1113679","0.0-464.0","7yd9t1ql","","<span style=""color:Black; font-size:50px;"">Agent B","null","","","","",""
"null","","","video-keyboard-response","465","1116748","0.0-465.0","7yd9t1ql","","","null","","Agent B","veridical","STIM_SET_2/713829.bmp_pp60_L3_V1.0_veridical_freeview_isoTrue.mp4",""
"","","","call-function","466","1116750","0.0-466.0","7yd9t1ql","","","","","","","",""
"3621.185000000056","{""judgement"":1}","[0]","survey-likert","467","1120373","0.0-467.0","7yd9t1ql","","","","","","","","1"
"3202.25","{""confidence"":1}","[0]","survey-likert","468","1123576","0.0-468.0","7yd9t1ql","","","","","","","",""
"","","","call-function","469","1123577","0.0-469.0","7yd9t1ql","","","","","","","",""
"null","","","html-keyboard-response","470","1125079","0.0-470.0","7yd9t1ql","","<span style=""color:Black; font-size:50px;"">Agent A","null","","","","",""
"null","","","video-keyboard-response","471","1128159","0.0-471.0","7yd9t1ql","","","null","","Agent A","scrambled","STIM_SET_2/285946.bmp_pp79_L2_V1.0_scrambled_freeview_isoTrue.mp4",""
"null","","","html-keyboard-response","472","1129661","0.0-472.0","7yd9t1ql","","<span style=""color:Black; font-size:50px;"">Agent B","null","","","","",""
"null","","","video-keyboard-response","473","1132736","0.0-473.0","7yd9t1ql","","","null","","Agent B","veridical","STIM_SET_2/285946.bmp_pp79_L2_V1.0_veridical_freeview_isoTrue.mp4",""
"","","","call-function","474","1132737","0.0-474.0","7yd9t1ql","","","","","","","",""
"2318.2600000000093","{""judgement"":1}","[0]","survey-likert","475","1135056","0.0-475.0","7yd9t1ql","","","","","","","","1"
"1251.130000000121","{""confidence"":2}","[0]","survey-likert","476","1136309","0.0-476.0","7yd9t1ql","","","","","","","",""
"","","","call-function","477","1136309","0.0-477.0","7yd9t1ql","","","","","","","",""
"null","","","html-keyboard-response","478","1137811","0.0-478.0","7yd9t1ql","","<span style=""color:Black; font-size:50px;"">Agent A","null","","","","",""
"null","","","video-keyboard-response","479","1140881","0.0-479.0","7yd9t1ql","","","null","","Agent A","veridical","STIM_SET_2/1592567.bmp_pp70_L2_V1.0_veridical_freeview_isoTrue.mp4",""
"null","","","html-keyboard-response","480","1142382","0.0-480.0","7yd9t1ql","","<span style=""color:Black; font-size:50px;"">Agent B","null","","","","",""
"null","","","video-keyboard-response","481","1145475","0.0-481.0","7yd9t1ql","","","null","","Agent B","scrambled","STIM_SET_2/1592567.bmp_pp70_L2_V1.0_scrambled_freeview_isoTrue.mp4",""
"","","","call-function","482","1145476","0.0-482.0","7yd9t1ql","","","","","","","",""
"1119.8700000001118","{""judgement"":0}","[0]","survey-likert","483","1146597","0.0-483.0","7yd9t1ql","","","","","","","","0"
"1051.5249999999069","{""confidence"":2}","[0]","survey-likert","484","1147650","0.0-484.0","7yd9t1ql","","","","","","","",""
"","","","call-function","485","1147651","0.0-485.0","7yd9t1ql","","","","","","","",""
"null","","","html-keyboard-response","486","1149153","0.0-486.0","7yd9t1ql","","<span style=""color:Black; font-size:50px;"">Agent A","null","","","","",""
"null","","","video-keyboard-response","487","1152252","0.0-487.0","7yd9t1ql","","","null","","Agent A","scrambled","STIM_SET_2/1592305.bmp_pp65_L3_V1.0_scrambled_freeview_isoTrue.mp4",""
"null","","","html-keyboard-response","488","1153757","0.0-488.0","7yd9t1ql","","<span style=""color:Black; font-size:50px;"">Agent B","null","","","","",""
"null","","","video-keyboard-response","489","1156855","0.0-489.0","7yd9t1ql","","","null","","Agent B","veridical","STIM_SET_2/1592305.bmp_pp65_L3_V1.0_veridical_freeview_isoTrue.mp4",""
"","","","call-function","490","1156855","0.0-490.0","7yd9t1ql","","","","","","","",""
"1378.719999999972","{""judgement"":1}","[0]","survey-likert","491","1158235","0.0-491.0","7yd9t1ql","","","","","","","","1"
"1028.7600000000093","{""confidence"":3}","[0]","survey-likert","492","1159265","0.0-492.0","7yd9t1ql","","","","","","","",""
"","","","call-function","493","1159265","0.0-493.0","7yd9t1ql","","","","","","","",""
"null","","","html-keyboard-response","494","1160767","0.0-494.0","7yd9t1ql","","<span style=""color:Black; font-size:50px;"">Agent A","null","","","","",""
"null","","","video-keyboard-response","495","1163872","0.0-495.0","7yd9t1ql","","","null","","Agent A","veridical","STIM_SET_2/1591781.bmp_pp63_L1_V1.0_veridical_freeview_isoTrue.mp4",""
"null","","","html-keyboard-response","496","1165375","0.0-496.0","7yd9t1ql","","<span style=""color:Black; font-size:50px;"">Agent B","null","","","","",""
"null","","","video-keyboard-response","497","1168478","0.0-497.0","7yd9t1ql","","","null","","Agent B","scrambled","STIM_SET_2/1591781.bmp_pp63_L1_V1.0_scrambled_freeview_isoTrue.mp4",""
"","","","call-function","498","1168479","0.0-498.0","7yd9t1ql","","","","","","","",""
"3372.320000000065","{""judgement"":0}","[0]","survey-likert","499","1171852","0.0-499.0","7yd9t1ql","","","","","","","","0"
"1583.8350000001956","{""confidence"":1}","[0]","survey-likert","500","1173437","0.0-500.0","7yd9t1ql","","","","","","","",""
"4090.1750000000466","","","instructions","501","1177528","0.0-501.0","7yd9t1ql","[{""page_index"":0,""viewing_time"":1626.8599999998696},{""page_index"":1,""viewing_time"":1493.6800000001676},{""page_index"":2,""viewing_time"":969.5049999998882}]","","","","","","",""
"3174.7099999999627","","","instructions","502","1180705","0.0-502.0","7yd9t1ql","[{""page_index"":0,""viewing_time"":943.5649999999441},{""page_index"":1,""viewing_time"":1415.125},{""page_index"":2,""viewing_time"":815.9099999999162}]","","","","","","",""
"","","","call-function","503","1180706","0.0-503.0","7yd9t1ql","","","","","","","",""
"null","","","html-keyboard-response","504","1182208","0.0-504.0","7yd9t1ql","","<span style=""color:Black; font-size:50px;"">Agent A","null","","","","",""
"null","","","video-keyboard-response","505","1185285","0.0-505.0","7yd9t1ql","","","null","","Agent A","veridical","STIM_SET_2/1160247.bmp_pp54_L2_V1.0_veridical_freeview_isoTrue.mp4",""
"null","","","html-keyboard-response","506","1186787","0.0-506.0","7yd9t1ql","","<span style=""color:Black; font-size:50px;"">Agent B","null","","","","",""
"null","","","video-keyboard-response","507","1189865","0.0-507.0","7yd9t1ql","","","null","","Agent B","scrambled","STIM_SET_2/1160247.bmp_pp54_L2_V1.0_scrambled_freeview_isoTrue.mp4",""
"","","","call-function","508","1189866","0.0-508.0","7yd9t1ql","","","","","","","",""
"2672.3299999998417","{""judgement"":0}","[0]","survey-likert","509","1192539","0.0-509.0","7yd9t1ql","","","","","","","","0"
"1801.8249999999534","{""confidence"":3}","[0]","survey-likert","510","1194342","0.0-510.0","7yd9t1ql","","","","","","","",""
"","","","call-function","511","1194343","0.0-511.0","7yd9t1ql","","","","","","","",""
"null","","","html-keyboard-response","512","1195845","0.0-512.0","7yd9t1ql","","<span style=""color:Black; font-size:50px;"">Agent A","null","","","","",""
"null","","","video-keyboard-response","513","1198914","0.0-513.0","7yd9t1ql","","","null","","Agent A","veridical","STIM_SET_2/1592857.bmp_pp52_L1_V1_veridical_freeview_isoTrue.mp4",""
"null","","","html-keyboard-response","514","1200418","0.0-514.0","7yd9t1ql","","<span style=""color:Black; font-size:50px;"">Agent B","null","","","","",""
"null","","","video-keyboard-response","515","1203488","0.0-515.0","7yd9t1ql","","","null","","Agent B","scrambled","STIM_SET_2/1592857.bmp_pp52_L1_V1_scrambled_freeview_isoTrue.mp4",""
"","","","call-function","516","1203488","0.0-516.0","7yd9t1ql","","","","","","","",""
"1663.5999999998603","{""judgement"":0}","[0]","survey-likert","517","1205153","0.0-517.0","7yd9t1ql","","","","","","","","0"
"1100.0200000000186","{""confidence"":2}","[0]","survey-likert","518","1206254","0.0-518.0","7yd9t1ql","","","","","","","",""
"","","","call-function","519","1206255","0.0-519.0","7yd9t1ql","","","","","","","",""
"null","","","html-keyboard-response","520","1207756","0.0-520.0","7yd9t1ql","","<span style=""color:Black; font-size:50px;"">Agent A","null","","","","",""
"null","","","video-keyboard-response","521","1210865","0.0-521.0","7yd9t1ql","","","null","","Agent A","veridical","STIM_SET_2/1592747.bmp_pp53_L2_V1.0_veridical_freeview_isoTrue.mp4",""
"null","","","html-keyboard-response","522","1212367","0.0-522.0","7yd9t1ql","","<span style=""color:Black; font-size:50px;"">Agent B","null","","","","",""
"null","","","video-keyboard-response","523","1215466","0.0-523.0","7yd9t1ql","","","null","","Agent B","scrambled","STIM_SET_2/1592747.bmp_pp53_L2_V1.0_scrambled_freeview_isoTrue.mp4",""
"","","","call-function","524","1215466","0.0-524.0","7yd9t1ql","","","","","","","",""
"1223.1000000000931","{""judgement"":0}","[0]","survey-likert","525","1216690","0.0-525.0","7yd9t1ql","","","","","","","","0"
"1044.9099999999162","{""confidence"":2}","[0]","survey-likert","526","1217736","0.0-526.0","7yd9t1ql","","","","","","","",""
"","","","call-function","527","1217737","0.0-527.0","7yd9t1ql","","","","","","","",""
"null","","","html-keyboard-response","528","1219240","0.0-528.0","7yd9t1ql","","<span style=""color:Black; font-size:50px;"">Agent A","null","","","","",""
"null","","","video-keyboard-response","529","1222343","0.0-529.0","7yd9t1ql","","","null","","Agent A","veridical","STIM_SET_2/150463.bmp_pp55_L3_V1.0_veridical_freeview_isoTrue.mp4",""
"null","","","html-keyboard-response","530","1223848","0.0-530.0","7yd9t1ql","","<span style=""color:Black; font-size:50px;"">Agent B","null","","","","",""
"null","","","video-keyboard-response","531","1226946","0.0-531.0","7yd9t1ql","","","null","","Agent B","scrambled","STIM_SET_2/150463.bmp_pp55_L3_V1.0_scrambled_freeview_isoTrue.mp4",""
"","","","call-function","532","1226947","0.0-532.0","7yd9t1ql","","","","","","","",""
"1163.6699999999255","{""judgement"":1}","[0]","survey-likert","533","1228111","0.0-533.0","7yd9t1ql","","","","","","","","0"
"1021.4849999998696","{""confidence"":0}","[0]","survey-likert","534","1229134","0.0-534.0","7yd9t1ql","","","","","","","",""
"","","","call-function","535","1229135","0.0-535.0","7yd9t1ql","","","","","","","",""
"null","","","html-keyboard-response","536","1230639","0.0-536.0","7yd9t1ql","","<span style=""color:Black; font-size:50px;"">Agent A","null","","","","",""
"null","","","video-keyboard-response","537","1233732","0.0-537.0","7yd9t1ql","","","null","","Agent A","scrambled","STIM_SET_2/286034.bmp_pp69_L3_V1.0_scrambled_freeview_isoTrue.mp4",""
"null","","","html-keyboard-response","538","1235238","0.0-538.0","7yd9t1ql","","<span style=""color:Black; font-size:50px;"">Agent B","null","","","","",""
"null","","","video-keyboard-response","539","1238328","0.0-539.0","7yd9t1ql","","","null","","Agent B","veridical","STIM_SET_2/286034.bmp_pp69_L3_V1.0_veridical_freeview_isoTrue.mp4",""
"","","","call-function","540","1238329","0.0-540.0","7yd9t1ql","","","","","","","",""
"1762.8249999999534","{""judgement"":1}","[0]","survey-likert","541","1240093","0.0-541.0","7yd9t1ql","","","","","","","","1"
"1039.755000000121","{""confidence"":3}","[0]","survey-likert","542","1241134","0.0-542.0","7yd9t1ql","","","","","","","",""
"","","","call-function","543","1241135","0.0-543.0","7yd9t1ql","","","","","","","",""
"null","","","html-keyboard-response","544","1242640","0.0-544.0","7yd9t1ql","","<span style=""color:Black; font-size:50px;"">Agent A","null","","","","",""
"null","","","video-keyboard-response","545","1245741","0.0-545.0","7yd9t1ql","","","null","","Agent A","scrambled","STIM_SET_2/1159973.bmp_pp98_L1_V1.0_scrambled_freeview_isoTrue.mp4",""
"null","","","html-keyboard-response","546","1247245","0.0-546.0","7yd9t1ql","","<span style=""color:Black; font-size:50px;"">Agent B","null","","","","",""
"null","","","video-keyboard-response","547","1250316","0.0-547.0","7yd9t1ql","","","null","","Agent B","veridical","STIM_SET_2/1159973.bmp_pp98_L1_V1.0_veridical_freeview_isoTrue.mp4",""
"","","","call-function","548","1250318","0.0-548.0","7yd9t1ql","","","","","","","",""
"1178.9249999998137","{""judgement"":0}","[0]","survey-likert","549","1251498","0.0-549.0","7yd9t1ql","","","","","","","","1"
"832.9049999997951","{""confidence"":2}","[0]","survey-likert","550","1252333","0.0-550.0","7yd9t1ql","","","","","","","",""
"","","","call-function","551","1252335","0.0-551.0","7yd9t1ql","","","","","","","",""
"null","","","html-keyboard-response","552","1253837","0.0-552.0","7yd9t1ql","","<span style=""color:Black; font-size:50px;"">Agent A","null","","","","",""
"null","","","video-keyboard-response","553","1256904","0.0-553.0","7yd9t1ql","","","null","","Agent A","veridical","STIM_SET_2/1159392.bmp_pp96_L2_V1.0_veridical_freeview_isoTrue.mp4",""
"null","","","html-keyboard-response","554","1258406","0.0-554.0","7yd9t1ql","","<span style=""color:Black; font-size:50px;"">Agent B","null","","","","",""
"null","","","video-keyboard-response","555","1261474","0.0-555.0","7yd9t1ql","","","null","","Agent B","scrambled","STIM_SET_2/1159392.bmp_pp96_L2_V1.0_scrambled_freeview_isoTrue.mp4",""
"","","","call-function","556","1261474","0.0-556.0","7yd9t1ql","","","","","","","",""
"1092.0449999999255","{""judgement"":0}","[0]","survey-likert","557","1262567","0.0-557.0","7yd9t1ql","","","","","","","","0"
"2526.3850000000093","{""confidence"":1}","[0]","survey-likert","558","1265095","0.0-558.0","7yd9t1ql","","","","","","","",""
"","","","call-function","559","1265096","0.0-559.0","7yd9t1ql","","","","","","","",""
"null","","","html-keyboard-response","560","1266599","0.0-560.0","7yd9t1ql","","<span style=""color:Black; font-size:50px;"">Agent A","null","","","","",""
"null","","","video-keyboard-response","561","1269671","0.0-561.0","7yd9t1ql","","","null","","Agent A","scrambled","STIM_SET_2/1160204.bmp_pp54_L2_V1.0_scrambled_freeview_isoTrue.mp4",""
"null","","","html-keyboard-response","562","1271175","0.0-562.0","7yd9t1ql","","<span style=""color:Black; font-size:50px;"">Agent B","null","","","","",""
"null","","","video-keyboard-response","563","1274249","0.0-563.0","7yd9t1ql","","","null","","Agent B","veridical","STIM_SET_2/1160204.bmp_pp54_L2_V1.0_veridical_freeview_isoTrue.mp4",""
"","","","call-function","564","1274250","0.0-564.0","7yd9t1ql","","","","","","","",""
"1863.6000000000931","{""judgement"":0}","[0]","survey-likert","565","1276114","0.0-565.0","7yd9t1ql","","","","","","","","1"
"3829.905000000028","{""confidence"":1}","[0]","survey-likert","566","1279945","0.0-566.0","7yd9t1ql","","","","","","","",""
"","","","call-function","567","1279946","0.0-567.0","7yd9t1ql","","","","","","","",""
"null","","","html-keyboard-response","568","1281449","0.0-568.0","7yd9t1ql","","<span style=""color:Black; font-size:50px;"">Agent A","null","","","","",""
"null","","","video-keyboard-response","569","1284556","0.0-569.0","7yd9t1ql","","","null","","Agent A","veridical","STIM_SET_2/1592025.bmp_pp68_L1_V1.0_veridical_freeview_isoTrue.mp4",""
"null","","","html-keyboard-response","570","1286060","0.0-570.0","7yd9t1ql","","<span style=""color:Black; font-size:50px;"">Agent B","null","","","","",""
"null","","","video-keyboard-response","571","1289157","0.0-571.0","7yd9t1ql","","","null","","Agent B","scrambled","STIM_SET_2/1592025.bmp_pp68_L1_V1.0_scrambled_freeview_isoTrue.mp4",""
"","","","call-function","572","1289158","0.0-572.0","7yd9t1ql","","","","","","","",""
"1534.5549999999348","{""judgement"":0}","[0]","survey-likert","573","1290693","0.0-573.0","7yd9t1ql","","","","","","","","0"
"2184.6150000002235","{""confidence"":0}","[0]","survey-likert","574","1292879","0.0-574.0","7yd9t1ql","","","","","","","",""
"","","","call-function","575","1292880","0.0-575.0","7yd9t1ql","","","","","","","",""
"null","","","html-keyboard-response","576","1294381","0.0-576.0","7yd9t1ql","","<span style=""color:Black; font-size:50px;"">Agent A","null","","","","",""
"null","","","video-keyboard-response","577","1297445","0.0-577.0","7yd9t1ql","","","null","","Agent A","scrambled","STIM_SET_2/498261.bmp_pp84_L3_V1.0_scrambled_freeview_isoTrue.mp4",""
"null","","","html-keyboard-response","578","1298950","0.0-578.0","7yd9t1ql","","<span style=""color:Black; font-size:50px;"">Agent B","null","","","","",""
"null","","","video-keyboard-response","579","1302055","0.0-579.0","7yd9t1ql","","","null","","Agent B","veridical","STIM_SET_2/498261.bmp_pp84_L3_V1.0_veridical_freeview_isoTrue.mp4",""
"","","","call-function","580","1302055","0.0-580.0","7yd9t1ql","","","","","","","",""
"1169.9499999999534","{""judgement"":1}","[0]","survey-likert","581","1303226","0.0-581.0","7yd9t1ql","","","","","","","","1"
"1008.9450000000652","{""confidence"":2}","[0]","survey-likert","582","1304236","0.0-582.0","7yd9t1ql","","","","","","","",""
"2561.850000000093","","","instructions","583","1306799","0.0-583.0","7yd9t1ql","[{""page_index"":0,""viewing_time"":2561.7050000000745}]","","","","","","",""
"4204.854999999981","","","instructions","584","1311004","0.0-584.0","7yd9t1ql","[{""page_index"":0,""viewing_time"":4204.75}]","","","","","","",""
"10587.98499999987","{""post-1"":2}","[0]","survey-likert","585","1321594","0.0-585.0","7yd9t1ql","","","","","","","",""
"15293.089999999851","{""post-1"":1}","[0]","survey-likert","586","1336890","0.0-586.0","7yd9t1ql","","","","","","","",""
"9110.714999999851","{""post-2"":1}","[0]","survey-likert","587","1346002","0.0-587.0","7yd9t1ql","","","","","","","",""
"5433.604999999981","{""post-2"":1}","[0]","survey-likert","588","1351437","0.0-588.0","7yd9t1ql","","","","","","","",""
"9662.795000000158","{""post-3"":1}","[0]","survey-likert","589","1361101","0.0-589.0","7yd9t1ql","","","","","","","",""
"4497.014999999898","{""post-3"":0}","[0]","survey-likert","590","1365600","0.0-590.0","7yd9t1ql","","","","","","","",""
"5290.23499999987","{""post-4"":1}","[0]","survey-likert","591","1370891","0.0-591.0","7yd9t1ql","","","","","","","",""
"1580.344999999972","{""post-4"":0}","[0]","survey-likert","592","1372473","0.0-592.0","7yd9t1ql","","","","","","","",""
"7295.979999999981","{""post-5"":0}","[0]","survey-likert","593","1379772","0.0-593.0","7yd9t1ql","","","","","","","",""
"4899.879999999888","{""post-5"":2}","[0]","survey-likert","594","1384674","0.0-594.0","7yd9t1ql","","","","","","","",""
"75173.00999999978","{""Q0"":""as the experiment happened i started feeling more comfortable with choosing which one was human or not ""}","","survey-text","595","1459853","0.0-595.0","7yd9t1ql","","","","","","","",""
"31592.389999999898","{""Q0"":""i started to follow the dots to see if they seemed reasonable to me\n""}","","survey-text","596","1491449","0.0-596.0","7yd9t1ql","","","","","","","",""
"21033.564999999944","{""Q0"":""nothing was specially challenging\n""}","","survey-text","597","1512486","0.0-597.0","7yd9t1ql","","","","","","","",""
"6807.125","","","instructions","598","1519294","0.0-598.0","7yd9t1ql","[{""page_index"":0,""viewing_time"":6806.989999999991}]","","","","","","",""
"39948.50500000012","{""Experimenter_end"":[""Printed ID# 7yd9t1ql on consent form"",""Given subject SONA credit or payment"",""Given the subject debrief form""]}","[0]","survey-multi-select","599","1559245","0.0-599.0","7yd9t1ql","","","","","","","",""
