"rt","responses","question_order","trial_type","trial_index","time_elapsed","internal_node_id","ID","view_history","stimulus","key_press","value","agent","condition","image","correct_answer"
"14314.235","{""Experimenter"":[""Confirmed subject's identity"",""Confirmed normal or corrected-to-normal vision"",""Obtained consent (signature and date)"",""Checked the test room lighting"",""Checked computer screen lighting"",""Checked distance from screen to chin rest (50cm)"",""Cleaned and adjusted chin rest"",""Counterbalanced the order of the tasks"",""Opened the experiment in Firefox"",""Made the experiment full screen"",""Encouraged subject to silence phone, put away distractors, etc.""]}","[0]","survey-multi-select","0","14322","0.0-0.0","81ul4xkq","","","","","","","",""
"20231.895","","","instructions","1","34556","0.0-1.0","81ul4xkq","[{""page_index"":0,""viewing_time"":20231.34}]","","","","","","",""
"10405.265","","","instructions","2","44962","0.0-2.0","81ul4xkq","[{""page_index"":0,""viewing_time"":2965.854999999996},{""page_index"":1,""viewing_time"":1311.0450000000055},{""page_index"":2,""viewing_time"":6128.235000000001}]","","","","","","",""
"1430.7449999999953","","","instructions","3","46394","0.0-3.0","81ul4xkq","[{""page_index"":0,""viewing_time"":1430.6449999999968}]","","","","","","",""
"null","","","video-keyboard-response","4","49468","0.0-4.0","81ul4xkq","","","null","","","","",""
"8383.980000000003","","","instructions","5","57853","0.0-5.0","81ul4xkq","[{""page_index"":0,""viewing_time"":3085.6200000000026},{""page_index"":1,""viewing_time"":1580.0599999999977},{""page_index"":2,""viewing_time"":3718.2000000000044}]","","","","","","",""
"2917.449999999997","","","instructions","6","60771","0.0-6.0","81ul4xkq","[{""page_index"":0,""viewing_time"":2917.355000000003}]","","","","","","",""
"1015.6900000000023","","","instructions","7","61787","0.0-7.0","81ul4xkq","[{""page_index"":0,""viewing_time"":1015.4700000000012}]","","","","","","",""
"null","","","video-keyboard-response","8","64860","0.0-8.0","81ul4xkq","","","null","","","","",""
"4617.480000000003","","","instructions","9","69478","0.0-9.0","81ul4xkq","[{""page_index"":0,""viewing_time"":1233.9749999999985},{""page_index"":1,""viewing_time"":1210.5149999999994},{""page_index"":2,""viewing_time"":2172.8550000000105}]","","","","","","",""
"4397.639999999999","","","instructions","10","73876","0.0-10.0","81ul4xkq","[{""page_index"":0,""viewing_time"":4397.5199999999895}]","","","","","","",""
"","","","call-function","11","73876","0.0-11.0","81ul4xkq","","","","","","","",""
"null","","","html-keyboard-response","12","75378","0.0-12.0","81ul4xkq","","<span style=""color:Black; font-size:50px;"">Agent A","null","","","","",""
"null","","","video-keyboard-response","13","78455","0.0-13.0","81ul4xkq","","","null","","Agent A","scrambled","STIM_SET_2/285946.bmp_pp79_L2_V1.0_scrambled_freeview_isoTrue.mp4",""
"null","","","html-keyboard-response","14","79960","0.0-14.0","81ul4xkq","","<span style=""color:Black; font-size:50px;"">Agent B","null","","","","",""
"null","","","video-keyboard-response","15","83038","0.0-15.0","81ul4xkq","","","null","","Agent B","veridical","STIM_SET_2/285946.bmp_pp79_L2_V1.0_veridical_freeview_isoTrue.mp4",""
"","","","call-function","16","83039","0.0-16.0","81ul4xkq","","","","","","","",""
"3636.5850000000064","{""judgement"":0}","[0]","survey-likert","17","86677","0.0-17.0","81ul4xkq","","","","","","","","1"
"1626.8550000000105","{""confidence"":1}","[0]","survey-likert","18","88305","0.0-18.0","81ul4xkq","","","","","","","",""
"","","","call-function","19","88305","0.0-19.0","81ul4xkq","","","","","","","",""
"null","","","html-keyboard-response","20","89810","0.0-20.0","81ul4xkq","","<span style=""color:Black; font-size:50px;"">Agent A","null","","","","",""
"null","","","video-keyboard-response","21","92913","0.0-21.0","81ul4xkq","","","null","","Agent A","veridical","STIM_SET_2/1592350.bmp_pp55_L3_V1.0_veridical_freeview_isoTrue.mp4",""
"null","","","html-keyboard-response","22","94417","0.0-22.0","81ul4xkq","","<span style=""color:Black; font-size:50px;"">Agent B","null","","","","",""
"null","","","video-keyboard-response","23","97518","0.0-23.0","81ul4xkq","","","null","","Agent B","scrambled","STIM_SET_2/1592350.bmp_pp55_L3_V1.0_scrambled_freeview_isoTrue.mp4",""
"","","","call-function","24","97518","0.0-24.0","81ul4xkq","","","","","","","",""
"2124.7899999999936","{""judgement"":0}","[0]","survey-likert","25","99644","0.0-25.0","81ul4xkq","","","","","","","","0"
"995.3600000000006","{""confidence"":2}","[0]","survey-likert","26","100640","0.0-26.0","81ul4xkq","","","","","","","",""
"","","","call-function","27","100641","0.0-27.0","81ul4xkq","","","","","","","",""
"null","","","html-keyboard-response","28","102146","0.0-28.0","81ul4xkq","","<span style=""color:Black; font-size:50px;"">Agent A","null","","","","",""
"null","","","video-keyboard-response","29","105248","0.0-29.0","81ul4xkq","","","null","","Agent A","scrambled","STIM_SET_2/713274.bmp_pp73_L3_V1.0_scrambled_freeview_isoTrue.mp4",""
"null","","","html-keyboard-response","30","106753","0.0-30.0","81ul4xkq","","<span style=""color:Black; font-size:50px;"">Agent B","null","","","","",""
"null","","","video-keyboard-response","31","109816","0.0-31.0","81ul4xkq","","","null","","Agent B","veridical","STIM_SET_2/713274.bmp_pp73_L3_V1.0_veridical_freeview_isoTrue.mp4",""
"","","","call-function","32","109816","0.0-32.0","81ul4xkq","","","","","","","",""
"2089.4349999999977","{""judgement"":1}","[0]","survey-likert","33","111906","0.0-33.0","81ul4xkq","","","","","","","","1"
"974.0299999999988","{""confidence"":1}","[0]","survey-likert","34","112882","0.0-34.0","81ul4xkq","","","","","","","",""
"","","","call-function","35","112882","0.0-35.0","81ul4xkq","","","","","","","",""
"null","","","html-keyboard-response","36","114385","0.0-36.0","81ul4xkq","","<span style=""color:Black; font-size:50px;"">Agent A","null","","","","",""
"null","","","video-keyboard-response","37","117459","0.0-37.0","81ul4xkq","","","null","","Agent A","scrambled","STIM_SET_2/1159329.bmp_pp61_L2_V1.0_scrambled_freeview_isoTrue.mp4",""
"null","","","html-keyboard-response","38","118962","0.0-38.0","81ul4xkq","","<span style=""color:Black; font-size:50px;"">Agent B","null","","","","",""
"null","","","video-keyboard-response","39","122062","0.0-39.0","81ul4xkq","","","null","","Agent B","veridical","STIM_SET_2/1159329.bmp_pp61_L2_V1.0_veridical_freeview_isoTrue.mp4",""
"","","","call-function","40","122063","0.0-40.0","81ul4xkq","","","","","","","",""
"2116.3699999999953","{""judgement"":1}","[0]","survey-likert","41","124180","0.0-41.0","81ul4xkq","","","","","","","","1"
"1631.9900000000052","{""confidence"":2}","[0]","survey-likert","42","125813","0.0-42.0","81ul4xkq","","","","","","","",""
"","","","call-function","43","125814","0.0-43.0","81ul4xkq","","","","","","","",""
"null","","","html-keyboard-response","44","127315","0.0-44.0","81ul4xkq","","<span style=""color:Black; font-size:50px;"">Agent A","null","","","","",""
"null","","","video-keyboard-response","45","130373","0.0-45.0","81ul4xkq","","","null","","Agent A","veridical","STIM_SET_2/1159325.bmp_pp67_L2_V1.0_veridical_freeview_isoTrue.mp4",""
"null","","","html-keyboard-response","46","131878","0.0-46.0","81ul4xkq","","<span style=""color:Black; font-size:50px;"">Agent B","null","","","","",""
"null","","","video-keyboard-response","47","134946","0.0-47.0","81ul4xkq","","","null","","Agent B","scrambled","STIM_SET_2/1159325.bmp_pp67_L2_V1.0_scrambled_freeview_isoTrue.mp4",""
"","","","call-function","48","134947","0.0-48.0","81ul4xkq","","","","","","","",""
"3435.5200000000186","{""judgement"":0}","[0]","survey-likert","49","138383","0.0-49.0","81ul4xkq","","","","","","","","0"
"1617.9300000000221","{""confidence"":1}","[0]","survey-likert","50","140002","0.0-50.0","81ul4xkq","","","","","","","",""
"","","","call-function","51","140003","0.0-51.0","81ul4xkq","","","","","","","",""
"null","","","html-keyboard-response","52","141509","0.0-52.0","81ul4xkq","","<span style=""color:Black; font-size:50px;"">Agent A","null","","","","",""
"null","","","video-keyboard-response","53","144581","0.0-53.0","81ul4xkq","","","null","","Agent A","scrambled","STIM_SET_2/1592289.bmp_pp92_L3_V1.0_scrambled_freeview_isoTrue.mp4",""
"null","","","html-keyboard-response","54","146085","0.0-54.0","81ul4xkq","","<span style=""color:Black; font-size:50px;"">Agent B","null","","","","",""
"null","","","video-keyboard-response","55","149161","0.0-55.0","81ul4xkq","","","null","","Agent B","veridical","STIM_SET_2/1592289.bmp_pp92_L3_V1.0_veridical_freeview_isoTrue.mp4",""
"","","","call-function","56","149162","0.0-56.0","81ul4xkq","","","","","","","",""
"3453.274999999994","{""judgement"":1}","[0]","survey-likert","57","152617","0.0-57.0","81ul4xkq","","","","","","","","1"
"1435.5849999999919","{""confidence"":0}","[0]","survey-likert","58","154054","0.0-58.0","81ul4xkq","","","","","","","",""
"","","","call-function","59","154055","0.0-59.0","81ul4xkq","","","","","","","",""
"null","","","html-keyboard-response","60","155556","0.0-60.0","81ul4xkq","","<span style=""color:Black; font-size:50px;"">Agent A","null","","","","",""
"null","","","video-keyboard-response","61","158633","0.0-61.0","81ul4xkq","","","null","","Agent A","veridical","STIM_SET_2/713770.bmp_pp89_L1_V1.0_veridical_freeview_isoTrue.mp4",""
"null","","","html-keyboard-response","62","160136","0.0-62.0","81ul4xkq","","<span style=""color:Black; font-size:50px;"">Agent B","null","","","","",""
"null","","","video-keyboard-response","63","163216","0.0-63.0","81ul4xkq","","","null","","Agent B","scrambled","STIM_SET_2/713770.bmp_pp89_L1_V1.0_scrambled_freeview_isoTrue.mp4",""
"","","","call-function","64","163216","0.0-64.0","81ul4xkq","","","","","","","",""
"1594.6749999999884","{""judgement"":1}","[0]","survey-likert","65","164812","0.0-65.0","81ul4xkq","","","","","","","","0"
"1589.2400000000198","{""confidence"":1}","[0]","survey-likert","66","166403","0.0-66.0","81ul4xkq","","","","","","","",""
"","","","call-function","67","166403","0.0-67.0","81ul4xkq","","","","","","","",""
"null","","","html-keyboard-response","68","167905","0.0-68.0","81ul4xkq","","<span style=""color:Black; font-size:50px;"">Agent A","null","","","","",""
"null","","","video-keyboard-response","69","170972","0.0-69.0","81ul4xkq","","","null","","Agent A","scrambled","STIM_SET_2/1592150.bmp_pp77_L3_V1.0_scrambled_freeview_isoTrue.mp4",""
"null","","","html-keyboard-response","70","172476","0.0-70.0","81ul4xkq","","<span style=""color:Black; font-size:50px;"">Agent B","null","","","","",""
"null","","","video-keyboard-response","71","175571","0.0-71.0","81ul4xkq","","","null","","Agent B","veridical","STIM_SET_2/1592150.bmp_pp77_L3_V1.0_veridical_freeview_isoTrue.mp4",""
"","","","call-function","72","175571","0.0-72.0","81ul4xkq","","","","","","","",""
"1621.9700000000012","{""judgement"":0}","[0]","survey-likert","73","177194","0.0-73.0","81ul4xkq","","","","","","","","1"
"1711.265000000014","{""confidence"":1}","[0]","survey-likert","74","178906","0.0-74.0","81ul4xkq","","","","","","","",""
"","","","call-function","75","178908","0.0-75.0","81ul4xkq","","","","","","","",""
"null","","","html-keyboard-response","76","180411","0.0-76.0","81ul4xkq","","<span style=""color:Black; font-size:50px;"">Agent A","null","","","","",""
"null","","","video-keyboard-response","77","183508","0.0-77.0","81ul4xkq","","","null","","Agent A","scrambled","STIM_SET_2/1592129.bmp_pp153_L3_V1.0_scrambled_freeview_isoTrue.mp4",""
"null","","","html-keyboard-response","78","185014","0.0-78.0","81ul4xkq","","<span style=""color:Black; font-size:50px;"">Agent B","null","","","","",""
"null","","","video-keyboard-response","79","188071","0.0-79.0","81ul4xkq","","","null","","Agent B","veridical","STIM_SET_2/1592129.bmp_pp153_L3_V1.0_veridical_freeview_isoTrue.mp4",""
"","","","call-function","80","188071","0.0-80.0","81ul4xkq","","","","","","","",""
"3767.1849999999977","{""judgement"":1}","[0]","survey-likert","81","191839","0.0-81.0","81ul4xkq","","","","","","","","1"
"37886.034999999974","{""confidence"":1}","[0]","survey-likert","82","229726","0.0-82.0","81ul4xkq","","","","","","","",""
"","","","call-function","83","229727","0.0-83.0","81ul4xkq","","","","","","","",""
"null","","","html-keyboard-response","84","231227","0.0-84.0","81ul4xkq","","<span style=""color:Black; font-size:50px;"">Agent A","null","","","","",""
"null","","","video-keyboard-response","85","234306","0.0-85.0","81ul4xkq","","","null","","Agent A","veridical","STIM_SET_2/107909.bmp_pp95_L2_V1.0_veridical_freeview_isoTrue.mp4",""
"null","","","html-keyboard-response","86","235810","0.0-86.0","81ul4xkq","","<span style=""color:Black; font-size:50px;"">Agent B","null","","","","",""
"null","","","video-keyboard-response","87","238887","0.0-87.0","81ul4xkq","","","null","","Agent B","scrambled","STIM_SET_2/107909.bmp_pp95_L2_V1.0_scrambled_freeview_isoTrue.mp4",""
"","","","call-function","88","238887","0.0-88.0","81ul4xkq","","","","","","","",""
"3055.554999999993","{""judgement"":1}","[0]","survey-likert","89","241943","0.0-89.0","81ul4xkq","","","","","","","","0"
"1518.9750000000058","{""confidence"":1}","[0]","survey-likert","90","243463","0.0-90.0","81ul4xkq","","","","","","","",""
"2334.86500000002","","","instructions","91","245799","0.0-91.0","81ul4xkq","[{""page_index"":0,""viewing_time"":1358.390000000014},{""page_index"":1,""viewing_time"":459.57499999998254},{""page_index"":2,""viewing_time"":516.6100000000151}]","","","","","","",""
"1538.6199999999953","","","instructions","92","247338","0.0-92.0","81ul4xkq","[{""page_index"":0,""viewing_time"":333.5799999999872},{""page_index"":1,""viewing_time"":503.05000000001746},{""page_index"":2,""viewing_time"":701.8849999999802}]","","","","","","",""
"","","","call-function","93","247339","0.0-93.0","81ul4xkq","","","","","","","",""
"null","","","html-keyboard-response","94","248840","0.0-94.0","81ul4xkq","","<span style=""color:Black; font-size:50px;"">Agent A","null","","","","",""
"null","","","video-keyboard-response","95","251909","0.0-95.0","81ul4xkq","","","null","","Agent A","scrambled","STIM_SET_2/713328.bmp_pp86_L2_V1.0_scrambled_freeview_isoTrue.mp4",""
"null","","","html-keyboard-response","96","253411","0.0-96.0","81ul4xkq","","<span style=""color:Black; font-size:50px;"">Agent B","null","","","","",""
"null","","","video-keyboard-response","97","256482","0.0-97.0","81ul4xkq","","","null","","Agent B","veridical","STIM_SET_2/713328.bmp_pp86_L2_V1.0_veridical_freeview_isoTrue.mp4",""
"","","","call-function","98","256482","0.0-98.0","81ul4xkq","","","","","","","",""
"1954.8850000000093","{""judgement"":1}","[0]","survey-likert","99","258438","0.0-99.0","81ul4xkq","","","","","","","","1"
"1258.890000000014","{""confidence"":2}","[0]","survey-likert","100","259698","0.0-100.0","81ul4xkq","","","","","","","",""
"","","","call-function","101","259698","0.0-101.0","81ul4xkq","","","","","","","",""
"null","","","html-keyboard-response","102","261203","0.0-102.0","81ul4xkq","","<span style=""color:Black; font-size:50px;"">Agent A","null","","","","",""
"null","","","video-keyboard-response","103","264262","0.0-103.0","81ul4xkq","","","null","","Agent A","scrambled","STIM_SET_2/1159427.bmp_pp98_L1_V1.0_scrambled_freeview_isoTrue.mp4",""
"null","","","html-keyboard-response","104","265766","0.0-104.0","81ul4xkq","","<span style=""color:Black; font-size:50px;"">Agent B","null","","","","",""
"null","","","video-keyboard-response","105","268825","0.0-105.0","81ul4xkq","","","null","","Agent B","veridical","STIM_SET_2/1159427.bmp_pp98_L1_V1.0_veridical_freeview_isoTrue.mp4",""
"","","","call-function","106","268826","0.0-106.0","81ul4xkq","","","","","","","",""
"3229.2849999999744","{""judgement"":1}","[0]","survey-likert","107","272056","0.0-107.0","81ul4xkq","","","","","","","","1"
"1991.7300000000396","{""confidence"":2}","[0]","survey-likert","108","274048","0.0-108.0","81ul4xkq","","","","","","","",""
"","","","call-function","109","274049","0.0-109.0","81ul4xkq","","","","","","","",""
"null","","","html-keyboard-response","110","275551","0.0-110.0","81ul4xkq","","<span style=""color:Black; font-size:50px;"">Agent A","null","","","","",""
"null","","","video-keyboard-response","111","278637","0.0-111.0","81ul4xkq","","","null","","Agent A","veridical","STIM_SET_2/285715.bmp_pp67_L2_V1.0_veridical_freeview_isoTrue.mp4",""
"null","","","html-keyboard-response","112","280141","0.0-112.0","81ul4xkq","","<span style=""color:Black; font-size:50px;"">Agent B","null","","","","",""
"null","","","video-keyboard-response","113","283227","0.0-113.0","81ul4xkq","","","null","","Agent B","scrambled","STIM_SET_2/285715.bmp_pp67_L2_V1.0_scrambled_freeview_isoTrue.mp4",""
"","","","call-function","114","283228","0.0-114.0","81ul4xkq","","","","","","","",""
"3612.2200000000303","{""judgement"":0}","[0]","survey-likert","115","286841","0.0-115.0","81ul4xkq","","","","","","","","0"
"1893.4899999999907","{""confidence"":1}","[0]","survey-likert","116","288736","0.0-116.0","81ul4xkq","","","","","","","",""
"","","","call-function","117","288737","0.0-117.0","81ul4xkq","","","","","","","",""
"null","","","html-keyboard-response","118","290243","0.0-118.0","81ul4xkq","","<span style=""color:Black; font-size:50px;"">Agent A","null","","","","",""
"null","","","video-keyboard-response","119","293320","0.0-119.0","81ul4xkq","","","null","","Agent A","scrambled","STIM_SET_2/1159874.bmp_pp96_L2_V1.0_scrambled_freeview_isoTrue.mp4",""
"null","","","html-keyboard-response","120","294825","0.0-120.0","81ul4xkq","","<span style=""color:Black; font-size:50px;"">Agent B","null","","","","",""
"null","","","video-keyboard-response","121","297908","0.0-121.0","81ul4xkq","","","null","","Agent B","veridical","STIM_SET_2/1159874.bmp_pp96_L2_V1.0_veridical_freeview_isoTrue.mp4",""
"","","","call-function","122","297909","0.0-122.0","81ul4xkq","","","","","","","",""
"2999.4400000000023","{""judgement"":0}","[0]","survey-likert","123","300909","0.0-123.0","81ul4xkq","","","","","","","","1"
"1185.0400000000373","{""confidence"":0}","[0]","survey-likert","124","302095","0.0-124.0","81ul4xkq","","","","","","","",""
"","","","call-function","125","302096","0.0-125.0","81ul4xkq","","","","","","","",""
"null","","","html-keyboard-response","126","303598","0.0-126.0","81ul4xkq","","<span style=""color:Black; font-size:50px;"">Agent A","null","","","","",""
"null","","","video-keyboard-response","127","306679","0.0-127.0","81ul4xkq","","","null","","Agent A","veridical","STIM_SET_2/713790.bmp_pp100_L3_V1_veridical_freeview_isoTrue.mp4",""
"null","","","html-keyboard-response","128","308185","0.0-128.0","81ul4xkq","","<span style=""color:Black; font-size:50px;"">Agent B","null","","","","",""
"null","","","video-keyboard-response","129","311265","0.0-129.0","81ul4xkq","","","null","","Agent B","scrambled","STIM_SET_2/713790.bmp_pp100_L3_V1_scrambled_freeview_isoTrue.mp4",""
"","","","call-function","130","311266","0.0-130.0","81ul4xkq","","","","","","","",""
"1542.7949999999837","{""judgement"":1}","[0]","survey-likert","131","312810","0.0-131.0","81ul4xkq","","","","","","","","0"
"1921.5599999999977","{""confidence"":2}","[0]","survey-likert","132","314733","0.0-132.0","81ul4xkq","","","","","","","",""
"","","","call-function","133","314734","0.0-133.0","81ul4xkq","","","","","","","",""
"null","","","html-keyboard-response","134","316236","0.0-134.0","81ul4xkq","","<span style=""color:Black; font-size:50px;"">Agent A","null","","","","",""
"null","","","video-keyboard-response","135","319334","0.0-135.0","81ul4xkq","","","null","","Agent A","veridical","STIM_SET_2/285932.bmp_pp64_L1_V1.0_veridical_freeview_isoTrue.mp4",""
"null","","","html-keyboard-response","136","320840","0.0-136.0","81ul4xkq","","<span style=""color:Black; font-size:50px;"">Agent B","null","","","","",""
"null","","","video-keyboard-response","137","323935","0.0-137.0","81ul4xkq","","","null","","Agent B","scrambled","STIM_SET_2/285932.bmp_pp64_L1_V1.0_scrambled_freeview_isoTrue.mp4",""
"","","","call-function","138","323936","0.0-138.0","81ul4xkq","","","","","","","",""
"2120.8450000000303","{""judgement"":0}","[0]","survey-likert","139","326057","0.0-139.0","81ul4xkq","","","","","","","","0"
"1127.4949999999953","{""confidence"":2}","[0]","survey-likert","140","327186","0.0-140.0","81ul4xkq","","","","","","","",""
"","","","call-function","141","327186","0.0-141.0","81ul4xkq","","","","","","","",""
"null","","","html-keyboard-response","142","328693","0.0-142.0","81ul4xkq","","<span style=""color:Black; font-size:50px;"">Agent A","null","","","","",""
"null","","","video-keyboard-response","143","331791","0.0-143.0","81ul4xkq","","","null","","Agent A","veridical","STIM_SET_2/1592047.bmp_pp51_L1_V1.0_veridical_freeview_isoTrue.mp4",""
"null","","","html-keyboard-response","144","333292","0.0-144.0","81ul4xkq","","<span style=""color:Black; font-size:50px;"">Agent B","null","","","","",""
"null","","","video-keyboard-response","145","336392","0.0-145.0","81ul4xkq","","","null","","Agent B","scrambled","STIM_SET_2/1592047.bmp_pp51_L1_V1.0_scrambled_freeview_isoTrue.mp4",""
"","","","call-function","146","336392","0.0-146.0","81ul4xkq","","","","","","","",""
"1642.649999999965","{""judgement"":0}","[0]","survey-likert","147","338036","0.0-147.0","81ul4xkq","","","","","","","","0"
"1364.2399999999907","{""confidence"":2}","[0]","survey-likert","148","339401","0.0-148.0","81ul4xkq","","","","","","","",""
"","","","call-function","149","339401","0.0-149.0","81ul4xkq","","","","","","","",""
"null","","","html-keyboard-response","150","340903","0.0-150.0","81ul4xkq","","<span style=""color:Black; font-size:50px;"">Agent A","null","","","","",""
"null","","","video-keyboard-response","151","343962","0.0-151.0","81ul4xkq","","","null","","Agent A","scrambled","STIM_SET_2/107955.bmp_pp90_L2_V1.0_scrambled_freeview_isoTrue.mp4",""
"null","","","html-keyboard-response","152","345467","0.0-152.0","81ul4xkq","","<span style=""color:Black; font-size:50px;"">Agent B","null","","","","",""
"null","","","video-keyboard-response","153","348564","0.0-153.0","81ul4xkq","","","null","","Agent B","veridical","STIM_SET_2/107955.bmp_pp90_L2_V1.0_veridical_freeview_isoTrue.mp4",""
"","","","call-function","154","348565","0.0-154.0","81ul4xkq","","","","","","","",""
"1497.7550000000047","{""judgement"":1}","[0]","survey-likert","155","350064","0.0-155.0","81ul4xkq","","","","","","","","1"
"1039.070000000007","{""confidence"":1}","[0]","survey-likert","156","351104","0.0-156.0","81ul4xkq","","","","","","","",""
"","","","call-function","157","351105","0.0-157.0","81ul4xkq","","","","","","","",""
"null","","","html-keyboard-response","158","352609","0.0-158.0","81ul4xkq","","<span style=""color:Black; font-size:50px;"">Agent A","null","","","","",""
"null","","","video-keyboard-response","159","355688","0.0-159.0","81ul4xkq","","","null","","Agent A","veridical","STIM_SET_2/498398.bmp_pp81_L1_V1.0_veridical_freeview_isoTrue.mp4",""
"null","","","html-keyboard-response","160","357192","0.0-160.0","81ul4xkq","","<span style=""color:Black; font-size:50px;"">Agent B","null","","","","",""
"null","","","video-keyboard-response","161","360254","0.0-161.0","81ul4xkq","","","null","","Agent B","scrambled","STIM_SET_2/498398.bmp_pp81_L1_V1.0_scrambled_freeview_isoTrue.mp4",""
"","","","call-function","162","360255","0.0-162.0","81ul4xkq","","","","","","","",""
"1668.5050000000047","{""judgement"":1}","[0]","survey-likert","163","361924","0.0-163.0","81ul4xkq","","","","","","","","0"
"1415.9349999999977","{""confidence"":1}","[0]","survey-likert","164","363341","0.0-164.0","81ul4xkq","","","","","","","",""
"","","","call-function","165","363341","0.0-165.0","81ul4xkq","","","","","","","",""
"null","","","html-keyboard-response","166","364845","0.0-166.0","81ul4xkq","","<span style=""color:Black; font-size:50px;"">Agent A","null","","","","",""
"null","","","video-keyboard-response","167","367917","0.0-167.0","81ul4xkq","","","null","","Agent A","scrambled","STIM_SET_2/1159860.bmp_pp152_L2_V1.0_scrambled_freeview_isoTrue.mp4",""
"null","","","html-keyboard-response","168","369420","0.0-168.0","81ul4xkq","","<span style=""color:Black; font-size:50px;"">Agent B","null","","","","",""
"null","","","video-keyboard-response","169","372489","0.0-169.0","81ul4xkq","","","null","","Agent B","veridical","STIM_SET_2/1159860.bmp_pp152_L2_V1.0_veridical_freeview_isoTrue.mp4",""
"","","","call-function","170","372490","0.0-170.0","81ul4xkq","","","","","","","",""
"2251.9500000000116","{""judgement"":0}","[0]","survey-likert","171","374743","0.0-171.0","81ul4xkq","","","","","","","","1"
"1813.6199999999953","{""confidence"":1}","[0]","survey-likert","172","376557","0.0-172.0","81ul4xkq","","","","","","","",""
"5554.635000000009","","","instructions","173","382113","0.0-173.0","81ul4xkq","[{""page_index"":0,""viewing_time"":4316.369999999995},{""page_index"":1,""viewing_time"":801.2000000000116},{""page_index"":2,""viewing_time"":436.8499999999767}]","","","","","","",""
"2427.1849999999977","","","instructions","174","384540","0.0-174.0","81ul4xkq","[{""page_index"":0,""viewing_time"":551.1450000000186},{""page_index"":1,""viewing_time"":1267.0100000000093},{""page_index"":2,""viewing_time"":608.9199999999837}]","","","","","","",""
"","","","call-function","175","384541","0.0-175.0","81ul4xkq","","","","","","","",""
"null","","","html-keyboard-response","176","386045","0.0-176.0","81ul4xkq","","<span style=""color:Black; font-size:50px;"">Agent A","null","","","","",""
"null","","","video-keyboard-response","177","389114","0.0-177.0","81ul4xkq","","","null","","Agent A","scrambled","STIM_SET_2/713652.bmp_pp89_L1_V1_scrambled_freeview_isoTrue.mp4",""
"null","","","html-keyboard-response","178","390617","0.0-178.0","81ul4xkq","","<span style=""color:Black; font-size:50px;"">Agent B","null","","","","",""
"null","","","video-keyboard-response","179","393714","0.0-179.0","81ul4xkq","","","null","","Agent B","veridical","STIM_SET_2/713652.bmp_pp89_L1_V1_veridical_freeview_isoTrue.mp4",""
"","","","call-function","180","393714","0.0-180.0","81ul4xkq","","","","","","","",""
"1223.6450000000186","{""judgement"":1}","[0]","survey-likert","181","394939","0.0-181.0","81ul4xkq","","","","","","","","1"
"970.3450000000303","{""confidence"":2}","[0]","survey-likert","182","395910","0.0-182.0","81ul4xkq","","","","","","","",""
"","","","call-function","183","395910","0.0-183.0","81ul4xkq","","","","","","","",""
"null","","","html-keyboard-response","184","397416","0.0-184.0","81ul4xkq","","<span style=""color:Black; font-size:50px;"">Agent A","null","","","","",""
"null","","","video-keyboard-response","185","400511","0.0-185.0","81ul4xkq","","","null","","Agent A","scrambled","STIM_SET_2/1592038.bmp_pp79_L2_V1.0_scrambled_freeview_isoTrue.mp4",""
"null","","","html-keyboard-response","186","402016","0.0-186.0","81ul4xkq","","<span style=""color:Black; font-size:50px;"">Agent B","null","","","","",""
"null","","","video-keyboard-response","187","405111","0.0-187.0","81ul4xkq","","","null","","Agent B","veridical","STIM_SET_2/1592038.bmp_pp79_L2_V1.0_veridical_freeview_isoTrue.mp4",""
"","","","call-function","188","405112","0.0-188.0","81ul4xkq","","","","","","","",""
"4883.455000000016","{""judgement"":0}","[0]","survey-likert","189","409997","0.0-189.0","81ul4xkq","","","","","","","","1"
"1183.734999999986","{""confidence"":0}","[0]","survey-likert","190","411182","0.0-190.0","81ul4xkq","","","","","","","",""
"","","","call-function","191","411182","0.0-191.0","81ul4xkq","","","","","","","",""
"null","","","html-keyboard-response","192","412688","0.0-192.0","81ul4xkq","","<span style=""color:Black; font-size:50px;"">Agent A","null","","","","",""
"null","","","video-keyboard-response","193","415764","0.0-193.0","81ul4xkq","","","null","","Agent A","scrambled","STIM_SET_2/713920.bmp_pp76_L1_V1.0_scrambled_freeview_isoTrue.mp4",""
"null","","","html-keyboard-response","194","417269","0.0-194.0","81ul4xkq","","<span style=""color:Black; font-size:50px;"">Agent B","null","","","","",""
"null","","","video-keyboard-response","195","420346","0.0-195.0","81ul4xkq","","","null","","Agent B","veridical","STIM_SET_2/713920.bmp_pp76_L1_V1.0_veridical_freeview_isoTrue.mp4",""
"","","","call-function","196","420347","0.0-196.0","81ul4xkq","","","","","","","",""
"1895.195000000007","{""judgement"":0}","[0]","survey-likert","197","422243","0.0-197.0","81ul4xkq","","","","","","","","1"
"1036.8800000000047","{""confidence"":1}","[0]","survey-likert","198","423281","0.0-198.0","81ul4xkq","","","","","","","",""
"","","","call-function","199","423282","0.0-199.0","81ul4xkq","","","","","","","",""
"null","","","html-keyboard-response","200","424786","0.0-200.0","81ul4xkq","","<span style=""color:Black; font-size:50px;"">Agent A","null","","","","",""
"null","","","video-keyboard-response","201","427860","0.0-201.0","81ul4xkq","","","null","","Agent A","scrambled","STIM_SET_2/150463.bmp_pp55_L3_V1.0_scrambled_freeview_isoTrue.mp4",""
"null","","","html-keyboard-response","202","429366","0.0-202.0","81ul4xkq","","<span style=""color:Black; font-size:50px;"">Agent B","null","","","","",""
"null","","","video-keyboard-response","203","432438","0.0-203.0","81ul4xkq","","","null","","Agent B","veridical","STIM_SET_2/150463.bmp_pp55_L3_V1.0_veridical_freeview_isoTrue.mp4",""
"","","","call-function","204","432439","0.0-204.0","81ul4xkq","","","","","","","",""
"3015.560000000056","{""judgement"":0}","[0]","survey-likert","205","435455","0.0-205.0","81ul4xkq","","","","","","","","1"
"1176.539999999979","{""confidence"":1}","[0]","survey-likert","206","436633","0.0-206.0","81ul4xkq","","","","","","","",""
"","","","call-function","207","436633","0.0-207.0","81ul4xkq","","","","","","","",""
"null","","","html-keyboard-response","208","438137","0.0-208.0","81ul4xkq","","<span style=""color:Black; font-size:50px;"">Agent A","null","","","","",""
"null","","","video-keyboard-response","209","441234","0.0-209.0","81ul4xkq","","","null","","Agent A","scrambled","STIM_SET_2/713689.bmp_pp153_L3_V1.0_scrambled_freeview_isoTrue.mp4",""
"null","","","html-keyboard-response","210","442736","0.0-210.0","81ul4xkq","","<span style=""color:Black; font-size:50px;"">Agent B","null","","","","",""
"null","","","video-keyboard-response","211","445833","0.0-211.0","81ul4xkq","","","null","","Agent B","veridical","STIM_SET_2/713689.bmp_pp153_L3_V1.0_veridical_freeview_isoTrue.mp4",""
"","","","call-function","212","445833","0.0-212.0","81ul4xkq","","","","","","","",""
"1833.445000000007","{""judgement"":1}","[0]","survey-likert","213","447667","0.0-213.0","81ul4xkq","","","","","","","","1"
"1177.789999999979","{""confidence"":2}","[0]","survey-likert","214","448846","0.0-214.0","81ul4xkq","","","","","","","",""
"","","","call-function","215","448847","0.0-215.0","81ul4xkq","","","","","","","",""
"null","","","html-keyboard-response","216","450353","0.0-216.0","81ul4xkq","","<span style=""color:Black; font-size:50px;"">Agent A","null","","","","",""
"null","","","video-keyboard-response","217","453451","0.0-217.0","81ul4xkq","","","null","","Agent A","scrambled","STIM_SET_2/1592530.bmp_pp75_L1_V1.0_scrambled_freeview_isoTrue.mp4",""
"null","","","html-keyboard-response","218","454954","0.0-218.0","81ul4xkq","","<span style=""color:Black; font-size:50px;"">Agent B","null","","","","",""
"null","","","video-keyboard-response","219","458055","0.0-219.0","81ul4xkq","","","null","","Agent B","veridical","STIM_SET_2/1592530.bmp_pp75_L1_V1.0_veridical_freeview_isoTrue.mp4",""
"","","","call-function","220","458055","0.0-220.0","81ul4xkq","","","","","","","",""
"1526.0999999999767","{""judgement"":1}","[0]","survey-likert","221","459582","0.0-221.0","81ul4xkq","","","","","","","","1"
"1319.8800000000047","{""confidence"":1}","[0]","survey-likert","222","460903","0.0-222.0","81ul4xkq","","","","","","","",""
"","","","call-function","223","460904","0.0-223.0","81ul4xkq","","","","","","","",""
"null","","","html-keyboard-response","224","462406","0.0-224.0","81ul4xkq","","<span style=""color:Black; font-size:50px;"">Agent A","null","","","","",""
"null","","","video-keyboard-response","225","465505","0.0-225.0","81ul4xkq","","","null","","Agent A","scrambled","STIM_SET_2/713858.bmp_pp57_L1_V1.0_scrambled_freeview_isoTrue.mp4",""
"null","","","html-keyboard-response","226","467010","0.0-226.0","81ul4xkq","","<span style=""color:Black; font-size:50px;"">Agent B","null","","","","",""
"null","","","video-keyboard-response","227","470113","0.0-227.0","81ul4xkq","","","null","","Agent B","veridical","STIM_SET_2/713858.bmp_pp57_L1_V1.0_veridical_freeview_isoTrue.mp4",""
"","","","call-function","228","470113","0.0-228.0","81ul4xkq","","","","","","","",""
"2784.0299999999697","{""judgement"":1}","[0]","survey-likert","229","472898","0.0-229.0","81ul4xkq","","","","","","","","1"
"1313.9000000000233","{""confidence"":2}","[0]","survey-likert","230","474213","0.0-230.0","81ul4xkq","","","","","","","",""
"","","","call-function","231","474214","0.0-231.0","81ul4xkq","","","","","","","",""
"null","","","html-keyboard-response","232","475716","0.0-232.0","81ul4xkq","","<span style=""color:Black; font-size:50px;"">Agent A","null","","","","",""
"null","","","video-keyboard-response","233","478817","0.0-233.0","81ul4xkq","","","null","","Agent A","scrambled","STIM_SET_2/1592305.bmp_pp65_L3_V1.0_scrambled_freeview_isoTrue.mp4",""
"null","","","html-keyboard-response","234","480324","0.0-234.0","81ul4xkq","","<span style=""color:Black; font-size:50px;"">Agent B","null","","","","",""
"null","","","video-keyboard-response","235","483399","0.0-235.0","81ul4xkq","","","null","","Agent B","veridical","STIM_SET_2/1592305.bmp_pp65_L3_V1.0_veridical_freeview_isoTrue.mp4",""
"","","","call-function","236","483399","0.0-236.0","81ul4xkq","","","","","","","",""
"2672.045000000042","{""judgement"":0}","[0]","survey-likert","237","486072","0.0-237.0","81ul4xkq","","","","","","","","1"
"1491.625","{""confidence"":0}","[0]","survey-likert","238","487565","0.0-238.0","81ul4xkq","","","","","","","",""
"","","","call-function","239","487565","0.0-239.0","81ul4xkq","","","","","","","",""
"null","","","html-keyboard-response","240","489071","0.0-240.0","81ul4xkq","","<span style=""color:Black; font-size:50px;"">Agent A","null","","","","",""
"null","","","video-keyboard-response","241","492136","0.0-241.0","81ul4xkq","","","null","","Agent A","scrambled","STIM_SET_2/1592567.bmp_pp70_L2_V1.0_scrambled_freeview_isoTrue.mp4",""
"null","","","html-keyboard-response","242","493639","0.0-242.0","81ul4xkq","","<span style=""color:Black; font-size:50px;"">Agent B","null","","","","",""
"null","","","video-keyboard-response","243","496706","0.0-243.0","81ul4xkq","","","null","","Agent B","veridical","STIM_SET_2/1592567.bmp_pp70_L2_V1.0_veridical_freeview_isoTrue.mp4",""
"","","","call-function","244","496707","0.0-244.0","81ul4xkq","","","","","","","",""
"1721.445000000007","{""judgement"":0}","[0]","survey-likert","245","498429","0.0-245.0","81ul4xkq","","","","","","","","1"
"1341.3300000000163","{""confidence"":2}","[0]","survey-likert","246","499772","0.0-246.0","81ul4xkq","","","","","","","",""
"","","","call-function","247","499772","0.0-247.0","81ul4xkq","","","","","","","",""
"null","","","html-keyboard-response","248","501275","0.0-248.0","81ul4xkq","","<span style=""color:Black; font-size:50px;"">Agent A","null","","","","",""
"null","","","video-keyboard-response","249","504347","0.0-249.0","81ul4xkq","","","null","","Agent A","veridical","STIM_SET_2/498258.bmp_pp51_L1_V1.0_veridical_freeview_isoTrue.mp4",""
"null","","","html-keyboard-response","250","505851","0.0-250.0","81ul4xkq","","<span style=""color:Black; font-size:50px;"">Agent B","null","","","","",""
"null","","","video-keyboard-response","251","508954","0.0-251.0","81ul4xkq","","","null","","Agent B","scrambled","STIM_SET_2/498258.bmp_pp51_L1_V1.0_scrambled_freeview_isoTrue.mp4",""
"","","","call-function","252","508955","0.0-252.0","81ul4xkq","","","","","","","",""
"2139.280000000028","{""judgement"":0}","[0]","survey-likert","253","511095","0.0-253.0","81ul4xkq","","","","","","","","0"
"1248.0050000000047","{""confidence"":2}","[0]","survey-likert","254","512344","0.0-254.0","81ul4xkq","","","","","","","",""
"2420.515000000014","","","instructions","255","514766","0.0-255.0","81ul4xkq","[{""page_index"":0,""viewing_time"":1439.484999999986},{""page_index"":1,""viewing_time"":638.929999999993},{""page_index"":2,""viewing_time"":341.9000000000233}]","","","","","","",""
"1143.7200000000303","","","instructions","256","515910","0.0-256.0","81ul4xkq","[{""page_index"":0,""viewing_time"":339.66500000003725},{""page_index"":1,""viewing_time"":389.929999999993},{""page_index"":2,""viewing_time"":414.0199999999604}]","","","","","","",""
"","","","call-function","257","515910","0.0-257.0","81ul4xkq","","","","","","","",""
"null","","","html-keyboard-response","258","517412","0.0-258.0","81ul4xkq","","<span style=""color:Black; font-size:50px;"">Agent A","null","","","","",""
"null","","","video-keyboard-response","259","520479","0.0-259.0","81ul4xkq","","","null","","Agent A","scrambled","STIM_SET_2/713742.bmp_pp91_L3_V1.0_scrambled_freeview_isoTrue.mp4",""
"null","","","html-keyboard-response","260","521981","0.0-260.0","81ul4xkq","","<span style=""color:Black; font-size:50px;"">Agent B","null","","","","",""
"null","","","video-keyboard-response","261","525091","0.0-261.0","81ul4xkq","","","null","","Agent B","veridical","STIM_SET_2/713742.bmp_pp91_L3_V1.0_veridical_freeview_isoTrue.mp4",""
"","","","call-function","262","525091","0.0-262.0","81ul4xkq","","","","","","","",""
"3464.9499999999534","{""judgement"":0}","[0]","survey-likert","263","528557","0.0-263.0","81ul4xkq","","","","","","","","1"
"1255.8200000000652","{""confidence"":1}","[0]","survey-likert","264","529814","0.0-264.0","81ul4xkq","","","","","","","",""
"","","","call-function","265","529815","0.0-265.0","81ul4xkq","","","","","","","",""
"null","","","html-keyboard-response","266","531318","0.0-266.0","81ul4xkq","","<span style=""color:Black; font-size:50px;"">Agent A","null","","","","",""
"null","","","video-keyboard-response","267","534404","0.0-267.0","81ul4xkq","","","null","","Agent A","veridical","STIM_SET_2/1592951.bmp_pp80_L3_V1.0_veridical_freeview_isoTrue.mp4",""
"null","","","html-keyboard-response","268","535905","0.0-268.0","81ul4xkq","","<span style=""color:Black; font-size:50px;"">Agent B","null","","","","",""
"null","","","video-keyboard-response","269","538991","0.0-269.0","81ul4xkq","","","null","","Agent B","scrambled","STIM_SET_2/1592951.bmp_pp80_L3_V1.0_scrambled_freeview_isoTrue.mp4",""
"","","","call-function","270","538992","0.0-270.0","81ul4xkq","","","","","","","",""
"2428.7700000000186","{""judgement"":1}","[0]","survey-likert","271","541422","0.0-271.0","81ul4xkq","","","","","","","","0"
"1110.3100000000559","{""confidence"":1}","[0]","survey-likert","272","542533","0.0-272.0","81ul4xkq","","","","","","","",""
"","","","call-function","273","542534","0.0-273.0","81ul4xkq","","","","","","","",""
"null","","","html-keyboard-response","274","544036","0.0-274.0","81ul4xkq","","<span style=""color:Black; font-size:50px;"">Agent A","null","","","","",""
"null","","","video-keyboard-response","275","547104","0.0-275.0","81ul4xkq","","","null","","Agent A","scrambled","STIM_SET_2/1160204.bmp_pp54_L2_V1.0_scrambled_freeview_isoTrue.mp4",""
"null","","","html-keyboard-response","276","548605","0.0-276.0","81ul4xkq","","<span style=""color:Black; font-size:50px;"">Agent B","null","","","","",""
"null","","","video-keyboard-response","277","551701","0.0-277.0","81ul4xkq","","","null","","Agent B","veridical","STIM_SET_2/1160204.bmp_pp54_L2_V1.0_veridical_freeview_isoTrue.mp4",""
"","","","call-function","278","551702","0.0-278.0","81ul4xkq","","","","","","","",""
"2019.969999999972","{""judgement"":0}","[0]","survey-likert","279","553724","0.0-279.0","81ul4xkq","","","","","","","","1"
"1727.719999999972","{""confidence"":1}","[0]","survey-likert","280","555453","0.0-280.0","81ul4xkq","","","","","","","",""
"","","","call-function","281","555454","0.0-281.0","81ul4xkq","","","","","","","",""
"null","","","html-keyboard-response","282","556957","0.0-282.0","81ul4xkq","","<span style=""color:Black; font-size:50px;"">Agent A","null","","","","",""
"null","","","video-keyboard-response","283","560034","0.0-283.0","81ul4xkq","","","null","","Agent A","veridical","STIM_SET_2/1592298.bmp_pp56_L3_V1.0_veridical_freeview_isoTrue.mp4",""
"null","","","html-keyboard-response","284","561536","0.0-284.0","81ul4xkq","","<span style=""color:Black; font-size:50px;"">Agent B","null","","","","",""
"null","","","video-keyboard-response","285","564611","0.0-285.0","81ul4xkq","","","null","","Agent B","scrambled","STIM_SET_2/1592298.bmp_pp56_L3_V1.0_scrambled_freeview_isoTrue.mp4",""
"","","","call-function","286","564611","0.0-286.0","81ul4xkq","","","","","","","",""
"1554.6650000000373","{""judgement"":0}","[0]","survey-likert","287","566167","0.0-287.0","81ul4xkq","","","","","","","","0"
"1629.0849999999627","{""confidence"":2}","[0]","survey-likert","288","567798","0.0-288.0","81ul4xkq","","","","","","","",""
"","","","call-function","289","567798","0.0-289.0","81ul4xkq","","","","","","","",""
"null","","","html-keyboard-response","290","569303","0.0-290.0","81ul4xkq","","<span style=""color:Black; font-size:50px;"">Agent A","null","","","","",""
"null","","","video-keyboard-response","291","572379","0.0-291.0","81ul4xkq","","","null","","Agent A","veridical","STIM_SET_2/1159819.bmp_pp151_L1_V1.0_veridical_freeview_isoTrue.mp4",""
"null","","","html-keyboard-response","292","573882","0.0-292.0","81ul4xkq","","<span style=""color:Black; font-size:50px;"">Agent B","null","","","","",""
"null","","","video-keyboard-response","293","576955","0.0-293.0","81ul4xkq","","","null","","Agent B","scrambled","STIM_SET_2/1159819.bmp_pp151_L1_V1.0_scrambled_freeview_isoTrue.mp4",""
"","","","call-function","294","576955","0.0-294.0","81ul4xkq","","","","","","","",""
"1694.9850000001024","{""judgement"":0}","[0]","survey-likert","295","578651","0.0-295.0","81ul4xkq","","","","","","","","0"
"2263.930000000051","{""confidence"":2}","[0]","survey-likert","296","580917","0.0-296.0","81ul4xkq","","","","","","","",""
"","","","call-function","297","580917","0.0-297.0","81ul4xkq","","","","","","","",""
"null","","","html-keyboard-response","298","582421","0.0-298.0","81ul4xkq","","<span style=""color:Black; font-size:50px;"">Agent A","null","","","","",""
"null","","","video-keyboard-response","299","585515","0.0-299.0","81ul4xkq","","","null","","Agent A","scrambled","STIM_SET_2/1159392.bmp_pp96_L2_V1.0_scrambled_freeview_isoTrue.mp4",""
"null","","","html-keyboard-response","300","587019","0.0-300.0","81ul4xkq","","<span style=""color:Black; font-size:50px;"">Agent B","null","","","","",""
"null","","","video-keyboard-response","301","590116","0.0-301.0","81ul4xkq","","","null","","Agent B","veridical","STIM_SET_2/1159392.bmp_pp96_L2_V1.0_veridical_freeview_isoTrue.mp4",""
"","","","call-function","302","590116","0.0-302.0","81ul4xkq","","","","","","","",""
"1253.3149999999441","{""judgement"":1}","[0]","survey-likert","303","591371","0.0-303.0","81ul4xkq","","","","","","","","1"
"1418.9000000000233","{""confidence"":2}","[0]","survey-likert","304","592791","0.0-304.0","81ul4xkq","","","","","","","",""
"","","","call-function","305","592791","0.0-305.0","81ul4xkq","","","","","","","",""
"null","","","html-keyboard-response","306","594294","0.0-306.0","81ul4xkq","","<span style=""color:Black; font-size:50px;"">Agent A","null","","","","",""
"null","","","video-keyboard-response","307","597401","0.0-307.0","81ul4xkq","","","null","","Agent A","scrambled","STIM_SET_2/1159592.bmp_pp91_L3_V1.0_scrambled_freeview_isoTrue.mp4",""
"null","","","html-keyboard-response","308","598908","0.0-308.0","81ul4xkq","","<span style=""color:Black; font-size:50px;"">Agent B","null","","","","",""
"null","","","video-keyboard-response","309","602012","0.0-309.0","81ul4xkq","","","null","","Agent B","veridical","STIM_SET_2/1159592.bmp_pp91_L3_V1.0_veridical_freeview_isoTrue.mp4",""
"","","","call-function","310","602013","0.0-310.0","81ul4xkq","","","","","","","",""
"2638.8399999999674","{""judgement"":1}","[0]","survey-likert","311","604652","0.0-311.0","81ul4xkq","","","","","","","","1"
"1246.0700000000652","{""confidence"":2}","[0]","survey-likert","312","605900","0.0-312.0","81ul4xkq","","","","","","","",""
"","","","call-function","313","605900","0.0-313.0","81ul4xkq","","","","","","","",""
"null","","","html-keyboard-response","314","607405","0.0-314.0","81ul4xkq","","<span style=""color:Black; font-size:50px;"">Agent A","null","","","","",""
"null","","","video-keyboard-response","315","610508","0.0-315.0","81ul4xkq","","","null","","Agent A","veridical","STIM_SET_2/498372.bmp_pp95_L2_V1_veridical_freeview_isoTrue.mp4",""
"null","","","html-keyboard-response","316","612012","0.0-316.0","81ul4xkq","","<span style=""color:Black; font-size:50px;"">Agent B","null","","","","",""
"null","","","video-keyboard-response","317","615113","0.0-317.0","81ul4xkq","","","null","","Agent B","scrambled","STIM_SET_2/498372.bmp_pp95_L2_V1_scrambled_freeview_isoTrue.mp4",""
"","","","call-function","318","615113","0.0-318.0","81ul4xkq","","","","","","","",""
"2651.9899999999907","{""judgement"":0}","[0]","survey-likert","319","617766","0.0-319.0","81ul4xkq","","","","","","","","0"
"1314.6800000000512","{""confidence"":0}","[0]","survey-likert","320","619082","0.0-320.0","81ul4xkq","","","","","","","",""
"","","","call-function","321","619083","0.0-321.0","81ul4xkq","","","","","","","",""
"null","","","html-keyboard-response","322","620587","0.0-322.0","81ul4xkq","","<span style=""color:Black; font-size:50px;"">Agent A","null","","","","",""
"null","","","video-keyboard-response","323","623654","0.0-323.0","81ul4xkq","","","null","","Agent A","scrambled","STIM_SET_2/1591975.bmp_pp88_L2_V1.0_scrambled_freeview_isoTrue.mp4",""
"null","","","html-keyboard-response","324","625157","0.0-324.0","81ul4xkq","","<span style=""color:Black; font-size:50px;"">Agent B","null","","","","",""
"null","","","video-keyboard-response","325","628226","0.0-325.0","81ul4xkq","","","null","","Agent B","veridical","STIM_SET_2/1591975.bmp_pp88_L2_V1.0_veridical_freeview_isoTrue.mp4",""
"","","","call-function","326","628227","0.0-326.0","81ul4xkq","","","","","","","",""
"1695.7900000000373","{""judgement"":1}","[0]","survey-likert","327","629923","0.0-327.0","81ul4xkq","","","","","","","","1"
"1936.0549999999348","{""confidence"":0}","[0]","survey-likert","328","631861","0.0-328.0","81ul4xkq","","","","","","","",""
"","","","call-function","329","631861","0.0-329.0","81ul4xkq","","","","","","","",""
"null","","","html-keyboard-response","330","633362","0.0-330.0","81ul4xkq","","<span style=""color:Black; font-size:50px;"">Agent A","null","","","","",""
"null","","","video-keyboard-response","331","636435","0.0-331.0","81ul4xkq","","","null","","Agent A","scrambled","STIM_SET_2/1592747.bmp_pp53_L2_V1.0_scrambled_freeview_isoTrue.mp4",""
"null","","","html-keyboard-response","332","637941","0.0-332.0","81ul4xkq","","<span style=""color:Black; font-size:50px;"">Agent B","null","","","","",""
"null","","","video-keyboard-response","333","641017","0.0-333.0","81ul4xkq","","","null","","Agent B","veridical","STIM_SET_2/1592747.bmp_pp53_L2_V1.0_veridical_freeview_isoTrue.mp4",""
"","","","call-function","334","641017","0.0-334.0","81ul4xkq","","","","","","","",""
"2311.67499999993","{""judgement"":0}","[0]","survey-likert","335","643330","0.0-335.0","81ul4xkq","","","","","","","","1"
"1583.5499999999302","{""confidence"":1}","[0]","survey-likert","336","644915","0.0-336.0","81ul4xkq","","","","","","","",""
"1758.9450000000652","","","instructions","337","646674","0.0-337.0","81ul4xkq","[{""page_index"":0,""viewing_time"":1043.4949999999953},{""page_index"":1,""viewing_time"":428.03000000002794},{""page_index"":2,""viewing_time"":287.1500000000233}]","","","","","","",""
"817.1700000000419","","","instructions","338","647492","0.0-338.0","81ul4xkq","[{""page_index"":0,""viewing_time"":181.50500000000466},{""page_index"":1,""viewing_time"":244.6600000000326},{""page_index"":2,""viewing_time"":390.9049999999115}]","","","","","","",""
"","","","call-function","339","647492","0.0-339.0","81ul4xkq","","","","","","","",""
"null","","","html-keyboard-response","340","648997","0.0-340.0","81ul4xkq","","<span style=""color:Black; font-size:50px;"">Agent A","null","","","","",""
"null","","","video-keyboard-response","341","652093","0.0-341.0","81ul4xkq","","","null","","Agent A","veridical","STIM_SET_2/286034.bmp_pp69_L3_V1.0_veridical_freeview_isoTrue.mp4",""
"null","","","html-keyboard-response","342","653597","0.0-342.0","81ul4xkq","","<span style=""color:Black; font-size:50px;"">Agent B","null","","","","",""
"null","","","video-keyboard-response","343","656693","0.0-343.0","81ul4xkq","","","null","","Agent B","scrambled","STIM_SET_2/286034.bmp_pp69_L3_V1.0_scrambled_freeview_isoTrue.mp4",""
"","","","call-function","344","656694","0.0-344.0","81ul4xkq","","","","","","","",""
"1740.954999999958","{""judgement"":1}","[0]","survey-likert","345","658435","0.0-345.0","81ul4xkq","","","","","","","","0"
"1328.0699999999488","{""confidence"":2}","[0]","survey-likert","346","659765","0.0-346.0","81ul4xkq","","","","","","","",""
"","","","call-function","347","659765","0.0-347.0","81ul4xkq","","","","","","","",""
"null","","","html-keyboard-response","348","661270","0.0-348.0","81ul4xkq","","<span style=""color:Black; font-size:50px;"">Agent A","null","","","","",""
"null","","","video-keyboard-response","349","664368","0.0-349.0","81ul4xkq","","","null","","Agent A","veridical","STIM_SET_2/1160189.bmp_pp64_L1_V1.0_veridical_freeview_isoTrue.mp4",""
"null","","","html-keyboard-response","350","665871","0.0-350.0","81ul4xkq","","<span style=""color:Black; font-size:50px;"">Agent B","null","","","","",""
"null","","","video-keyboard-response","351","668970","0.0-351.0","81ul4xkq","","","null","","Agent B","scrambled","STIM_SET_2/1160189.bmp_pp64_L1_V1.0_scrambled_freeview_isoTrue.mp4",""
"","","","call-function","352","668971","0.0-352.0","81ul4xkq","","","","","","","",""
"1400.7750000000233","{""judgement"":0}","[0]","survey-likert","353","670373","0.0-353.0","81ul4xkq","","","","","","","","0"
"1179.625","{""confidence"":2}","[0]","survey-likert","354","671554","0.0-354.0","81ul4xkq","","","","","","","",""
"","","","call-function","355","671555","0.0-355.0","81ul4xkq","","","","","","","",""
"null","","","html-keyboard-response","356","673058","0.0-356.0","81ul4xkq","","<span style=""color:Black; font-size:50px;"">Agent A","null","","","","",""
"null","","","video-keyboard-response","357","676133","0.0-357.0","81ul4xkq","","","null","","Agent A","scrambled","STIM_SET_2/498261.bmp_pp84_L3_V1.0_scrambled_freeview_isoTrue.mp4",""
"null","","","html-keyboard-response","358","677640","0.0-358.0","81ul4xkq","","<span style=""color:Black; font-size:50px;"">Agent B","null","","","","",""
"null","","","video-keyboard-response","359","680717","0.0-359.0","81ul4xkq","","","null","","Agent B","veridical","STIM_SET_2/498261.bmp_pp84_L3_V1.0_veridical_freeview_isoTrue.mp4",""
"","","","call-function","360","680717","0.0-360.0","81ul4xkq","","","","","","","",""
"2057.7750000000233","{""judgement"":0}","[0]","survey-likert","361","682776","0.0-361.0","81ul4xkq","","","","","","","","1"
"1434.3150000000605","{""confidence"":2}","[0]","survey-likert","362","684212","0.0-362.0","81ul4xkq","","","","","","","",""
"","","","call-function","363","684213","0.0-363.0","81ul4xkq","","","","","","","",""
"null","","","html-keyboard-response","364","685714","0.0-364.0","81ul4xkq","","<span style=""color:Black; font-size:50px;"">Agent A","null","","","","",""
"null","","","video-keyboard-response","365","688783","0.0-365.0","81ul4xkq","","","null","","Agent A","scrambled","STIM_SET_2/1160049.bmp_pp53_L2_V1.0_scrambled_freeview_isoTrue.mp4",""
"null","","","html-keyboard-response","366","690290","0.0-366.0","81ul4xkq","","<span style=""color:Black; font-size:50px;"">Agent B","null","","","","",""
"null","","","video-keyboard-response","367","693358","0.0-367.0","81ul4xkq","","","null","","Agent B","veridical","STIM_SET_2/1160049.bmp_pp53_L2_V1.0_veridical_freeview_isoTrue.mp4",""
"","","","call-function","368","693359","0.0-368.0","81ul4xkq","","","","","","","",""
"1551.8950000000186","{""judgement"":1}","[0]","survey-likert","369","694912","0.0-369.0","81ul4xkq","","","","","","","","1"
"1409.9000000000233","{""confidence"":1}","[0]","survey-likert","370","696323","0.0-370.0","81ul4xkq","","","","","","","",""
"","","","call-function","371","696323","0.0-371.0","81ul4xkq","","","","","","","",""
"null","","","html-keyboard-response","372","697826","0.0-372.0","81ul4xkq","","<span style=""color:Black; font-size:50px;"">Agent A","null","","","","",""
"null","","","video-keyboard-response","373","700927","0.0-373.0","81ul4xkq","","","null","","Agent A","scrambled","STIM_SET_2/1159508.bmp_pp151_L1_V1.0_scrambled_freeview_isoTrue.mp4",""
"null","","","html-keyboard-response","374","702429","0.0-374.0","81ul4xkq","","<span style=""color:Black; font-size:50px;"">Agent B","null","","","","",""
"null","","","video-keyboard-response","375","705527","0.0-375.0","81ul4xkq","","","null","","Agent B","veridical","STIM_SET_2/1159508.bmp_pp151_L1_V1.0_veridical_freeview_isoTrue.mp4",""
"","","","call-function","376","705527","0.0-376.0","81ul4xkq","","","","","","","",""
"1946.5849999999627","{""judgement"":0}","[0]","survey-likert","377","707475","0.0-377.0","81ul4xkq","","","","","","","","1"
"2754.7249999999767","{""confidence"":0}","[0]","survey-likert","378","710231","0.0-378.0","81ul4xkq","","","","","","","",""
"","","","call-function","379","710231","0.0-379.0","81ul4xkq","","","","","","","",""
"null","","","html-keyboard-response","380","711736","0.0-380.0","81ul4xkq","","<span style=""color:Black; font-size:50px;"">Agent A","null","","","","",""
"null","","","video-keyboard-response","381","714846","0.0-381.0","81ul4xkq","","","null","","Agent A","scrambled","STIM_SET_2/1592568.bmp_pp71_L1_V1.0_scrambled_freeview_isoTrue.mp4",""
"null","","","html-keyboard-response","382","716352","0.0-382.0","81ul4xkq","","<span style=""color:Black; font-size:50px;"">Agent B","null","","","","",""
"null","","","video-keyboard-response","383","719460","0.0-383.0","81ul4xkq","","","null","","Agent B","veridical","STIM_SET_2/1592568.bmp_pp71_L1_V1.0_veridical_freeview_isoTrue.mp4",""
"","","","call-function","384","719460","0.0-384.0","81ul4xkq","","","","","","","",""
"1740.7949999999255","{""judgement"":1}","[0]","survey-likert","385","721202","0.0-385.0","81ul4xkq","","","","","","","","1"
"1295.25","{""confidence"":1}","[0]","survey-likert","386","722498","0.0-386.0","81ul4xkq","","","","","","","",""
"","","","call-function","387","722499","0.0-387.0","81ul4xkq","","","","","","","",""
"null","","","html-keyboard-response","388","724003","0.0-388.0","81ul4xkq","","<span style=""color:Black; font-size:50px;"">Agent A","null","","","","",""
"null","","","video-keyboard-response","389","727104","0.0-389.0","81ul4xkq","","","null","","Agent A","veridical","STIM_SET_2/713788.bmp_pp52_L1_V1.0_veridical_freeview_isoTrue.mp4",""
"null","","","html-keyboard-response","390","728610","0.0-390.0","81ul4xkq","","<span style=""color:Black; font-size:50px;"">Agent B","null","","","","",""
"null","","","video-keyboard-response","391","731714","0.0-391.0","81ul4xkq","","","null","","Agent B","scrambled","STIM_SET_2/713788.bmp_pp52_L1_V1.0_scrambled_freeview_isoTrue.mp4",""
"","","","call-function","392","731714","0.0-392.0","81ul4xkq","","","","","","","",""
"1710.4100000000326","{""judgement"":1}","[0]","survey-likert","393","733426","0.0-393.0","81ul4xkq","","","","","","","","0"
"1397.8399999999674","{""confidence"":2}","[0]","survey-likert","394","734825","0.0-394.0","81ul4xkq","","","","","","","",""
"","","","call-function","395","734825","0.0-395.0","81ul4xkq","","","","","","","",""
"null","","","html-keyboard-response","396","736330","0.0-396.0","81ul4xkq","","<span style=""color:Black; font-size:50px;"">Agent A","null","","","","",""
"null","","","video-keyboard-response","397","739403","0.0-397.0","81ul4xkq","","","null","","Agent A","veridical","STIM_SET_2/1592201.bmp_pp97_L3_V1.0_veridical_freeview_isoTrue.mp4",""
"null","","","html-keyboard-response","398","740907","0.0-398.0","81ul4xkq","","<span style=""color:Black; font-size:50px;"">Agent B","null","","","","",""
"null","","","video-keyboard-response","399","743979","0.0-399.0","81ul4xkq","","","null","","Agent B","scrambled","STIM_SET_2/1592201.bmp_pp97_L3_V1.0_scrambled_freeview_isoTrue.mp4",""
"","","","call-function","400","743980","0.0-400.0","81ul4xkq","","","","","","","",""
"2363.8800000000047","{""judgement"":1}","[0]","survey-likert","401","746345","0.0-401.0","81ul4xkq","","","","","","","","0"
"1237.719999999972","{""confidence"":1}","[0]","survey-likert","402","747584","0.0-402.0","81ul4xkq","","","","","","","",""
"","","","call-function","403","747584","0.0-403.0","81ul4xkq","","","","","","","",""
"null","","","html-keyboard-response","404","749089","0.0-404.0","81ul4xkq","","<span style=""color:Black; font-size:50px;"">Agent A","null","","","","",""
"null","","","video-keyboard-response","405","752156","0.0-405.0","81ul4xkq","","","null","","Agent A","veridical","STIM_SET_2/713829.bmp_pp60_L3_V1.0_veridical_freeview_isoTrue.mp4",""
"null","","","html-keyboard-response","406","753662","0.0-406.0","81ul4xkq","","<span style=""color:Black; font-size:50px;"">Agent B","null","","","","",""
"null","","","video-keyboard-response","407","756730","0.0-407.0","81ul4xkq","","","null","","Agent B","scrambled","STIM_SET_2/713829.bmp_pp60_L3_V1.0_scrambled_freeview_isoTrue.mp4",""
"","","","call-function","408","756730","0.0-408.0","81ul4xkq","","","","","","","",""
"1808.5299999999115","{""judgement"":0}","[0]","survey-likert","409","758540","0.0-409.0","81ul4xkq","","","","","","","","0"
"3192.8850000000093","{""confidence"":2}","[0]","survey-likert","410","761735","0.0-410.0","81ul4xkq","","","","","","","",""
"","","","call-function","411","761735","0.0-411.0","81ul4xkq","","","","","","","",""
"null","","","html-keyboard-response","412","763241","0.0-412.0","81ul4xkq","","<span style=""color:Black; font-size:50px;"">Agent A","null","","","","",""
"null","","","video-keyboard-response","413","766335","0.0-413.0","81ul4xkq","","","null","","Agent A","scrambled","STIM_SET_2/1592314.bmp_pp100_L3_V1.0_scrambled_freeview_isoTrue.mp4",""
"null","","","html-keyboard-response","414","767838","0.0-414.0","81ul4xkq","","<span style=""color:Black; font-size:50px;"">Agent B","null","","","","",""
"null","","","video-keyboard-response","415","770934","0.0-415.0","81ul4xkq","","","null","","Agent B","veridical","STIM_SET_2/1592314.bmp_pp100_L3_V1.0_veridical_freeview_isoTrue.mp4",""
"","","","call-function","416","770935","0.0-416.0","81ul4xkq","","","","","","","",""
"1886.0849999999627","{""judgement"":1}","[0]","survey-likert","417","772822","0.0-417.0","81ul4xkq","","","","","","","","1"
"1184.829999999958","{""confidence"":1}","[0]","survey-likert","418","774008","0.0-418.0","81ul4xkq","","","","","","","",""
"1966.2850000000326","","","instructions","419","775975","0.0-419.0","81ul4xkq","[{""page_index"":0,""viewing_time"":961.7350000001024},{""page_index"":1,""viewing_time"":584.9499999999534},{""page_index"":2,""viewing_time"":419.3850000000093}]","","","","","","",""
"4138.234999999986","","","instructions","420","780114","0.0-420.0","81ul4xkq","[{""page_index"":0,""viewing_time"":3182.805000000051},{""page_index"":1,""viewing_time"":485.1049999999814},{""page_index"":2,""viewing_time"":470.20999999996275}]","","","","","","",""
"","","","call-function","421","780114","0.0-421.0","81ul4xkq","","","","","","","",""
"null","","","html-keyboard-response","422","781620","0.0-422.0","81ul4xkq","","<span style=""color:Black; font-size:50px;"">Agent A","null","","","","",""
"null","","","video-keyboard-response","423","784721","0.0-423.0","81ul4xkq","","","null","","Agent A","veridical","STIM_SET_2/498025.bmp_pp81_L1_V1.0_veridical_freeview_isoTrue.mp4",""
"null","","","html-keyboard-response","424","786225","0.0-424.0","81ul4xkq","","<span style=""color:Black; font-size:50px;"">Agent B","null","","","","",""
"null","","","video-keyboard-response","425","789301","0.0-425.0","81ul4xkq","","","null","","Agent B","scrambled","STIM_SET_2/498025.bmp_pp81_L1_V1.0_scrambled_freeview_isoTrue.mp4",""
"","","","call-function","426","789303","0.0-426.0","81ul4xkq","","","","","","","",""
"1601.829999999958","{""judgement"":0}","[0]","survey-likert","427","790906","0.0-427.0","81ul4xkq","","","","","","","","0"
"1282.1999999999534","{""confidence"":0}","[0]","survey-likert","428","792190","0.0-428.0","81ul4xkq","","","","","","","",""
"","","","call-function","429","792190","0.0-429.0","81ul4xkq","","","","","","","",""
"null","","","html-keyboard-response","430","793697","0.0-430.0","81ul4xkq","","<span style=""color:Black; font-size:50px;"">Agent A","null","","","","",""
"null","","","video-keyboard-response","431","796771","0.0-431.0","81ul4xkq","","","null","","Agent A","scrambled","STIM_SET_2/150277.bmp_pp65_L3_V1.0_scrambled_freeview_isoTrue.mp4",""
"null","","","html-keyboard-response","432","798274","0.0-432.0","81ul4xkq","","<span style=""color:Black; font-size:50px;"">Agent B","null","","","","",""
"null","","","video-keyboard-response","433","801348","0.0-433.0","81ul4xkq","","","null","","Agent B","veridical","STIM_SET_2/150277.bmp_pp65_L3_V1.0_veridical_freeview_isoTrue.mp4",""
"","","","call-function","434","801349","0.0-434.0","81ul4xkq","","","","","","","",""
"2731.3450000000885","{""judgement"":1}","[0]","survey-likert","435","804081","0.0-435.0","81ul4xkq","","","","","","","","1"
"927.6700000000419","{""confidence"":1}","[0]","survey-likert","436","805011","0.0-436.0","81ul4xkq","","","","","","","",""
"","","","call-function","437","805011","0.0-437.0","81ul4xkq","","","","","","","",""
"null","","","html-keyboard-response","438","806516","0.0-438.0","81ul4xkq","","<span style=""color:Black; font-size:50px;"">Agent A","null","","","","",""
"null","","","video-keyboard-response","439","809587","0.0-439.0","81ul4xkq","","","null","","Agent A","veridical","STIM_SET_2/1159956.bmp_pp59_L3_V1.0_veridical_freeview_isoTrue.mp4",""
"null","","","html-keyboard-response","440","811092","0.0-440.0","81ul4xkq","","<span style=""color:Black; font-size:50px;"">Agent B","null","","","","",""
"null","","","video-keyboard-response","441","814188","0.0-441.0","81ul4xkq","","","null","","Agent B","scrambled","STIM_SET_2/1159956.bmp_pp59_L3_V1.0_scrambled_freeview_isoTrue.mp4",""
"","","","call-function","442","814188","0.0-442.0","81ul4xkq","","","","","","","",""
"2085.6350000000093","{""judgement"":0}","[0]","survey-likert","443","816275","0.0-443.0","81ul4xkq","","","","","","","","0"
"1161.3100000000559","{""confidence"":0}","[0]","survey-likert","444","817437","0.0-444.0","81ul4xkq","","","","","","","",""
"","","","call-function","445","817438","0.0-445.0","81ul4xkq","","","","","","","",""
"null","","","html-keyboard-response","446","818938","0.0-446.0","81ul4xkq","","<span style=""color:Black; font-size:50px;"">Agent A","null","","","","",""
"null","","","video-keyboard-response","447","822035","0.0-447.0","81ul4xkq","","","null","","Agent A","veridical","STIM_SET_2/1592017.bmp_pp154_L1_V1.0_veridical_freeview_isoTrue.mp4",""
"null","","","html-keyboard-response","448","823543","0.0-448.0","81ul4xkq","","<span style=""color:Black; font-size:50px;"">Agent B","null","","","","",""
"null","","","video-keyboard-response","449","826640","0.0-449.0","81ul4xkq","","","null","","Agent B","scrambled","STIM_SET_2/1592017.bmp_pp154_L1_V1.0_scrambled_freeview_isoTrue.mp4",""
"","","","call-function","450","826640","0.0-450.0","81ul4xkq","","","","","","","",""
"3044.015000000014","{""judgement"":1}","[0]","survey-likert","451","829685","0.0-451.0","81ul4xkq","","","","","","","","0"
"1274.484999999986","{""confidence"":2}","[0]","survey-likert","452","830961","0.0-452.0","81ul4xkq","","","","","","","",""
"","","","call-function","453","830961","0.0-453.0","81ul4xkq","","","","","","","",""
"null","","","html-keyboard-response","454","832461","0.0-454.0","81ul4xkq","","<span style=""color:Black; font-size:50px;"">Agent A","null","","","","",""
"null","","","video-keyboard-response","455","835556","0.0-455.0","81ul4xkq","","","null","","Agent A","veridical","STIM_SET_2/1592044.bmp_pp94_L2_V1.0_veridical_freeview_isoTrue.mp4",""
"null","","","html-keyboard-response","456","837062","0.0-456.0","81ul4xkq","","<span style=""color:Black; font-size:50px;"">Agent B","null","","","","",""
"null","","","video-keyboard-response","457","840157","0.0-457.0","81ul4xkq","","","null","","Agent B","scrambled","STIM_SET_2/1592044.bmp_pp94_L2_V1.0_scrambled_freeview_isoTrue.mp4",""
"","","","call-function","458","840157","0.0-458.0","81ul4xkq","","","","","","","",""
"2441.7399999999907","{""judgement"":0}","[0]","survey-likert","459","842600","0.0-459.0","81ul4xkq","","","","","","","","0"
"1743.6149999999907","{""confidence"":0}","[0]","survey-likert","460","844345","0.0-460.0","81ul4xkq","","","","","","","",""
"","","","call-function","461","844345","0.0-461.0","81ul4xkq","","","","","","","",""
"null","","","html-keyboard-response","462","845851","0.0-462.0","81ul4xkq","","<span style=""color:Black; font-size:50px;"">Agent A","null","","","","",""
"null","","","video-keyboard-response","463","848959","0.0-463.0","81ul4xkq","","","null","","Agent A","veridical","STIM_SET_2/285959.bmp_pp93_L1_V1.0_veridical_freeview_isoTrue.mp4",""
"null","","","html-keyboard-response","464","850462","0.0-464.0","81ul4xkq","","<span style=""color:Black; font-size:50px;"">Agent B","null","","","","",""
"null","","","video-keyboard-response","465","853538","0.0-465.0","81ul4xkq","","","null","","Agent B","scrambled","STIM_SET_2/285959.bmp_pp93_L1_V1.0_scrambled_freeview_isoTrue.mp4",""
"","","","call-function","466","853539","0.0-466.0","81ul4xkq","","","","","","","",""
"4422.5","{""judgement"":1}","[0]","survey-likert","467","857962","0.0-467.0","81ul4xkq","","","","","","","","0"
"1467.8300000000745","{""confidence"":0}","[0]","survey-likert","468","859431","0.0-468.0","81ul4xkq","","","","","","","",""
"","","","call-function","469","859432","0.0-469.0","81ul4xkq","","","","","","","",""
"null","","","html-keyboard-response","470","860937","0.0-470.0","81ul4xkq","","<span style=""color:Black; font-size:50px;"">Agent A","null","","","","",""
"null","","","video-keyboard-response","471","864007","0.0-471.0","81ul4xkq","","","null","","Agent A","veridical","STIM_SET_2/1159973.bmp_pp98_L1_V1.0_veridical_freeview_isoTrue.mp4",""
"null","","","html-keyboard-response","472","865513","0.0-472.0","81ul4xkq","","<span style=""color:Black; font-size:50px;"">Agent B","null","","","","",""
"null","","","video-keyboard-response","473","868583","0.0-473.0","81ul4xkq","","","null","","Agent B","scrambled","STIM_SET_2/1159973.bmp_pp98_L1_V1.0_scrambled_freeview_isoTrue.mp4",""
"","","","call-function","474","868584","0.0-474.0","81ul4xkq","","","","","","","",""
"2010.8149999999441","{""judgement"":0}","[0]","survey-likert","475","870595","0.0-475.0","81ul4xkq","","","","","","","","0"
"1420.4899999999907","{""confidence"":2}","[0]","survey-likert","476","872017","0.0-476.0","81ul4xkq","","","","","","","",""
"","","","call-function","477","872018","0.0-477.0","81ul4xkq","","","","","","","",""
"null","","","html-keyboard-response","478","873520","0.0-478.0","81ul4xkq","","<span style=""color:Black; font-size:50px;"">Agent A","null","","","","",""
"null","","","video-keyboard-response","479","876589","0.0-479.0","81ul4xkq","","","null","","Agent A","veridical","STIM_SET_2/1592857.bmp_pp52_L1_V1_veridical_freeview_isoTrue.mp4",""
"null","","","html-keyboard-response","480","878094","0.0-480.0","81ul4xkq","","<span style=""color:Black; font-size:50px;"">Agent B","null","","","","",""
"null","","","video-keyboard-response","481","881192","0.0-481.0","81ul4xkq","","","null","","Agent B","scrambled","STIM_SET_2/1592857.bmp_pp52_L1_V1_scrambled_freeview_isoTrue.mp4",""
"","","","call-function","482","881192","0.0-482.0","81ul4xkq","","","","","","","",""
"1436","{""judgement"":1}","[0]","survey-likert","483","882629","0.0-483.0","81ul4xkq","","","","","","","","0"
"1437.1900000000605","{""confidence"":2}","[0]","survey-likert","484","884068","0.0-484.0","81ul4xkq","","","","","","","",""
"","","","call-function","485","884068","0.0-485.0","81ul4xkq","","","","","","","",""
"null","","","html-keyboard-response","486","885571","0.0-486.0","81ul4xkq","","<span style=""color:Black; font-size:50px;"">Agent A","null","","","","",""
"null","","","video-keyboard-response","487","888676","0.0-487.0","81ul4xkq","","","null","","Agent A","scrambled","STIM_SET_2/498396.bmp_pp99_L2_V1.0_scrambled_freeview_isoTrue.mp4",""
"null","","","html-keyboard-response","488","890179","0.0-488.0","81ul4xkq","","<span style=""color:Black; font-size:50px;"">Agent B","null","","","","",""
"null","","","video-keyboard-response","489","893251","0.0-489.0","81ul4xkq","","","null","","Agent B","veridical","STIM_SET_2/498396.bmp_pp99_L2_V1.0_veridical_freeview_isoTrue.mp4",""
"","","","call-function","490","893252","0.0-490.0","81ul4xkq","","","","","","","",""
"1988.4400000000605","{""judgement"":0}","[0]","survey-likert","491","895242","0.0-491.0","81ul4xkq","","","","","","","","1"
"1506.4299999999348","{""confidence"":0}","[0]","survey-likert","492","896751","0.0-492.0","81ul4xkq","","","","","","","",""
"","","","call-function","493","896752","0.0-493.0","81ul4xkq","","","","","","","",""
"null","","","html-keyboard-response","494","898254","0.0-494.0","81ul4xkq","","<span style=""color:Black; font-size:50px;"">Agent A","null","","","","",""
"null","","","video-keyboard-response","495","901333","0.0-495.0","81ul4xkq","","","null","","Agent A","veridical","STIM_SET_2/1592168.bmp_pp71_L1_V1.0_veridical_freeview_isoTrue.mp4",""
"null","","","html-keyboard-response","496","902836","0.0-496.0","81ul4xkq","","<span style=""color:Black; font-size:50px;"">Agent B","null","","","","",""
"null","","","video-keyboard-response","497","905918","0.0-497.0","81ul4xkq","","","null","","Agent B","scrambled","STIM_SET_2/1592168.bmp_pp71_L1_V1.0_scrambled_freeview_isoTrue.mp4",""
"","","","call-function","498","905918","0.0-498.0","81ul4xkq","","","","","","","",""
"1718","{""judgement"":1}","[0]","survey-likert","499","907637","0.0-499.0","81ul4xkq","","","","","","","","0"
"1213.75","{""confidence"":1}","[0]","survey-likert","500","908852","0.0-500.0","81ul4xkq","","","","","","","",""
"3088.685000000056","","","instructions","501","911942","0.0-501.0","81ul4xkq","[{""page_index"":0,""viewing_time"":2069.6650000000373},{""page_index"":1,""viewing_time"":589.9949999999953},{""page_index"":2,""viewing_time"":428.86999999999534}]","","","","","","",""
"1701.1999999999534","","","instructions","502","913644","0.0-502.0","81ul4xkq","[{""page_index"":0,""viewing_time"":463.9649999999674},{""page_index"":1,""viewing_time"":564.0650000000605},{""page_index"":2,""viewing_time"":673.0649999999441}]","","","","","","",""
"","","","call-function","503","913644","0.0-503.0","81ul4xkq","","","","","","","",""
"null","","","html-keyboard-response","504","915147","0.0-504.0","81ul4xkq","","<span style=""color:Black; font-size:50px;"">Agent A","null","","","","",""
"null","","","video-keyboard-response","505","918225","0.0-505.0","81ul4xkq","","","null","","Agent A","veridical","STIM_SET_2/713633.bmp_pp58_L1_V1.0_veridical_freeview_isoTrue.mp4",""
"null","","","html-keyboard-response","506","919730","0.0-506.0","81ul4xkq","","<span style=""color:Black; font-size:50px;"">Agent B","null","","","","",""
"null","","","video-keyboard-response","507","922808","0.0-507.0","81ul4xkq","","","null","","Agent B","scrambled","STIM_SET_2/713633.bmp_pp58_L1_V1.0_scrambled_freeview_isoTrue.mp4",""
"","","","call-function","508","922809","0.0-508.0","81ul4xkq","","","","","","","",""
"2054.564999999944","{""judgement"":0}","[0]","survey-likert","509","924864","0.0-509.0","81ul4xkq","","","","","","","","0"
"1656.5449999999255","{""confidence"":1}","[0]","survey-likert","510","926522","0.0-510.0","81ul4xkq","","","","","","","",""
"","","","call-function","511","926523","0.0-511.0","81ul4xkq","","","","","","","",""
"null","","","html-keyboard-response","512","928026","0.0-512.0","81ul4xkq","","<span style=""color:Black; font-size:50px;"">Agent A","null","","","","",""
"null","","","video-keyboard-response","513","931124","0.0-513.0","81ul4xkq","","","null","","Agent A","scrambled","STIM_SET_2/1160247.bmp_pp54_L2_V1.0_scrambled_freeview_isoTrue.mp4",""
"null","","","html-keyboard-response","514","932627","0.0-514.0","81ul4xkq","","<span style=""color:Black; font-size:50px;"">Agent B","null","","","","",""
"null","","","video-keyboard-response","515","935728","0.0-515.0","81ul4xkq","","","null","","Agent B","veridical","STIM_SET_2/1160247.bmp_pp54_L2_V1.0_veridical_freeview_isoTrue.mp4",""
"","","","call-function","516","935729","0.0-516.0","81ul4xkq","","","","","","","",""
"2009.6949999999488","{""judgement"":1}","[0]","survey-likert","517","937739","0.0-517.0","81ul4xkq","","","","","","","","1"
"1624.8249999999534","{""confidence"":2}","[0]","survey-likert","518","939365","0.0-518.0","81ul4xkq","","","","","","","",""
"","","","call-function","519","939365","0.0-519.0","81ul4xkq","","","","","","","",""
"null","","","html-keyboard-response","520","940869","0.0-520.0","81ul4xkq","","<span style=""color:Black; font-size:50px;"">Agent A","null","","","","",""
"null","","","video-keyboard-response","521","943969","0.0-521.0","81ul4xkq","","","null","","Agent A","scrambled","STIM_SET_2/1592921.bmp_pp69_L3_V1.0_scrambled_freeview_isoTrue.mp4",""
"null","","","html-keyboard-response","522","945474","0.0-522.0","81ul4xkq","","<span style=""color:Black; font-size:50px;"">Agent B","null","","","","",""
"null","","","video-keyboard-response","523","948574","0.0-523.0","81ul4xkq","","","null","","Agent B","veridical","STIM_SET_2/1592921.bmp_pp69_L3_V1.0_veridical_freeview_isoTrue.mp4",""
"","","","call-function","524","948575","0.0-524.0","81ul4xkq","","","","","","","",""
"1880.4249999999302","{""judgement"":0}","[0]","survey-likert","525","950456","0.0-525.0","81ul4xkq","","","","","","","","1"
"1438","{""confidence"":2}","[0]","survey-likert","526","951895","0.0-526.0","81ul4xkq","","","","","","","",""
"","","","call-function","527","951896","0.0-527.0","81ul4xkq","","","","","","","",""
"null","","","html-keyboard-response","528","953400","0.0-528.0","81ul4xkq","","<span style=""color:Black; font-size:50px;"">Agent A","null","","","","",""
"null","","","video-keyboard-response","529","956493","0.0-529.0","81ul4xkq","","","null","","Agent A","veridical","STIM_SET_2/285684.bmp_pp80_L3_V1.0_veridical_freeview_isoTrue.mp4",""
"null","","","html-keyboard-response","530","957997","0.0-530.0","81ul4xkq","","<span style=""color:Black; font-size:50px;"">Agent B","null","","","","",""
"null","","","video-keyboard-response","531","961091","0.0-531.0","81ul4xkq","","","null","","Agent B","scrambled","STIM_SET_2/285684.bmp_pp80_L3_V1.0_scrambled_freeview_isoTrue.mp4",""
"","","","call-function","532","961092","0.0-532.0","81ul4xkq","","","","","","","",""
"2704.780000000028","{""judgement"":0}","[0]","survey-likert","533","963797","0.0-533.0","81ul4xkq","","","","","","","","0"
"1014.9600000000792","{""confidence"":0}","[0]","survey-likert","534","964814","0.0-534.0","81ul4xkq","","","","","","","",""
"","","","call-function","535","964815","0.0-535.0","81ul4xkq","","","","","","","",""
"null","","","html-keyboard-response","536","966320","0.0-536.0","81ul4xkq","","<span style=""color:Black; font-size:50px;"">Agent A","null","","","","",""
"null","","","video-keyboard-response","537","969400","0.0-537.0","81ul4xkq","","","null","","Agent A","scrambled","STIM_SET_2/713381.bmp_pp82_L2_V1.0_scrambled_freeview_isoTrue.mp4",""
"null","","","html-keyboard-response","538","970903","0.0-538.0","81ul4xkq","","<span style=""color:Black; font-size:50px;"">Agent B","null","","","","",""
"null","","","video-keyboard-response","539","973981","0.0-539.0","81ul4xkq","","","null","","Agent B","veridical","STIM_SET_2/713381.bmp_pp82_L2_V1.0_veridical_freeview_isoTrue.mp4",""
"","","","call-function","540","973981","0.0-540.0","81ul4xkq","","","","","","","",""
"2292.814999999944","{""judgement"":1}","[0]","survey-likert","541","976275","0.0-541.0","81ul4xkq","","","","","","","","1"
"1403.329999999958","{""confidence"":1}","[0]","survey-likert","542","977680","0.0-542.0","81ul4xkq","","","","","","","",""
"","","","call-function","543","977680","0.0-543.0","81ul4xkq","","","","","","","",""
"null","","","html-keyboard-response","544","979184","0.0-544.0","81ul4xkq","","<span style=""color:Black; font-size:50px;"">Agent A","null","","","","",""
"null","","","video-keyboard-response","545","982262","0.0-545.0","81ul4xkq","","","null","","Agent A","veridical","STIM_SET_2/1591781.bmp_pp63_L1_V1.0_veridical_freeview_isoTrue.mp4",""
"null","","","html-keyboard-response","546","983768","0.0-546.0","81ul4xkq","","<span style=""color:Black; font-size:50px;"">Agent B","null","","","","",""
"null","","","video-keyboard-response","547","986846","0.0-547.0","81ul4xkq","","","null","","Agent B","scrambled","STIM_SET_2/1591781.bmp_pp63_L1_V1.0_scrambled_freeview_isoTrue.mp4",""
"","","","call-function","548","986847","0.0-548.0","81ul4xkq","","","","","","","",""
"2162.554999999935","{""judgement"":1}","[0]","survey-likert","549","989011","0.0-549.0","81ul4xkq","","","","","","","","0"
"2090.070000000065","{""confidence"":1}","[0]","survey-likert","550","991102","0.0-550.0","81ul4xkq","","","","","","","",""
"","","","call-function","551","991102","0.0-551.0","81ul4xkq","","","","","","","",""
"null","","","html-keyboard-response","552","992604","0.0-552.0","81ul4xkq","","<span style=""color:Black; font-size:50px;"">Agent A","null","","","","",""
"null","","","video-keyboard-response","553","995701","0.0-553.0","81ul4xkq","","","null","","Agent A","veridical","STIM_SET_2/498326.bmp_pp57_L1_V1.0_veridical_freeview_isoTrue.mp4",""
"null","","","html-keyboard-response","554","997203","0.0-554.0","81ul4xkq","","<span style=""color:Black; font-size:50px;"">Agent B","null","","","","",""
"null","","","video-keyboard-response","555","1000274","0.0-555.0","81ul4xkq","","","null","","Agent B","scrambled","STIM_SET_2/498326.bmp_pp57_L1_V1.0_scrambled_freeview_isoTrue.mp4",""
"","","","call-function","556","1000275","0.0-556.0","81ul4xkq","","","","","","","",""
"2272.569999999949","{""judgement"":1}","[0]","survey-likert","557","1002549","0.0-557.0","81ul4xkq","","","","","","","","0"
"1092.125","{""confidence"":2}","[0]","survey-likert","558","1003643","0.0-558.0","81ul4xkq","","","","","","","",""
"","","","call-function","559","1003644","0.0-559.0","81ul4xkq","","","","","","","",""
"null","","","html-keyboard-response","560","1005145","0.0-560.0","81ul4xkq","","<span style=""color:Black; font-size:50px;"">Agent A","null","","","","",""
"null","","","video-keyboard-response","561","1008213","0.0-561.0","81ul4xkq","","","null","","Agent A","scrambled","STIM_SET_2/1591920.bmp_pp97_L3_V1_scrambled_freeview_isoTrue.mp4",""
"null","","","html-keyboard-response","562","1009720","0.0-562.0","81ul4xkq","","<span style=""color:Black; font-size:50px;"">Agent B","null","","","","",""
"null","","","video-keyboard-response","563","1012790","0.0-563.0","81ul4xkq","","","null","","Agent B","veridical","STIM_SET_2/1591920.bmp_pp97_L3_V1_veridical_freeview_isoTrue.mp4",""
"","","","call-function","564","1012790","0.0-564.0","81ul4xkq","","","","","","","",""
"2056.2449999999953","{""judgement"":0}","[0]","survey-likert","565","1014847","0.0-565.0","81ul4xkq","","","","","","","","1"
"1293.9450000000652","{""confidence"":2}","[0]","survey-likert","566","1016143","0.0-566.0","81ul4xkq","","","","","","","",""
"","","","call-function","567","1016143","0.0-567.0","81ul4xkq","","","","","","","",""
"null","","","html-keyboard-response","568","1017648","0.0-568.0","81ul4xkq","","<span style=""color:Black; font-size:50px;"">Agent A","null","","","","",""
"null","","","video-keyboard-response","569","1020721","0.0-569.0","81ul4xkq","","","null","","Agent A","veridical","STIM_SET_2/61513.bmp_pp75_L1_V1.0_veridical_freeview_isoTrue.mp4",""
"null","","","html-keyboard-response","570","1022227","0.0-570.0","81ul4xkq","","<span style=""color:Black; font-size:50px;"">Agent B","null","","","","",""
"null","","","video-keyboard-response","571","1025299","0.0-571.0","81ul4xkq","","","null","","Agent B","scrambled","STIM_SET_2/61513.bmp_pp75_L1_V1.0_scrambled_freeview_isoTrue.mp4",""
"","","","call-function","572","1025300","0.0-572.0","81ul4xkq","","","","","","","",""
"1587.280000000028","{""judgement"":1}","[0]","survey-likert","573","1026888","0.0-573.0","81ul4xkq","","","","","","","","0"
"1085.6600000000326","{""confidence"":2}","[0]","survey-likert","574","1027975","0.0-574.0","81ul4xkq","","","","","","","",""
"","","","call-function","575","1027975","0.0-575.0","81ul4xkq","","","","","","","",""
"null","","","html-keyboard-response","576","1029481","0.0-576.0","81ul4xkq","","<span style=""color:Black; font-size:50px;"">Agent A","null","","","","",""
"null","","","video-keyboard-response","577","1032580","0.0-577.0","81ul4xkq","","","null","","Agent A","scrambled","STIM_SET_2/1592025.bmp_pp68_L1_V1.0_scrambled_freeview_isoTrue.mp4",""
"null","","","html-keyboard-response","578","1034083","0.0-578.0","81ul4xkq","","<span style=""color:Black; font-size:50px;"">Agent B","null","","","","",""
"null","","","video-keyboard-response","579","1037186","0.0-579.0","81ul4xkq","","","null","","Agent B","veridical","STIM_SET_2/1592025.bmp_pp68_L1_V1.0_veridical_freeview_isoTrue.mp4",""
"","","","call-function","580","1037186","0.0-580.0","81ul4xkq","","","","","","","",""
"1567.265000000014","{""judgement"":0}","[0]","survey-likert","581","1038754","0.0-581.0","81ul4xkq","","","","","","","","1"
"1038.4400000000605","{""confidence"":0}","[0]","survey-likert","582","1039794","0.0-582.0","81ul4xkq","","","","","","","",""
"1046.625","","","instructions","583","1040841","0.0-583.0","81ul4xkq","[{""page_index"":0,""viewing_time"":1046.4799999999814}]","","","","","","",""
"1153.9449999999488","","","instructions","584","1041996","0.0-584.0","81ul4xkq","[{""page_index"":0,""viewing_time"":1153.844999999972}]","","","","","","",""
"6527.555000000051","{""post-1"":2}","[0]","survey-likert","585","1048524","0.0-585.0","81ul4xkq","","","","","","","",""
"2975.410000000149","{""post-1"":0}","[0]","survey-likert","586","1051501","0.0-586.0","81ul4xkq","","","","","","","",""
"4909.489999999991","{""post-2"":1}","[0]","survey-likert","587","1056412","0.0-587.0","81ul4xkq","","","","","","","",""
"2333.6400000001304","{""post-2"":0}","[0]","survey-likert","588","1058747","0.0-588.0","81ul4xkq","","","","","","","",""
"4077.5","{""post-3"":2}","[0]","survey-likert","589","1062825","0.0-589.0","81ul4xkq","","","","","","","",""
"1712.7950000001583","{""post-3"":0}","[0]","survey-likert","590","1064539","0.0-590.0","81ul4xkq","","","","","","","",""
"2437.8950000000186","{""post-4"":1}","[0]","survey-likert","591","1066978","0.0-591.0","81ul4xkq","","","","","","","",""
"2214.9799999999814","{""post-4"":0}","[0]","survey-likert","592","1069195","0.0-592.0","81ul4xkq","","","","","","","",""
"4680.895000000019","{""post-5"":1}","[0]","survey-likert","593","1073878","0.0-593.0","81ul4xkq","","","","","","","",""
"2705.429999999935","{""post-5"":2}","[0]","survey-likert","594","1076585","0.0-594.0","81ul4xkq","","","","","","","",""
"2095.7649999998976","{""Q0"":""""}","","survey-text","595","1078686","0.0-595.0","81ul4xkq","","","","","","","",""
"38197.12999999989","{""Q0"":""progression through the image and comparison between spots indicated human-ness to me""}","","survey-text","596","1116886","0.0-596.0","81ul4xkq","","","","","","","",""
"16773.314999999944","{""Q0"":""when I could not differentiate between similar patterns""}","","survey-text","597","1133662","0.0-597.0","81ul4xkq","","","","","","","",""
"1202.660000000149","","","instructions","598","1134866","0.0-598.0","81ul4xkq","[{""page_index"":0,""viewing_time"":1202.5100000000093}]","","","","","","",""
"220119.20999999996","{""Experimenter_end"":[""Printed ID# 81ul4xkq on consent form"",""Given subject SONA credit or payment"",""Given the subject debrief form""]}","[0]","survey-multi-select","599","1354987","0.0-599.0","81ul4xkq","","","","","","","",""
