"rt","responses","question_order","trial_type","trial_index","time_elapsed","internal_node_id","ID","view_history","stimulus","key_press","value","agent","condition","image","correct_answer"
"91072.485","{""Experimenter"":[""Confirmed subject's identity"",""Confirmed normal or corrected-to-normal vision"",""Obtained consent (signature and date)"",""Checked the test room lighting"",""Checked computer screen lighting"",""Checked distance from screen to chin rest (50cm)"",""Cleaned and adjusted chin rest"",""Counterbalanced the order of the tasks"",""Opened the experiment in Firefox"",""Made the experiment full screen"",""Encouraged subject to silence phone, put away distractors, etc.""]}","[0]","survey-multi-select","0","91082","0.0-0.0","8fqlb0sm","","","","","","","",""
"19617.79999999999","","","instructions","1","110702","0.0-1.0","8fqlb0sm","[{""page_index"":0,""viewing_time"":19617.649999999994}]","","","","","","",""
"5714.069999999992","{""Age"":0,""Sex"":1,""Gender"":1}","[0,1,2]","survey-likert","2","116418","0.0-2.0","8fqlb0sm","","","","","","","",""
"11247.62000000001","","","instructions","3","127666","0.0-3.0","8fqlb0sm","[{""page_index"":0,""viewing_time"":5863.560000000012},{""page_index"":1,""viewing_time"":848.0499999999884},{""page_index"":2,""viewing_time"":4535.889999999999}]","","","","","","",""
"2070.8650000000052","","","instructions","4","129738","0.0-4.0","8fqlb0sm","[{""page_index"":0,""viewing_time"":2070.7599999999948}]","","","","","","",""
"null","","","video-keyboard-response","5","132818","0.0-5.0","8fqlb0sm","","","null","","","","",""
"8009.820000000007","","","instructions","6","140828","0.0-6.0","8fqlb0sm","[{""page_index"":0,""viewing_time"":2115.110000000015},{""page_index"":1,""viewing_time"":1648.2299999999814},{""page_index"":2,""viewing_time"":4245.900000000023}]","","","","","","",""
"2093.3800000000047","","","instructions","7","142923","0.0-7.0","8fqlb0sm","[{""page_index"":0,""viewing_time"":2093.274999999994}]","","","","","","",""
"2101.1199999999953","","","instructions","8","145025","0.0-8.0","8fqlb0sm","[{""page_index"":0,""viewing_time"":2101.00999999998}]","","","","","","",""
"null","","","video-keyboard-response","9","148097","0.0-9.0","8fqlb0sm","","","null","","","","",""
"12161.400000000023","","","instructions","10","160259","0.0-10.0","8fqlb0sm","[{""page_index"":0,""viewing_time"":1127.1000000000058},{""page_index"":1,""viewing_time"":4411.25},{""page_index"":2,""viewing_time"":6622.890000000014}]","","","","","","",""
"2485.25","","","instructions","11","162745","0.0-11.0","8fqlb0sm","[{""page_index"":0,""viewing_time"":2485.139999999985}]","","","","","","",""
"","","","call-function","12","162745","0.0-12.0","8fqlb0sm","","","","","","","",""
"null","","","html-keyboard-response","13","164247","0.0-13.0","8fqlb0sm","","<span style=""color:Black; font-size:50px;"">Agent A","null","","","","",""
"null","","","video-keyboard-response","14","167135","0.0-14.0","8fqlb0sm","","","null","","Agent A","scrambled","FOR_REV_MAP_BLOBBY_STIM/1160189.bmp_pp64_L1_V1.0_veridical_freeview_isoTrue_fps144_reversed_REAL.mp4",""
"null","","","html-keyboard-response","15","168638","0.0-15.0","8fqlb0sm","","<span style=""color:Black; font-size:50px;"">Agent B","null","","","","",""
"null","","","video-keyboard-response","16","171499","0.0-16.0","8fqlb0sm","","","null","","Agent B","veridical","FOR_REV_MAP_BLOBBY_STIM/1160189.bmp_pp64_L1_V1.0_veridical_freeview_isoTrue_fps144.mp4",""
"","","","call-function","17","171500","0.0-17.0","8fqlb0sm","","","","","","","",""
"2223.319999999978","{""judgement"":1}","[0]","survey-likert","18","173724","0.0-18.0","8fqlb0sm","","","","","","","","1"
"2572.764999999985","{""confidence"":2}","[0]","survey-likert","19","176298","0.0-19.0","8fqlb0sm","","","","","","","",""
"","","","call-function","20","176299","0.0-20.0","8fqlb0sm","","","","","","","",""
"null","","","html-keyboard-response","21","177805","0.0-21.0","8fqlb0sm","","<span style=""color:Black; font-size:50px;"">Agent A","null","","","","",""
"null","","","video-keyboard-response","22","180396","0.0-22.0","8fqlb0sm","","","null","","Agent A","veridical","FOR_REV_MAP_BLOBBY_STIM/713633.bmp_pp58_L1_V1.0_veridical_freeview_isoTrue_fps144.mp4",""
"null","","","html-keyboard-response","23","181902","0.0-23.0","8fqlb0sm","","<span style=""color:Black; font-size:50px;"">Agent B","null","","","","",""
"null","","","video-keyboard-response","24","184513","0.0-24.0","8fqlb0sm","","","null","","Agent B","scrambled","FOR_REV_MAP_BLOBBY_STIM/713633.bmp_pp58_L1_V1.0_veridical_freeview_isoTrue_fps144_reversed_REAL.mp4",""
"","","","call-function","25","184513","0.0-25.0","8fqlb0sm","","","","","","","",""
"2917.0350000000035","{""judgement"":1}","[0]","survey-likert","26","187431","0.0-26.0","8fqlb0sm","","","","","","","","0"
"1754.8699999999953","{""confidence"":2}","[0]","survey-likert","27","189188","0.0-27.0","8fqlb0sm","","","","","","","",""
"","","","call-function","28","189189","0.0-28.0","8fqlb0sm","","","","","","","",""
"null","","","html-keyboard-response","29","190691","0.0-29.0","8fqlb0sm","","<span style=""color:Black; font-size:50px;"">Agent A","null","","","","",""
"null","","","video-keyboard-response","30","193508","0.0-30.0","8fqlb0sm","","","null","","Agent A","veridical","FOR_REV_MAP_BLOBBY_STIM/1159392.bmp_pp96_L2_V1.0_veridical_freeview_isoTrue_fps144.mp4",""
"null","","","html-keyboard-response","31","195012","0.0-31.0","8fqlb0sm","","<span style=""color:Black; font-size:50px;"">Agent B","null","","","","",""
"null","","","video-keyboard-response","32","197816","0.0-32.0","8fqlb0sm","","","null","","Agent B","scrambled","FOR_REV_MAP_BLOBBY_STIM/1159392.bmp_pp96_L2_V1.0_veridical_freeview_isoTrue_fps144_reversed_REAL.mp4",""
"","","","call-function","33","197817","0.0-33.0","8fqlb0sm","","","","","","","",""
"5743.24000000002","{""judgement"":0}","[0]","survey-likert","34","203561","0.0-34.0","8fqlb0sm","","","","","","","","0"
"2149.3550000000105","{""confidence"":2}","[0]","survey-likert","35","205711","0.0-35.0","8fqlb0sm","","","","","","","",""
"","","","call-function","36","205712","0.0-36.0","8fqlb0sm","","","","","","","",""
"null","","","html-keyboard-response","37","207218","0.0-37.0","8fqlb0sm","","<span style=""color:Black; font-size:50px;"">Agent A","null","","","","",""
"null","","","video-keyboard-response","38","209987","0.0-38.0","8fqlb0sm","","","null","","Agent A","scrambled","FOR_REV_MAP_BLOBBY_STIM/1592047.bmp_pp51_L1_V1.0_veridical_freeview_isoTrue_fps144_reversed_REAL.mp4",""
"null","","","html-keyboard-response","39","211493","0.0-39.0","8fqlb0sm","","<span style=""color:Black; font-size:50px;"">Agent B","null","","","","",""
"null","","","video-keyboard-response","40","214290","0.0-40.0","8fqlb0sm","","","null","","Agent B","veridical","FOR_REV_MAP_BLOBBY_STIM/1592047.bmp_pp51_L1_V1.0_veridical_freeview_isoTrue_fps144.mp4",""
"","","","call-function","41","214290","0.0-41.0","8fqlb0sm","","","","","","","",""
"3325.2450000000244","{""judgement"":1}","[0]","survey-likert","42","217616","0.0-42.0","8fqlb0sm","","","","","","","","1"
"1437.1650000000081","{""confidence"":2}","[0]","survey-likert","43","219054","0.0-43.0","8fqlb0sm","","","","","","","",""
"","","","call-function","44","219055","0.0-44.0","8fqlb0sm","","","","","","","",""
"null","","","html-keyboard-response","45","220559","0.0-45.0","8fqlb0sm","","<span style=""color:Black; font-size:50px;"">Agent A","null","","","","",""
"null","","","video-keyboard-response","46","223325","0.0-46.0","8fqlb0sm","","","null","","Agent A","scrambled","FOR_REV_MAP_BLOBBY_STIM/1592129.bmp_pp153_L3_V1.0_veridical_freeview_isoTrue_fps144_reversed_REAL.mp4",""
"null","","","html-keyboard-response","47","224828","0.0-47.0","8fqlb0sm","","<span style=""color:Black; font-size:50px;"">Agent B","null","","","","",""
"null","","","video-keyboard-response","48","227593","0.0-48.0","8fqlb0sm","","","null","","Agent B","veridical","FOR_REV_MAP_BLOBBY_STIM/1592129.bmp_pp153_L3_V1.0_veridical_freeview_isoTrue_fps144.mp4",""
"","","","call-function","49","227594","0.0-49.0","8fqlb0sm","","","","","","","",""
"2446.5449999999837","{""judgement"":1}","[0]","survey-likert","50","230042","0.0-50.0","8fqlb0sm","","","","","","","","1"
"6512.320000000007","{""confidence"":1}","[0]","survey-likert","51","236556","0.0-51.0","8fqlb0sm","","","","","","","",""
"","","","call-function","52","236557","0.0-52.0","8fqlb0sm","","","","","","","",""
"null","","","html-keyboard-response","53","238060","0.0-53.0","8fqlb0sm","","<span style=""color:Black; font-size:50px;"">Agent A","null","","","","",""
"null","","","video-keyboard-response","54","240870","0.0-54.0","8fqlb0sm","","","null","","Agent A","veridical","FOR_REV_MAP_BLOBBY_STIM/713920.bmp_pp76_L1_V1.0_veridical_freeview_isoTrue_fps144.mp4",""
"null","","","html-keyboard-response","55","242374","0.0-55.0","8fqlb0sm","","<span style=""color:Black; font-size:50px;"">Agent B","null","","","","",""
"null","","","video-keyboard-response","56","245187","0.0-56.0","8fqlb0sm","","","null","","Agent B","scrambled","FOR_REV_MAP_BLOBBY_STIM/713920.bmp_pp76_L1_V1.0_veridical_freeview_isoTrue_fps144_reversed_REAL.mp4",""
"","","","call-function","57","245188","0.0-57.0","8fqlb0sm","","","","","","","",""
"2274.835000000021","{""judgement"":1}","[0]","survey-likert","58","247463","0.0-58.0","8fqlb0sm","","","","","","","","0"
"1966.179999999993","{""confidence"":2}","[0]","survey-likert","59","249431","0.0-59.0","8fqlb0sm","","","","","","","",""
"","","","call-function","60","249431","0.0-60.0","8fqlb0sm","","","","","","","",""
"null","","","html-keyboard-response","61","250933","0.0-61.0","8fqlb0sm","","<span style=""color:Black; font-size:50px;"">Agent A","null","","","","",""
"null","","","video-keyboard-response","62","253734","0.0-62.0","8fqlb0sm","","","null","","Agent A","scrambled","FOR_REV_MAP_BLOBBY_STIM/713328.bmp_pp86_L2_V1.0_veridical_freeview_isoTrue_fps144_reversed_REAL.mp4",""
"null","","","html-keyboard-response","63","255238","0.0-63.0","8fqlb0sm","","<span style=""color:Black; font-size:50px;"">Agent B","null","","","","",""
"null","","","video-keyboard-response","64","258017","0.0-64.0","8fqlb0sm","","","null","","Agent B","veridical","FOR_REV_MAP_BLOBBY_STIM/713328.bmp_pp86_L2_V1.0_veridical_freeview_isoTrue_fps144.mp4",""
"","","","call-function","65","258018","0.0-65.0","8fqlb0sm","","","","","","","",""
"2711.554999999993","{""judgement"":1}","[0]","survey-likert","66","260730","0.0-66.0","8fqlb0sm","","","","","","","","1"
"1495.1399999999849","{""confidence"":3}","[0]","survey-likert","67","262227","0.0-67.0","8fqlb0sm","","","","","","","",""
"","","","call-function","68","262227","0.0-68.0","8fqlb0sm","","","","","","","",""
"null","","","html-keyboard-response","69","263729","0.0-69.0","8fqlb0sm","","<span style=""color:Black; font-size:50px;"">Agent A","null","","","","",""
"null","","","video-keyboard-response","70","266572","0.0-70.0","8fqlb0sm","","","null","","Agent A","veridical","FOR_REV_MAP_BLOBBY_STIM/1592857.bmp_pp52_L1_V1.0_veridical_freeview_isoTrue_fps144.mp4",""
"null","","","html-keyboard-response","71","268077","0.0-71.0","8fqlb0sm","","<span style=""color:Black; font-size:50px;"">Agent B","null","","","","",""
"null","","","video-keyboard-response","72","270910","0.0-72.0","8fqlb0sm","","","null","","Agent B","scrambled","FOR_REV_MAP_BLOBBY_STIM/1592857.bmp_pp52_L1_V1.0_veridical_freeview_isoTrue_fps144_reversed_REAL.mp4",""
"","","","call-function","73","270910","0.0-73.0","8fqlb0sm","","","","","","","",""
"1703.4199999999837","{""judgement"":0}","[0]","survey-likert","74","272614","0.0-74.0","8fqlb0sm","","","","","","","","0"
"1476.9000000000233","{""confidence"":3}","[0]","survey-likert","75","274092","0.0-75.0","8fqlb0sm","","","","","","","",""
"","","","call-function","76","274093","0.0-76.0","8fqlb0sm","","","","","","","",""
"null","","","html-keyboard-response","77","275598","0.0-77.0","8fqlb0sm","","<span style=""color:Black; font-size:50px;"">Agent A","null","","","","",""
"null","","","video-keyboard-response","78","278212","0.0-78.0","8fqlb0sm","","","null","","Agent A","scrambled","FOR_REV_MAP_BLOBBY_STIM/1159874.bmp_pp96_L2_V1.0_veridical_freeview_isoTrue_fps144_reversed_REAL.mp4",""
"null","","","html-keyboard-response","79","279716","0.0-79.0","8fqlb0sm","","<span style=""color:Black; font-size:50px;"">Agent B","null","","","","",""
"null","","","video-keyboard-response","80","282333","0.0-80.0","8fqlb0sm","","","null","","Agent B","veridical","FOR_REV_MAP_BLOBBY_STIM/1159874.bmp_pp96_L2_V1.0_veridical_freeview_isoTrue_fps144.mp4",""
"","","","call-function","81","282333","0.0-81.0","8fqlb0sm","","","","","","","",""
"1590.134999999951","{""judgement"":1}","[0]","survey-likert","82","283924","0.0-82.0","8fqlb0sm","","","","","","","","1"
"1723.4100000000326","{""confidence"":2}","[0]","survey-likert","83","285649","0.0-83.0","8fqlb0sm","","","","","","","",""
"","","","call-function","84","285649","0.0-84.0","8fqlb0sm","","","","","","","",""
"null","","","html-keyboard-response","85","287153","0.0-85.0","8fqlb0sm","","<span style=""color:Black; font-size:50px;"">Agent A","null","","","","",""
"null","","","video-keyboard-response","86","289747","0.0-86.0","8fqlb0sm","","","null","","Agent A","veridical","FOR_REV_MAP_BLOBBY_STIM/498398.bmp_pp81_L1_V1.0_veridical_freeview_isoTrue_fps144.mp4",""
"null","","","html-keyboard-response","87","291250","0.0-87.0","8fqlb0sm","","<span style=""color:Black; font-size:50px;"">Agent B","null","","","","",""
"null","","","video-keyboard-response","88","293823","0.0-88.0","8fqlb0sm","","","null","","Agent B","scrambled","FOR_REV_MAP_BLOBBY_STIM/498398.bmp_pp81_L1_V1.0_veridical_freeview_isoTrue_fps144_reversed_REAL.mp4",""
"","","","call-function","89","293823","0.0-89.0","8fqlb0sm","","","","","","","",""
"4415.674999999988","{""judgement"":1}","[0]","survey-likert","90","298240","0.0-90.0","8fqlb0sm","","","","","","","","0"
"1643.1350000000093","{""confidence"":0}","[0]","survey-likert","91","299884","0.0-91.0","8fqlb0sm","","","","","","","",""
"3543.3300000000163","","","instructions","92","303428","0.0-92.0","8fqlb0sm","[{""page_index"":0,""viewing_time"":1133.9850000000442},{""page_index"":1,""viewing_time"":1700.1299999999464},{""page_index"":2,""viewing_time"":708.9550000000163}]","","","","","","",""
"3536.3800000000047","","","instructions","93","306965","0.0-93.0","8fqlb0sm","[{""page_index"":0,""viewing_time"":938.234999999986},{""page_index"":1,""viewing_time"":1862.945000000007},{""page_index"":2,""viewing_time"":735.0950000000303}]","","","","","","",""
"","","","call-function","94","306965","0.0-94.0","8fqlb0sm","","","","","","","",""
"null","","","html-keyboard-response","95","308469","0.0-95.0","8fqlb0sm","","<span style=""color:Black; font-size:50px;"">Agent A","null","","","","",""
"null","","","video-keyboard-response","96","311228","0.0-96.0","8fqlb0sm","","","null","","Agent A","scrambled","FOR_REV_MAP_BLOBBY_STIM/1592017.bmp_pp154_L1_V1.0_veridical_freeview_isoTrue_fps144_reversed_REAL.mp4",""
"null","","","html-keyboard-response","97","312730","0.0-97.0","8fqlb0sm","","<span style=""color:Black; font-size:50px;"">Agent B","null","","","","",""
"null","","","video-keyboard-response","98","315485","0.0-98.0","8fqlb0sm","","","null","","Agent B","veridical","FOR_REV_MAP_BLOBBY_STIM/1592017.bmp_pp154_L1_V1.0_veridical_freeview_isoTrue_fps144.mp4",""
"","","","call-function","99","315485","0.0-99.0","8fqlb0sm","","","","","","","",""
"6270.119999999995","{""judgement"":1}","[0]","survey-likert","100","321756","0.0-100.0","8fqlb0sm","","","","","","","","1"
"1215.9100000000326","{""confidence"":0}","[0]","survey-likert","101","322973","0.0-101.0","8fqlb0sm","","","","","","","",""
"","","","call-function","102","322973","0.0-102.0","8fqlb0sm","","","","","","","",""
"null","","","html-keyboard-response","103","324476","0.0-103.0","8fqlb0sm","","<span style=""color:Black; font-size:50px;"">Agent A","null","","","","",""
"null","","","video-keyboard-response","104","327369","0.0-104.0","8fqlb0sm","","","null","","Agent A","veridical","FOR_REV_MAP_BLOBBY_STIM/498261.bmp_pp84_L3_V1.0_veridical_freeview_isoTrue_fps144.mp4",""
"null","","","html-keyboard-response","105","328873","0.0-105.0","8fqlb0sm","","<span style=""color:Black; font-size:50px;"">Agent B","null","","","","",""
"null","","","video-keyboard-response","106","331706","0.0-106.0","8fqlb0sm","","","null","","Agent B","scrambled","FOR_REV_MAP_BLOBBY_STIM/498261.bmp_pp84_L3_V1.0_veridical_freeview_isoTrue_fps144_reversed_REAL.mp4",""
"","","","call-function","107","331707","0.0-107.0","8fqlb0sm","","","","","","","",""
"1989.7399999999907","{""judgement"":1}","[0]","survey-likert","108","333699","0.0-108.0","8fqlb0sm","","","","","","","","0"
"1546.4700000000303","{""confidence"":3}","[0]","survey-likert","109","335247","0.0-109.0","8fqlb0sm","","","","","","","",""
"","","","call-function","110","335247","0.0-110.0","8fqlb0sm","","","","","","","",""
"null","","","html-keyboard-response","111","336751","0.0-111.0","8fqlb0sm","","<span style=""color:Black; font-size:50px;"">Agent A","null","","","","",""
"null","","","video-keyboard-response","112","339550","0.0-112.0","8fqlb0sm","","","null","","Agent A","veridical","FOR_REV_MAP_BLOBBY_STIM/1592921.bmp_pp69_L3_V1.0_veridical_freeview_isoTrue_fps144.mp4",""
"null","","","html-keyboard-response","113","341054","0.0-113.0","8fqlb0sm","","<span style=""color:Black; font-size:50px;"">Agent B","null","","","","",""
"null","","","video-keyboard-response","114","343850","0.0-114.0","8fqlb0sm","","","null","","Agent B","scrambled","FOR_REV_MAP_BLOBBY_STIM/1592921.bmp_pp69_L3_V1.0_veridical_freeview_isoTrue_fps144_reversed_REAL.mp4",""
"","","","call-function","115","343851","0.0-115.0","8fqlb0sm","","","","","","","",""
"1482.0350000000326","{""judgement"":1}","[0]","survey-likert","116","345334","0.0-116.0","8fqlb0sm","","","","","","","","0"
"1902.8700000000536","{""confidence"":2}","[0]","survey-likert","117","347238","0.0-117.0","8fqlb0sm","","","","","","","",""
"","","","call-function","118","347238","0.0-118.0","8fqlb0sm","","","","","","","",""
"null","","","html-keyboard-response","119","348740","0.0-119.0","8fqlb0sm","","<span style=""color:Black; font-size:50px;"">Agent A","null","","","","",""
"null","","","video-keyboard-response","120","351445","0.0-120.0","8fqlb0sm","","","null","","Agent A","scrambled","FOR_REV_MAP_BLOBBY_STIM/61513.bmp_pp75_L1_V1.0_veridical_freeview_isoTrue_fps144_reversed_REAL.mp4",""
"null","","","html-keyboard-response","121","352948","0.0-121.0","8fqlb0sm","","<span style=""color:Black; font-size:50px;"">Agent B","null","","","","",""
"null","","","video-keyboard-response","122","355613","0.0-122.0","8fqlb0sm","","","null","","Agent B","veridical","FOR_REV_MAP_BLOBBY_STIM/61513.bmp_pp75_L1_V1.0_veridical_freeview_isoTrue_fps144.mp4",""
"","","","call-function","123","355614","0.0-123.0","8fqlb0sm","","","","","","","",""
"4285.964999999967","{""judgement"":0}","[0]","survey-likert","124","359901","0.0-124.0","8fqlb0sm","","","","","","","","1"
"1794.454999999958","{""confidence"":0}","[0]","survey-likert","125","361697","0.0-125.0","8fqlb0sm","","","","","","","",""
"","","","call-function","126","361697","0.0-126.0","8fqlb0sm","","","","","","","",""
"null","","","html-keyboard-response","127","363200","0.0-127.0","8fqlb0sm","","<span style=""color:Black; font-size:50px;"">Agent A","null","","","","",""
"null","","","video-keyboard-response","128","365974","0.0-128.0","8fqlb0sm","","","null","","Agent A","scrambled","FOR_REV_MAP_BLOBBY_STIM/1592747.bmp_pp53_L2_V1.0_veridical_freeview_isoTrue_fps144_reversed_REAL.mp4",""
"null","","","html-keyboard-response","129","367478","0.0-129.0","8fqlb0sm","","<span style=""color:Black; font-size:50px;"">Agent B","null","","","","",""
"null","","","video-keyboard-response","130","370317","0.0-130.0","8fqlb0sm","","","null","","Agent B","veridical","FOR_REV_MAP_BLOBBY_STIM/1592747.bmp_pp53_L2_V1.0_veridical_freeview_isoTrue_fps144.mp4",""
"","","","call-function","131","370318","0.0-131.0","8fqlb0sm","","","","","","","",""
"1534.875","{""judgement"":1}","[0]","survey-likert","132","371854","0.0-132.0","8fqlb0sm","","","","","","","","1"
"3949.634999999951","{""confidence"":2}","[0]","survey-likert","133","375805","0.0-133.0","8fqlb0sm","","","","","","","",""
"","","","call-function","134","375806","0.0-134.0","8fqlb0sm","","","","","","","",""
"null","","","html-keyboard-response","135","377309","0.0-135.0","8fqlb0sm","","<span style=""color:Black; font-size:50px;"">Agent A","null","","","","",""
"null","","","video-keyboard-response","136","380042","0.0-136.0","8fqlb0sm","","","null","","Agent A","veridical","FOR_REV_MAP_BLOBBY_STIM/285715.bmp_pp67_L2_V1.0_veridical_freeview_isoTrue_fps144.mp4",""
"null","","","html-keyboard-response","137","381545","0.0-137.0","8fqlb0sm","","<span style=""color:Black; font-size:50px;"">Agent B","null","","","","",""
"null","","","video-keyboard-response","138","384279","0.0-138.0","8fqlb0sm","","","null","","Agent B","scrambled","FOR_REV_MAP_BLOBBY_STIM/285715.bmp_pp67_L2_V1.0_veridical_freeview_isoTrue_fps144_reversed_REAL.mp4",""
"","","","call-function","139","384279","0.0-139.0","8fqlb0sm","","","","","","","",""
"1757.600000000035","{""judgement"":1}","[0]","survey-likert","140","386038","0.0-140.0","8fqlb0sm","","","","","","","","0"
"1328.414999999979","{""confidence"":0}","[0]","survey-likert","141","387367","0.0-141.0","8fqlb0sm","","","","","","","",""
"","","","call-function","142","387368","0.0-142.0","8fqlb0sm","","","","","","","",""
"null","","","html-keyboard-response","143","388872","0.0-143.0","8fqlb0sm","","<span style=""color:Black; font-size:50px;"">Agent A","null","","","","",""
"null","","","video-keyboard-response","144","391647","0.0-144.0","8fqlb0sm","","","null","","Agent A","scrambled","FOR_REV_MAP_BLOBBY_STIM/1159329.bmp_pp61_L2_V1.0_veridical_freeview_isoTrue_fps144_reversed_REAL.mp4",""
"null","","","html-keyboard-response","145","393152","0.0-145.0","8fqlb0sm","","<span style=""color:Black; font-size:50px;"">Agent B","null","","","","",""
"null","","","video-keyboard-response","146","395932","0.0-146.0","8fqlb0sm","","","null","","Agent B","veridical","FOR_REV_MAP_BLOBBY_STIM/1159329.bmp_pp61_L2_V1.0_veridical_freeview_isoTrue_fps144.mp4",""
"","","","call-function","147","395932","0.0-147.0","8fqlb0sm","","","","","","","",""
"2704.1849999999977","{""judgement"":0}","[0]","survey-likert","148","398637","0.0-148.0","8fqlb0sm","","","","","","","","1"
"2127.0500000000466","{""confidence"":2}","[0]","survey-likert","149","400765","0.0-149.0","8fqlb0sm","","","","","","","",""
"","","","call-function","150","400766","0.0-150.0","8fqlb0sm","","","","","","","",""
"null","","","html-keyboard-response","151","402272","0.0-151.0","8fqlb0sm","","<span style=""color:Black; font-size:50px;"">Agent A","null","","","","",""
"null","","","video-keyboard-response","152","404998","0.0-152.0","8fqlb0sm","","","null","","Agent A","scrambled","FOR_REV_MAP_BLOBBY_STIM/1591975.bmp_pp88_L2_V1.0_veridical_freeview_isoTrue_fps144_reversed_REAL.mp4",""
"null","","","html-keyboard-response","153","406501","0.0-153.0","8fqlb0sm","","<span style=""color:Black; font-size:50px;"">Agent B","null","","","","",""
"null","","","video-keyboard-response","154","409228","0.0-154.0","8fqlb0sm","","","null","","Agent B","veridical","FOR_REV_MAP_BLOBBY_STIM/1591975.bmp_pp88_L2_V1.0_veridical_freeview_isoTrue_fps144.mp4",""
"","","","call-function","155","409229","0.0-155.0","8fqlb0sm","","","","","","","",""
"4437.684999999998","{""judgement"":1}","[0]","survey-likert","156","413667","0.0-156.0","8fqlb0sm","","","","","","","","1"
"1703.5599999999977","{""confidence"":0}","[0]","survey-likert","157","415372","0.0-157.0","8fqlb0sm","","","","","","","",""
"","","","call-function","158","415373","0.0-158.0","8fqlb0sm","","","","","","","",""
"null","","","html-keyboard-response","159","416876","0.0-159.0","8fqlb0sm","","<span style=""color:Black; font-size:50px;"">Agent A","null","","","","",""
"null","","","video-keyboard-response","160","419563","0.0-160.0","8fqlb0sm","","","null","","Agent A","veridical","FOR_REV_MAP_BLOBBY_STIM/713788.bmp_pp52_L1_V1.0_veridical_freeview_isoTrue_fps144.mp4",""
"null","","","html-keyboard-response","161","421067","0.0-161.0","8fqlb0sm","","<span style=""color:Black; font-size:50px;"">Agent B","null","","","","",""
"null","","","video-keyboard-response","162","423742","0.0-162.0","8fqlb0sm","","","null","","Agent B","scrambled","FOR_REV_MAP_BLOBBY_STIM/713788.bmp_pp52_L1_V1.0_veridical_freeview_isoTrue_fps144_reversed_REAL.mp4",""
"","","","call-function","163","423743","0.0-163.0","8fqlb0sm","","","","","","","",""
"1803.7849999999744","{""judgement"":0}","[0]","survey-likert","164","425549","0.0-164.0","8fqlb0sm","","","","","","","","0"
"1859.2299999999814","{""confidence"":2}","[0]","survey-likert","165","427410","0.0-165.0","8fqlb0sm","","","","","","","",""
"","","","call-function","166","427410","0.0-166.0","8fqlb0sm","","","","","","","",""
"null","","","html-keyboard-response","167","428915","0.0-167.0","8fqlb0sm","","<span style=""color:Black; font-size:50px;"">Agent A","null","","","","",""
"null","","","video-keyboard-response","168","431677","0.0-168.0","8fqlb0sm","","","null","","Agent A","scrambled","FOR_REV_MAP_BLOBBY_STIM/150463.bmp_pp55_L3_V1.0_veridical_freeview_isoTrue_fps144_reversed_REAL.mp4",""
"null","","","html-keyboard-response","169","433181","0.0-169.0","8fqlb0sm","","<span style=""color:Black; font-size:50px;"">Agent B","null","","","","",""
"null","","","video-keyboard-response","170","435941","0.0-170.0","8fqlb0sm","","","null","","Agent B","veridical","FOR_REV_MAP_BLOBBY_STIM/150463.bmp_pp55_L3_V1.0_veridical_freeview_isoTrue_fps144.mp4",""
"","","","call-function","171","435942","0.0-171.0","8fqlb0sm","","","","","","","",""
"1749.75","{""judgement"":1}","[0]","survey-likert","172","437693","0.0-172.0","8fqlb0sm","","","","","","","","1"
"2902.4949999999953","{""confidence"":1}","[0]","survey-likert","173","440597","0.0-173.0","8fqlb0sm","","","","","","","",""
"19449.804999999993","","","instructions","174","460047","0.0-174.0","8fqlb0sm","[{""page_index"":0,""viewing_time"":15331.585000000021},{""page_index"":1,""viewing_time"":2988.009999999951},{""page_index"":2,""viewing_time"":1130.0600000000559}]","","","","","","",""
"3017.4550000000163","","","instructions","175","463065","0.0-175.0","8fqlb0sm","[{""page_index"":0,""viewing_time"":857.2949999999837},{""page_index"":1,""viewing_time"":1532.070000000007},{""page_index"":2,""viewing_time"":627.984999999986}]","","","","","","",""
"","","","call-function","176","463065","0.0-176.0","8fqlb0sm","","","","","","","",""
"null","","","html-keyboard-response","177","464568","0.0-177.0","8fqlb0sm","","<span style=""color:Black; font-size:50px;"">Agent A","null","","","","",""
"null","","","video-keyboard-response","178","466657","0.0-178.0","8fqlb0sm","","","null","","Agent A","scrambled","FOR_REV_MAP_BLOBBY_STIM/1159973.bmp_pp98_L1_V1.0_veridical_freeview_isoTrue_fps144_reversed_REAL.mp4",""
"null","","","html-keyboard-response","179","468161","0.0-179.0","8fqlb0sm","","<span style=""color:Black; font-size:50px;"">Agent B","null","","","","",""
"null","","","video-keyboard-response","180","470270","0.0-180.0","8fqlb0sm","","","null","","Agent B","veridical","FOR_REV_MAP_BLOBBY_STIM/1159973.bmp_pp98_L1_V1.0_veridical_freeview_isoTrue_fps144.mp4",""
"","","","call-function","181","470270","0.0-181.0","8fqlb0sm","","","","","","","",""
"1843.600000000035","{""judgement"":0}","[0]","survey-likert","182","472114","0.0-182.0","8fqlb0sm","","","","","","","","1"
"1281.0299999999697","{""confidence"":2}","[0]","survey-likert","183","473398","0.0-183.0","8fqlb0sm","","","","","","","",""
"","","","call-function","184","473398","0.0-184.0","8fqlb0sm","","","","","","","",""
"null","","","html-keyboard-response","185","474900","0.0-185.0","8fqlb0sm","","<span style=""color:Black; font-size:50px;"">Agent A","null","","","","",""
"null","","","video-keyboard-response","186","477663","0.0-186.0","8fqlb0sm","","","null","","Agent A","veridical","FOR_REV_MAP_BLOBBY_STIM/1592168.bmp_pp71_L1_V1.0_veridical_freeview_isoTrue_fps144.mp4",""
"null","","","html-keyboard-response","187","479165","0.0-187.0","8fqlb0sm","","<span style=""color:Black; font-size:50px;"">Agent B","null","","","","",""
"null","","","video-keyboard-response","188","481928","0.0-188.0","8fqlb0sm","","","null","","Agent B","scrambled","FOR_REV_MAP_BLOBBY_STIM/1592168.bmp_pp71_L1_V1.0_veridical_freeview_isoTrue_fps144_reversed_REAL.mp4",""
"","","","call-function","189","481928","0.0-189.0","8fqlb0sm","","","","","","","",""
"2143.7399999999907","{""judgement"":1}","[0]","survey-likert","190","484073","0.0-190.0","8fqlb0sm","","","","","","","","0"
"2717.890000000014","{""confidence"":1}","[0]","survey-likert","191","486792","0.0-191.0","8fqlb0sm","","","","","","","",""
"","","","call-function","192","486792","0.0-192.0","8fqlb0sm","","","","","","","",""
"null","","","html-keyboard-response","193","488293","0.0-193.0","8fqlb0sm","","<span style=""color:Black; font-size:50px;"">Agent A","null","","","","",""
"null","","","video-keyboard-response","194","491119","0.0-194.0","8fqlb0sm","","","null","","Agent A","veridical","FOR_REV_MAP_BLOBBY_STIM/1160204.bmp_pp54_L2_V1.0_veridical_freeview_isoTrue_fps144.mp4",""
"null","","","html-keyboard-response","195","492621","0.0-195.0","8fqlb0sm","","<span style=""color:Black; font-size:50px;"">Agent B","null","","","","",""
"null","","","video-keyboard-response","196","495446","0.0-196.0","8fqlb0sm","","","null","","Agent B","scrambled","FOR_REV_MAP_BLOBBY_STIM/1160204.bmp_pp54_L2_V1.0_veridical_freeview_isoTrue_fps144_reversed_REAL.mp4",""
"","","","call-function","197","495446","0.0-197.0","8fqlb0sm","","","","","","","",""
"2824.1900000000023","{""judgement"":0}","[0]","survey-likert","198","498271","0.0-198.0","8fqlb0sm","","","","","","","","0"
"1690.5650000000023","{""confidence"":2}","[0]","survey-likert","199","499963","0.0-199.0","8fqlb0sm","","","","","","","",""
"","","","call-function","200","499963","0.0-200.0","8fqlb0sm","","","","","","","",""
"null","","","html-keyboard-response","201","501469","0.0-201.0","8fqlb0sm","","<span style=""color:Black; font-size:50px;"">Agent A","null","","","","",""
"null","","","video-keyboard-response","202","504272","0.0-202.0","8fqlb0sm","","","null","","Agent A","scrambled","FOR_REV_MAP_BLOBBY_STIM/713770.bmp_pp89_L1_V1.0_veridical_freeview_isoTrue_fps144_reversed_REAL.mp4",""
"null","","","html-keyboard-response","203","505774","0.0-203.0","8fqlb0sm","","<span style=""color:Black; font-size:50px;"">Agent B","null","","","","",""
"null","","","video-keyboard-response","204","508592","0.0-204.0","8fqlb0sm","","","null","","Agent B","veridical","FOR_REV_MAP_BLOBBY_STIM/713770.bmp_pp89_L1_V1.0_veridical_freeview_isoTrue_fps144.mp4",""
"","","","call-function","205","508593","0.0-205.0","8fqlb0sm","","","","","","","",""
"2524.125","{""judgement"":0}","[0]","survey-likert","206","511118","0.0-206.0","8fqlb0sm","","","","","","","","1"
"1216.9500000000116","{""confidence"":2}","[0]","survey-likert","207","512336","0.0-207.0","8fqlb0sm","","","","","","","",""
"","","","call-function","208","512336","0.0-208.0","8fqlb0sm","","","","","","","",""
"null","","","html-keyboard-response","209","513839","0.0-209.0","8fqlb0sm","","<span style=""color:Black; font-size:50px;"">Agent A","null","","","","",""
"null","","","video-keyboard-response","210","516615","0.0-210.0","8fqlb0sm","","","null","","Agent A","scrambled","FOR_REV_MAP_BLOBBY_STIM/1160247.bmp_pp54_L2_V1.0_veridical_freeview_isoTrue_fps144_reversed_REAL.mp4",""
"null","","","html-keyboard-response","211","518120","0.0-211.0","8fqlb0sm","","<span style=""color:Black; font-size:50px;"">Agent B","null","","","","",""
"null","","","video-keyboard-response","212","520885","0.0-212.0","8fqlb0sm","","","null","","Agent B","veridical","FOR_REV_MAP_BLOBBY_STIM/1160247.bmp_pp54_L2_V1.0_veridical_freeview_isoTrue_fps144.mp4",""
"","","","call-function","213","520886","0.0-213.0","8fqlb0sm","","","","","","","",""
"2054.7600000000093","{""judgement"":1}","[0]","survey-likert","214","522942","0.0-214.0","8fqlb0sm","","","","","","","","1"
"1078.2150000000256","{""confidence"":2}","[0]","survey-likert","215","524022","0.0-215.0","8fqlb0sm","","","","","","","",""
"","","","call-function","216","524023","0.0-216.0","8fqlb0sm","","","","","","","",""
"null","","","html-keyboard-response","217","525529","0.0-217.0","8fqlb0sm","","<span style=""color:Black; font-size:50px;"">Agent A","null","","","","",""
"null","","","video-keyboard-response","218","528346","0.0-218.0","8fqlb0sm","","","null","","Agent A","veridical","FOR_REV_MAP_BLOBBY_STIM/1592025.bmp_pp68_L1_V1.0_veridical_freeview_isoTrue_fps144.mp4",""
"null","","","html-keyboard-response","219","529849","0.0-219.0","8fqlb0sm","","<span style=""color:Black; font-size:50px;"">Agent B","null","","","","",""
"null","","","video-keyboard-response","220","532674","0.0-220.0","8fqlb0sm","","","null","","Agent B","scrambled","FOR_REV_MAP_BLOBBY_STIM/1592025.bmp_pp68_L1_V1.0_veridical_freeview_isoTrue_fps144_reversed_REAL.mp4",""
"","","","call-function","221","532675","0.0-221.0","8fqlb0sm","","","","","","","",""
"4644.375","{""judgement"":1}","[0]","survey-likert","222","537320","0.0-222.0","8fqlb0sm","","","","","","","","0"
"1202.3049999999348","{""confidence"":0}","[0]","survey-likert","223","538524","0.0-223.0","8fqlb0sm","","","","","","","",""
"","","","call-function","224","538524","0.0-224.0","8fqlb0sm","","","","","","","",""
"null","","","html-keyboard-response","225","540031","0.0-225.0","8fqlb0sm","","<span style=""color:Black; font-size:50px;"">Agent A","null","","","","",""
"null","","","video-keyboard-response","226","542818","0.0-226.0","8fqlb0sm","","","null","","Agent A","veridical","FOR_REV_MAP_BLOBBY_STIM/1592305.bmp_pp65_L3_V1.0_veridical_freeview_isoTrue_fps144.mp4",""
"null","","","html-keyboard-response","227","544323","0.0-227.0","8fqlb0sm","","<span style=""color:Black; font-size:50px;"">Agent B","null","","","","",""
"null","","","video-keyboard-response","228","547113","0.0-228.0","8fqlb0sm","","","null","","Agent B","scrambled","FOR_REV_MAP_BLOBBY_STIM/1592305.bmp_pp65_L3_V1.0_veridical_freeview_isoTrue_fps144_reversed_REAL.mp4",""
"","","","call-function","229","547114","0.0-229.0","8fqlb0sm","","","","","","","",""
"1638.9899999999907","{""judgement"":1}","[0]","survey-likert","230","548754","0.0-230.0","8fqlb0sm","","","","","","","","0"
"1276.8000000000466","{""confidence"":2}","[0]","survey-likert","231","550032","0.0-231.0","8fqlb0sm","","","","","","","",""
"","","","call-function","232","550032","0.0-232.0","8fqlb0sm","","","","","","","",""
"null","","","html-keyboard-response","233","551535","0.0-233.0","8fqlb0sm","","<span style=""color:Black; font-size:50px;"">Agent A","null","","","","",""
"null","","","video-keyboard-response","234","554347","0.0-234.0","8fqlb0sm","","","null","","Agent A","scrambled","FOR_REV_MAP_BLOBBY_STIM/1592150.bmp_pp77_L3_V1.0_veridical_freeview_isoTrue_fps144_reversed_REAL.mp4",""
"null","","","html-keyboard-response","235","555854","0.0-235.0","8fqlb0sm","","<span style=""color:Black; font-size:50px;"">Agent B","null","","","","",""
"null","","","video-keyboard-response","236","558654","0.0-236.0","8fqlb0sm","","","null","","Agent B","veridical","FOR_REV_MAP_BLOBBY_STIM/1592150.bmp_pp77_L3_V1.0_veridical_freeview_isoTrue_fps144.mp4",""
"","","","call-function","237","558655","0.0-237.0","8fqlb0sm","","","","","","","",""
"2073.210000000079","{""judgement"":1}","[0]","survey-likert","238","560729","0.0-238.0","8fqlb0sm","","","","","","","","1"
"1438.329999999958","{""confidence"":0}","[0]","survey-likert","239","562168","0.0-239.0","8fqlb0sm","","","","","","","",""
"","","","call-function","240","562169","0.0-240.0","8fqlb0sm","","","","","","","",""
"null","","","html-keyboard-response","241","563672","0.0-241.0","8fqlb0sm","","<span style=""color:Black; font-size:50px;"">Agent A","null","","","","",""
"null","","","video-keyboard-response","242","566372","0.0-242.0","8fqlb0sm","","","null","","Agent A","veridical","FOR_REV_MAP_BLOBBY_STIM/713858.bmp_pp57_L1_V1.0_veridical_freeview_isoTrue_fps144.mp4",""
"null","","","html-keyboard-response","243","567874","0.0-243.0","8fqlb0sm","","<span style=""color:Black; font-size:50px;"">Agent B","null","","","","",""
"null","","","video-keyboard-response","244","570570","0.0-244.0","8fqlb0sm","","","null","","Agent B","scrambled","FOR_REV_MAP_BLOBBY_STIM/713858.bmp_pp57_L1_V1.0_veridical_freeview_isoTrue_fps144_reversed_REAL.mp4",""
"","","","call-function","245","570570","0.0-245.0","8fqlb0sm","","","","","","","",""
"1731.0849999999627","{""judgement"":0}","[0]","survey-likert","246","572302","0.0-246.0","8fqlb0sm","","","","","","","","0"
"2271.8850000000093","{""confidence"":2}","[0]","survey-likert","247","574575","0.0-247.0","8fqlb0sm","","","","","","","",""
"","","","call-function","248","574576","0.0-248.0","8fqlb0sm","","","","","","","",""
"null","","","html-keyboard-response","249","576079","0.0-249.0","8fqlb0sm","","<span style=""color:Black; font-size:50px;"">Agent A","null","","","","",""
"null","","","video-keyboard-response","250","577974","0.0-250.0","8fqlb0sm","","","null","","Agent A","scrambled","FOR_REV_MAP_BLOBBY_STIM/285946.bmp_pp79_L2_V1.0_veridical_freeview_isoTrue_fps144_reversed_REAL.mp4",""
"null","","","html-keyboard-response","251","579475","0.0-251.0","8fqlb0sm","","<span style=""color:Black; font-size:50px;"">Agent B","null","","","","",""
"null","","","video-keyboard-response","252","581368","0.0-252.0","8fqlb0sm","","","null","","Agent B","veridical","FOR_REV_MAP_BLOBBY_STIM/285946.bmp_pp79_L2_V1.0_veridical_freeview_isoTrue_fps144.mp4",""
"","","","call-function","253","581368","0.0-253.0","8fqlb0sm","","","","","","","",""
"3239.984999999986","{""judgement"":1}","[0]","survey-likert","254","584609","0.0-254.0","8fqlb0sm","","","","","","","","1"
"1301.5399999999208","{""confidence"":0}","[0]","survey-likert","255","585912","0.0-255.0","8fqlb0sm","","","","","","","",""
"142139.83000000007","","","instructions","256","728053","0.0-256.0","8fqlb0sm","[{""page_index"":0,""viewing_time"":2023.7000000000698},{""page_index"":1,""viewing_time"":139141.04500000004},{""page_index"":2,""viewing_time"":974.9299999999348}]","","","","","","",""
"1345.3649999999907","","","instructions","257","729400","0.0-257.0","8fqlb0sm","[{""page_index"":0,""viewing_time"":373.1450000000186},{""page_index"":1,""viewing_time"":419.05000000004657},{""page_index"":2,""viewing_time"":553.0649999999441}]","","","","","","",""
"","","","call-function","258","729401","0.0-258.0","8fqlb0sm","","","","","","","",""
"null","","","html-keyboard-response","259","730902","0.0-259.0","8fqlb0sm","","<span style=""color:Black; font-size:50px;"">Agent A","null","","","","",""
"null","","","video-keyboard-response","260","733626","0.0-260.0","8fqlb0sm","","","null","","Agent A","veridical","FOR_REV_MAP_BLOBBY_STIM/1159592.bmp_pp91_L3_V1.0_veridical_freeview_isoTrue_fps144.mp4",""
"null","","","html-keyboard-response","261","735127","0.0-261.0","8fqlb0sm","","<span style=""color:Black; font-size:50px;"">Agent B","null","","","","",""
"null","","","video-keyboard-response","262","737880","0.0-262.0","8fqlb0sm","","","null","","Agent B","scrambled","FOR_REV_MAP_BLOBBY_STIM/1159592.bmp_pp91_L3_V1.0_veridical_freeview_isoTrue_fps144_reversed_REAL.mp4",""
"","","","call-function","263","737880","0.0-263.0","8fqlb0sm","","","","","","","",""
"1439.9799999999814","{""judgement"":1}","[0]","survey-likert","264","739321","0.0-264.0","8fqlb0sm","","","","","","","","0"
"1382.2000000000698","{""confidence"":2}","[0]","survey-likert","265","740705","0.0-265.0","8fqlb0sm","","","","","","","",""
"","","","call-function","266","740706","0.0-266.0","8fqlb0sm","","","","","","","",""
"null","","","html-keyboard-response","267","742213","0.0-267.0","8fqlb0sm","","<span style=""color:Black; font-size:50px;"">Agent A","null","","","","",""
"null","","","video-keyboard-response","268","745051","0.0-268.0","8fqlb0sm","","","null","","Agent A","scrambled","FOR_REV_MAP_BLOBBY_STIM/498396.bmp_pp99_L2_V1.0_veridical_freeview_isoTrue_fps144_reversed_REAL.mp4",""
"null","","","html-keyboard-response","269","746552","0.0-269.0","8fqlb0sm","","<span style=""color:Black; font-size:50px;"">Agent B","null","","","","",""
"null","","","video-keyboard-response","270","749392","0.0-270.0","8fqlb0sm","","","null","","Agent B","veridical","FOR_REV_MAP_BLOBBY_STIM/498396.bmp_pp99_L2_V1.0_veridical_freeview_isoTrue_fps144.mp4",""
"","","","call-function","271","749393","0.0-271.0","8fqlb0sm","","","","","","","",""
"1825.9299999999348","{""judgement"":1}","[0]","survey-likert","272","751219","0.0-272.0","8fqlb0sm","","","","","","","","1"
"3156.594999999972","{""confidence"":2}","[0]","survey-likert","273","754377","0.0-273.0","8fqlb0sm","","","","","","","",""
"","","","call-function","274","754378","0.0-274.0","8fqlb0sm","","","","","","","",""
"null","","","html-keyboard-response","275","755879","0.0-275.0","8fqlb0sm","","<span style=""color:Black; font-size:50px;"">Agent A","null","","","","",""
"null","","","video-keyboard-response","276","758862","0.0-276.0","8fqlb0sm","","","null","","Agent A","veridical","FOR_REV_MAP_BLOBBY_STIM/1592568.bmp_pp71_L1_V1.0_veridical_freeview_isoTrue_fps144.mp4",""
"null","","","html-keyboard-response","277","760370","0.0-277.0","8fqlb0sm","","<span style=""color:Black; font-size:50px;"">Agent B","null","","","","",""
"null","","","video-keyboard-response","278","763314","0.0-278.0","8fqlb0sm","","","null","","Agent B","scrambled","FOR_REV_MAP_BLOBBY_STIM/1592568.bmp_pp71_L1_V1.0_veridical_freeview_isoTrue_fps144_reversed_REAL.mp4",""
"","","","call-function","279","763314","0.0-279.0","8fqlb0sm","","","","","","","",""
"1400.2649999998976","{""judgement"":1}","[0]","survey-likert","280","764715","0.0-280.0","8fqlb0sm","","","","","","","","0"
"1001.1450000000186","{""confidence"":2}","[0]","survey-likert","281","765718","0.0-281.0","8fqlb0sm","","","","","","","",""
"","","","call-function","282","765718","0.0-282.0","8fqlb0sm","","","","","","","",""
"null","","","html-keyboard-response","283","767222","0.0-283.0","8fqlb0sm","","<span style=""color:Black; font-size:50px;"">Agent A","null","","","","",""
"null","","","video-keyboard-response","284","769935","0.0-284.0","8fqlb0sm","","","null","","Agent A","veridical","FOR_REV_MAP_BLOBBY_STIM/1592350.bmp_pp55_L3_V1.0_veridical_freeview_isoTrue_fps144.mp4",""
"null","","","html-keyboard-response","285","771440","0.0-285.0","8fqlb0sm","","<span style=""color:Black; font-size:50px;"">Agent B","null","","","","",""
"null","","","video-keyboard-response","286","774140","0.0-286.0","8fqlb0sm","","","null","","Agent B","scrambled","FOR_REV_MAP_BLOBBY_STIM/1592350.bmp_pp55_L3_V1.0_veridical_freeview_isoTrue_fps144_reversed_REAL.mp4",""
"","","","call-function","287","774141","0.0-287.0","8fqlb0sm","","","","","","","",""
"1482.219999999972","{""judgement"":0}","[0]","survey-likert","288","775624","0.0-288.0","8fqlb0sm","","","","","","","","0"
"1416.9650000000838","{""confidence"":1}","[0]","survey-likert","289","777042","0.0-289.0","8fqlb0sm","","","","","","","",""
"","","","call-function","290","777043","0.0-290.0","8fqlb0sm","","","","","","","",""
"null","","","html-keyboard-response","291","778548","0.0-291.0","8fqlb0sm","","<span style=""color:Black; font-size:50px;"">Agent A","null","","","","",""
"null","","","video-keyboard-response","292","781330","0.0-292.0","8fqlb0sm","","","null","","Agent A","scrambled","FOR_REV_MAP_BLOBBY_STIM/1160049.bmp_pp53_L2_V1.0_veridical_freeview_isoTrue_fps144_reversed_REAL.mp4",""
"null","","","html-keyboard-response","293","782836","0.0-293.0","8fqlb0sm","","<span style=""color:Black; font-size:50px;"">Agent B","null","","","","",""
"null","","","video-keyboard-response","294","785619","0.0-294.0","8fqlb0sm","","","null","","Agent B","veridical","FOR_REV_MAP_BLOBBY_STIM/1160049.bmp_pp53_L2_V1.0_veridical_freeview_isoTrue_fps144.mp4",""
"","","","call-function","295","785620","0.0-295.0","8fqlb0sm","","","","","","","",""
"2829.9899999999907","{""judgement"":0}","[0]","survey-likert","296","788450","0.0-296.0","8fqlb0sm","","","","","","","","1"
"3652.5449999999255","{""confidence"":0}","[0]","survey-likert","297","792104","0.0-297.0","8fqlb0sm","","","","","","","",""
"","","","call-function","298","792105","0.0-298.0","8fqlb0sm","","","","","","","",""
"null","","","html-keyboard-response","299","793606","0.0-299.0","8fqlb0sm","","<span style=""color:Black; font-size:50px;"">Agent A","null","","","","",""
"null","","","video-keyboard-response","300","796443","0.0-300.0","8fqlb0sm","","","null","","Agent A","veridical","FOR_REV_MAP_BLOBBY_STIM/713829.bmp_pp60_L3_V1.0_veridical_freeview_isoTrue_fps144.mp4",""
"null","","","html-keyboard-response","301","797945","0.0-301.0","8fqlb0sm","","<span style=""color:Black; font-size:50px;"">Agent B","null","","","","",""
"null","","","video-keyboard-response","302","800811","0.0-302.0","8fqlb0sm","","","null","","Agent B","scrambled","FOR_REV_MAP_BLOBBY_STIM/713829.bmp_pp60_L3_V1.0_veridical_freeview_isoTrue_fps144_reversed_REAL.mp4",""
"","","","call-function","303","800813","0.0-303.0","8fqlb0sm","","","","","","","",""
"1755.2850000000326","{""judgement"":0}","[0]","survey-likert","304","802570","0.0-304.0","8fqlb0sm","","","","","","","","0"
"1257.094999999972","{""confidence"":2}","[0]","survey-likert","305","803828","0.0-305.0","8fqlb0sm","","","","","","","",""
"","","","call-function","306","803829","0.0-306.0","8fqlb0sm","","","","","","","",""
"null","","","html-keyboard-response","307","805332","0.0-307.0","8fqlb0sm","","<span style=""color:Black; font-size:50px;"">Agent A","null","","","","",""
"null","","","video-keyboard-response","308","808099","0.0-308.0","8fqlb0sm","","","null","","Agent A","veridical","FOR_REV_MAP_BLOBBY_STIM/1592044.bmp_pp94_L2_V1.0_veridical_freeview_isoTrue_fps144.mp4",""
"null","","","html-keyboard-response","309","809603","0.0-309.0","8fqlb0sm","","<span style=""color:Black; font-size:50px;"">Agent B","null","","","","",""
"null","","","video-keyboard-response","310","812365","0.0-310.0","8fqlb0sm","","","null","","Agent B","scrambled","FOR_REV_MAP_BLOBBY_STIM/1592044.bmp_pp94_L2_V1.0_veridical_freeview_isoTrue_fps144_reversed_REAL.mp4",""
"","","","call-function","311","812366","0.0-311.0","8fqlb0sm","","","","","","","",""
"2065.8499999999767","{""judgement"":0}","[0]","survey-likert","312","814433","0.0-312.0","8fqlb0sm","","","","","","","","0"
"1407.4449999999488","{""confidence"":0}","[0]","survey-likert","313","815842","0.0-313.0","8fqlb0sm","","","","","","","",""
"","","","call-function","314","815842","0.0-314.0","8fqlb0sm","","","","","","","",""
"null","","","html-keyboard-response","315","817348","0.0-315.0","8fqlb0sm","","<span style=""color:Black; font-size:50px;"">Agent A","null","","","","",""
"null","","","video-keyboard-response","316","820118","0.0-316.0","8fqlb0sm","","","null","","Agent A","scrambled","FOR_REV_MAP_BLOBBY_STIM/498372.bmp_pp95_L2_V1.0_veridical_freeview_isoTrue_fps144_reversed_REAL.mp4",""
"null","","","html-keyboard-response","317","821620","0.0-317.0","8fqlb0sm","","<span style=""color:Black; font-size:50px;"">Agent B","null","","","","",""
"null","","","video-keyboard-response","318","824388","0.0-318.0","8fqlb0sm","","","null","","Agent B","veridical","FOR_REV_MAP_BLOBBY_STIM/498372.bmp_pp95_L2_V1.0_veridical_freeview_isoTrue_fps144.mp4",""
"","","","call-function","319","824388","0.0-319.0","8fqlb0sm","","","","","","","",""
"1977.8800000000047","{""judgement"":1}","[0]","survey-likert","320","826367","0.0-320.0","8fqlb0sm","","","","","","","","1"
"3010.3499999999767","{""confidence"":2}","[0]","survey-likert","321","829379","0.0-321.0","8fqlb0sm","","","","","","","",""
"","","","call-function","322","829379","0.0-322.0","8fqlb0sm","","","","","","","",""
"null","","","html-keyboard-response","323","830881","0.0-323.0","8fqlb0sm","","<span style=""color:Black; font-size:50px;"">Agent A","null","","","","",""
"null","","","video-keyboard-response","324","833714","0.0-324.0","8fqlb0sm","","","null","","Agent A","scrambled","FOR_REV_MAP_BLOBBY_STIM/1159508.bmp_pp151_L1_V1.0_veridical_freeview_isoTrue_fps144_reversed_REAL.mp4",""
"null","","","html-keyboard-response","325","835215","0.0-325.0","8fqlb0sm","","<span style=""color:Black; font-size:50px;"">Agent B","null","","","","",""
"null","","","video-keyboard-response","326","838035","0.0-326.0","8fqlb0sm","","","null","","Agent B","veridical","FOR_REV_MAP_BLOBBY_STIM/1159508.bmp_pp151_L1_V1.0_veridical_freeview_isoTrue_fps144.mp4",""
"","","","call-function","327","838035","0.0-327.0","8fqlb0sm","","","","","","","",""
"4122.785000000033","{""judgement"":0}","[0]","survey-likert","328","842159","0.0-328.0","8fqlb0sm","","","","","","","","1"
"1594.8050000000512","{""confidence"":0}","[0]","survey-likert","329","843755","0.0-329.0","8fqlb0sm","","","","","","","",""
"","","","call-function","330","843756","0.0-330.0","8fqlb0sm","","","","","","","",""
"null","","","html-keyboard-response","331","845257","0.0-331.0","8fqlb0sm","","<span style=""color:Black; font-size:50px;"">Agent A","null","","","","",""
"null","","","video-keyboard-response","332","847999","0.0-332.0","8fqlb0sm","","","null","","Agent A","scrambled","FOR_REV_MAP_BLOBBY_STIM/285959.bmp_pp93_L1_V1.0_veridical_freeview_isoTrue_fps144_reversed_REAL.mp4",""
"null","","","html-keyboard-response","333","849501","0.0-333.0","8fqlb0sm","","<span style=""color:Black; font-size:50px;"">Agent B","null","","","","",""
"null","","","video-keyboard-response","334","852242","0.0-334.0","8fqlb0sm","","","null","","Agent B","veridical","FOR_REV_MAP_BLOBBY_STIM/285959.bmp_pp93_L1_V1.0_veridical_freeview_isoTrue_fps144.mp4",""
"","","","call-function","335","852243","0.0-335.0","8fqlb0sm","","","","","","","",""
"2431.3499999999767","{""judgement"":0}","[0]","survey-likert","336","854675","0.0-336.0","8fqlb0sm","","","","","","","","1"
"1100.6500000000233","{""confidence"":0}","[0]","survey-likert","337","855777","0.0-337.0","8fqlb0sm","","","","","","","",""
"2913.234999999986","","","instructions","338","858691","0.0-338.0","8fqlb0sm","[{""page_index"":0,""viewing_time"":1161.359999999986},{""page_index"":1,""viewing_time"":1304.7249999999767},{""page_index"":2,""viewing_time"":447}]","","","","","","",""
"2068.8950000000186","","","instructions","339","860760","0.0-339.0","8fqlb0sm","[{""page_index"":0,""viewing_time"":436.24499999999534},{""page_index"":1,""viewing_time"":1059.0550000000512},{""page_index"":2,""viewing_time"":573.4799999999814}]","","","","","","",""
"","","","call-function","340","860761","0.0-340.0","8fqlb0sm","","","","","","","",""
"null","","","html-keyboard-response","341","862262","0.0-341.0","8fqlb0sm","","<span style=""color:Black; font-size:50px;"">Agent A","null","","","","",""
"null","","","video-keyboard-response","342","864954","0.0-342.0","8fqlb0sm","","","null","","Agent A","scrambled","FOR_REV_MAP_BLOBBY_STIM/1592038.bmp_pp79_L2_V1.0_veridical_freeview_isoTrue_fps144_reversed_REAL.mp4",""
"null","","","html-keyboard-response","343","866457","0.0-343.0","8fqlb0sm","","<span style=""color:Black; font-size:50px;"">Agent B","null","","","","",""
"null","","","video-keyboard-response","344","869146","0.0-344.0","8fqlb0sm","","","null","","Agent B","veridical","FOR_REV_MAP_BLOBBY_STIM/1592038.bmp_pp79_L2_V1.0_veridical_freeview_isoTrue_fps144.mp4",""
"","","","call-function","345","869147","0.0-345.0","8fqlb0sm","","","","","","","",""
"1506.7750000000233","{""judgement"":1}","[0]","survey-likert","346","870655","0.0-346.0","8fqlb0sm","","","","","","","","1"
"3465.375","{""confidence"":3}","[0]","survey-likert","347","874121","0.0-347.0","8fqlb0sm","","","","","","","",""
"","","","call-function","348","874122","0.0-348.0","8fqlb0sm","","","","","","","",""
"null","","","html-keyboard-response","349","875623","0.0-349.0","8fqlb0sm","","<span style=""color:Black; font-size:50px;"">Agent A","null","","","","",""
"null","","","video-keyboard-response","350","878547","0.0-350.0","8fqlb0sm","","","null","","Agent A","scrambled","FOR_REV_MAP_BLOBBY_STIM/498025.bmp_pp81_L1_V1.0_veridical_freeview_isoTrue_fps144_reversed_REAL.mp4",""
"null","","","html-keyboard-response","351","880050","0.0-351.0","8fqlb0sm","","<span style=""color:Black; font-size:50px;"">Agent B","null","","","","",""
"null","","","video-keyboard-response","352","882979","0.0-352.0","8fqlb0sm","","","null","","Agent B","veridical","FOR_REV_MAP_BLOBBY_STIM/498025.bmp_pp81_L1_V1.0_veridical_freeview_isoTrue_fps144.mp4",""
"","","","call-function","353","882979","0.0-353.0","8fqlb0sm","","","","","","","",""
"2432.5400000000373","{""judgement"":1}","[0]","survey-likert","354","885413","0.0-354.0","8fqlb0sm","","","","","","","","1"
"1705.5400000000373","{""confidence"":3}","[0]","survey-likert","355","887119","0.0-355.0","8fqlb0sm","","","","","","","",""
"","","","call-function","356","887120","0.0-356.0","8fqlb0sm","","","","","","","",""
"null","","","html-keyboard-response","357","888622","0.0-357.0","8fqlb0sm","","<span style=""color:Black; font-size:50px;"">Agent A","null","","","","",""
"null","","","video-keyboard-response","358","891407","0.0-358.0","8fqlb0sm","","","null","","Agent A","scrambled","FOR_REV_MAP_BLOBBY_STIM/286034.bmp_pp69_L3_V1.0_veridical_freeview_isoTrue_fps144_reversed_REAL.mp4",""
"null","","","html-keyboard-response","359","892912","0.0-359.0","8fqlb0sm","","<span style=""color:Black; font-size:50px;"">Agent B","null","","","","",""
"null","","","video-keyboard-response","360","895694","0.0-360.0","8fqlb0sm","","","null","","Agent B","veridical","FOR_REV_MAP_BLOBBY_STIM/286034.bmp_pp69_L3_V1.0_veridical_freeview_isoTrue_fps144.mp4",""
"","","","call-function","361","895696","0.0-361.0","8fqlb0sm","","","","","","","",""
"1336.1450000000186","{""judgement"":1}","[0]","survey-likert","362","897033","0.0-362.0","8fqlb0sm","","","","","","","","1"
"1078.2300000000978","{""confidence"":2}","[0]","survey-likert","363","898113","0.0-363.0","8fqlb0sm","","","","","","","",""
"","","","call-function","364","898114","0.0-364.0","8fqlb0sm","","","","","","","",""
"null","","","html-keyboard-response","365","899615","0.0-365.0","8fqlb0sm","","<span style=""color:Black; font-size:50px;"">Agent A","null","","","","",""
"null","","","video-keyboard-response","366","902349","0.0-366.0","8fqlb0sm","","","null","","Agent A","veridical","FOR_REV_MAP_BLOBBY_STIM/1159819.bmp_pp151_L1_V1.0_veridical_freeview_isoTrue_fps144.mp4",""
"null","","","html-keyboard-response","367","903851","0.0-367.0","8fqlb0sm","","<span style=""color:Black; font-size:50px;"">Agent B","null","","","","",""
"null","","","video-keyboard-response","368","906584","0.0-368.0","8fqlb0sm","","","null","","Agent B","scrambled","FOR_REV_MAP_BLOBBY_STIM/1159819.bmp_pp151_L1_V1.0_veridical_freeview_isoTrue_fps144_reversed_REAL.mp4",""
"","","","call-function","369","906584","0.0-369.0","8fqlb0sm","","","","","","","",""
"1456.8699999999953","{""judgement"":1}","[0]","survey-likert","370","908042","0.0-370.0","8fqlb0sm","","","","","","","","0"
"1380.7850000000326","{""confidence"":2}","[0]","survey-likert","371","909425","0.0-371.0","8fqlb0sm","","","","","","","",""
"","","","call-function","372","909425","0.0-372.0","8fqlb0sm","","","","","","","",""
"null","","","html-keyboard-response","373","910926","0.0-373.0","8fqlb0sm","","<span style=""color:Black; font-size:50px;"">Agent A","null","","","","",""
"null","","","video-keyboard-response","374","913750","0.0-374.0","8fqlb0sm","","","null","","Agent A","veridical","FOR_REV_MAP_BLOBBY_STIM/713742.bmp_pp91_L3_V1.0_veridical_freeview_isoTrue_fps144.mp4",""
"null","","","html-keyboard-response","375","915253","0.0-375.0","8fqlb0sm","","<span style=""color:Black; font-size:50px;"">Agent B","null","","","","",""
"null","","","video-keyboard-response","376","918097","0.0-376.0","8fqlb0sm","","","null","","Agent B","scrambled","FOR_REV_MAP_BLOBBY_STIM/713742.bmp_pp91_L3_V1.0_veridical_freeview_isoTrue_fps144_reversed_REAL.mp4",""
"","","","call-function","377","918097","0.0-377.0","8fqlb0sm","","","","","","","",""
"2394.7399999999907","{""judgement"":1}","[0]","survey-likert","378","920493","0.0-378.0","8fqlb0sm","","","","","","","","0"
"1505.1500000000233","{""confidence"":0}","[0]","survey-likert","379","921999","0.0-379.0","8fqlb0sm","","","","","","","",""
"","","","call-function","380","922000","0.0-380.0","8fqlb0sm","","","","","","","",""
"null","","","html-keyboard-response","381","923503","0.0-381.0","8fqlb0sm","","<span style=""color:Black; font-size:50px;"">Agent A","null","","","","",""
"null","","","video-keyboard-response","382","926313","0.0-382.0","8fqlb0sm","","","null","","Agent A","scrambled","FOR_REV_MAP_BLOBBY_STIM/498258.bmp_pp51_L1_V1.0_veridical_freeview_isoTrue_fps144_reversed_REAL.mp4",""
"null","","","html-keyboard-response","383","927815","0.0-383.0","8fqlb0sm","","<span style=""color:Black; font-size:50px;"">Agent B","null","","","","",""
"null","","","video-keyboard-response","384","930627","0.0-384.0","8fqlb0sm","","","null","","Agent B","veridical","FOR_REV_MAP_BLOBBY_STIM/498258.bmp_pp51_L1_V1.0_veridical_freeview_isoTrue_fps144.mp4",""
"","","","call-function","385","930627","0.0-385.0","8fqlb0sm","","","","","","","",""
"1432.8549999999814","{""judgement"":1}","[0]","survey-likert","386","932061","0.0-386.0","8fqlb0sm","","","","","","","","1"
"2397.1199999999953","{""confidence"":2}","[0]","survey-likert","387","934459","0.0-387.0","8fqlb0sm","","","","","","","",""
"","","","call-function","388","934460","0.0-388.0","8fqlb0sm","","","","","","","",""
"null","","","html-keyboard-response","389","935962","0.0-389.0","8fqlb0sm","","<span style=""color:Black; font-size:50px;"">Agent A","null","","","","",""
"null","","","video-keyboard-response","390","938744","0.0-390.0","8fqlb0sm","","","null","","Agent A","scrambled","FOR_REV_MAP_BLOBBY_STIM/1159860.bmp_pp152_L2_V1.0_veridical_freeview_isoTrue_fps144_reversed_REAL.mp4",""
"null","","","html-keyboard-response","391","940251","0.0-391.0","8fqlb0sm","","<span style=""color:Black; font-size:50px;"">Agent B","null","","","","",""
"null","","","video-keyboard-response","392","943030","0.0-392.0","8fqlb0sm","","","null","","Agent B","veridical","FOR_REV_MAP_BLOBBY_STIM/1159860.bmp_pp152_L2_V1.0_veridical_freeview_isoTrue_fps144.mp4",""
"","","","call-function","393","943030","0.0-393.0","8fqlb0sm","","","","","","","",""
"1620.390000000014","{""judgement"":1}","[0]","survey-likert","394","944651","0.0-394.0","8fqlb0sm","","","","","","","","1"
"898.0050000000047","{""confidence"":2}","[0]","survey-likert","395","945550","0.0-395.0","8fqlb0sm","","","","","","","",""
"","","","call-function","396","945551","0.0-396.0","8fqlb0sm","","","","","","","",""
"null","","","html-keyboard-response","397","947053","0.0-397.0","8fqlb0sm","","<span style=""color:Black; font-size:50px;"">Agent A","null","","","","",""
"null","","","video-keyboard-response","398","949872","0.0-398.0","8fqlb0sm","","","null","","Agent A","scrambled","FOR_REV_MAP_BLOBBY_STIM/1592289.bmp_pp92_L3_V1.0_veridical_freeview_isoTrue_fps144_reversed_REAL.mp4",""
"null","","","html-keyboard-response","399","951376","0.0-399.0","8fqlb0sm","","<span style=""color:Black; font-size:50px;"">Agent B","null","","","","",""
"null","","","video-keyboard-response","400","954174","0.0-400.0","8fqlb0sm","","","null","","Agent B","veridical","FOR_REV_MAP_BLOBBY_STIM/1592289.bmp_pp92_L3_V1.0_veridical_freeview_isoTrue_fps144.mp4",""
"","","","call-function","401","954175","0.0-401.0","8fqlb0sm","","","","","","","",""
"1389.8150000000605","{""judgement"":0}","[0]","survey-likert","402","955565","0.0-402.0","8fqlb0sm","","","","","","","","1"
"1387.9150000000373","{""confidence"":0}","[0]","survey-likert","403","956954","0.0-403.0","8fqlb0sm","","","","","","","",""
"","","","call-function","404","956955","0.0-404.0","8fqlb0sm","","","","","","","",""
"null","","","html-keyboard-response","405","958458","0.0-405.0","8fqlb0sm","","<span style=""color:Black; font-size:50px;"">Agent A","null","","","","",""
"null","","","video-keyboard-response","406","961186","0.0-406.0","8fqlb0sm","","","null","","Agent A","scrambled","FOR_REV_MAP_BLOBBY_STIM/1159956.bmp_pp59_L3_V1.0_veridical_freeview_isoTrue_fps144_reversed_REAL.mp4",""
"null","","","html-keyboard-response","407","962692","0.0-407.0","8fqlb0sm","","<span style=""color:Black; font-size:50px;"">Agent B","null","","","","",""
"null","","","video-keyboard-response","408","965420","0.0-408.0","8fqlb0sm","","","null","","Agent B","veridical","FOR_REV_MAP_BLOBBY_STIM/1159956.bmp_pp59_L3_V1.0_veridical_freeview_isoTrue_fps144.mp4",""
"","","","call-function","409","965420","0.0-409.0","8fqlb0sm","","","","","","","",""
"1412.015000000014","{""judgement"":0}","[0]","survey-likert","410","966835","0.0-410.0","8fqlb0sm","","","","","","","","1"
"3071.9749999999767","{""confidence"":2}","[0]","survey-likert","411","969908","0.0-411.0","8fqlb0sm","","","","","","","",""
"","","","call-function","412","969909","0.0-412.0","8fqlb0sm","","","","","","","",""
"null","","","html-keyboard-response","413","971414","0.0-413.0","8fqlb0sm","","<span style=""color:Black; font-size:50px;"">Agent A","null","","","","",""
"null","","","video-keyboard-response","414","974250","0.0-414.0","8fqlb0sm","","","null","","Agent A","veridical","FOR_REV_MAP_BLOBBY_STIM/1592530.bmp_pp75_L1_V1.0_veridical_freeview_isoTrue_fps144.mp4",""
"null","","","html-keyboard-response","415","975757","0.0-415.0","8fqlb0sm","","<span style=""color:Black; font-size:50px;"">Agent B","null","","","","",""
"null","","","video-keyboard-response","416","978594","0.0-416.0","8fqlb0sm","","","null","","Agent B","scrambled","FOR_REV_MAP_BLOBBY_STIM/1592530.bmp_pp75_L1_V1.0_veridical_freeview_isoTrue_fps144_reversed_REAL.mp4",""
"","","","call-function","417","978595","0.0-417.0","8fqlb0sm","","","","","","","",""
"1240.594999999972","{""judgement"":1}","[0]","survey-likert","418","979837","0.0-418.0","8fqlb0sm","","","","","","","","0"
"1381.6799999999348","{""confidence"":2}","[0]","survey-likert","419","981221","0.0-419.0","8fqlb0sm","","","","","","","",""
"33117.92500000005","","","instructions","420","1014340","0.0-420.0","8fqlb0sm","[{""page_index"":0,""viewing_time"":1114.545000000042},{""page_index"":1,""viewing_time"":23653.23999999999},{""page_index"":2,""viewing_time"":8349.98999999999}]","","","","","","",""
"4513.614999999991","","","instructions","421","1018855","0.0-421.0","8fqlb0sm","[{""page_index"":0,""viewing_time"":787.3850000000093},{""page_index"":1,""viewing_time"":2798.9700000000885},{""page_index"":2,""viewing_time"":927.1499999999069}]","","","","","","",""
"","","","call-function","422","1018856","0.0-422.0","8fqlb0sm","","","","","","","",""
"null","","","html-keyboard-response","423","1020358","0.0-423.0","8fqlb0sm","","<span style=""color:Black; font-size:50px;"">Agent A","null","","","","",""
"null","","","video-keyboard-response","424","1023164","0.0-424.0","8fqlb0sm","","","null","","Agent A","scrambled","FOR_REV_MAP_BLOBBY_STIM/1591920.bmp_pp97_L3_V1.0_veridical_freeview_isoTrue_fps144_reversed_REAL.mp4",""
"null","","","html-keyboard-response","425","1024667","0.0-425.0","8fqlb0sm","","<span style=""color:Black; font-size:50px;"">Agent B","null","","","","",""
"null","","","video-keyboard-response","426","1027469","0.0-426.0","8fqlb0sm","","","null","","Agent B","veridical","FOR_REV_MAP_BLOBBY_STIM/1591920.bmp_pp97_L3_V1.0_veridical_freeview_isoTrue_fps144.mp4",""
"","","","call-function","427","1027469","0.0-427.0","8fqlb0sm","","","","","","","",""
"1694.5999999999767","{""judgement"":1}","[0]","survey-likert","428","1029165","0.0-428.0","8fqlb0sm","","","","","","","","1"
"1329.265000000014","{""confidence"":0}","[0]","survey-likert","429","1030496","0.0-429.0","8fqlb0sm","","","","","","","",""
"","","","call-function","430","1030497","0.0-430.0","8fqlb0sm","","","","","","","",""
"null","","","html-keyboard-response","431","1032003","0.0-431.0","8fqlb0sm","","<span style=""color:Black; font-size:50px;"">Agent A","null","","","","",""
"null","","","video-keyboard-response","432","1034821","0.0-432.0","8fqlb0sm","","","null","","Agent A","scrambled","FOR_REV_MAP_BLOBBY_STIM/713381.bmp_pp82_L2_V1.0_veridical_freeview_isoTrue_fps144_reversed_REAL.mp4",""
"null","","","html-keyboard-response","433","1036323","0.0-433.0","8fqlb0sm","","<span style=""color:Black; font-size:50px;"">Agent B","null","","","","",""
"null","","","video-keyboard-response","434","1039138","0.0-434.0","8fqlb0sm","","","null","","Agent B","veridical","FOR_REV_MAP_BLOBBY_STIM/713381.bmp_pp82_L2_V1.0_veridical_freeview_isoTrue_fps144.mp4",""
"","","","call-function","435","1039139","0.0-435.0","8fqlb0sm","","","","","","","",""
"1200.2249999999767","{""judgement"":0}","[0]","survey-likert","436","1040340","0.0-436.0","8fqlb0sm","","","","","","","","1"
"1470.4899999999907","{""confidence"":3}","[0]","survey-likert","437","1041812","0.0-437.0","8fqlb0sm","","","","","","","",""
"","","","call-function","438","1041813","0.0-438.0","8fqlb0sm","","","","","","","",""
"null","","","html-keyboard-response","439","1043314","0.0-439.0","8fqlb0sm","","<span style=""color:Black; font-size:50px;"">Agent A","null","","","","",""
"null","","","video-keyboard-response","440","1046216","0.0-440.0","8fqlb0sm","","","null","","Agent A","scrambled","FOR_REV_MAP_BLOBBY_STIM/713274.bmp_pp73_L3_V1.0_veridical_freeview_isoTrue_fps144_reversed_REAL.mp4",""
"null","","","html-keyboard-response","441","1047723","0.0-441.0","8fqlb0sm","","<span style=""color:Black; font-size:50px;"">Agent B","null","","","","",""
"null","","","video-keyboard-response","442","1050527","0.0-442.0","8fqlb0sm","","","null","","Agent B","veridical","FOR_REV_MAP_BLOBBY_STIM/713274.bmp_pp73_L3_V1.0_veridical_freeview_isoTrue_fps144.mp4",""
"","","","call-function","443","1050528","0.0-443.0","8fqlb0sm","","","","","","","",""
"1456.1049999999814","{""judgement"":0}","[0]","survey-likert","444","1051985","0.0-444.0","8fqlb0sm","","","","","","","","1"
"2036.5600000000559","{""confidence"":2}","[0]","survey-likert","445","1054023","0.0-445.0","8fqlb0sm","","","","","","","",""
"","","","call-function","446","1054023","0.0-446.0","8fqlb0sm","","","","","","","",""
"null","","","html-keyboard-response","447","1055526","0.0-447.0","8fqlb0sm","","<span style=""color:Black; font-size:50px;"">Agent A","null","","","","",""
"null","","","video-keyboard-response","448","1058351","0.0-448.0","8fqlb0sm","","","null","","Agent A","veridical","FOR_REV_MAP_BLOBBY_STIM/713652.bmp_pp89_L1_V1.0_veridical_freeview_isoTrue_fps144.mp4",""
"null","","","html-keyboard-response","449","1059854","0.0-449.0","8fqlb0sm","","<span style=""color:Black; font-size:50px;"">Agent B","null","","","","",""
"null","","","video-keyboard-response","450","1062665","0.0-450.0","8fqlb0sm","","","null","","Agent B","scrambled","FOR_REV_MAP_BLOBBY_STIM/713652.bmp_pp89_L1_V1.0_veridical_freeview_isoTrue_fps144_reversed_REAL.mp4",""
"","","","call-function","451","1062666","0.0-451.0","8fqlb0sm","","","","","","","",""
"1292.2299999999814","{""judgement"":1}","[0]","survey-likert","452","1063959","0.0-452.0","8fqlb0sm","","","","","","","","0"
"1999.780000000028","{""confidence"":2}","[0]","survey-likert","453","1065960","0.0-453.0","8fqlb0sm","","","","","","","",""
"","","","call-function","454","1065960","0.0-454.0","8fqlb0sm","","","","","","","",""
"null","","","html-keyboard-response","455","1067463","0.0-455.0","8fqlb0sm","","<span style=""color:Black; font-size:50px;"">Agent A","null","","","","",""
"null","","","video-keyboard-response","456","1070293","0.0-456.0","8fqlb0sm","","","null","","Agent A","scrambled","FOR_REV_MAP_BLOBBY_STIM/713689.bmp_pp153_L3_V1.0_veridical_freeview_isoTrue_fps144_reversed_REAL.mp4",""
"null","","","html-keyboard-response","457","1071797","0.0-457.0","8fqlb0sm","","<span style=""color:Black; font-size:50px;"">Agent B","null","","","","",""
"null","","","video-keyboard-response","458","1074621","0.0-458.0","8fqlb0sm","","","null","","Agent B","veridical","FOR_REV_MAP_BLOBBY_STIM/713689.bmp_pp153_L3_V1.0_veridical_freeview_isoTrue_fps144.mp4",""
"","","","call-function","459","1074622","0.0-459.0","8fqlb0sm","","","","","","","",""
"1765.7600000000093","{""judgement"":1}","[0]","survey-likert","460","1076389","0.0-460.0","8fqlb0sm","","","","","","","","1"
"2342.8850000000093","{""confidence"":1}","[0]","survey-likert","461","1078733","0.0-461.0","8fqlb0sm","","","","","","","",""
"","","","call-function","462","1078734","0.0-462.0","8fqlb0sm","","","","","","","",""
"null","","","html-keyboard-response","463","1080235","0.0-463.0","8fqlb0sm","","<span style=""color:Black; font-size:50px;"">Agent A","null","","","","",""
"null","","","video-keyboard-response","464","1082998","0.0-464.0","8fqlb0sm","","","null","","Agent A","scrambled","FOR_REV_MAP_BLOBBY_STIM/1159325.bmp_pp67_L2_V1.0_veridical_freeview_isoTrue_fps144_reversed_REAL.mp4",""
"null","","","html-keyboard-response","465","1084504","0.0-465.0","8fqlb0sm","","<span style=""color:Black; font-size:50px;"">Agent B","null","","","","",""
"null","","","video-keyboard-response","466","1087252","0.0-466.0","8fqlb0sm","","","null","","Agent B","veridical","FOR_REV_MAP_BLOBBY_STIM/1159325.bmp_pp67_L2_V1.0_veridical_freeview_isoTrue_fps144.mp4",""
"","","","call-function","467","1087253","0.0-467.0","8fqlb0sm","","","","","","","",""
"1489.2099999999627","{""judgement"":1}","[0]","survey-likert","468","1088744","0.0-468.0","8fqlb0sm","","","","","","","","1"
"4312.635000000009","{""confidence"":2}","[0]","survey-likert","469","1093058","0.0-469.0","8fqlb0sm","","","","","","","",""
"","","","call-function","470","1093059","0.0-470.0","8fqlb0sm","","","","","","","",""
"null","","","html-keyboard-response","471","1094563","0.0-471.0","8fqlb0sm","","<span style=""color:Black; font-size:50px;"">Agent A","null","","","","",""
"null","","","video-keyboard-response","472","1097402","0.0-472.0","8fqlb0sm","","","null","","Agent A","veridical","FOR_REV_MAP_BLOBBY_STIM/498326.bmp_pp57_L1_V1.0_veridical_freeview_isoTrue_fps144.mp4",""
"null","","","html-keyboard-response","473","1098904","0.0-473.0","8fqlb0sm","","<span style=""color:Black; font-size:50px;"">Agent B","null","","","","",""
"null","","","video-keyboard-response","474","1101741","0.0-474.0","8fqlb0sm","","","null","","Agent B","scrambled","FOR_REV_MAP_BLOBBY_STIM/498326.bmp_pp57_L1_V1.0_veridical_freeview_isoTrue_fps144_reversed_REAL.mp4",""
"","","","call-function","475","1101741","0.0-475.0","8fqlb0sm","","","","","","","",""
"968.5949999999721","{""judgement"":1}","[0]","survey-likert","476","1102711","0.0-476.0","8fqlb0sm","","","","","","","","0"
"1269.7399999999907","{""confidence"":1}","[0]","survey-likert","477","1103982","0.0-477.0","8fqlb0sm","","","","","","","",""
"","","","call-function","478","1103983","0.0-478.0","8fqlb0sm","","","","","","","",""
"null","","","html-keyboard-response","479","1105486","0.0-479.0","8fqlb0sm","","<span style=""color:Black; font-size:50px;"">Agent A","null","","","","",""
"null","","","video-keyboard-response","480","1108264","0.0-480.0","8fqlb0sm","","","null","","Agent A","scrambled","FOR_REV_MAP_BLOBBY_STIM/1592567.bmp_pp70_L2_V1.0_veridical_freeview_isoTrue_fps144_reversed_REAL.mp4",""
"null","","","html-keyboard-response","481","1109768","0.0-481.0","8fqlb0sm","","<span style=""color:Black; font-size:50px;"">Agent B","null","","","","",""
"null","","","video-keyboard-response","482","1112563","0.0-482.0","8fqlb0sm","","","null","","Agent B","veridical","FOR_REV_MAP_BLOBBY_STIM/1592567.bmp_pp70_L2_V1.0_veridical_freeview_isoTrue_fps144.mp4",""
"","","","call-function","483","1112563","0.0-483.0","8fqlb0sm","","","","","","","",""
"1290.3249999999534","{""judgement"":0}","[0]","survey-likert","484","1113855","0.0-484.0","8fqlb0sm","","","","","","","","1"
"1544.3950000000186","{""confidence"":0}","[0]","survey-likert","485","1115400","0.0-485.0","8fqlb0sm","","","","","","","",""
"","","","call-function","486","1115401","0.0-486.0","8fqlb0sm","","","","","","","",""
"null","","","html-keyboard-response","487","1116902","0.0-487.0","8fqlb0sm","","<span style=""color:Black; font-size:50px;"">Agent A","null","","","","",""
"null","","","video-keyboard-response","488","1119674","0.0-488.0","8fqlb0sm","","","null","","Agent A","veridical","FOR_REV_MAP_BLOBBY_STIM/150277.bmp_pp65_L3_V1.0_veridical_freeview_isoTrue_fps144.mp4",""
"null","","","html-keyboard-response","489","1121178","0.0-489.0","8fqlb0sm","","<span style=""color:Black; font-size:50px;"">Agent B","null","","","","",""
"null","","","video-keyboard-response","490","1123956","0.0-490.0","8fqlb0sm","","","null","","Agent B","scrambled","FOR_REV_MAP_BLOBBY_STIM/150277.bmp_pp65_L3_V1.0_veridical_freeview_isoTrue_fps144_reversed_REAL.mp4",""
"","","","call-function","491","1123957","0.0-491.0","8fqlb0sm","","","","","","","",""
"2902.7299999999814","{""judgement"":1}","[0]","survey-likert","492","1126860","0.0-492.0","8fqlb0sm","","","","","","","","0"
"1442.0450000001583","{""confidence"":0}","[0]","survey-likert","493","1128304","0.0-493.0","8fqlb0sm","","","","","","","",""
"","","","call-function","494","1128304","0.0-494.0","8fqlb0sm","","","","","","","",""
"null","","","html-keyboard-response","495","1129807","0.0-495.0","8fqlb0sm","","<span style=""color:Black; font-size:50px;"">Agent A","null","","","","",""
"null","","","video-keyboard-response","496","1132654","0.0-496.0","8fqlb0sm","","","null","","Agent A","scrambled","FOR_REV_MAP_BLOBBY_STIM/107955.bmp_pp90_L2_V1.0_veridical_freeview_isoTrue_fps144_reversed_REAL.mp4",""
"null","","","html-keyboard-response","497","1134159","0.0-497.0","8fqlb0sm","","<span style=""color:Black; font-size:50px;"">Agent B","null","","","","",""
"null","","","video-keyboard-response","498","1136996","0.0-498.0","8fqlb0sm","","","null","","Agent B","veridical","FOR_REV_MAP_BLOBBY_STIM/107955.bmp_pp90_L2_V1.0_veridical_freeview_isoTrue_fps144.mp4",""
"","","","call-function","499","1136996","0.0-499.0","8fqlb0sm","","","","","","","",""
"3359.8350000001956","{""judgement"":0}","[0]","survey-likert","500","1140357","0.0-500.0","8fqlb0sm","","","","","","","","1"
"1411.8000000000466","{""confidence"":0}","[0]","survey-likert","501","1141770","0.0-501.0","8fqlb0sm","","","","","","","",""
"2323.9150000000373","","","instructions","502","1144094","0.0-502.0","8fqlb0sm","[{""page_index"":0,""viewing_time"":1049.0450000001583},{""page_index"":1,""viewing_time"":796.6299999998882},{""page_index"":2,""viewing_time"":478.0900000000838}]","","","","","","",""
"1383.3349999999627","","","instructions","503","1145478","0.0-503.0","8fqlb0sm","[{""page_index"":0,""viewing_time"":395.6300000001211},{""page_index"":1,""viewing_time"":412.64999999990687},{""page_index"":2,""viewing_time"":574.9450000000652}]","","","","","","",""
"","","","call-function","504","1145479","0.0-504.0","8fqlb0sm","","","","","","","",""
"null","","","html-keyboard-response","505","1146982","0.0-505.0","8fqlb0sm","","<span style=""color:Black; font-size:50px;"">Agent A","null","","","","",""
"null","","","video-keyboard-response","506","1149459","0.0-506.0","8fqlb0sm","","","null","","Agent A","veridical","FOR_REV_MAP_BLOBBY_STIM/1592951.bmp_pp80_L3_V1.0_veridical_freeview_isoTrue_fps144.mp4",""
"null","","","html-keyboard-response","507","1150960","0.0-507.0","8fqlb0sm","","<span style=""color:Black; font-size:50px;"">Agent B","null","","","","",""
"null","","","video-keyboard-response","508","1153378","0.0-508.0","8fqlb0sm","","","null","","Agent B","scrambled","FOR_REV_MAP_BLOBBY_STIM/1592951.bmp_pp80_L3_V1.0_veridical_freeview_isoTrue_fps144_reversed_REAL.mp4",""
"","","","call-function","509","1153379","0.0-509.0","8fqlb0sm","","","","","","","",""
"1299.035000000149","{""judgement"":1}","[0]","survey-likert","510","1154679","0.0-510.0","8fqlb0sm","","","","","","","","0"
"1137.7900000000373","{""confidence"":0}","[0]","survey-likert","511","1155818","0.0-511.0","8fqlb0sm","","","","","","","",""
"","","","call-function","512","1155818","0.0-512.0","8fqlb0sm","","","","","","","",""
"null","","","html-keyboard-response","513","1157323","0.0-513.0","8fqlb0sm","","<span style=""color:Black; font-size:50px;"">Agent A","null","","","","",""
"null","","","video-keyboard-response","514","1160108","0.0-514.0","8fqlb0sm","","","null","","Agent A","veridical","FOR_REV_MAP_BLOBBY_STIM/285932.bmp_pp64_L1_V1.0_veridical_freeview_isoTrue_fps144.mp4",""
"null","","","html-keyboard-response","515","1161612","0.0-515.0","8fqlb0sm","","<span style=""color:Black; font-size:50px;"">Agent B","null","","","","",""
"null","","","video-keyboard-response","516","1164381","0.0-516.0","8fqlb0sm","","","null","","Agent B","scrambled","FOR_REV_MAP_BLOBBY_STIM/285932.bmp_pp64_L1_V1.0_veridical_freeview_isoTrue_fps144_reversed_REAL.mp4",""
"","","","call-function","517","1164381","0.0-517.0","8fqlb0sm","","","","","","","",""
"1352.589999999851","{""judgement"":1}","[0]","survey-likert","518","1165735","0.0-518.0","8fqlb0sm","","","","","","","","0"
"1750.9750000000931","{""confidence"":1}","[0]","survey-likert","519","1167487","0.0-519.0","8fqlb0sm","","","","","","","",""
"","","","call-function","520","1167488","0.0-520.0","8fqlb0sm","","","","","","","",""
"null","","","html-keyboard-response","521","1168989","0.0-521.0","8fqlb0sm","","<span style=""color:Black; font-size:50px;"">Agent A","null","","","","",""
"null","","","video-keyboard-response","522","1171851","0.0-522.0","8fqlb0sm","","","null","","Agent A","veridical","FOR_REV_MAP_BLOBBY_STIM/1592201.bmp_pp97_L3_V1.0_veridical_freeview_isoTrue_fps144.mp4",""
"null","","","html-keyboard-response","523","1173354","0.0-523.0","8fqlb0sm","","<span style=""color:Black; font-size:50px;"">Agent B","null","","","","",""
"null","","","video-keyboard-response","524","1176206","0.0-524.0","8fqlb0sm","","","null","","Agent B","scrambled","FOR_REV_MAP_BLOBBY_STIM/1592201.bmp_pp97_L3_V1.0_veridical_freeview_isoTrue_fps144_reversed_REAL.mp4",""
"","","","call-function","525","1176207","0.0-525.0","8fqlb0sm","","","","","","","",""
"2345.2650000001304","{""judgement"":0}","[0]","survey-likert","526","1178554","0.0-526.0","8fqlb0sm","","","","","","","","0"
"1292.7150000000838","{""confidence"":0}","[0]","survey-likert","527","1179848","0.0-527.0","8fqlb0sm","","","","","","","",""
"","","","call-function","528","1179849","0.0-528.0","8fqlb0sm","","","","","","","",""
"null","","","html-keyboard-response","529","1181351","0.0-529.0","8fqlb0sm","","<span style=""color:Black; font-size:50px;"">Agent A","null","","","","",""
"null","","","video-keyboard-response","530","1184116","0.0-530.0","8fqlb0sm","","","null","","Agent A","veridical","FOR_REV_MAP_BLOBBY_STIM/1592298.bmp_pp56_L3_V1.0_veridical_freeview_isoTrue_fps144.mp4",""
"null","","","html-keyboard-response","531","1185621","0.0-531.0","8fqlb0sm","","<span style=""color:Black; font-size:50px;"">Agent B","null","","","","",""
"null","","","video-keyboard-response","532","1188376","0.0-532.0","8fqlb0sm","","","null","","Agent B","scrambled","FOR_REV_MAP_BLOBBY_STIM/1592298.bmp_pp56_L3_V1.0_veridical_freeview_isoTrue_fps144_reversed_REAL.mp4",""
"","","","call-function","533","1188377","0.0-533.0","8fqlb0sm","","","","","","","",""
"1217.7750000001397","{""judgement"":1}","[0]","survey-likert","534","1189595","0.0-534.0","8fqlb0sm","","","","","","","","0"
"1169.5900000000838","{""confidence"":3}","[0]","survey-likert","535","1190766","0.0-535.0","8fqlb0sm","","","","","","","",""
"","","","call-function","536","1190767","0.0-536.0","8fqlb0sm","","","","","","","",""
"null","","","html-keyboard-response","537","1192269","0.0-537.0","8fqlb0sm","","<span style=""color:Black; font-size:50px;"">Agent A","null","","","","",""
"null","","","video-keyboard-response","538","1195065","0.0-538.0","8fqlb0sm","","","null","","Agent A","veridical","FOR_REV_MAP_BLOBBY_STIM/713790.bmp_pp100_L3_V1.0_veridical_freeview_isoTrue_fps144.mp4",""
"null","","","html-keyboard-response","539","1196569","0.0-539.0","8fqlb0sm","","<span style=""color:Black; font-size:50px;"">Agent B","null","","","","",""
"null","","","video-keyboard-response","540","1199363","0.0-540.0","8fqlb0sm","","","null","","Agent B","scrambled","FOR_REV_MAP_BLOBBY_STIM/713790.bmp_pp100_L3_V1.0_veridical_freeview_isoTrue_fps144_reversed_REAL.mp4",""
"","","","call-function","541","1199364","0.0-541.0","8fqlb0sm","","","","","","","",""
"1345.4950000001118","{""judgement"":0}","[0]","survey-likert","542","1200710","0.0-542.0","8fqlb0sm","","","","","","","","0"
"1348.5349999999162","{""confidence"":2}","[0]","survey-likert","543","1202060","0.0-543.0","8fqlb0sm","","","","","","","",""
"","","","call-function","544","1202061","0.0-544.0","8fqlb0sm","","","","","","","",""
"null","","","html-keyboard-response","545","1203564","0.0-545.0","8fqlb0sm","","<span style=""color:Black; font-size:50px;"">Agent A","null","","","","",""
"null","","","video-keyboard-response","546","1206377","0.0-546.0","8fqlb0sm","","","null","","Agent A","scrambled","FOR_REV_MAP_BLOBBY_STIM/107909.bmp_pp95_L2_V1.0_veridical_freeview_isoTrue_fps144_reversed_REAL.mp4",""
"null","","","html-keyboard-response","547","1207881","0.0-547.0","8fqlb0sm","","<span style=""color:Black; font-size:50px;"">Agent B","null","","","","",""
"null","","","video-keyboard-response","548","1210681","0.0-548.0","8fqlb0sm","","","null","","Agent B","veridical","FOR_REV_MAP_BLOBBY_STIM/107909.bmp_pp95_L2_V1.0_veridical_freeview_isoTrue_fps144.mp4",""
"","","","call-function","549","1210682","0.0-549.0","8fqlb0sm","","","","","","","",""
"1322.1099999998696","{""judgement"":0}","[0]","survey-likert","550","1212005","0.0-550.0","8fqlb0sm","","","","","","","","1"
"1351.5749999999534","{""confidence"":1}","[0]","survey-likert","551","1213358","0.0-551.0","8fqlb0sm","","","","","","","",""
"","","","call-function","552","1213359","0.0-552.0","8fqlb0sm","","","","","","","",""
"null","","","html-keyboard-response","553","1214863","0.0-553.0","8fqlb0sm","","<span style=""color:Black; font-size:50px;"">Agent A","null","","","","",""
"null","","","video-keyboard-response","554","1217636","0.0-554.0","8fqlb0sm","","","null","","Agent A","scrambled","FOR_REV_MAP_BLOBBY_STIM/285684.bmp_pp80_L3_V1.0_veridical_freeview_isoTrue_fps144_reversed_REAL.mp4",""
"null","","","html-keyboard-response","555","1219140","0.0-555.0","8fqlb0sm","","<span style=""color:Black; font-size:50px;"">Agent B","null","","","","",""
"null","","","video-keyboard-response","556","1221915","0.0-556.0","8fqlb0sm","","","null","","Agent B","veridical","FOR_REV_MAP_BLOBBY_STIM/285684.bmp_pp80_L3_V1.0_veridical_freeview_isoTrue_fps144.mp4",""
"","","","call-function","557","1221916","0.0-557.0","8fqlb0sm","","","","","","","",""
"1313.315000000177","{""judgement"":0}","[0]","survey-likert","558","1223230","0.0-558.0","8fqlb0sm","","","","","","","","1"
"1488.0649999999441","{""confidence"":3}","[0]","survey-likert","559","1224719","0.0-559.0","8fqlb0sm","","","","","","","",""
"","","","call-function","560","1224720","0.0-560.0","8fqlb0sm","","","","","","","",""
"null","","","html-keyboard-response","561","1226223","0.0-561.0","8fqlb0sm","","<span style=""color:Black; font-size:50px;"">Agent A","null","","","","",""
"null","","","video-keyboard-response","562","1228935","0.0-562.0","8fqlb0sm","","","null","","Agent A","scrambled","FOR_REV_MAP_BLOBBY_STIM/1159427.bmp_pp98_L1_V1.0_veridical_freeview_isoTrue_fps144_reversed_REAL.mp4",""
"null","","","html-keyboard-response","563","1230438","0.0-563.0","8fqlb0sm","","<span style=""color:Black; font-size:50px;"">Agent B","null","","","","",""
"null","","","video-keyboard-response","564","1233149","0.0-564.0","8fqlb0sm","","","null","","Agent B","veridical","FOR_REV_MAP_BLOBBY_STIM/1159427.bmp_pp98_L1_V1.0_veridical_freeview_isoTrue_fps144.mp4",""
"","","","call-function","565","1233150","0.0-565.0","8fqlb0sm","","","","","","","",""
"1394.160000000149","{""judgement"":1}","[0]","survey-likert","566","1234545","0.0-566.0","8fqlb0sm","","","","","","","","1"
"1453.6350000000093","{""confidence"":2}","[0]","survey-likert","567","1236000","0.0-567.0","8fqlb0sm","","","","","","","",""
"","","","call-function","568","1236001","0.0-568.0","8fqlb0sm","","","","","","","",""
"null","","","html-keyboard-response","569","1237504","0.0-569.0","8fqlb0sm","","<span style=""color:Black; font-size:50px;"">Agent A","null","","","","",""
"null","","","video-keyboard-response","570","1240312","0.0-570.0","8fqlb0sm","","","null","","Agent A","scrambled","FOR_REV_MAP_BLOBBY_STIM/1591781.bmp_pp63_L1_V1.0_veridical_freeview_isoTrue_fps144_reversed_REAL.mp4",""
"null","","","html-keyboard-response","571","1241814","0.0-571.0","8fqlb0sm","","<span style=""color:Black; font-size:50px;"">Agent B","null","","","","",""
"null","","","video-keyboard-response","572","1244616","0.0-572.0","8fqlb0sm","","","null","","Agent B","veridical","FOR_REV_MAP_BLOBBY_STIM/1591781.bmp_pp63_L1_V1.0_veridical_freeview_isoTrue_fps144.mp4",""
"","","","call-function","573","1244617","0.0-573.0","8fqlb0sm","","","","","","","",""
"1194.7950000001583","{""judgement"":1}","[0]","survey-likert","574","1245813","0.0-574.0","8fqlb0sm","","","","","","","","1"
"1020.660000000149","{""confidence"":0}","[0]","survey-likert","575","1246835","0.0-575.0","8fqlb0sm","","","","","","","",""
"","","","call-function","576","1246835","0.0-576.0","8fqlb0sm","","","","","","","",""
"null","","","html-keyboard-response","577","1248337","0.0-577.0","8fqlb0sm","","<span style=""color:Black; font-size:50px;"">Agent A","null","","","","",""
"null","","","video-keyboard-response","578","1251143","0.0-578.0","8fqlb0sm","","","null","","Agent A","veridical","FOR_REV_MAP_BLOBBY_STIM/1592314.bmp_pp100_L3_V1.0_veridical_freeview_isoTrue_fps144.mp4",""
"null","","","html-keyboard-response","579","1252645","0.0-579.0","8fqlb0sm","","<span style=""color:Black; font-size:50px;"">Agent B","null","","","","",""
"null","","","video-keyboard-response","580","1255460","0.0-580.0","8fqlb0sm","","","null","","Agent B","scrambled","FOR_REV_MAP_BLOBBY_STIM/1592314.bmp_pp100_L3_V1.0_veridical_freeview_isoTrue_fps144_reversed_REAL.mp4",""
"","","","call-function","581","1255461","0.0-581.0","8fqlb0sm","","","","","","","",""
"1292.5549999999348","{""judgement"":1}","[0]","survey-likert","582","1256756","0.0-582.0","8fqlb0sm","","","","","","","","0"
"1920.2700000000186","{""confidence"":2}","[0]","survey-likert","583","1258677","0.0-583.0","8fqlb0sm","","","","","","","",""
"1276.3549999999814","","","instructions","584","1259955","0.0-584.0","8fqlb0sm","[{""page_index"":0,""viewing_time"":1276.219999999972}]","","","","","","",""
"1409.969999999972","","","instructions","585","1261366","0.0-585.0","8fqlb0sm","[{""page_index"":0,""viewing_time"":1409.8649999999907}]","","","","","","",""
"7533.399999999907","{""post-1"":1}","[0]","survey-likert","586","1268902","0.0-586.0","8fqlb0sm","","","","","","","",""
"14463.965000000084","{""post-1"":1}","[0]","survey-likert","587","1283367","0.0-587.0","8fqlb0sm","","","","","","","",""
"6644.135000000009","{""post-2"":1}","[0]","survey-likert","588","1290013","0.0-588.0","8fqlb0sm","","","","","","","",""
"4655.179999999935","{""post-2"":0}","[0]","survey-likert","589","1294669","0.0-589.0","8fqlb0sm","","","","","","","",""
"3830.155000000028","{""post-3"":2}","[0]","survey-likert","590","1298501","0.0-590.0","8fqlb0sm","","","","","","","",""
"3417.1650000000373","{""post-3"":0}","[0]","survey-likert","591","1301919","0.0-591.0","8fqlb0sm","","","","","","","",""
"4147.364999999991","{""post-4"":0}","[0]","survey-likert","592","1306068","0.0-592.0","8fqlb0sm","","","","","","","",""
"1411.339999999851","{""post-4"":0}","[0]","survey-likert","593","1307481","0.0-593.0","8fqlb0sm","","","","","","","",""
"4764.114999999991","{""post-5"":0}","[0]","survey-likert","594","1312246","0.0-594.0","8fqlb0sm","","","","","","","",""
"1874.4450000000652","{""post-5"":3}","[0]","survey-likert","595","1314122","0.0-595.0","8fqlb0sm","","","","","","","",""
"10726.664999999804","{""Q0"":""""}","","survey-text","596","1324855","0.0-596.0","8fqlb0sm","","","","","","","",""
"123169.74500000011","{""Q0"":""My choice almost always depended on the timing of the attention hotspots. I chose an agent as the real human when the length of each hotspot was short but also when the length varied. There were some ones where the length of each hotspot was almost exact which felt very robotic and not human. I also chose an agent to be human if their hotspots were very quick and scattered in the beginning and then slowed to focus on certain areas by the end.""}","","survey-text","597","1448029","0.0-597.0","8fqlb0sm","","","","","","","",""
"55504.804999999935","{""Q0"":""There were some trials where I really had no idea which agent was real and which was fake. It was especially hard when the pathway of the attention hotspots were very similar between the two agents and I couldn't even perceive a difference between the two.""}","","survey-text","598","1503538","0.0-598.0","8fqlb0sm","","","","","","","",""
"23281.225000000093","","","instructions","599","1526820","0.0-599.0","8fqlb0sm","[{""page_index"":0,""viewing_time"":23281.090000000084}]","","","","","","",""
"18133.419999999925","{""Experimenter_end"":[""Printed ID# 8fqlb0sm on consent form"",""Given subject SONA credit or payment"",""Given the subject debrief form""]}","[0]","survey-multi-select","600","1544956","0.0-600.0","8fqlb0sm","","","","","","","",""
