"rt","responses","question_order","trial_type","trial_index","time_elapsed","internal_node_id","ID","view_history","stimulus","key_press","value","agent","condition","image","correct_answer"
"27304.19","{""Experimenter"":[""Confirmed subject's identity (ID card)"",""Confirmed normal or corrected-to-normal vision"",""Obtained consent (signature and date)"",""Checked the test room lighting"",""Checked computer screen lighting"",""Checked distance from screen to chin rest (50cm)"",""Cleaned and adjusted chin rest"",""Counterbalanced the order of the tasks"",""Opened the experiment in Firefox"",""Made the experiment full screen"",""Encouraged subject to silence phone, put away distractors, etc.""]}","[0]","survey-multi-select","0","27313","0.0-0.0","8q7zbw0m","","","","","","","",""
"2445.84","","","instructions","1","29761","0.0-1.0","8q7zbw0m","[{""page_index"":0,""viewing_time"":2445.6800000000003}]","","","","","","",""
"18110.765000000003","","","instructions","2","47872","0.0-2.0","8q7zbw0m","[{""page_index"":0,""viewing_time"":2086.6500000000015},{""page_index"":1,""viewing_time"":8851.045000000002},{""page_index"":2,""viewing_time"":7172.945}]","","","","","","",""
"3160.345000000001","","","instructions","3","51033","0.0-3.0","8q7zbw0m","[{""page_index"":0,""viewing_time"":3160.239999999998}]","","","","","","",""
"null","","","video-keyboard-response","4","54105","0.0-4.0","8q7zbw0m","","","null","","","","",""
"22787.655","","","instructions","5","76894","0.0-5.0","8q7zbw0m","[{""page_index"":0,""viewing_time"":4285.4749999999985},{""page_index"":1,""viewing_time"":1880.9099999999962},{""page_index"":2,""viewing_time"":995.0149999999994},{""page_index"":3,""viewing_time"":7883.025000000009},{""page_index"":4,""viewing_time"":7743.095000000001}]","","","","","","",""
"5068.380000000005","","","instructions","6","81963","0.0-6.0","8q7zbw0m","[{""page_index"":0,""viewing_time"":5068.255000000005}]","","","","","","",""
"","","","call-function","7","81963","0.0-7.0","8q7zbw0m","","","","","","","",""
"null","","","html-keyboard-response","8","83465","0.0-8.0","8q7zbw0m","","<span style=""color:Black; font-size:50px;"">Agent A","null","","","","",""
"null","","","video-keyboard-response","9","86531","0.0-9.0","8q7zbw0m","","","null","","Agent A","scrambled","STIM_SET_1/713760.bmp_pp81_L1_V1.0_scrambled_freeview_isoFalse.mp4",""
"null","","","html-keyboard-response","10","88035","0.0-10.0","8q7zbw0m","","<span style=""color:Black; font-size:50px;"">Agent B","null","","","","",""
"null","","","video-keyboard-response","11","91098","0.0-11.0","8q7zbw0m","","","null","","Agent B","veridical","STIM_SET_1/713760.bmp_pp81_L1_V1.0_veridical_freeview_isoFalse.mp4",""
"","","","call-function","12","91098","0.0-12.0","8q7zbw0m","","","","","","","",""
"11663.75499999999","{""judgement"":0}","[0]","survey-likert","13","102763","0.0-13.0","8q7zbw0m","","","","","","","","1"
"1486.4349999999977","{""confidence"":1}","[0]","survey-likert","14","104251","0.0-14.0","8q7zbw0m","","","","","","","",""
"","","","call-function","15","104251","0.0-15.0","8q7zbw0m","","","","","","","",""
"null","","","html-keyboard-response","16","105755","0.0-16.0","8q7zbw0m","","<span style=""color:Black; font-size:50px;"">Agent A","null","","","","",""
"null","","","video-keyboard-response","17","108835","0.0-17.0","8q7zbw0m","","","null","","Agent A","veridical","STIM_SET_1/1159675.bmp_pp77_L3_V1.0_veridical_freeview_isoFalse.mp4",""
"null","","","html-keyboard-response","18","110339","0.0-18.0","8q7zbw0m","","<span style=""color:Black; font-size:50px;"">Agent B","null","","","","",""
"null","","","video-keyboard-response","19","113423","0.0-19.0","8q7zbw0m","","","null","","Agent B","scrambled","STIM_SET_1/1159675.bmp_pp77_L3_V1.0_scrambled_freeview_isoFalse.mp4",""
"","","","call-function","20","113424","0.0-20.0","8q7zbw0m","","","","","","","",""
"3448.8300000000017","{""judgement"":0}","[0]","survey-likert","21","116875","0.0-21.0","8q7zbw0m","","","","","","","","0"
"1578.6399999999994","{""confidence"":2}","[0]","survey-likert","22","118455","0.0-22.0","8q7zbw0m","","","","","","","",""
"","","","call-function","23","118455","0.0-23.0","8q7zbw0m","","","","","","","",""
"null","","","html-keyboard-response","24","119962","0.0-24.0","8q7zbw0m","","<span style=""color:Black; font-size:50px;"">Agent A","null","","","","",""
"null","","","video-keyboard-response","25","123039","0.0-25.0","8q7zbw0m","","","null","","Agent A","scrambled","STIM_SET_1/498253.bmp_pp67_L2_V1.0_scrambled_freeview_isoFalse.mp4",""
"null","","","html-keyboard-response","26","124544","0.0-26.0","8q7zbw0m","","<span style=""color:Black; font-size:50px;"">Agent B","null","","","","",""
"null","","","video-keyboard-response","27","127664","0.0-27.0","8q7zbw0m","","","null","","Agent B","veridical","STIM_SET_1/498253.bmp_pp67_L2_V1.0_veridical_freeview_isoFalse.mp4",""
"","","","call-function","28","127664","0.0-28.0","8q7zbw0m","","","","","","","",""
"2326.804999999993","{""judgement"":0}","[0]","survey-likert","29","129992","0.0-29.0","8q7zbw0m","","","","","","","","1"
"3320.145000000004","{""confidence"":3}","[0]","survey-likert","30","133313","0.0-30.0","8q7zbw0m","","","","","","","",""
"","","","call-function","31","133314","0.0-31.0","8q7zbw0m","","","","","","","",""
"null","","","html-keyboard-response","32","134817","0.0-32.0","8q7zbw0m","","<span style=""color:Black; font-size:50px;"">Agent A","null","","","","",""
"null","","","video-keyboard-response","33","137935","0.0-33.0","8q7zbw0m","","","null","","Agent A","veridical","STIM_SET_1/1592499.bmp_pp96_L2_V1.0_veridical_freeview_isoFalse.mp4",""
"null","","","html-keyboard-response","34","139441","0.0-34.0","8q7zbw0m","","<span style=""color:Black; font-size:50px;"">Agent B","null","","","","",""
"null","","","video-keyboard-response","35","142518","0.0-35.0","8q7zbw0m","","","null","","Agent B","scrambled","STIM_SET_1/1592499.bmp_pp96_L2_V1.0_scrambled_freeview_isoFalse.mp4",""
"","","","call-function","36","142519","0.0-36.0","8q7zbw0m","","","","","","","",""
"2027.6849999999977","{""judgement"":0}","[0]","survey-likert","37","144547","0.0-37.0","8q7zbw0m","","","","","","","","0"
"1091.9250000000175","{""confidence"":2}","[0]","survey-likert","38","145641","0.0-38.0","8q7zbw0m","","","","","","","",""
"","","","call-function","39","145642","0.0-39.0","8q7zbw0m","","","","","","","",""
"null","","","html-keyboard-response","40","147145","0.0-40.0","8q7zbw0m","","<span style=""color:Black; font-size:50px;"">Agent A","null","","","","",""
"null","","","video-keyboard-response","41","150213","0.0-41.0","8q7zbw0m","","","null","","Agent A","scrambled","STIM_SET_1/1592817.bmp_pp55_L3_V1.0_scrambled_freeview_isoFalse.mp4",""
"null","","","html-keyboard-response","42","151716","0.0-42.0","8q7zbw0m","","<span style=""color:Black; font-size:50px;"">Agent B","null","","","","",""
"null","","","video-keyboard-response","43","154785","0.0-43.0","8q7zbw0m","","","null","","Agent B","veridical","STIM_SET_1/1592817.bmp_pp55_L3_V1.0_veridical_freeview_isoFalse.mp4",""
"","","","call-function","44","154786","0.0-44.0","8q7zbw0m","","","","","","","",""
"3537.220000000001","{""judgement"":0}","[0]","survey-likert","45","158324","0.0-45.0","8q7zbw0m","","","","","","","","1"
"1540.5049999999756","{""confidence"":1}","[0]","survey-likert","46","159866","0.0-46.0","8q7zbw0m","","","","","","","",""
"","","","call-function","47","159867","0.0-47.0","8q7zbw0m","","","","","","","",""
"null","","","html-keyboard-response","48","161371","0.0-48.0","8q7zbw0m","","<span style=""color:Black; font-size:50px;"">Agent A","null","","","","",""
"null","","","video-keyboard-response","49","164451","0.0-49.0","8q7zbw0m","","","null","","Agent A","veridical","STIM_SET_1/1159855.bmp_pp99_L2_V1.0_veridical_freeview_isoFalse.mp4",""
"null","","","html-keyboard-response","50","165954","0.0-50.0","8q7zbw0m","","<span style=""color:Black; font-size:50px;"">Agent B","null","","","","",""
"null","","","video-keyboard-response","51","169074","0.0-51.0","8q7zbw0m","","","null","","Agent B","scrambled","STIM_SET_1/1159855.bmp_pp99_L2_V1.0_scrambled_freeview_isoFalse.mp4",""
"","","","call-function","52","169075","0.0-52.0","8q7zbw0m","","","","","","","",""
"3515.4799999999814","{""judgement"":0}","[0]","survey-likert","53","172591","0.0-53.0","8q7zbw0m","","","","","","","","0"
"1661.1199999999953","{""confidence"":1}","[0]","survey-likert","54","174253","0.0-54.0","8q7zbw0m","","","","","","","",""
"","","","call-function","55","174254","0.0-55.0","8q7zbw0m","","","","","","","",""
"null","","","html-keyboard-response","56","175759","0.0-56.0","8q7zbw0m","","<span style=""color:Black; font-size:50px;"">Agent A","null","","","","",""
"null","","","video-keyboard-response","57","178868","0.0-57.0","8q7zbw0m","","","null","","Agent A","veridical","STIM_SET_1/498149.bmp_pp99_L2_V1.0_veridical_freeview_isoFalse.mp4",""
"null","","","html-keyboard-response","58","180370","0.0-58.0","8q7zbw0m","","<span style=""color:Black; font-size:50px;"">Agent B","null","","","","",""
"null","","","video-keyboard-response","59","183473","0.0-59.0","8q7zbw0m","","","null","","Agent B","scrambled","STIM_SET_1/498149.bmp_pp99_L2_V1.0_scrambled_freeview_isoFalse.mp4",""
"","","","call-function","60","183474","0.0-60.0","8q7zbw0m","","","","","","","",""
"2879.7850000000035","{""judgement"":1}","[0]","survey-likert","61","186354","0.0-61.0","8q7zbw0m","","","","","","","","0"
"3432.970000000001","{""confidence"":2}","[0]","survey-likert","62","189789","0.0-62.0","8q7zbw0m","","","","","","","",""
"","","","call-function","63","189789","0.0-63.0","8q7zbw0m","","","","","","","",""
"null","","","html-keyboard-response","64","191293","0.0-64.0","8q7zbw0m","","<span style=""color:Black; font-size:50px;"">Agent A","null","","","","",""
"null","","","video-keyboard-response","65","194403","0.0-65.0","8q7zbw0m","","","null","","Agent A","veridical","STIM_SET_1/1159572.bmp_pp71_L1_V1.0_veridical_freeview_isoFalse.mp4",""
"null","","","html-keyboard-response","66","195908","0.0-66.0","8q7zbw0m","","<span style=""color:Black; font-size:50px;"">Agent B","null","","","","",""
"null","","","video-keyboard-response","67","199021","0.0-67.0","8q7zbw0m","","","null","","Agent B","scrambled","STIM_SET_1/1159572.bmp_pp71_L1_V1.0_scrambled_freeview_isoFalse.mp4",""
"","","","call-function","68","199022","0.0-68.0","8q7zbw0m","","","","","","","",""
"3143.6750000000175","{""judgement"":0}","[0]","survey-likert","69","202166","0.0-69.0","8q7zbw0m","","","","","","","","0"
"1499.2700000000186","{""confidence"":3}","[0]","survey-likert","70","203667","0.0-70.0","8q7zbw0m","","","","","","","",""
"","","","call-function","71","203668","0.0-71.0","8q7zbw0m","","","","","","","",""
"null","","","html-keyboard-response","72","205174","0.0-72.0","8q7zbw0m","","<span style=""color:Black; font-size:50px;"">Agent A","null","","","","",""
"null","","","video-keyboard-response","73","208242","0.0-73.0","8q7zbw0m","","","null","","Agent A","veridical","STIM_SET_1/1159882.bmp_pp61_L2_V1.0_veridical_freeview_isoFalse.mp4",""
"null","","","html-keyboard-response","74","209746","0.0-74.0","8q7zbw0m","","<span style=""color:Black; font-size:50px;"">Agent B","null","","","","",""
"null","","","video-keyboard-response","75","212863","0.0-75.0","8q7zbw0m","","","null","","Agent B","scrambled","STIM_SET_1/1159882.bmp_pp61_L2_V1.0_scrambled_freeview_isoFalse.mp4",""
"","","","call-function","76","212863","0.0-76.0","8q7zbw0m","","","","","","","",""
"3014.5200000000186","{""judgement"":0}","[0]","survey-likert","77","215879","0.0-77.0","8q7zbw0m","","","","","","","","0"
"1464.2849999999744","{""confidence"":2}","[0]","survey-likert","78","217344","0.0-78.0","8q7zbw0m","","","","","","","",""
"","","","call-function","79","217345","0.0-79.0","8q7zbw0m","","","","","","","",""
"null","","","html-keyboard-response","80","218846","0.0-80.0","8q7zbw0m","","<span style=""color:Black; font-size:50px;"">Agent A","null","","","","",""
"null","","","video-keyboard-response","81","221922","0.0-81.0","8q7zbw0m","","","null","","Agent A","scrambled","STIM_SET_1/1592397.bmp_pp85_L3_V1.0_scrambled_freeview_isoFalse.mp4",""
"null","","","html-keyboard-response","82","223426","0.0-82.0","8q7zbw0m","","<span style=""color:Black; font-size:50px;"">Agent B","null","","","","",""
"null","","","video-keyboard-response","83","226499","0.0-83.0","8q7zbw0m","","","null","","Agent B","veridical","STIM_SET_1/1592397.bmp_pp85_L3_V1.0_veridical_freeview_isoFalse.mp4",""
"","","","call-function","84","226499","0.0-84.0","8q7zbw0m","","","","","","","",""
"3653.845000000001","{""judgement"":0}","[0]","survey-likert","85","230154","0.0-85.0","8q7zbw0m","","","","","","","","1"
"2385.040000000008","{""confidence"":1}","[0]","survey-likert","86","232540","0.0-86.0","8q7zbw0m","","","","","","","",""
"17704.964999999997","","","instructions","87","250246","0.0-87.0","8q7zbw0m","[{""page_index"":0,""viewing_time"":15348.050000000017},{""page_index"":1,""viewing_time"":1880.625},{""page_index"":2,""viewing_time"":476.08499999999185}]","","","","","","",""
"1774.5199999999895","","","instructions","88","252021","0.0-88.0","8q7zbw0m","[{""page_index"":0,""viewing_time"":490.3850000000093},{""page_index"":1,""viewing_time"":644.1049999999814},{""page_index"":2,""viewing_time"":639.9250000000175}]","","","","","","",""
"","","","call-function","89","252021","0.0-89.0","8q7zbw0m","","","","","","","",""
"null","","","html-keyboard-response","90","253526","0.0-90.0","8q7zbw0m","","<span style=""color:Black; font-size:50px;"">Agent A","null","","","","",""
"null","","","video-keyboard-response","91","256605","0.0-91.0","8q7zbw0m","","","null","","Agent A","scrambled","STIM_SET_1/498111.bmp_pp88_L2_V1.0_scrambled_freeview_isoFalse.mp4",""
"null","","","html-keyboard-response","92","258107","0.0-92.0","8q7zbw0m","","<span style=""color:Black; font-size:50px;"">Agent B","null","","","","",""
"null","","","video-keyboard-response","93","261213","0.0-93.0","8q7zbw0m","","","null","","Agent B","veridical","STIM_SET_1/498111.bmp_pp88_L2_V1.0_veridical_freeview_isoFalse.mp4",""
"","","","call-function","94","261213","0.0-94.0","8q7zbw0m","","","","","","","",""
"2090.4500000000116","{""judgement"":0}","[0]","survey-likert","95","263304","0.0-95.0","8q7zbw0m","","","","","","","","1"
"1860.8199999999488","{""confidence"":2}","[0]","survey-likert","96","265166","0.0-96.0","8q7zbw0m","","","","","","","",""
"","","","call-function","97","265167","0.0-97.0","8q7zbw0m","","","","","","","",""
"null","","","html-keyboard-response","98","266669","0.0-98.0","8q7zbw0m","","<span style=""color:Black; font-size:50px;"">Agent A","null","","","","",""
"null","","","video-keyboard-response","99","269791","0.0-99.0","8q7zbw0m","","","null","","Agent A","scrambled","STIM_SET_1/713211.bmp_pp100_L3_V1.0_scrambled_freeview_isoFalse.mp4",""
"null","","","html-keyboard-response","100","271296","0.0-100.0","8q7zbw0m","","<span style=""color:Black; font-size:50px;"">Agent B","null","","","","",""
"null","","","video-keyboard-response","101","274374","0.0-101.0","8q7zbw0m","","","null","","Agent B","veridical","STIM_SET_1/713211.bmp_pp100_L3_V1.0_veridical_freeview_isoFalse.mp4",""
"","","","call-function","102","274375","0.0-102.0","8q7zbw0m","","","","","","","",""
"3739.4349999999977","{""judgement"":1}","[0]","survey-likert","103","278115","0.0-103.0","8q7zbw0m","","","","","","","","1"
"2197.390000000014","{""confidence"":2}","[0]","survey-likert","104","280314","0.0-104.0","8q7zbw0m","","","","","","","",""
"","","","call-function","105","280314","0.0-105.0","8q7zbw0m","","","","","","","",""
"null","","","html-keyboard-response","106","281816","0.0-106.0","8q7zbw0m","","<span style=""color:Black; font-size:50px;"">Agent A","null","","","","",""
"null","","","video-keyboard-response","107","284929","0.0-107.0","8q7zbw0m","","","null","","Agent A","scrambled","STIM_SET_1/1592351.bmp_pp51_L1_V1.0_scrambled_freeview_isoFalse.mp4",""
"null","","","html-keyboard-response","108","286431","0.0-108.0","8q7zbw0m","","<span style=""color:Black; font-size:50px;"">Agent B","null","","","","",""
"null","","","video-keyboard-response","109","289496","0.0-109.0","8q7zbw0m","","","null","","Agent B","veridical","STIM_SET_1/1592351.bmp_pp51_L1_V1.0_veridical_freeview_isoFalse.mp4",""
"","","","call-function","110","289497","0.0-110.0","8q7zbw0m","","","","","","","",""
"2713.524999999965","{""judgement"":0}","[0]","survey-likert","111","292212","0.0-111.0","8q7zbw0m","","","","","","","","1"
"1710.640000000014","{""confidence"":1}","[0]","survey-likert","112","293925","0.0-112.0","8q7zbw0m","","","","","","","",""
"","","","call-function","113","293925","0.0-113.0","8q7zbw0m","","","","","","","",""
"null","","","html-keyboard-response","114","295432","0.0-114.0","8q7zbw0m","","<span style=""color:Black; font-size:50px;"">Agent A","null","","","","",""
"null","","","video-keyboard-response","115","298509","0.0-115.0","8q7zbw0m","","","null","","Agent A","veridical","STIM_SET_1/713707.bmp_pp154_L1_V1.0_veridical_freeview_isoFalse.mp4",""
"null","","","html-keyboard-response","116","300016","0.0-116.0","8q7zbw0m","","<span style=""color:Black; font-size:50px;"">Agent B","null","","","","",""
"null","","","video-keyboard-response","117","303098","0.0-117.0","8q7zbw0m","","","null","","Agent B","scrambled","STIM_SET_1/713707.bmp_pp154_L1_V1.0_scrambled_freeview_isoFalse.mp4",""
"","","","call-function","118","303099","0.0-118.0","8q7zbw0m","","","","","","","",""
"4447.739999999991","{""judgement"":0}","[0]","survey-likert","119","307548","0.0-119.0","8q7zbw0m","","","","","","","","0"
"2407.6149999999907","{""confidence"":1}","[0]","survey-likert","120","309957","0.0-120.0","8q7zbw0m","","","","","","","",""
"","","","call-function","121","309957","0.0-121.0","8q7zbw0m","","","","","","","",""
"null","","","html-keyboard-response","122","311459","0.0-122.0","8q7zbw0m","","<span style=""color:Black; font-size:50px;"">Agent A","null","","","","",""
"null","","","video-keyboard-response","123","314532","0.0-123.0","8q7zbw0m","","","null","","Agent A","veridical","STIM_SET_1/1159813.bmp_pp79_L2_V1.0_veridical_freeview_isoFalse.mp4",""
"null","","","html-keyboard-response","124","316035","0.0-124.0","8q7zbw0m","","<span style=""color:Black; font-size:50px;"">Agent B","null","","","","",""
"null","","","video-keyboard-response","125","319141","0.0-125.0","8q7zbw0m","","","null","","Agent B","scrambled","STIM_SET_1/1159813.bmp_pp79_L2_V1.0_scrambled_freeview_isoFalse.mp4",""
"","","","call-function","126","319142","0.0-126.0","8q7zbw0m","","","","","","","",""
"3702.969999999972","{""judgement"":1}","[0]","survey-likert","127","322845","0.0-127.0","8q7zbw0m","","","","","","","","0"
"1887.7200000000303","{""confidence"":1}","[0]","survey-likert","128","324735","0.0-128.0","8q7zbw0m","","","","","","","",""
"","","","call-function","129","324736","0.0-129.0","8q7zbw0m","","","","","","","",""
"null","","","html-keyboard-response","130","326238","0.0-130.0","8q7zbw0m","","<span style=""color:Black; font-size:50px;"">Agent A","null","","","","",""
"null","","","video-keyboard-response","131","329347","0.0-131.0","8q7zbw0m","","","null","","Agent A","veridical","STIM_SET_1/1159446.bmp_pp60_L3_V1.0_veridical_freeview_isoFalse.mp4",""
"null","","","html-keyboard-response","132","330849","0.0-132.0","8q7zbw0m","","<span style=""color:Black; font-size:50px;"">Agent B","null","","","","",""
"null","","","video-keyboard-response","133","333950","0.0-133.0","8q7zbw0m","","","null","","Agent B","scrambled","STIM_SET_1/1159446.bmp_pp60_L3_V1.0_scrambled_freeview_isoFalse.mp4",""
"","","","call-function","134","333950","0.0-134.0","8q7zbw0m","","","","","","","",""
"3951.1699999999837","{""judgement"":0}","[0]","survey-likert","135","337902","0.0-135.0","8q7zbw0m","","","","","","","","0"
"2882.0499999999884","{""confidence"":2}","[0]","survey-likert","136","340786","0.0-136.0","8q7zbw0m","","","","","","","",""
"","","","call-function","137","340786","0.0-137.0","8q7zbw0m","","","","","","","",""
"null","","","html-keyboard-response","138","342291","0.0-138.0","8q7zbw0m","","<span style=""color:Black; font-size:50px;"">Agent A","null","","","","",""
"null","","","video-keyboard-response","139","345409","0.0-139.0","8q7zbw0m","","","null","","Agent A","veridical","STIM_SET_1/285751.bmp_pp55_L3_V1.0_veridical_freeview_isoFalse.mp4",""
"null","","","html-keyboard-response","140","346917","0.0-140.0","8q7zbw0m","","<span style=""color:Black; font-size:50px;"">Agent B","null","","","","",""
"null","","","video-keyboard-response","141","350039","0.0-141.0","8q7zbw0m","","","null","","Agent B","scrambled","STIM_SET_1/285751.bmp_pp55_L3_V1.0_scrambled_freeview_isoFalse.mp4",""
"","","","call-function","142","350040","0.0-142.0","8q7zbw0m","","","","","","","",""
"2273.1749999999884","{""judgement"":1}","[0]","survey-likert","143","352314","0.0-143.0","8q7zbw0m","","","","","","","","0"
"2219.3400000000256","{""confidence"":2}","[0]","survey-likert","144","354534","0.0-144.0","8q7zbw0m","","","","","","","",""
"","","","call-function","145","354535","0.0-145.0","8q7zbw0m","","","","","","","",""
"null","","","html-keyboard-response","146","356040","0.0-146.0","8q7zbw0m","","<span style=""color:Black; font-size:50px;"">Agent A","null","","","","",""
"null","","","video-keyboard-response","147","359102","0.0-147.0","8q7zbw0m","","","null","","Agent A","veridical","STIM_SET_1/713779.bmp_pp152_L2_V1.0_veridical_freeview_isoFalse.mp4",""
"null","","","html-keyboard-response","148","360604","0.0-148.0","8q7zbw0m","","<span style=""color:Black; font-size:50px;"">Agent B","null","","","","",""
"null","","","video-keyboard-response","149","363666","0.0-149.0","8q7zbw0m","","","null","","Agent B","scrambled","STIM_SET_1/713779.bmp_pp152_L2_V1.0_scrambled_freeview_isoFalse.mp4",""
"","","","call-function","150","363667","0.0-150.0","8q7zbw0m","","","","","","","",""
"3369.960000000021","{""judgement"":0}","[0]","survey-likert","151","367037","0.0-151.0","8q7zbw0m","","","","","","","","0"
"1341.2150000000256","{""confidence"":2}","[0]","survey-likert","152","368380","0.0-152.0","8q7zbw0m","","","","","","","",""
"","","","call-function","153","368381","0.0-153.0","8q7zbw0m","","","","","","","",""
"null","","","html-keyboard-response","154","369882","0.0-154.0","8q7zbw0m","","<span style=""color:Black; font-size:50px;"">Agent A","null","","","","",""
"null","","","video-keyboard-response","155","372955","0.0-155.0","8q7zbw0m","","","null","","Agent A","veridical","STIM_SET_1/497950.bmp_pp151_L1_V1.0_veridical_freeview_isoFalse.mp4",""
"null","","","html-keyboard-response","156","374459","0.0-156.0","8q7zbw0m","","<span style=""color:Black; font-size:50px;"">Agent B","null","","","","",""
"null","","","video-keyboard-response","157","377535","0.0-157.0","8q7zbw0m","","","null","","Agent B","scrambled","STIM_SET_1/497950.bmp_pp151_L1_V1.0_scrambled_freeview_isoFalse.mp4",""
"","","","call-function","158","377536","0.0-158.0","8q7zbw0m","","","","","","","",""
"3506.5199999999604","{""judgement"":0}","[0]","survey-likert","159","381044","0.0-159.0","8q7zbw0m","","","","","","","","0"
"2047.024999999965","{""confidence"":2}","[0]","survey-likert","160","383093","0.0-160.0","8q7zbw0m","","","","","","","",""
"","","","call-function","161","383095","0.0-161.0","8q7zbw0m","","","","","","","",""
"null","","","html-keyboard-response","162","384599","0.0-162.0","8q7zbw0m","","<span style=""color:Black; font-size:50px;"">Agent A","null","","","","",""
"null","","","video-keyboard-response","163","387669","0.0-163.0","8q7zbw0m","","","null","","Agent A","scrambled","STIM_SET_1/713135.bmp_pp54_L2_V1.0_scrambled_freeview_isoFalse.mp4",""
"null","","","html-keyboard-response","164","389172","0.0-164.0","8q7zbw0m","","<span style=""color:Black; font-size:50px;"">Agent B","null","","","","",""
"null","","","video-keyboard-response","165","392240","0.0-165.0","8q7zbw0m","","","null","","Agent B","veridical","STIM_SET_1/713135.bmp_pp54_L2_V1.0_veridical_freeview_isoFalse.mp4",""
"","","","call-function","166","392241","0.0-166.0","8q7zbw0m","","","","","","","",""
"3012.615000000049","{""judgement"":0}","[0]","survey-likert","167","395255","0.0-167.0","8q7zbw0m","","","","","","","","1"
"2304.7949999999837","{""confidence"":2}","[0]","survey-likert","168","397561","0.0-168.0","8q7zbw0m","","","","","","","",""
"2759.085000000021","","","instructions","169","400321","0.0-169.0","8q7zbw0m","[{""page_index"":0,""viewing_time"":1100.2900000000373},{""page_index"":1,""viewing_time"":1258.5650000000023},{""page_index"":2,""viewing_time"":400.0100000000093}]","","","","","","",""
"1247.875","","","instructions","170","401569","0.0-170.0","8q7zbw0m","[{""page_index"":0,""viewing_time"":375.23499999998603},{""page_index"":1,""viewing_time"":441.6000000000349},{""page_index"":2,""viewing_time"":430.9349999999977}]","","","","","","",""
"","","","call-function","171","401570","0.0-171.0","8q7zbw0m","","","","","","","",""
"null","","","html-keyboard-response","172","403072","0.0-172.0","8q7zbw0m","","<span style=""color:Black; font-size:50px;"">Agent A","null","","","","",""
"null","","","video-keyboard-response","173","406153","0.0-173.0","8q7zbw0m","","","null","","Agent A","scrambled","STIM_SET_1/1592657.bmp_pp98_L1_V1.0_scrambled_freeview_isoFalse.mp4",""
"null","","","html-keyboard-response","174","407656","0.0-174.0","8q7zbw0m","","<span style=""color:Black; font-size:50px;"">Agent B","null","","","","",""
"null","","","video-keyboard-response","175","410737","0.0-175.0","8q7zbw0m","","","null","","Agent B","veridical","STIM_SET_1/1592657.bmp_pp98_L1_V1.0_veridical_freeview_isoFalse.mp4",""
"","","","call-function","176","410737","0.0-176.0","8q7zbw0m","","","","","","","",""
"4055.3800000000047","{""judgement"":1}","[0]","survey-likert","177","414794","0.0-177.0","8q7zbw0m","","","","","","","","1"
"3317.0800000000163","{""confidence"":0}","[0]","survey-likert","178","418112","0.0-178.0","8q7zbw0m","","","","","","","",""
"","","","call-function","179","418113","0.0-179.0","8q7zbw0m","","","","","","","",""
"null","","","html-keyboard-response","180","419615","0.0-180.0","8q7zbw0m","","<span style=""color:Black; font-size:50px;"">Agent A","null","","","","",""
"null","","","video-keyboard-response","181","422729","0.0-181.0","8q7zbw0m","","","null","","Agent A","scrambled","STIM_SET_1/285994.bmp_pp92_L3_V1.0_scrambled_freeview_isoFalse.mp4",""
"null","","","html-keyboard-response","182","424232","0.0-182.0","8q7zbw0m","","<span style=""color:Black; font-size:50px;"">Agent B","null","","","","",""
"null","","","video-keyboard-response","183","427346","0.0-183.0","8q7zbw0m","","","null","","Agent B","veridical","STIM_SET_1/285994.bmp_pp92_L3_V1.0_veridical_freeview_isoFalse.mp4",""
"","","","call-function","184","427347","0.0-184.0","8q7zbw0m","","","","","","","",""
"2367.9500000000116","{""judgement"":0}","[0]","survey-likert","185","429716","0.0-185.0","8q7zbw0m","","","","","","","","1"
"1459.3800000000047","{""confidence"":1}","[0]","survey-likert","186","431176","0.0-186.0","8q7zbw0m","","","","","","","",""
"","","","call-function","187","431177","0.0-187.0","8q7zbw0m","","","","","","","",""
"null","","","html-keyboard-response","188","432683","0.0-188.0","8q7zbw0m","","<span style=""color:Black; font-size:50px;"">Agent A","null","","","","",""
"null","","","video-keyboard-response","189","435802","0.0-189.0","8q7zbw0m","","","null","","Agent A","scrambled","STIM_SET_1/61537.bmp_pp73_L3_V1.0_scrambled_freeview_isoFalse.mp4",""
"null","","","html-keyboard-response","190","437307","0.0-190.0","8q7zbw0m","","<span style=""color:Black; font-size:50px;"">Agent B","null","","","","",""
"null","","","video-keyboard-response","191","440424","0.0-191.0","8q7zbw0m","","","null","","Agent B","veridical","STIM_SET_1/61537.bmp_pp73_L3_V1.0_veridical_freeview_isoFalse.mp4",""
"","","","call-function","192","440425","0.0-192.0","8q7zbw0m","","","","","","","",""
"1869.3100000000559","{""judgement"":0}","[0]","survey-likert","193","442295","0.0-193.0","8q7zbw0m","","","","","","","","1"
"2127.1699999999837","{""confidence"":2}","[0]","survey-likert","194","444424","0.0-194.0","8q7zbw0m","","","","","","","",""
"","","","call-function","195","444425","0.0-195.0","8q7zbw0m","","","","","","","",""
"null","","","html-keyboard-response","196","445932","0.0-196.0","8q7zbw0m","","<span style=""color:Black; font-size:50px;"">Agent A","null","","","","",""
"null","","","video-keyboard-response","197","449052","0.0-197.0","8q7zbw0m","","","null","","Agent A","scrambled","STIM_SET_1/1592372.bmp_pp76_L1_V1.0_scrambled_freeview_isoFalse.mp4",""
"null","","","html-keyboard-response","198","450558","0.0-198.0","8q7zbw0m","","<span style=""color:Black; font-size:50px;"">Agent B","null","","","","",""
"null","","","video-keyboard-response","199","453637","0.0-199.0","8q7zbw0m","","","null","","Agent B","veridical","STIM_SET_1/1592372.bmp_pp76_L1_V1.0_veridical_freeview_isoFalse.mp4",""
"","","","call-function","200","453637","0.0-200.0","8q7zbw0m","","","","","","","",""
"3119.070000000007","{""judgement"":0}","[0]","survey-likert","201","456757","0.0-201.0","8q7zbw0m","","","","","","","","1"
"1559.6749999999884","{""confidence"":0}","[0]","survey-likert","202","458318","0.0-202.0","8q7zbw0m","","","","","","","",""
"","","","call-function","203","458319","0.0-203.0","8q7zbw0m","","","","","","","",""
"null","","","html-keyboard-response","204","459825","0.0-204.0","8q7zbw0m","","<span style=""color:Black; font-size:50px;"">Agent A","null","","","","",""
"null","","","video-keyboard-response","205","462895","0.0-205.0","8q7zbw0m","","","null","","Agent A","scrambled","STIM_SET_1/498170.bmp_pp153_L3_V1.0_scrambled_freeview_isoFalse.mp4",""
"null","","","html-keyboard-response","206","464397","0.0-206.0","8q7zbw0m","","<span style=""color:Black; font-size:50px;"">Agent B","null","","","","",""
"null","","","video-keyboard-response","207","467468","0.0-207.0","8q7zbw0m","","","null","","Agent B","veridical","STIM_SET_1/498170.bmp_pp153_L3_V1.0_veridical_freeview_isoFalse.mp4",""
"","","","call-function","208","467468","0.0-208.0","8q7zbw0m","","","","","","","",""
"2663.734999999986","{""judgement"":1}","[0]","survey-likert","209","470133","0.0-209.0","8q7zbw0m","","","","","","","","1"
"2767.939999999944","{""confidence"":2}","[0]","survey-likert","210","472902","0.0-210.0","8q7zbw0m","","","","","","","",""
"","","","call-function","211","472903","0.0-211.0","8q7zbw0m","","","","","","","",""
"null","","","html-keyboard-response","212","474404","0.0-212.0","8q7zbw0m","","<span style=""color:Black; font-size:50px;"">Agent A","null","","","","",""
"null","","","video-keyboard-response","213","477473","0.0-213.0","8q7zbw0m","","","null","","Agent A","veridical","STIM_SET_1/1592727.bmp_pp59_L3_V1.0_veridical_freeview_isoFalse.mp4",""
"null","","","html-keyboard-response","214","478980","0.0-214.0","8q7zbw0m","","<span style=""color:Black; font-size:50px;"">Agent B","null","","","","",""
"null","","","video-keyboard-response","215","482051","0.0-215.0","8q7zbw0m","","","null","","Agent B","scrambled","STIM_SET_1/1592727.bmp_pp59_L3_V1.0_scrambled_freeview_isoFalse.mp4",""
"","","","call-function","216","482052","0.0-216.0","8q7zbw0m","","","","","","","",""
"2686.0800000000163","{""judgement"":1}","[0]","survey-likert","217","484740","0.0-217.0","8q7zbw0m","","","","","","","","0"
"3161.8550000000396","{""confidence"":3}","[0]","survey-likert","218","487904","0.0-218.0","8q7zbw0m","","","","","","","",""
"","","","call-function","219","487905","0.0-219.0","8q7zbw0m","","","","","","","",""
"null","","","html-keyboard-response","220","489406","0.0-220.0","8q7zbw0m","","<span style=""color:Black; font-size:50px;"">Agent A","null","","","","",""
"null","","","video-keyboard-response","221","492481","0.0-221.0","8q7zbw0m","","","null","","Agent A","veridical","STIM_SET_1/1160168.bmp_pp53_L2_V1.0_veridical_freeview_isoFalse.mp4",""
"null","","","html-keyboard-response","222","493983","0.0-222.0","8q7zbw0m","","<span style=""color:Black; font-size:50px;"">Agent B","null","","","","",""
"null","","","video-keyboard-response","223","497059","0.0-223.0","8q7zbw0m","","","null","","Agent B","scrambled","STIM_SET_1/1160168.bmp_pp53_L2_V1.0_scrambled_freeview_isoFalse.mp4",""
"","","","call-function","224","497059","0.0-224.0","8q7zbw0m","","","","","","","",""
"4233.140000000014","{""judgement"":0}","[0]","survey-likert","225","501293","0.0-225.0","8q7zbw0m","","","","","","","","0"
"1707.8850000000093","{""confidence"":1}","[0]","survey-likert","226","503003","0.0-226.0","8q7zbw0m","","","","","","","",""
"","","","call-function","227","503003","0.0-227.0","8q7zbw0m","","","","","","","",""
"null","","","html-keyboard-response","228","504506","0.0-228.0","8q7zbw0m","","<span style=""color:Black; font-size:50px;"">Agent A","null","","","","",""
"null","","","video-keyboard-response","229","507575","0.0-229.0","8q7zbw0m","","","null","","Agent A","veridical","STIM_SET_1/1593035.bmp_pp94_L2_V1.0_veridical_freeview_isoFalse.mp4",""
"null","","","html-keyboard-response","230","509076","0.0-230.0","8q7zbw0m","","<span style=""color:Black; font-size:50px;"">Agent B","null","","","","",""
"null","","","video-keyboard-response","231","512148","0.0-231.0","8q7zbw0m","","","null","","Agent B","scrambled","STIM_SET_1/1593035.bmp_pp94_L2_V1.0_scrambled_freeview_isoFalse.mp4",""
"","","","call-function","232","512149","0.0-232.0","8q7zbw0m","","","","","","","",""
"2114.6199999999953","{""judgement"":1}","[0]","survey-likert","233","514264","0.0-233.0","8q7zbw0m","","","","","","","","0"
"3558.2149999999674","{""confidence"":1}","[0]","survey-likert","234","517823","0.0-234.0","8q7zbw0m","","","","","","","",""
"","","","call-function","235","517824","0.0-235.0","8q7zbw0m","","","","","","","",""
"null","","","html-keyboard-response","236","519327","0.0-236.0","8q7zbw0m","","<span style=""color:Black; font-size:50px;"">Agent A","null","","","","",""
"null","","","video-keyboard-response","237","522449","0.0-237.0","8q7zbw0m","","","null","","Agent A","veridical","STIM_SET_1/713017.bmp_pp152_L2_V1.0_veridical_freeview_isoFalse.mp4",""
"null","","","html-keyboard-response","238","523956","0.0-238.0","8q7zbw0m","","<span style=""color:Black; font-size:50px;"">Agent B","null","","","","",""
"null","","","video-keyboard-response","239","527032","0.0-239.0","8q7zbw0m","","","null","","Agent B","scrambled","STIM_SET_1/713017.bmp_pp152_L2_V1.0_scrambled_freeview_isoFalse.mp4",""
"","","","call-function","240","527032","0.0-240.0","8q7zbw0m","","","","","","","",""
"3578.935000000056","{""judgement"":1}","[0]","survey-likert","241","530612","0.0-241.0","8q7zbw0m","","","","","","","","0"
"1256.9499999999534","{""confidence"":1}","[0]","survey-likert","242","531871","0.0-242.0","8q7zbw0m","","","","","","","",""
"","","","call-function","243","531872","0.0-243.0","8q7zbw0m","","","","","","","",""
"null","","","html-keyboard-response","244","533378","0.0-244.0","8q7zbw0m","","<span style=""color:Black; font-size:50px;"">Agent A","null","","","","",""
"null","","","video-keyboard-response","245","536494","0.0-245.0","8q7zbw0m","","","null","","Agent A","veridical","STIM_SET_1/713593.bmp_pp64_L1_V1.0_veridical_freeview_isoFalse.mp4",""
"null","","","html-keyboard-response","246","537996","0.0-246.0","8q7zbw0m","","<span style=""color:Black; font-size:50px;"">Agent B","null","","","","",""
"null","","","video-keyboard-response","247","541115","0.0-247.0","8q7zbw0m","","","null","","Agent B","scrambled","STIM_SET_1/713593.bmp_pp64_L1_V1.0_scrambled_freeview_isoFalse.mp4",""
"","","","call-function","248","541116","0.0-248.0","8q7zbw0m","","","","","","","",""
"1920.405000000028","{""judgement"":0}","[0]","survey-likert","249","543037","0.0-249.0","8q7zbw0m","","","","","","","","0"
"2163.530000000028","{""confidence"":3}","[0]","survey-likert","250","545202","0.0-250.0","8q7zbw0m","","","","","","","",""
"3140.689999999944","","","instructions","251","548343","0.0-251.0","8q7zbw0m","[{""page_index"":0,""viewing_time"":2161.439999999944},{""page_index"":1,""viewing_time"":614.0949999999721},{""page_index"":2,""viewing_time"":364.95000000006985}]","","","","","","",""
"2942.2750000000233","","","instructions","252","551286","0.0-252.0","8q7zbw0m","[{""page_index"":0,""viewing_time"":401.0900000000838},{""page_index"":1,""viewing_time"":1637.109999999986},{""page_index"":2,""viewing_time"":903.9699999999721}]","","","","","","",""
"","","","call-function","253","551286","0.0-253.0","8q7zbw0m","","","","","","","",""
"null","","","html-keyboard-response","254","552788","0.0-254.0","8q7zbw0m","","<span style=""color:Black; font-size:50px;"">Agent A","null","","","","",""
"null","","","video-keyboard-response","255","555861","0.0-255.0","8q7zbw0m","","","null","","Agent A","veridical","STIM_SET_1/1592362.bmp_pp95_L2_V1.0_veridical_freeview_isoFalse.mp4",""
"null","","","html-keyboard-response","256","557365","0.0-256.0","8q7zbw0m","","<span style=""color:Black; font-size:50px;"">Agent B","null","","","","",""
"null","","","video-keyboard-response","257","560439","0.0-257.0","8q7zbw0m","","","null","","Agent B","scrambled","STIM_SET_1/1592362.bmp_pp95_L2_V1.0_scrambled_freeview_isoFalse.mp4",""
"","","","call-function","258","560440","0.0-258.0","8q7zbw0m","","","","","","","",""
"3138.460000000079","{""judgement"":0}","[0]","survey-likert","259","563579","0.0-259.0","8q7zbw0m","","","","","","","","0"
"1304.015000000014","{""confidence"":2}","[0]","survey-likert","260","564884","0.0-260.0","8q7zbw0m","","","","","","","",""
"","","","call-function","261","564885","0.0-261.0","8q7zbw0m","","","","","","","",""
"null","","","html-keyboard-response","262","566389","0.0-262.0","8q7zbw0m","","<span style=""color:Black; font-size:50px;"">Agent A","null","","","","",""
"null","","","video-keyboard-response","263","569515","0.0-263.0","8q7zbw0m","","","null","","Agent A","veridical","STIM_SET_1/713666.bmp_pp97_L3_V1.0_veridical_freeview_isoFalse.mp4",""
"null","","","html-keyboard-response","264","571021","0.0-264.0","8q7zbw0m","","<span style=""color:Black; font-size:50px;"">Agent B","null","","","","",""
"null","","","video-keyboard-response","265","574102","0.0-265.0","8q7zbw0m","","","null","","Agent B","scrambled","STIM_SET_1/713666.bmp_pp97_L3_V1.0_scrambled_freeview_isoFalse.mp4",""
"","","","call-function","266","574103","0.0-266.0","8q7zbw0m","","","","","","","",""
"4183.189999999944","{""judgement"":1}","[0]","survey-likert","267","578288","0.0-267.0","8q7zbw0m","","","","","","","","0"
"2197.04999999993","{""confidence"":1}","[0]","survey-likert","268","580487","0.0-268.0","8q7zbw0m","","","","","","","",""
"","","","call-function","269","580488","0.0-269.0","8q7zbw0m","","","","","","","",""
"null","","","html-keyboard-response","270","581989","0.0-270.0","8q7zbw0m","","<span style=""color:Black; font-size:50px;"">Agent A","null","","","","",""
"null","","","video-keyboard-response","271","585069","0.0-271.0","8q7zbw0m","","","null","","Agent A","scrambled","STIM_SET_1/1592804.bmp_pp91_L3_V1.0_scrambled_freeview_isoFalse.mp4",""
"null","","","html-keyboard-response","272","586571","0.0-272.0","8q7zbw0m","","<span style=""color:Black; font-size:50px;"">Agent B","null","","","","",""
"null","","","video-keyboard-response","273","589650","0.0-273.0","8q7zbw0m","","","null","","Agent B","veridical","STIM_SET_1/1592804.bmp_pp91_L3_V1.0_veridical_freeview_isoFalse.mp4",""
"","","","call-function","274","589651","0.0-274.0","8q7zbw0m","","","","","","","",""
"3420.17499999993","{""judgement"":1}","[0]","survey-likert","275","593072","0.0-275.0","8q7zbw0m","","","","","","","","1"
"1515.844999999972","{""confidence"":1}","[0]","survey-likert","276","594590","0.0-276.0","8q7zbw0m","","","","","","","",""
"","","","call-function","277","594590","0.0-277.0","8q7zbw0m","","","","","","","",""
"null","","","html-keyboard-response","278","596091","0.0-278.0","8q7zbw0m","","<span style=""color:Black; font-size:50px;"">Agent A","null","","","","",""
"null","","","video-keyboard-response","279","599166","0.0-279.0","8q7zbw0m","","","null","","Agent A","scrambled","STIM_SET_1/1159515.bmp_pp84_L3_V1.0_scrambled_freeview_isoFalse.mp4",""
"null","","","html-keyboard-response","280","600668","0.0-280.0","8q7zbw0m","","<span style=""color:Black; font-size:50px;"">Agent B","null","","","","",""
"null","","","video-keyboard-response","281","603778","0.0-281.0","8q7zbw0m","","","null","","Agent B","veridical","STIM_SET_1/1159515.bmp_pp84_L3_V1.0_veridical_freeview_isoFalse.mp4",""
"","","","call-function","282","603779","0.0-282.0","8q7zbw0m","","","","","","","",""
"2246.6650000000373","{""judgement"":1}","[0]","survey-likert","283","606026","0.0-283.0","8q7zbw0m","","","","","","","","1"
"2029.5849999999627","{""confidence"":2}","[0]","survey-likert","284","608057","0.0-284.0","8q7zbw0m","","","","","","","",""
"","","","call-function","285","608058","0.0-285.0","8q7zbw0m","","","","","","","",""
"null","","","html-keyboard-response","286","609563","0.0-286.0","8q7zbw0m","","<span style=""color:Black; font-size:50px;"">Agent A","null","","","","",""
"null","","","video-keyboard-response","287","612651","0.0-287.0","8q7zbw0m","","","null","","Agent A","scrambled","STIM_SET_1/1591994.bmp_pp69_L3_V1.0_scrambled_freeview_isoFalse.mp4",""
"null","","","html-keyboard-response","288","614153","0.0-288.0","8q7zbw0m","","<span style=""color:Black; font-size:50px;"">Agent B","null","","","","",""
"null","","","video-keyboard-response","289","617239","0.0-289.0","8q7zbw0m","","","null","","Agent B","veridical","STIM_SET_1/1591994.bmp_pp69_L3_V1.0_veridical_freeview_isoFalse.mp4",""
"","","","call-function","290","617240","0.0-290.0","8q7zbw0m","","","","","","","",""
"2205.409999999916","{""judgement"":0}","[0]","survey-likert","291","619446","0.0-291.0","8q7zbw0m","","","","","","","","1"
"3070.980000000098","{""confidence"":1}","[0]","survey-likert","292","622518","0.0-292.0","8q7zbw0m","","","","","","","",""
"","","","call-function","293","622519","0.0-293.0","8q7zbw0m","","","","","","","",""
"null","","","html-keyboard-response","294","624021","0.0-294.0","8q7zbw0m","","<span style=""color:Black; font-size:50px;"">Agent A","null","","","","",""
"null","","","video-keyboard-response","295","627127","0.0-295.0","8q7zbw0m","","","null","","Agent A","veridical","STIM_SET_1/713089.bmp_pp60_L3_V1.0_veridical_freeview_isoFalse.mp4",""
"null","","","html-keyboard-response","296","628632","0.0-296.0","8q7zbw0m","","<span style=""color:Black; font-size:50px;"">Agent B","null","","","","",""
"null","","","video-keyboard-response","297","631746","0.0-297.0","8q7zbw0m","","","null","","Agent B","scrambled","STIM_SET_1/713089.bmp_pp60_L3_V1.0_scrambled_freeview_isoFalse.mp4",""
"","","","call-function","298","631747","0.0-298.0","8q7zbw0m","","","","","","","",""
"5619.215000000084","{""judgement"":0}","[0]","survey-likert","299","637367","0.0-299.0","8q7zbw0m","","","","","","","","0"
"6900.164999999921","{""confidence"":1}","[0]","survey-likert","300","644268","0.0-300.0","8q7zbw0m","","","","","","","",""
"","","","call-function","301","644269","0.0-301.0","8q7zbw0m","","","","","","","",""
"null","","","html-keyboard-response","302","645770","0.0-302.0","8q7zbw0m","","<span style=""color:Black; font-size:50px;"">Agent A","null","","","","",""
"null","","","video-keyboard-response","303","648847","0.0-303.0","8q7zbw0m","","","null","","Agent A","veridical","STIM_SET_1/1593041.bmp_pp58_L1_V1.0_veridical_freeview_isoFalse.mp4",""
"null","","","html-keyboard-response","304","650353","0.0-304.0","8q7zbw0m","","<span style=""color:Black; font-size:50px;"">Agent B","null","","","","",""
"null","","","video-keyboard-response","305","653427","0.0-305.0","8q7zbw0m","","","null","","Agent B","scrambled","STIM_SET_1/1593041.bmp_pp58_L1_V1.0_scrambled_freeview_isoFalse.mp4",""
"","","","call-function","306","653427","0.0-306.0","8q7zbw0m","","","","","","","",""
"1963.6650000000373","{""judgement"":1}","[0]","survey-likert","307","655392","0.0-307.0","8q7zbw0m","","","","","","","","0"
"3266.20000000007","{""confidence"":2}","[0]","survey-likert","308","658661","0.0-308.0","8q7zbw0m","","","","","","","",""
"","","","call-function","309","658663","0.0-309.0","8q7zbw0m","","","","","","","",""
"null","","","html-keyboard-response","310","660165","0.0-310.0","8q7zbw0m","","<span style=""color:Black; font-size:50px;"">Agent A","null","","","","",""
"null","","","video-keyboard-response","311","663244","0.0-311.0","8q7zbw0m","","","null","","Agent A","scrambled","STIM_SET_1/1593146.bmp_pp93_L1_V1.0_scrambled_freeview_isoFalse.mp4",""
"null","","","html-keyboard-response","312","664747","0.0-312.0","8q7zbw0m","","<span style=""color:Black; font-size:50px;"">Agent B","null","","","","",""
"null","","","video-keyboard-response","313","667827","0.0-313.0","8q7zbw0m","","","null","","Agent B","veridical","STIM_SET_1/1593146.bmp_pp93_L1_V1.0_veridical_freeview_isoFalse.mp4",""
"","","","call-function","314","667828","0.0-314.0","8q7zbw0m","","","","","","","",""
"3323.719999999972","{""judgement"":1}","[0]","survey-likert","315","671153","0.0-315.0","8q7zbw0m","","","","","","","","1"
"1606.6500000000233","{""confidence"":0}","[0]","survey-likert","316","672761","0.0-316.0","8q7zbw0m","","","","","","","",""
"","","","call-function","317","672762","0.0-317.0","8q7zbw0m","","","","","","","",""
"null","","","html-keyboard-response","318","674263","0.0-318.0","8q7zbw0m","","<span style=""color:Black; font-size:50px;"">Agent A","null","","","","",""
"null","","","video-keyboard-response","319","677331","0.0-319.0","8q7zbw0m","","","null","","Agent A","veridical","STIM_SET_1/1592133.bmp_pp75_L1_V1.0_veridical_freeview_isoFalse.mp4",""
"null","","","html-keyboard-response","320","678833","0.0-320.0","8q7zbw0m","","<span style=""color:Black; font-size:50px;"">Agent B","null","","","","",""
"null","","","video-keyboard-response","321","681899","0.0-321.0","8q7zbw0m","","","null","","Agent B","scrambled","STIM_SET_1/1592133.bmp_pp75_L1_V1.0_scrambled_freeview_isoFalse.mp4",""
"","","","call-function","322","681900","0.0-322.0","8q7zbw0m","","","","","","","",""
"2498.8499999999767","{""judgement"":0}","[0]","survey-likert","323","684400","0.0-323.0","8q7zbw0m","","","","","","","","0"
"2374.6750000000466","{""confidence"":1}","[0]","survey-likert","324","686776","0.0-324.0","8q7zbw0m","","","","","","","",""
"","","","call-function","325","686776","0.0-325.0","8q7zbw0m","","","","","","","",""
"null","","","html-keyboard-response","326","688282","0.0-326.0","8q7zbw0m","","<span style=""color:Black; font-size:50px;"">Agent A","null","","","","",""
"null","","","video-keyboard-response","327","691391","0.0-327.0","8q7zbw0m","","","null","","Agent A","veridical","STIM_SET_1/1160127.bmp_pp90_L2_V1.0_veridical_freeview_isoFalse.mp4",""
"null","","","html-keyboard-response","328","692894","0.0-328.0","8q7zbw0m","","<span style=""color:Black; font-size:50px;"">Agent B","null","","","","",""
"null","","","video-keyboard-response","329","696001","0.0-329.0","8q7zbw0m","","","null","","Agent B","scrambled","STIM_SET_1/1160127.bmp_pp90_L2_V1.0_scrambled_freeview_isoFalse.mp4",""
"","","","call-function","330","696001","0.0-330.0","8q7zbw0m","","","","","","","",""
"2649.5100000000093","{""judgement"":1}","[0]","survey-likert","331","698652","0.0-331.0","8q7zbw0m","","","","","","","","0"
"1086.8649999999907","{""confidence"":1}","[0]","survey-likert","332","699740","0.0-332.0","8q7zbw0m","","","","","","","",""
"1537.4299999999348","","","instructions","333","701278","0.0-333.0","8q7zbw0m","[{""page_index"":0,""viewing_time"":1015.2999999999302},{""page_index"":1,""viewing_time"":338.5350000000326},{""page_index"":2,""viewing_time"":183.38000000000466}]","","","","","","",""
"9983.094999999972","","","instructions","334","711261","0.0-334.0","8q7zbw0m","[{""page_index"":0,""viewing_time"":601.9499999999534},{""page_index"":1,""viewing_time"":8086.005000000005},{""page_index"":2,""viewing_time"":1295.030000000028}]","","","","","","",""
"","","","call-function","335","711262","0.0-335.0","8q7zbw0m","","","","","","","",""
"null","","","html-keyboard-response","336","712764","0.0-336.0","8q7zbw0m","","<span style=""color:Black; font-size:50px;"">Agent A","null","","","","",""
"null","","","video-keyboard-response","337","715857","0.0-337.0","8q7zbw0m","","","null","","Agent A","scrambled","STIM_SET_1/713684.bmp_pp85_L3_V1.0_scrambled_freeview_isoFalse.mp4",""
"null","","","html-keyboard-response","338","717362","0.0-338.0","8q7zbw0m","","<span style=""color:Black; font-size:50px;"">Agent B","null","","","","",""
"null","","","video-keyboard-response","339","720454","0.0-339.0","8q7zbw0m","","","null","","Agent B","veridical","STIM_SET_1/713684.bmp_pp85_L3_V1.0_veridical_freeview_isoFalse.mp4",""
"","","","call-function","340","720455","0.0-340.0","8q7zbw0m","","","","","","","",""
"3059.5100000000093","{""judgement"":0}","[0]","survey-likert","341","723515","0.0-341.0","8q7zbw0m","","","","","","","","1"
"1100.780000000028","{""confidence"":2}","[0]","survey-likert","342","724617","0.0-342.0","8q7zbw0m","","","","","","","",""
"","","","call-function","343","724618","0.0-343.0","8q7zbw0m","","","","","","","",""
"null","","","html-keyboard-response","344","726123","0.0-344.0","8q7zbw0m","","<span style=""color:Black; font-size:50px;"">Agent A","null","","","","",""
"null","","","video-keyboard-response","345","729201","0.0-345.0","8q7zbw0m","","","null","","Agent A","scrambled","STIM_SET_1/713620.bmp_pp65_L3_V1.0_scrambled_freeview_isoFalse.mp4",""
"null","","","html-keyboard-response","346","730706","0.0-346.0","8q7zbw0m","","<span style=""color:Black; font-size:50px;"">Agent B","null","","","","",""
"null","","","video-keyboard-response","347","733784","0.0-347.0","8q7zbw0m","","","null","","Agent B","veridical","STIM_SET_1/713620.bmp_pp65_L3_V1.0_veridical_freeview_isoFalse.mp4",""
"","","","call-function","348","733785","0.0-348.0","8q7zbw0m","","","","","","","",""
"2253.2249999999767","{""judgement"":1}","[0]","survey-likert","349","736039","0.0-349.0","8q7zbw0m","","","","","","","","1"
"1612.3649999999907","{""confidence"":3}","[0]","survey-likert","350","737653","0.0-350.0","8q7zbw0m","","","","","","","",""
"","","","call-function","351","737654","0.0-351.0","8q7zbw0m","","","","","","","",""
"null","","","html-keyboard-response","352","739155","0.0-352.0","8q7zbw0m","","<span style=""color:Black; font-size:50px;"">Agent A","null","","","","",""
"null","","","video-keyboard-response","353","742232","0.0-353.0","8q7zbw0m","","","null","","Agent A","scrambled","STIM_SET_1/285933.bmp_pp81_L1_V1.0_scrambled_freeview_isoFalse.mp4",""
"null","","","html-keyboard-response","354","743737","0.0-354.0","8q7zbw0m","","<span style=""color:Black; font-size:50px;"">Agent B","null","","","","",""
"null","","","video-keyboard-response","355","746810","0.0-355.0","8q7zbw0m","","","null","","Agent B","veridical","STIM_SET_1/285933.bmp_pp81_L1_V1.0_veridical_freeview_isoFalse.mp4",""
"","","","call-function","356","746811","0.0-356.0","8q7zbw0m","","","","","","","",""
"1668.8000000000466","{""judgement"":1}","[0]","survey-likert","357","748481","0.0-357.0","8q7zbw0m","","","","","","","","1"
"1649.5200000000186","{""confidence"":3}","[0]","survey-likert","358","750133","0.0-358.0","8q7zbw0m","","","","","","","",""
"","","","call-function","359","750134","0.0-359.0","8q7zbw0m","","","","","","","",""
"null","","","html-keyboard-response","360","751639","0.0-360.0","8q7zbw0m","","<span style=""color:Black; font-size:50px;"">Agent A","null","","","","",""
"null","","","video-keyboard-response","361","754711","0.0-361.0","8q7zbw0m","","","null","","Agent A","veridical","STIM_SET_1/1159621.bmp_pp92_L3_V1.0_veridical_freeview_isoFalse.mp4",""
"null","","","html-keyboard-response","362","756214","0.0-362.0","8q7zbw0m","","<span style=""color:Black; font-size:50px;"">Agent B","null","","","","",""
"null","","","video-keyboard-response","363","759284","0.0-363.0","8q7zbw0m","","","null","","Agent B","scrambled","STIM_SET_1/1159621.bmp_pp92_L3_V1.0_scrambled_freeview_isoFalse.mp4",""
"","","","call-function","364","759285","0.0-364.0","8q7zbw0m","","","","","","","",""
"2174.320000000065","{""judgement"":0}","[0]","survey-likert","365","761461","0.0-365.0","8q7zbw0m","","","","","","","","0"
"1616.079999999958","{""confidence"":0}","[0]","survey-likert","366","763078","0.0-366.0","8q7zbw0m","","","","","","","",""
"","","","call-function","367","763079","0.0-367.0","8q7zbw0m","","","","","","","",""
"null","","","html-keyboard-response","368","764583","0.0-368.0","8q7zbw0m","","<span style=""color:Black; font-size:50px;"">Agent A","null","","","","",""
"null","","","video-keyboard-response","369","767649","0.0-369.0","8q7zbw0m","","","null","","Agent A","scrambled","STIM_SET_1/286001.bmp_pp54_L2_V1.0_scrambled_freeview_isoFalse.mp4",""
"null","","","html-keyboard-response","370","769150","0.0-370.0","8q7zbw0m","","<span style=""color:Black; font-size:50px;"">Agent B","null","","","","",""
"null","","","video-keyboard-response","371","772216","0.0-371.0","8q7zbw0m","","","null","","Agent B","veridical","STIM_SET_1/286001.bmp_pp54_L2_V1.0_veridical_freeview_isoFalse.mp4",""
"","","","call-function","372","772217","0.0-372.0","8q7zbw0m","","","","","","","",""
"1839.3200000000652","{""judgement"":0}","[0]","survey-likert","373","774057","0.0-373.0","8q7zbw0m","","","","","","","","1"
"1206.0700000000652","{""confidence"":1}","[0]","survey-likert","374","775264","0.0-374.0","8q7zbw0m","","","","","","","",""
"","","","call-function","375","775265","0.0-375.0","8q7zbw0m","","","","","","","",""
"null","","","html-keyboard-response","376","776769","0.0-376.0","8q7zbw0m","","<span style=""color:Black; font-size:50px;"">Agent A","null","","","","",""
"null","","","video-keyboard-response","377","779886","0.0-377.0","8q7zbw0m","","","null","","Agent A","scrambled","STIM_SET_1/712977.bmp_pp51_L1_V1.0_scrambled_freeview_isoFalse.mp4",""
"null","","","html-keyboard-response","378","781387","0.0-378.0","8q7zbw0m","","<span style=""color:Black; font-size:50px;"">Agent B","null","","","","",""
"null","","","video-keyboard-response","379","784500","0.0-379.0","8q7zbw0m","","","null","","Agent B","veridical","STIM_SET_1/712977.bmp_pp51_L1_V1.0_veridical_freeview_isoFalse.mp4",""
"","","","call-function","380","784500","0.0-380.0","8q7zbw0m","","","","","","","",""
"4899.160000000033","{""judgement"":1}","[0]","survey-likert","381","789402","0.0-381.0","8q7zbw0m","","","","","","","","1"
"1412.2399999999907","{""confidence"":0}","[0]","survey-likert","382","790815","0.0-382.0","8q7zbw0m","","","","","","","",""
"","","","call-function","383","790816","0.0-383.0","8q7zbw0m","","","","","","","",""
"null","","","html-keyboard-response","384","792322","0.0-384.0","8q7zbw0m","","<span style=""color:Black; font-size:50px;"">Agent A","null","","","","",""
"null","","","video-keyboard-response","385","795432","0.0-385.0","8q7zbw0m","","","null","","Agent A","veridical","STIM_SET_1/1592619.bmp_pp56_L3_V1.0_veridical_freeview_isoFalse.mp4",""
"null","","","html-keyboard-response","386","796938","0.0-386.0","8q7zbw0m","","<span style=""color:Black; font-size:50px;"">Agent B","null","","","","",""
"null","","","video-keyboard-response","387","800046","0.0-387.0","8q7zbw0m","","","null","","Agent B","scrambled","STIM_SET_1/1592619.bmp_pp56_L3_V1.0_scrambled_freeview_isoFalse.mp4",""
"","","","call-function","388","800047","0.0-388.0","8q7zbw0m","","","","","","","",""
"3070.75","{""judgement"":0}","[0]","survey-likert","389","803118","0.0-389.0","8q7zbw0m","","","","","","","","0"
"1044.5500000000466","{""confidence"":1}","[0]","survey-likert","390","804164","0.0-390.0","8q7zbw0m","","","","","","","",""
"","","","call-function","391","804165","0.0-391.0","8q7zbw0m","","","","","","","",""
"null","","","html-keyboard-response","392","805666","0.0-392.0","8q7zbw0m","","<span style=""color:Black; font-size:50px;"">Agent A","null","","","","",""
"null","","","video-keyboard-response","393","808784","0.0-393.0","8q7zbw0m","","","null","","Agent A","veridical","STIM_SET_1/1592807.bmp_pp68_L1_V1.0_veridical_freeview_isoFalse.mp4",""
"null","","","html-keyboard-response","394","810289","0.0-394.0","8q7zbw0m","","<span style=""color:Black; font-size:50px;"">Agent B","null","","","","",""
"null","","","video-keyboard-response","395","813409","0.0-395.0","8q7zbw0m","","","null","","Agent B","scrambled","STIM_SET_1/1592807.bmp_pp68_L1_V1.0_scrambled_freeview_isoFalse.mp4",""
"","","","call-function","396","813410","0.0-396.0","8q7zbw0m","","","","","","","",""
"1734.1949999999488","{""judgement"":0}","[0]","survey-likert","397","815145","0.0-397.0","8q7zbw0m","","","","","","","","0"
"2286.7149999999674","{""confidence"":2}","[0]","survey-likert","398","817433","0.0-398.0","8q7zbw0m","","","","","","","",""
"","","","call-function","399","817434","0.0-399.0","8q7zbw0m","","","","","","","",""
"null","","","html-keyboard-response","400","818935","0.0-400.0","8q7zbw0m","","<span style=""color:Black; font-size:50px;"">Agent A","null","","","","",""
"null","","","video-keyboard-response","401","822006","0.0-401.0","8q7zbw0m","","","null","","Agent A","scrambled","STIM_SET_1/713796.bmp_pp84_L3_V1.0_scrambled_freeview_isoFalse.mp4",""
"null","","","html-keyboard-response","402","823510","0.0-402.0","8q7zbw0m","","<span style=""color:Black; font-size:50px;"">Agent B","null","","","","",""
"null","","","video-keyboard-response","403","826582","0.0-403.0","8q7zbw0m","","","null","","Agent B","veridical","STIM_SET_1/713796.bmp_pp84_L3_V1.0_veridical_freeview_isoFalse.mp4",""
"","","","call-function","404","826583","0.0-404.0","8q7zbw0m","","","","","","","",""
"3359.935000000056","{""judgement"":0}","[0]","survey-likert","405","829943","0.0-405.0","8q7zbw0m","","","","","","","","1"
"1698.3099999999395","{""confidence"":1}","[0]","survey-likert","406","831644","0.0-406.0","8q7zbw0m","","","","","","","",""
"","","","call-function","407","831644","0.0-407.0","8q7zbw0m","","","","","","","",""
"null","","","html-keyboard-response","408","833145","0.0-408.0","8q7zbw0m","","<span style=""color:Black; font-size:50px;"">Agent A","null","","","","",""
"null","","","video-keyboard-response","409","836225","0.0-409.0","8q7zbw0m","","","null","","Agent A","scrambled","STIM_SET_1/498155.bmp_pp61_L2_V1.0_scrambled_freeview_isoFalse.mp4",""
"null","","","html-keyboard-response","410","837731","0.0-410.0","8q7zbw0m","","<span style=""color:Black; font-size:50px;"">Agent B","null","","","","",""
"null","","","video-keyboard-response","411","840809","0.0-411.0","8q7zbw0m","","","null","","Agent B","veridical","STIM_SET_1/498155.bmp_pp61_L2_V1.0_veridical_freeview_isoFalse.mp4",""
"","","","call-function","412","840811","0.0-412.0","8q7zbw0m","","","","","","","",""
"3096.185000000056","{""judgement"":0}","[0]","survey-likert","413","843909","0.0-413.0","8q7zbw0m","","","","","","","","1"
"1474.4749999999767","{""confidence"":1}","[0]","survey-likert","414","845385","0.0-414.0","8q7zbw0m","","","","","","","",""
"10617.680000000051","","","instructions","415","856004","0.0-415.0","8q7zbw0m","[{""page_index"":0,""viewing_time"":979.8649999999907},{""page_index"":1,""viewing_time"":1189.5800000000745},{""page_index"":2,""viewing_time"":8448.069999999949}]","","","","","","",""
"2063.689999999944","","","instructions","416","858069","0.0-416.0","8q7zbw0m","[{""page_index"":0,""viewing_time"":879.4799999999814},{""page_index"":1,""viewing_time"":638.140000000014},{""page_index"":2,""viewing_time"":545.9599999999627}]","","","","","","",""
"","","","call-function","417","858070","0.0-417.0","8q7zbw0m","","","","","","","",""
"null","","","html-keyboard-response","418","859571","0.0-418.0","8q7zbw0m","","<span style=""color:Black; font-size:50px;"">Agent A","null","","","","",""
"null","","","video-keyboard-response","419","862649","0.0-419.0","8q7zbw0m","","","null","","Agent A","veridical","STIM_SET_1/1592581.bmp_pp100_L3_V1.0_veridical_freeview_isoFalse.mp4",""
"null","","","html-keyboard-response","420","864155","0.0-420.0","8q7zbw0m","","<span style=""color:Black; font-size:50px;"">Agent B","null","","","","",""
"null","","","video-keyboard-response","421","867230","0.0-421.0","8q7zbw0m","","","null","","Agent B","scrambled","STIM_SET_1/1592581.bmp_pp100_L3_V1.0_scrambled_freeview_isoFalse.mp4",""
"","","","call-function","422","867230","0.0-422.0","8q7zbw0m","","","","","","","",""
"2855.5149999998976","{""judgement"":1}","[0]","survey-likert","423","870087","0.0-423.0","8q7zbw0m","","","","","","","","0"
"2229.4749999999767","{""confidence"":2}","[0]","survey-likert","424","872318","0.0-424.0","8q7zbw0m","","","","","","","",""
"","","","call-function","425","872319","0.0-425.0","8q7zbw0m","","","","","","","",""
"null","","","html-keyboard-response","426","873821","0.0-426.0","8q7zbw0m","","<span style=""color:Black; font-size:50px;"">Agent A","null","","","","",""
"null","","","video-keyboard-response","427","876896","0.0-427.0","8q7zbw0m","","","null","","Agent A","veridical","STIM_SET_1/713513.bmp_pp62_L2_V1.0_veridical_freeview_isoFalse.mp4",""
"null","","","html-keyboard-response","428","878399","0.0-428.0","8q7zbw0m","","<span style=""color:Black; font-size:50px;"">Agent B","null","","","","",""
"null","","","video-keyboard-response","429","881475","0.0-429.0","8q7zbw0m","","","null","","Agent B","scrambled","STIM_SET_1/713513.bmp_pp62_L2_V1.0_scrambled_freeview_isoFalse.mp4",""
"","","","call-function","430","881476","0.0-430.0","8q7zbw0m","","","","","","","",""
"2087.2149999999674","{""judgement"":1}","[0]","survey-likert","431","883564","0.0-431.0","8q7zbw0m","","","","","","","","0"
"1706.8000000000466","{""confidence"":1}","[0]","survey-likert","432","885273","0.0-432.0","8q7zbw0m","","","","","","","",""
"","","","call-function","433","885273","0.0-433.0","8q7zbw0m","","","","","","","",""
"null","","","html-keyboard-response","434","886774","0.0-434.0","8q7zbw0m","","<span style=""color:Black; font-size:50px;"">Agent A","null","","","","",""
"null","","","video-keyboard-response","435","889896","0.0-435.0","8q7zbw0m","","","null","","Agent A","veridical","STIM_SET_1/285905.bmp_pp57_L1_V1.0_veridical_freeview_isoFalse.mp4",""
"null","","","html-keyboard-response","436","891402","0.0-436.0","8q7zbw0m","","<span style=""color:Black; font-size:50px;"">Agent B","null","","","","",""
"null","","","video-keyboard-response","437","894520","0.0-437.0","8q7zbw0m","","","null","","Agent B","scrambled","STIM_SET_1/285905.bmp_pp57_L1_V1.0_scrambled_freeview_isoFalse.mp4",""
"","","","call-function","438","894521","0.0-438.0","8q7zbw0m","","","","","","","",""
"2193.804999999935","{""judgement"":0}","[0]","survey-likert","439","896716","0.0-439.0","8q7zbw0m","","","","","","","","0"
"3192.5400000000373","{""confidence"":3}","[0]","survey-likert","440","899910","0.0-440.0","8q7zbw0m","","","","","","","",""
"","","","call-function","441","899910","0.0-441.0","8q7zbw0m","","","","","","","",""
"null","","","html-keyboard-response","442","901416","0.0-442.0","8q7zbw0m","","<span style=""color:Black; font-size:50px;"">Agent A","null","","","","",""
"null","","","video-keyboard-response","443","904530","0.0-443.0","8q7zbw0m","","","null","","Agent A","veridical","STIM_SET_1/1159784.bmp_pp73_L3_V1.0_veridical_freeview_isoFalse.mp4",""
"null","","","html-keyboard-response","444","906033","0.0-444.0","8q7zbw0m","","<span style=""color:Black; font-size:50px;"">Agent B","null","","","","",""
"null","","","video-keyboard-response","445","909148","0.0-445.0","8q7zbw0m","","","null","","Agent B","scrambled","STIM_SET_1/1159784.bmp_pp73_L3_V1.0_scrambled_freeview_isoFalse.mp4",""
"","","","call-function","446","909149","0.0-446.0","8q7zbw0m","","","","","","","",""
"2112.6600000000326","{""judgement"":0}","[0]","survey-likert","447","911262","0.0-447.0","8q7zbw0m","","","","","","","","0"
"2133.8950000000186","{""confidence"":1}","[0]","survey-likert","448","913397","0.0-448.0","8q7zbw0m","","","","","","","",""
"","","","call-function","449","913398","0.0-449.0","8q7zbw0m","","","","","","","",""
"null","","","html-keyboard-response","450","914900","0.0-450.0","8q7zbw0m","","<span style=""color:Black; font-size:50px;"">Agent A","null","","","","",""
"null","","","video-keyboard-response","451","918011","0.0-451.0","8q7zbw0m","","","null","","Agent A","veridical","STIM_SET_1/713681.bmp_pp86_L2_V1.0_veridical_freeview_isoFalse.mp4",""
"null","","","html-keyboard-response","452","919515","0.0-452.0","8q7zbw0m","","<span style=""color:Black; font-size:50px;"">Agent B","null","","","","",""
"null","","","video-keyboard-response","453","922588","0.0-453.0","8q7zbw0m","","","null","","Agent B","scrambled","STIM_SET_1/713681.bmp_pp86_L2_V1.0_scrambled_freeview_isoFalse.mp4",""
"","","","call-function","454","922589","0.0-454.0","8q7zbw0m","","","","","","","",""
"1828.6849999999395","{""judgement"":0}","[0]","survey-likert","455","924418","0.0-455.0","8q7zbw0m","","","","","","","","0"
"3741.280000000028","{""confidence"":3}","[0]","survey-likert","456","928161","0.0-456.0","8q7zbw0m","","","","","","","",""
"","","","call-function","457","928162","0.0-457.0","8q7zbw0m","","","","","","","",""
"null","","","html-keyboard-response","458","929665","0.0-458.0","8q7zbw0m","","<span style=""color:Black; font-size:50px;"">Agent A","null","","","","",""
"null","","","video-keyboard-response","459","932737","0.0-459.0","8q7zbw0m","","","null","","Agent A","scrambled","STIM_SET_1/1591961.bmp_pp67_L2_V1.0_scrambled_freeview_isoFalse.mp4",""
"null","","","html-keyboard-response","460","934241","0.0-460.0","8q7zbw0m","","<span style=""color:Black; font-size:50px;"">Agent B","null","","","","",""
"null","","","video-keyboard-response","461","937313","0.0-461.0","8q7zbw0m","","","null","","Agent B","veridical","STIM_SET_1/1591961.bmp_pp67_L2_V1.0_veridical_freeview_isoFalse.mp4",""
"","","","call-function","462","937314","0.0-462.0","8q7zbw0m","","","","","","","",""
"2277.8850000000093","{""judgement"":0}","[0]","survey-likert","463","939593","0.0-463.0","8q7zbw0m","","","","","","","","1"
"1146.5","{""confidence"":0}","[0]","survey-likert","464","940741","0.0-464.0","8q7zbw0m","","","","","","","",""
"","","","call-function","465","940741","0.0-465.0","8q7zbw0m","","","","","","","",""
"null","","","html-keyboard-response","466","942247","0.0-466.0","8q7zbw0m","","<span style=""color:Black; font-size:50px;"">Agent A","null","","","","",""
"null","","","video-keyboard-response","467","945323","0.0-467.0","8q7zbw0m","","","null","","Agent A","veridical","STIM_SET_1/713749.bmp_pp88_L2_V1.0_veridical_freeview_isoFalse.mp4",""
"null","","","html-keyboard-response","468","946830","0.0-468.0","8q7zbw0m","","<span style=""color:Black; font-size:50px;"">Agent B","null","","","","",""
"null","","","video-keyboard-response","469","949909","0.0-469.0","8q7zbw0m","","","null","","Agent B","scrambled","STIM_SET_1/713749.bmp_pp88_L2_V1.0_scrambled_freeview_isoFalse.mp4",""
"","","","call-function","470","949909","0.0-470.0","8q7zbw0m","","","","","","","",""
"2065.70000000007","{""judgement"":0}","[0]","survey-likert","471","951976","0.0-471.0","8q7zbw0m","","","","","","","","0"
"1391.4350000000559","{""confidence"":3}","[0]","survey-likert","472","953369","0.0-472.0","8q7zbw0m","","","","","","","",""
"","","","call-function","473","953369","0.0-473.0","8q7zbw0m","","","","","","","",""
"null","","","html-keyboard-response","474","954871","0.0-474.0","8q7zbw0m","","<span style=""color:Black; font-size:50px;"">Agent A","null","","","","",""
"null","","","video-keyboard-response","475","957980","0.0-475.0","8q7zbw0m","","","null","","Agent A","veridical","STIM_SET_1/1159829.bmp_pp91_L3_V1.0_veridical_freeview_isoFalse.mp4",""
"null","","","html-keyboard-response","476","959483","0.0-476.0","8q7zbw0m","","<span style=""color:Black; font-size:50px;"">Agent B","null","","","","",""
"null","","","video-keyboard-response","477","962594","0.0-477.0","8q7zbw0m","","","null","","Agent B","scrambled","STIM_SET_1/1159829.bmp_pp91_L3_V1.0_scrambled_freeview_isoFalse.mp4",""
"","","","call-function","478","962595","0.0-478.0","8q7zbw0m","","","","","","","",""
"2662.4000000000233","{""judgement"":1}","[0]","survey-likert","479","965259","0.0-479.0","8q7zbw0m","","","","","","","","0"
"1505.7999999999302","{""confidence"":0}","[0]","survey-likert","480","966767","0.0-480.0","8q7zbw0m","","","","","","","",""
"","","","call-function","481","966769","0.0-481.0","8q7zbw0m","","","","","","","",""
"null","","","html-keyboard-response","482","968272","0.0-482.0","8q7zbw0m","","<span style=""color:Black; font-size:50px;"">Agent A","null","","","","",""
"null","","","video-keyboard-response","483","971350","0.0-483.0","8q7zbw0m","","","null","","Agent A","veridical","STIM_SET_1/1159777.bmp_pp77_L3_V1.0_veridical_freeview_isoFalse.mp4",""
"null","","","html-keyboard-response","484","972854","0.0-484.0","8q7zbw0m","","<span style=""color:Black; font-size:50px;"">Agent B","null","","","","",""
"null","","","video-keyboard-response","485","975933","0.0-485.0","8q7zbw0m","","","null","","Agent B","scrambled","STIM_SET_1/1159777.bmp_pp77_L3_V1.0_scrambled_freeview_isoFalse.mp4",""
"","","","call-function","486","975934","0.0-486.0","8q7zbw0m","","","","","","","",""
"6040.239999999991","{""judgement"":0}","[0]","survey-likert","487","981975","0.0-487.0","8q7zbw0m","","","","","","","","0"
"1589.5699999999488","{""confidence"":1}","[0]","survey-likert","488","983566","0.0-488.0","8q7zbw0m","","","","","","","",""
"","","","call-function","489","983567","0.0-489.0","8q7zbw0m","","","","","","","",""
"null","","","html-keyboard-response","490","985068","0.0-490.0","8q7zbw0m","","<span style=""color:Black; font-size:50px;"">Agent A","null","","","","",""
"null","","","video-keyboard-response","491","988151","0.0-491.0","8q7zbw0m","","","null","","Agent A","veridical","STIM_SET_1/1591954.bmp_pp62_L2_V1.0_veridical_freeview_isoFalse.mp4",""
"null","","","html-keyboard-response","492","989653","0.0-492.0","8q7zbw0m","","<span style=""color:Black; font-size:50px;"">Agent B","null","","","","",""
"null","","","video-keyboard-response","493","992734","0.0-493.0","8q7zbw0m","","","null","","Agent B","scrambled","STIM_SET_1/1591954.bmp_pp62_L2_V1.0_scrambled_freeview_isoFalse.mp4",""
"","","","call-function","494","992735","0.0-494.0","8q7zbw0m","","","","","","","",""
"1771.4449999999488","{""judgement"":1}","[0]","survey-likert","495","994507","0.0-495.0","8q7zbw0m","","","","","","","","0"
"2599.359999999986","{""confidence"":2}","[0]","survey-likert","496","997108","0.0-496.0","8q7zbw0m","","","","","","","",""
"14552.800000000047","","","instructions","497","1011661","0.0-497.0","8q7zbw0m","[{""page_index"":0,""viewing_time"":12795.800000000047},{""page_index"":1,""viewing_time"":824.3399999999674},{""page_index"":2,""viewing_time"":932.5050000000047}]","","","","","","",""
"2334.5999999999767","","","instructions","498","1013996","0.0-498.0","8q7zbw0m","[{""page_index"":0,""viewing_time"":635.3399999999674},{""page_index"":1,""viewing_time"":921.1300000000047},{""page_index"":2,""viewing_time"":777.9100000000326}]","","","","","","",""
"","","","call-function","499","1013997","0.0-499.0","8q7zbw0m","","","","","","","",""
"null","","","html-keyboard-response","500","1015501","0.0-500.0","8q7zbw0m","","<span style=""color:Black; font-size:50px;"">Agent A","null","","","","",""
"null","","","video-keyboard-response","501","1018616","0.0-501.0","8q7zbw0m","","","null","","Agent A","veridical","STIM_SET_1/1592286.bmp_pp52_L1_V1.0_veridical_freeview_isoFalse.mp4",""
"null","","","html-keyboard-response","502","1020118","0.0-502.0","8q7zbw0m","","<span style=""color:Black; font-size:50px;"">Agent B","null","","","","",""
"null","","","video-keyboard-response","503","1023229","0.0-503.0","8q7zbw0m","","","null","","Agent B","scrambled","STIM_SET_1/1592286.bmp_pp52_L1_V1.0_scrambled_freeview_isoFalse.mp4",""
"","","","call-function","504","1023230","0.0-504.0","8q7zbw0m","","","","","","","",""
"3348.7550000000047","{""judgement"":0}","[0]","survey-likert","505","1026579","0.0-505.0","8q7zbw0m","","","","","","","","0"
"1721.0749999999534","{""confidence"":2}","[0]","survey-likert","506","1028302","0.0-506.0","8q7zbw0m","","","","","","","",""
"","","","call-function","507","1028302","0.0-507.0","8q7zbw0m","","","","","","","",""
"null","","","html-keyboard-response","508","1029805","0.0-508.0","8q7zbw0m","","<span style=""color:Black; font-size:50px;"">Agent A","null","","","","",""
"null","","","video-keyboard-response","509","1032916","0.0-509.0","8q7zbw0m","","","null","","Agent A","veridical","STIM_SET_1/1159447.bmp_pp70_L2_V1.0_veridical_freeview_isoFalse.mp4",""
"null","","","html-keyboard-response","510","1034420","0.0-510.0","8q7zbw0m","","<span style=""color:Black; font-size:50px;"">Agent B","null","","","","",""
"null","","","video-keyboard-response","511","1037487","0.0-511.0","8q7zbw0m","","","null","","Agent B","scrambled","STIM_SET_1/1159447.bmp_pp70_L2_V1.0_scrambled_freeview_isoFalse.mp4",""
"","","","call-function","512","1037487","0.0-512.0","8q7zbw0m","","","","","","","",""
"2309.875","{""judgement"":0}","[0]","survey-likert","513","1039798","0.0-513.0","8q7zbw0m","","","","","","","","0"
"1825.234999999986","{""confidence"":2}","[0]","survey-likert","514","1041625","0.0-514.0","8q7zbw0m","","","","","","","",""
"","","","call-function","515","1041625","0.0-515.0","8q7zbw0m","","","","","","","",""
"null","","","html-keyboard-response","516","1043132","0.0-516.0","8q7zbw0m","","<span style=""color:Black; font-size:50px;"">Agent A","null","","","","",""
"null","","","video-keyboard-response","517","1046200","0.0-517.0","8q7zbw0m","","","null","","Agent A","scrambled","STIM_SET_1/1592890.bmp_pp82_L2_V1.0_scrambled_freeview_isoFalse.mp4",""
"null","","","html-keyboard-response","518","1047705","0.0-518.0","8q7zbw0m","","<span style=""color:Black; font-size:50px;"">Agent B","null","","","","",""
"null","","","video-keyboard-response","519","1050783","0.0-519.0","8q7zbw0m","","","null","","Agent B","veridical","STIM_SET_1/1592890.bmp_pp82_L2_V1.0_veridical_freeview_isoFalse.mp4",""
"","","","call-function","520","1050783","0.0-520.0","8q7zbw0m","","","","","","","",""
"2448.2350000001024","{""judgement"":1}","[0]","survey-likert","521","1053232","0.0-521.0","8q7zbw0m","","","","","","","","1"
"1462.2099999999627","{""confidence"":1}","[0]","survey-likert","522","1054696","0.0-522.0","8q7zbw0m","","","","","","","",""
"","","","call-function","523","1054697","0.0-523.0","8q7zbw0m","","","","","","","",""
"null","","","html-keyboard-response","524","1056201","0.0-524.0","8q7zbw0m","","<span style=""color:Black; font-size:50px;"">Agent A","null","","","","",""
"null","","","video-keyboard-response","525","1059275","0.0-525.0","8q7zbw0m","","","null","","Agent A","scrambled","STIM_SET_1/1592934.bmp_pp63_L1_V1.0_scrambled_freeview_isoFalse.mp4",""
"null","","","html-keyboard-response","526","1060782","0.0-526.0","8q7zbw0m","","<span style=""color:Black; font-size:50px;"">Agent B","null","","","","",""
"null","","","video-keyboard-response","527","1063857","0.0-527.0","8q7zbw0m","","","null","","Agent B","veridical","STIM_SET_1/1592934.bmp_pp63_L1_V1.0_veridical_freeview_isoFalse.mp4",""
"","","","call-function","528","1063858","0.0-528.0","8q7zbw0m","","","","","","","",""
"6164.175000000047","{""judgement"":0}","[0]","survey-likert","529","1070023","0.0-529.0","8q7zbw0m","","","","","","","","1"
"1220.8200000000652","{""confidence"":0}","[0]","survey-likert","530","1071245","0.0-530.0","8q7zbw0m","","","","","","","",""
"","","","call-function","531","1071246","0.0-531.0","8q7zbw0m","","","","","","","",""
"null","","","html-keyboard-response","532","1072748","0.0-532.0","8q7zbw0m","","<span style=""color:Black; font-size:50px;"">Agent A","null","","","","",""
"null","","","video-keyboard-response","533","1075863","0.0-533.0","8q7zbw0m","","","null","","Agent A","scrambled","STIM_SET_1/1591876.bmp_pp63_L1_V1.0_scrambled_freeview_isoFalse.mp4",""
"null","","","html-keyboard-response","534","1077365","0.0-534.0","8q7zbw0m","","<span style=""color:Black; font-size:50px;"">Agent B","null","","","","",""
"null","","","video-keyboard-response","535","1080484","0.0-535.0","8q7zbw0m","","","null","","Agent B","veridical","STIM_SET_1/1591876.bmp_pp63_L1_V1.0_veridical_freeview_isoFalse.mp4",""
"","","","call-function","536","1080485","0.0-536.0","8q7zbw0m","","","","","","","",""
"2851.880000000121","{""judgement"":1}","[0]","survey-likert","537","1083339","0.0-537.0","8q7zbw0m","","","","","","","","1"
"1461.0849999999627","{""confidence"":3}","[0]","survey-likert","538","1084801","0.0-538.0","8q7zbw0m","","","","","","","",""
"","","","call-function","539","1084802","0.0-539.0","8q7zbw0m","","","","","","","",""
"null","","","html-keyboard-response","540","1086309","0.0-540.0","8q7zbw0m","","<span style=""color:Black; font-size:50px;"">Agent A","null","","","","",""
"null","","","video-keyboard-response","541","1089379","0.0-541.0","8q7zbw0m","","","null","","Agent A","veridical","STIM_SET_1/1159768.bmp_pp89_L1_V1.0_veridical_freeview_isoFalse.mp4",""
"null","","","html-keyboard-response","542","1090882","0.0-542.0","8q7zbw0m","","<span style=""color:Black; font-size:50px;"">Agent B","null","","","","",""
"null","","","video-keyboard-response","543","1093953","0.0-543.0","8q7zbw0m","","","null","","Agent B","scrambled","STIM_SET_1/1159768.bmp_pp89_L1_V1.0_scrambled_freeview_isoFalse.mp4",""
"","","","call-function","544","1093954","0.0-544.0","8q7zbw0m","","","","","","","",""
"2302.4250000000466","{""judgement"":1}","[0]","survey-likert","545","1096258","0.0-545.0","8q7zbw0m","","","","","","","","0"
"1600.3200000000652","{""confidence"":2}","[0]","survey-likert","546","1097860","0.0-546.0","8q7zbw0m","","","","","","","",""
"","","","call-function","547","1097861","0.0-547.0","8q7zbw0m","","","","","","","",""
"null","","","html-keyboard-response","548","1099364","0.0-548.0","8q7zbw0m","","<span style=""color:Black; font-size:50px;"">Agent A","null","","","","",""
"null","","","video-keyboard-response","549","1102430","0.0-549.0","8q7zbw0m","","","null","","Agent A","veridical","STIM_SET_1/713403.bmp_pp80_L3_V1.0_veridical_freeview_isoFalse.mp4",""
"null","","","html-keyboard-response","550","1103934","0.0-550.0","8q7zbw0m","","<span style=""color:Black; font-size:50px;"">Agent B","null","","","","",""
"null","","","video-keyboard-response","551","1107003","0.0-551.0","8q7zbw0m","","","null","","Agent B","scrambled","STIM_SET_1/713403.bmp_pp80_L3_V1.0_scrambled_freeview_isoFalse.mp4",""
"","","","call-function","552","1107004","0.0-552.0","8q7zbw0m","","","","","","","",""
"1673.6850000000559","{""judgement"":0}","[0]","survey-likert","553","1108678","0.0-553.0","8q7zbw0m","","","","","","","","0"
"2857.850000000093","{""confidence"":2}","[0]","survey-likert","554","1111538","0.0-554.0","8q7zbw0m","","","","","","","",""
"","","","call-function","555","1111538","0.0-555.0","8q7zbw0m","","","","","","","",""
"null","","","html-keyboard-response","556","1113045","0.0-556.0","8q7zbw0m","","<span style=""color:Black; font-size:50px;"">Agent A","null","","","","",""
"null","","","video-keyboard-response","557","1116173","0.0-557.0","8q7zbw0m","","","null","","Agent A","scrambled","STIM_SET_1/1159440.bmp_pp98_L1_V1.0_scrambled_freeview_isoFalse.mp4",""
"null","","","html-keyboard-response","558","1117677","0.0-558.0","8q7zbw0m","","<span style=""color:Black; font-size:50px;"">Agent B","null","","","","",""
"null","","","video-keyboard-response","559","1120799","0.0-559.0","8q7zbw0m","","","null","","Agent B","veridical","STIM_SET_1/1159440.bmp_pp98_L1_V1.0_veridical_freeview_isoFalse.mp4",""
"","","","call-function","560","1120800","0.0-560.0","8q7zbw0m","","","","","","","",""
"2346.2750000001397","{""judgement"":1}","[0]","survey-likert","561","1123147","0.0-561.0","8q7zbw0m","","","","","","","","1"
"1322.4250000000466","{""confidence"":2}","[0]","survey-likert","562","1124471","0.0-562.0","8q7zbw0m","","","","","","","",""
"","","","call-function","563","1124472","0.0-563.0","8q7zbw0m","","","","","","","",""
"null","","","html-keyboard-response","564","1125977","0.0-564.0","8q7zbw0m","","<span style=""color:Black; font-size:50px;"">Agent A","null","","","","",""
"null","","","video-keyboard-response","565","1129092","0.0-565.0","8q7zbw0m","","","null","","Agent A","veridical","STIM_SET_1/498175.bmp_pp154_L1_V1.0_veridical_freeview_isoFalse.mp4",""
"null","","","html-keyboard-response","566","1130599","0.0-566.0","8q7zbw0m","","<span style=""color:Black; font-size:50px;"">Agent B","null","","","","",""
"null","","","video-keyboard-response","567","1133710","0.0-567.0","8q7zbw0m","","","null","","Agent B","scrambled","STIM_SET_1/498175.bmp_pp154_L1_V1.0_scrambled_freeview_isoFalse.mp4",""
"","","","call-function","568","1133711","0.0-568.0","8q7zbw0m","","","","","","","",""
"1819.6850000000559","{""judgement"":0}","[0]","survey-likert","569","1135531","0.0-569.0","8q7zbw0m","","","","","","","","0"
"1637.7099999999627","{""confidence"":2}","[0]","survey-likert","570","1137170","0.0-570.0","8q7zbw0m","","","","","","","",""
"","","","call-function","571","1137171","0.0-571.0","8q7zbw0m","","","","","","","",""
"null","","","html-keyboard-response","572","1138673","0.0-572.0","8q7zbw0m","","<span style=""color:Black; font-size:50px;"">Agent A","null","","","","",""
"null","","","video-keyboard-response","573","1141757","0.0-573.0","8q7zbw0m","","","null","","Agent A","scrambled","STIM_SET_1/713371.bmp_pp68_L1_V1.0_scrambled_freeview_isoFalse.mp4",""
"null","","","html-keyboard-response","574","1143262","0.0-574.0","8q7zbw0m","","<span style=""color:Black; font-size:50px;"">Agent B","null","","","","",""
"null","","","video-keyboard-response","575","1146345","0.0-575.0","8q7zbw0m","","","null","","Agent B","veridical","STIM_SET_1/713371.bmp_pp68_L1_V1.0_veridical_freeview_isoFalse.mp4",""
"","","","call-function","576","1146346","0.0-576.0","8q7zbw0m","","","","","","","",""
"1883.8300000000745","{""judgement"":1}","[0]","survey-likert","577","1148231","0.0-577.0","8q7zbw0m","","","","","","","","1"
"1401.3299999998417","{""confidence"":3}","[0]","survey-likert","578","1149633","0.0-578.0","8q7zbw0m","","","","","","","",""
"1363.5500000000466","","","instructions","579","1150998","0.0-579.0","8q7zbw0m","[{""page_index"":0,""viewing_time"":1363.3249999999534}]","","","","","","",""
"1672.2749999999069","","","instructions","580","1152671","0.0-580.0","8q7zbw0m","[{""page_index"":0,""viewing_time"":1672.1699999999255}]","","","","","","",""
"9620.604999999981","{""post-1"":3}","[0]","survey-likert","581","1162292","0.0-581.0","8q7zbw0m","","","","","","","",""
"4879.809999999823","{""post-1"":2}","[0]","survey-likert","582","1167174","0.0-582.0","8q7zbw0m","","","","","","","",""
"18583.26000000001","{""post-2"":3}","[0]","survey-likert","583","1185760","0.0-583.0","8q7zbw0m","","","","","","","",""
"8957.645000000019","{""post-2"":2}","[0]","survey-likert","584","1194720","0.0-584.0","8q7zbw0m","","","","","","","",""
"10351.60999999987","{""post-3"":2}","[0]","survey-likert","585","1205073","0.0-585.0","8q7zbw0m","","","","","","","",""
"1976.744999999879","{""post-3"":1}","[0]","survey-likert","586","1207052","0.0-586.0","8q7zbw0m","","","","","","","",""
"5217.530000000028","{""post-4"":2}","[0]","survey-likert","587","1212271","0.0-587.0","8q7zbw0m","","","","","","","",""
"3232.1999999999534","{""post-4"":1}","[0]","survey-likert","588","1215504","0.0-588.0","8q7zbw0m","","","","","","","",""
"5899.944999999832","{""post-5"":1}","[0]","survey-likert","589","1221406","0.0-589.0","8q7zbw0m","","","","","","","",""
"7567.004999999888","{""post-5"":2}","[0]","survey-likert","590","1228975","0.0-590.0","8q7zbw0m","","","","","","","",""
"80074.88000000012","{""Q0"":""This part was easier than the first part (without the images shown), but I still struggled to decide for some of the rounds which pattern seemed more \""natural\"".\n""}","","survey-text","591","1309057","0.0-591.0","8q7zbw0m","","","","","","","",""
"129729.11499999999","{""Q0"":""Whenever there were people in the images or other striking things, I thought that If I were the agent, I would definitely fixate on those specific aspects of the photo, so I used that logic to guide my decision-making.""}","","survey-text","592","1438790","0.0-592.0","8q7zbw0m","","","","","","","",""
"63485.83499999996","{""Q0"":""Sometimes, both agents had very similar attention patterns,which made it difficult for me to differentiate between the human agent and the fake.""}","","survey-text","593","1502280","0.0-593.0","8q7zbw0m","","","","","","","",""
"1004.9150000000373","","","instructions","594","1503286","0.0-594.0","8q7zbw0m","[{""page_index"":0,""viewing_time"":1004.7600000000093}]","","","","","","",""
"81310.00499999989","{""Experimenter_end"":[""Printed ID# 8q7zbw0m on consent form"",""Given subject SONA credit or payment"",""Given the subject debrief form""]}","[0]","survey-multi-select","595","1584599","0.0-595.0","8q7zbw0m","","","","","","","",""
