"rt","responses","question_order","trial_type","trial_index","time_elapsed","internal_node_id","ID","view_history","stimulus","key_press","value","agent","condition","image","correct_answer"
"12234.195","{""Experimenter"":[""Confirmed subject's identity"",""Confirmed normal or corrected-to-normal vision"",""Obtained consent (signature and date)"",""Checked the test room lighting"",""Checked computer screen lighting"",""Checked distance from screen to chin rest (50cm)"",""Cleaned and adjusted chin rest"",""Counterbalanced the order of the tasks"",""Opened the experiment in Firefox"",""Made the experiment full screen"",""Encouraged subject to silence phone, put away distractors, etc.""]}","[0]","survey-multi-select","0","12244","0.0-0.0","91acsgym","","","","","","","",""
"13907.635","","","instructions","1","26153","0.0-1.0","91acsgym","[{""page_index"":0,""viewing_time"":13907.085000000001}]","","","","","","",""
"8786.654999999999","","","instructions","2","34941","0.0-2.0","91acsgym","[{""page_index"":0,""viewing_time"":1920.9500000000007},{""page_index"":1,""viewing_time"":1127.0400000000009},{""page_index"":2,""viewing_time"":5737.744999999999}]","","","","","","",""
"1837.5449999999983","","","instructions","3","36779","0.0-3.0","91acsgym","[{""page_index"":0,""viewing_time"":1836.6549999999988}]","","","","","","",""
"null","","","video-keyboard-response","4","39854","0.0-4.0","91acsgym","","","null","","","","",""
"5652.659999999996","","","instructions","5","45508","0.0-5.0","91acsgym","[{""page_index"":0,""viewing_time"":1931.8399999999965},{""page_index"":1,""viewing_time"":471.8400000000038},{""page_index"":2,""viewing_time"":1823.9300000000003},{""page_index"":1,""viewing_time"":856.0049999999974},{""page_index"":2,""viewing_time"":568.2200000000012}]","","","","","","",""
"2407.3150000000023","","","instructions","6","47915","0.0-6.0","91acsgym","[{""page_index"":0,""viewing_time"":2406.5149999999994}]","","","","","","",""
"943.4249999999956","","","instructions","7","48859","0.0-7.0","91acsgym","[{""page_index"":0,""viewing_time"":942.5249999999942}]","","","","","","",""
"null","","","video-keyboard-response","8","51937","0.0-8.0","91acsgym","","","null","","","","",""
"8649.534999999996","","","instructions","9","60587","0.0-9.0","91acsgym","[{""page_index"":0,""viewing_time"":720.625},{""page_index"":1,""viewing_time"":3536.149999999994},{""page_index"":2,""viewing_time"":4391.875}]","","","","","","",""
"1103.375","","","instructions","10","61691","0.0-10.0","91acsgym","[{""page_index"":0,""viewing_time"":1102.5699999999997}]","","","","","","",""
"","","","call-function","11","61692","0.0-11.0","91acsgym","","","","","","","",""
"1189.6449999999968","","","html-keyboard-response","12","62883","0.0-12.0","91acsgym","","<span style=""color:Black; font-size:50px;"">Agent A","39","","","","",""
"null","","","video-keyboard-response","13","65951","0.0-13.0","91acsgym","","","null","","Agent A","veridical","STIM_SET_2_144/1159508.bmp_pp151_L1_V1.0_veridical_freeview_isoTrue_fps144.mp4",""
"null","","","html-keyboard-response","14","67455","0.0-14.0","91acsgym","","<span style=""color:Black; font-size:50px;"">Agent B","null","","","","",""
"null","","","video-keyboard-response","15","70524","0.0-15.0","91acsgym","","","null","","Agent B","scrambled","STIM_SET_5/1159508.bmp_pp151_L1_V1.0_veridical_freeview_isoTrue_Hflip_fps144.mp4",""
"","","","call-function","16","70524","0.0-16.0","91acsgym","","","","","","","",""
"2890.170000000013","{""judgement"":0}","[0]","survey-likert","17","73415","0.0-17.0","91acsgym","","","","","","","","0"
"1613.7200000000012","{""confidence"":1}","[0]","survey-likert","18","75030","0.0-18.0","91acsgym","","","","","","","",""
"","","","call-function","19","75031","0.0-19.0","91acsgym","","","","","","","",""
"null","","","html-keyboard-response","20","76536","0.0-20.0","91acsgym","","<span style=""color:Black; font-size:50px;"">Agent A","null","","","","",""
"null","","","video-keyboard-response","21","79618","0.0-21.0","91acsgym","","","null","","Agent A","scrambled","STIM_SET_5/1592047.bmp_pp51_L1_V1.0_veridical_freeview_isoTrue_Hflip_fps144.mp4",""
"null","","","html-keyboard-response","22","81121","0.0-22.0","91acsgym","","<span style=""color:Black; font-size:50px;"">Agent B","null","","","","",""
"null","","","video-keyboard-response","23","84198","0.0-23.0","91acsgym","","","null","","Agent B","veridical","STIM_SET_2_144/1592047.bmp_pp51_L1_V1.0_veridical_freeview_isoTrue_fps144.mp4",""
"","","","call-function","24","84199","0.0-24.0","91acsgym","","","","","","","",""
"5075.604999999996","{""judgement"":1}","[0]","survey-likert","25","89275","0.0-25.0","91acsgym","","","","","","","","1"
"1814.5999999999913","{""confidence"":1}","[0]","survey-likert","26","91091","0.0-26.0","91acsgym","","","","","","","",""
"","","","call-function","27","91092","0.0-27.0","91acsgym","","","","","","","",""
"null","","","html-keyboard-response","28","92598","0.0-28.0","91acsgym","","<span style=""color:Black; font-size:50px;"">Agent A","null","","","","",""
"null","","","video-keyboard-response","29","95682","0.0-29.0","91acsgym","","","null","","Agent A","veridical","STIM_SET_2_144/150277.bmp_pp65_L3_V1.0_veridical_freeview_isoTrue_fps144.mp4",""
"null","","","html-keyboard-response","30","97186","0.0-30.0","91acsgym","","<span style=""color:Black; font-size:50px;"">Agent B","null","","","","",""
"null","","","video-keyboard-response","31","100272","0.0-31.0","91acsgym","","","null","","Agent B","scrambled","STIM_SET_5/150277.bmp_pp65_L3_V1.0_veridical_freeview_isoTrue_Hflip_fps144.mp4",""
"","","","call-function","32","100272","0.0-32.0","91acsgym","","","","","","","",""
"7179.350000000006","{""judgement"":0}","[0]","survey-likert","33","107452","0.0-33.0","91acsgym","","","","","","","","0"
"2131.679999999993","{""confidence"":0}","[0]","survey-likert","34","109585","0.0-34.0","91acsgym","","","","","","","",""
"","","","call-function","35","109586","0.0-35.0","91acsgym","","","","","","","",""
"null","","","html-keyboard-response","36","111091","0.0-36.0","91acsgym","","<span style=""color:Black; font-size:50px;"">Agent A","null","","","","",""
"null","","","video-keyboard-response","37","114156","0.0-37.0","91acsgym","","","null","","Agent A","veridical","STIM_SET_2_144/1592025.bmp_pp68_L1_V1.0_veridical_freeview_isoTrue_fps144.mp4",""
"null","","","html-keyboard-response","38","115660","0.0-38.0","91acsgym","","<span style=""color:Black; font-size:50px;"">Agent B","null","","","","",""
"null","","","video-keyboard-response","39","118727","0.0-39.0","91acsgym","","","null","","Agent B","scrambled","STIM_SET_5/1592025.bmp_pp68_L1_V1.0_veridical_freeview_isoTrue_Hflip_fps144.mp4",""
"","","","call-function","40","118727","0.0-40.0","91acsgym","","","","","","","",""
"2355.5149999999994","{""judgement"":0}","[0]","survey-likert","41","121084","0.0-41.0","91acsgym","","","","","","","","0"
"1533.3949999999895","{""confidence"":2}","[0]","survey-likert","42","122619","0.0-42.0","91acsgym","","","","","","","",""
"","","","call-function","43","122619","0.0-43.0","91acsgym","","","","","","","",""
"null","","","html-keyboard-response","44","124121","0.0-44.0","91acsgym","","<span style=""color:Black; font-size:50px;"">Agent A","null","","","","",""
"null","","","video-keyboard-response","45","127208","0.0-45.0","91acsgym","","","null","","Agent A","veridical","STIM_SET_2_144/1592201.bmp_pp97_L3_V1.0_veridical_freeview_isoTrue_fps144.mp4",""
"null","","","html-keyboard-response","46","128712","0.0-46.0","91acsgym","","<span style=""color:Black; font-size:50px;"">Agent B","null","","","","",""
"null","","","video-keyboard-response","47","131779","0.0-47.0","91acsgym","","","null","","Agent B","scrambled","STIM_SET_5/1592201.bmp_pp97_L3_V1.0_veridical_freeview_isoTrue_Hflip_fps144.mp4",""
"","","","call-function","48","131780","0.0-48.0","91acsgym","","","","","","","",""
"2397.38499999998","{""judgement"":1}","[0]","survey-likert","49","134178","0.0-49.0","91acsgym","","","","","","","","0"
"3302.8150000000023","{""confidence"":2}","[0]","survey-likert","50","137482","0.0-50.0","91acsgym","","","","","","","",""
"","","","call-function","51","137483","0.0-51.0","91acsgym","","","","","","","",""
"null","","","html-keyboard-response","52","138984","0.0-52.0","91acsgym","","<span style=""color:Black; font-size:50px;"">Agent A","null","","","","",""
"null","","","video-keyboard-response","53","142048","0.0-53.0","91acsgym","","","null","","Agent A","veridical","STIM_SET_2_144/713829.bmp_pp60_L3_V1.0_veridical_freeview_isoTrue_fps144.mp4",""
"null","","","html-keyboard-response","54","143554","0.0-54.0","91acsgym","","<span style=""color:Black; font-size:50px;"">Agent B","null","","","","",""
"null","","","video-keyboard-response","55","146631","0.0-55.0","91acsgym","","","null","","Agent B","scrambled","STIM_SET_5/713829.bmp_pp60_L3_V1.0_veridical_freeview_isoTrue_Hflip_fps144.mp4",""
"","","","call-function","56","146631","0.0-56.0","91acsgym","","","","","","","",""
"6413.294999999984","{""judgement"":0}","[0]","survey-likert","57","153045","0.0-57.0","91acsgym","","","","","","","","0"
"1695.3699999999953","{""confidence"":0}","[0]","survey-likert","58","154742","0.0-58.0","91acsgym","","","","","","","",""
"","","","call-function","59","154742","0.0-59.0","91acsgym","","","","","","","",""
"null","","","html-keyboard-response","60","156245","0.0-60.0","91acsgym","","<span style=""color:Black; font-size:50px;"">Agent A","null","","","","",""
"null","","","video-keyboard-response","61","159329","0.0-61.0","91acsgym","","","null","","Agent A","scrambled","STIM_SET_5/1159329.bmp_pp61_L2_V1.0_veridical_freeview_isoTrue_Hflip_fps144.mp4",""
"null","","","html-keyboard-response","62","160832","0.0-62.0","91acsgym","","<span style=""color:Black; font-size:50px;"">Agent B","null","","","","",""
"null","","","video-keyboard-response","63","163915","0.0-63.0","91acsgym","","","null","","Agent B","veridical","STIM_SET_2_144/1159329.bmp_pp61_L2_V1.0_veridical_freeview_isoTrue_fps144.mp4",""
"","","","call-function","64","163916","0.0-64.0","91acsgym","","","","","","","",""
"2800.6350000000093","{""judgement"":1}","[0]","survey-likert","65","166718","0.0-65.0","91acsgym","","","","","","","","1"
"2703.790000000008","{""confidence"":1}","[0]","survey-likert","66","169424","0.0-66.0","91acsgym","","","","","","","",""
"","","","call-function","67","169425","0.0-67.0","91acsgym","","","","","","","",""
"null","","","html-keyboard-response","68","170926","0.0-68.0","91acsgym","","<span style=""color:Black; font-size:50px;"">Agent A","null","","","","",""
"null","","","video-keyboard-response","69","173994","0.0-69.0","91acsgym","","","null","","Agent A","veridical","STIM_SET_2_144/713274.bmp_pp73_L3_V1.0_veridical_freeview_isoTrue_fps144.mp4",""
"null","","","html-keyboard-response","70","175496","0.0-70.0","91acsgym","","<span style=""color:Black; font-size:50px;"">Agent B","null","","","","",""
"null","","","video-keyboard-response","71","178564","0.0-71.0","91acsgym","","","null","","Agent B","scrambled","STIM_SET_5/713274.bmp_pp73_L3_V1.0_veridical_freeview_isoTrue_Hflip_fps144.mp4",""
"","","","call-function","72","178565","0.0-72.0","91acsgym","","","","","","","",""
"3082.279999999999","{""judgement"":0}","[0]","survey-likert","73","181648","0.0-73.0","91acsgym","","","","","","","","0"
"1276.390000000014","{""confidence"":0}","[0]","survey-likert","74","182926","0.0-74.0","91acsgym","","","","","","","",""
"","","","call-function","75","182927","0.0-75.0","91acsgym","","","","","","","",""
"null","","","html-keyboard-response","76","184431","0.0-76.0","91acsgym","","<span style=""color:Black; font-size:50px;"">Agent A","null","","","","",""
"null","","","video-keyboard-response","77","187494","0.0-77.0","91acsgym","","","null","","Agent A","scrambled","STIM_SET_5/1160049.bmp_pp53_L2_V1.0_veridical_freeview_isoTrue_Hflip_fps144.mp4",""
"null","","","html-keyboard-response","78","188997","0.0-78.0","91acsgym","","<span style=""color:Black; font-size:50px;"">Agent B","null","","","","",""
"null","","","video-keyboard-response","79","192058","0.0-79.0","91acsgym","","","null","","Agent B","veridical","STIM_SET_2_144/1160049.bmp_pp53_L2_V1.0_veridical_freeview_isoTrue_fps144.mp4",""
"","","","call-function","80","192058","0.0-80.0","91acsgym","","","","","","","",""
"1433.7850000000035","{""judgement"":1}","[0]","survey-likert","81","193493","0.0-81.0","91acsgym","","","","","","","","1"
"2012.3399999999965","{""confidence"":1}","[0]","survey-likert","82","195507","0.0-82.0","91acsgym","","","","","","","",""
"","","","call-function","83","195507","0.0-83.0","91acsgym","","","","","","","",""
"null","","","html-keyboard-response","84","197009","0.0-84.0","91acsgym","","<span style=""color:Black; font-size:50px;"">Agent A","null","","","","",""
"null","","","video-keyboard-response","85","200084","0.0-85.0","91acsgym","","","null","","Agent A","veridical","STIM_SET_2_144/286034.bmp_pp69_L3_V1.0_veridical_freeview_isoTrue_fps144.mp4",""
"null","","","html-keyboard-response","86","201587","0.0-86.0","91acsgym","","<span style=""color:Black; font-size:50px;"">Agent B","null","","","","",""
"null","","","video-keyboard-response","87","204661","0.0-87.0","91acsgym","","","null","","Agent B","scrambled","STIM_SET_5/286034.bmp_pp69_L3_V1.0_veridical_freeview_isoTrue_Hflip_fps144.mp4",""
"","","","call-function","88","204662","0.0-88.0","91acsgym","","","","","","","",""
"1564.8450000000012","{""judgement"":1}","[0]","survey-likert","89","206227","0.0-89.0","91acsgym","","","","","","","","0"
"1662.2950000000128","{""confidence"":1}","[0]","survey-likert","90","207891","0.0-90.0","91acsgym","","","","","","","",""
"64820.850000000006","","","instructions","91","272713","0.0-91.0","91acsgym","[{""page_index"":0,""viewing_time"":1214.875},{""page_index"":1,""viewing_time"":63036.16},{""page_index"":2,""viewing_time"":569.6599999999744}]","","","","","","",""
"2041.469999999972","","","instructions","92","274755","0.0-92.0","91acsgym","[{""page_index"":0,""viewing_time"":493.24499999999534},{""page_index"":1,""viewing_time"":808.0900000000256},{""page_index"":2,""viewing_time"":740.0299999999697}]","","","","","","",""
"","","","call-function","93","274755","0.0-93.0","91acsgym","","","","","","","",""
"null","","","html-keyboard-response","94","276256","0.0-94.0","91acsgym","","<span style=""color:Black; font-size:50px;"">Agent A","null","","","","",""
"null","","","video-keyboard-response","95","279318","0.0-95.0","91acsgym","","","null","","Agent A","veridical","STIM_SET_2_144/1159392.bmp_pp96_L2_V1.0_veridical_freeview_isoTrue_fps144.mp4",""
"null","","","html-keyboard-response","96","280821","0.0-96.0","91acsgym","","<span style=""color:Black; font-size:50px;"">Agent B","null","","","","",""
"null","","","video-keyboard-response","97","283882","0.0-97.0","91acsgym","","","null","","Agent B","scrambled","STIM_SET_5/1159392.bmp_pp96_L2_V1.0_veridical_freeview_isoTrue_Hflip_fps144.mp4",""
"","","","call-function","98","283883","0.0-98.0","91acsgym","","","","","","","",""
"4858.484999999986","{""judgement"":0}","[0]","survey-likert","99","288742","0.0-99.0","91acsgym","","","","","","","","0"
"1541.3300000000163","{""confidence"":2}","[0]","survey-likert","100","290284","0.0-100.0","91acsgym","","","","","","","",""
"","","","call-function","101","290285","0.0-101.0","91acsgym","","","","","","","",""
"null","","","html-keyboard-response","102","291790","0.0-102.0","91acsgym","","<span style=""color:Black; font-size:50px;"">Agent A","null","","","","",""
"null","","","video-keyboard-response","103","294855","0.0-103.0","91acsgym","","","null","","Agent A","scrambled","STIM_SET_5/1592044.bmp_pp94_L2_V1.0_veridical_freeview_isoTrue_Hflip_fps144.mp4",""
"null","","","html-keyboard-response","104","296362","0.0-104.0","91acsgym","","<span style=""color:Black; font-size:50px;"">Agent B","null","","","","",""
"null","","","video-keyboard-response","105","299424","0.0-105.0","91acsgym","","","null","","Agent B","veridical","STIM_SET_2_144/1592044.bmp_pp94_L2_V1.0_veridical_freeview_isoTrue_fps144.mp4",""
"","","","call-function","106","299425","0.0-106.0","91acsgym","","","","","","","",""
"5557.914999999979","{""judgement"":1}","[0]","survey-likert","107","304984","0.0-107.0","91acsgym","","","","","","","","1"
"1353.3099999999977","{""confidence"":2}","[0]","survey-likert","108","306339","0.0-108.0","91acsgym","","","","","","","",""
"","","","call-function","109","306341","0.0-109.0","91acsgym","","","","","","","",""
"null","","","html-keyboard-response","110","307844","0.0-110.0","91acsgym","","<span style=""color:Black; font-size:50px;"">Agent A","null","","","","",""
"null","","","video-keyboard-response","111","310914","0.0-111.0","91acsgym","","","null","","Agent A","scrambled","STIM_SET_5/498396.bmp_pp99_L2_V1.0_veridical_freeview_isoTrue_Hflip_fps144.mp4",""
"null","","","html-keyboard-response","112","312416","0.0-112.0","91acsgym","","<span style=""color:Black; font-size:50px;"">Agent B","null","","","","",""
"null","","","video-keyboard-response","113","315483","0.0-113.0","91acsgym","","","null","","Agent B","veridical","STIM_SET_2_144/498396.bmp_pp99_L2_V1.0_veridical_freeview_isoTrue_fps144.mp4",""
"","","","call-function","114","315484","0.0-114.0","91acsgym","","","","","","","",""
"1612.0650000000023","{""judgement"":0}","[0]","survey-likert","115","317097","0.0-115.0","91acsgym","","","","","","","","1"
"2590.289999999979","{""confidence"":1}","[0]","survey-likert","116","319689","0.0-116.0","91acsgym","","","","","","","",""
"","","","call-function","117","319689","0.0-117.0","91acsgym","","","","","","","",""
"null","","","html-keyboard-response","118","321192","0.0-118.0","91acsgym","","<span style=""color:Black; font-size:50px;"">Agent A","null","","","","",""
"null","","","video-keyboard-response","119","324260","0.0-119.0","91acsgym","","","null","","Agent A","veridical","STIM_SET_2_144/1592921.bmp_pp69_L3_V1.0_veridical_freeview_isoTrue_fps144.mp4",""
"null","","","html-keyboard-response","120","325762","0.0-120.0","91acsgym","","<span style=""color:Black; font-size:50px;"">Agent B","null","","","","",""
"null","","","video-keyboard-response","121","328829","0.0-121.0","91acsgym","","","null","","Agent B","scrambled","STIM_SET_5/1592921.bmp_pp69_L3_V1.0_veridical_freeview_isoTrue_Hflip_fps144.mp4",""
"","","","call-function","122","328830","0.0-122.0","91acsgym","","","","","","","",""
"1356.8099999999977","{""judgement"":0}","[0]","survey-likert","123","330188","0.0-123.0","91acsgym","","","","","","","","0"
"1345.6200000000536","{""confidence"":2}","[0]","survey-likert","124","331535","0.0-124.0","91acsgym","","","","","","","",""
"","","","call-function","125","331535","0.0-125.0","91acsgym","","","","","","","",""
"null","","","html-keyboard-response","126","333038","0.0-126.0","91acsgym","","<span style=""color:Black; font-size:50px;"">Agent A","null","","","","",""
"null","","","video-keyboard-response","127","336121","0.0-127.0","91acsgym","","","null","","Agent A","scrambled","STIM_SET_5/150463.bmp_pp55_L3_V1.0_veridical_freeview_isoTrue_Hflip_fps144.mp4",""
"null","","","html-keyboard-response","128","337628","0.0-128.0","91acsgym","","<span style=""color:Black; font-size:50px;"">Agent B","null","","","","",""
"null","","","video-keyboard-response","129","340709","0.0-129.0","91acsgym","","","null","","Agent B","veridical","STIM_SET_2_144/150463.bmp_pp55_L3_V1.0_veridical_freeview_isoTrue_fps144.mp4",""
"","","","call-function","130","340710","0.0-130.0","91acsgym","","","","","","","",""
"1831.3400000000256","{""judgement"":1}","[0]","survey-likert","131","342542","0.0-131.0","91acsgym","","","","","","","","1"
"1180.125","{""confidence"":2}","[0]","survey-likert","132","343724","0.0-132.0","91acsgym","","","","","","","",""
"","","","call-function","133","343724","0.0-133.0","91acsgym","","","","","","","",""
"null","","","html-keyboard-response","134","345225","0.0-134.0","91acsgym","","<span style=""color:Black; font-size:50px;"">Agent A","null","","","","",""
"null","","","video-keyboard-response","135","348303","0.0-135.0","91acsgym","","","null","","Agent A","scrambled","STIM_SET_5/1592017.bmp_pp154_L1_V1.0_veridical_freeview_isoTrue_Hflip_fps144.mp4",""
"null","","","html-keyboard-response","136","349808","0.0-136.0","91acsgym","","<span style=""color:Black; font-size:50px;"">Agent B","null","","","","",""
"null","","","video-keyboard-response","137","352884","0.0-137.0","91acsgym","","","null","","Agent B","veridical","STIM_SET_2_144/1592017.bmp_pp154_L1_V1.0_veridical_freeview_isoTrue_fps144.mp4",""
"","","","call-function","138","352885","0.0-138.0","91acsgym","","","","","","","",""
"2264.2050000000163","{""judgement"":1}","[0]","survey-likert","139","355150","0.0-139.0","91acsgym","","","","","","","","1"
"2323.280000000028","{""confidence"":2}","[0]","survey-likert","140","357474","0.0-140.0","91acsgym","","","","","","","",""
"","","","call-function","141","357475","0.0-141.0","91acsgym","","","","","","","",""
"null","","","html-keyboard-response","142","358976","0.0-142.0","91acsgym","","<span style=""color:Black; font-size:50px;"">Agent A","null","","","","",""
"null","","","video-keyboard-response","143","362062","0.0-143.0","91acsgym","","","null","","Agent A","veridical","STIM_SET_2_144/1160189.bmp_pp64_L1_V1.0_veridical_freeview_isoTrue_fps144.mp4",""
"null","","","html-keyboard-response","144","363564","0.0-144.0","91acsgym","","<span style=""color:Black; font-size:50px;"">Agent B","null","","","","",""
"null","","","video-keyboard-response","145","366646","0.0-145.0","91acsgym","","","null","","Agent B","scrambled","STIM_SET_5/1160189.bmp_pp64_L1_V1.0_veridical_freeview_isoTrue_Hflip_fps144.mp4",""
"","","","call-function","146","366647","0.0-146.0","91acsgym","","","","","","","",""
"2853.4349999999977","{""judgement"":1}","[0]","survey-likert","147","369501","0.0-147.0","91acsgym","","","","","","","","0"
"1214.2399999999907","{""confidence"":2}","[0]","survey-likert","148","370717","0.0-148.0","91acsgym","","","","","","","",""
"","","","call-function","149","370717","0.0-149.0","91acsgym","","","","","","","",""
"null","","","html-keyboard-response","150","372219","0.0-150.0","91acsgym","","<span style=""color:Black; font-size:50px;"">Agent A","null","","","","",""
"null","","","video-keyboard-response","151","375295","0.0-151.0","91acsgym","","","null","","Agent A","veridical","STIM_SET_2_144/1591781.bmp_pp63_L1_V1.0_veridical_freeview_isoTrue_fps144.mp4",""
"null","","","html-keyboard-response","152","376798","0.0-152.0","91acsgym","","<span style=""color:Black; font-size:50px;"">Agent B","null","","","","",""
"null","","","video-keyboard-response","153","379873","0.0-153.0","91acsgym","","","null","","Agent B","scrambled","STIM_SET_5/1591781.bmp_pp63_L1_V1.0_veridical_freeview_isoTrue_Hflip_fps144.mp4",""
"","","","call-function","154","379873","0.0-154.0","91acsgym","","","","","","","",""
"2279.039999999979","{""judgement"":1}","[0]","survey-likert","155","382153","0.0-155.0","91acsgym","","","","","","","","0"
"2029.820000000007","{""confidence"":3}","[0]","survey-likert","156","384184","0.0-156.0","91acsgym","","","","","","","",""
"","","","call-function","157","384185","0.0-157.0","91acsgym","","","","","","","",""
"null","","","html-keyboard-response","158","385689","0.0-158.0","91acsgym","","<span style=""color:Black; font-size:50px;"">Agent A","null","","","","",""
"null","","","video-keyboard-response","159","388759","0.0-159.0","91acsgym","","","null","","Agent A","veridical","STIM_SET_2_144/713920.bmp_pp76_L1_V1.0_veridical_freeview_isoTrue_fps144.mp4",""
"null","","","html-keyboard-response","160","390263","0.0-160.0","91acsgym","","<span style=""color:Black; font-size:50px;"">Agent B","null","","","","",""
"null","","","video-keyboard-response","161","393332","0.0-161.0","91acsgym","","","null","","Agent B","scrambled","STIM_SET_5/713920.bmp_pp76_L1_V1.0_veridical_freeview_isoTrue_Hflip_fps144.mp4",""
"","","","call-function","162","393333","0.0-162.0","91acsgym","","","","","","","",""
"1496.570000000007","{""judgement"":1}","[0]","survey-likert","163","394831","0.0-163.0","91acsgym","","","","","","","","0"
"1397.5349999999744","{""confidence"":2}","[0]","survey-likert","164","396230","0.0-164.0","91acsgym","","","","","","","",""
"","","","call-function","165","396231","0.0-165.0","91acsgym","","","","","","","",""
"null","","","html-keyboard-response","166","397734","0.0-166.0","91acsgym","","<span style=""color:Black; font-size:50px;"">Agent A","null","","","","",""
"null","","","video-keyboard-response","167","400798","0.0-167.0","91acsgym","","","null","","Agent A","scrambled","STIM_SET_5/285715.bmp_pp67_L2_V1.0_veridical_freeview_isoTrue_Hflip_fps144.mp4",""
"null","","","html-keyboard-response","168","402301","0.0-168.0","91acsgym","","<span style=""color:Black; font-size:50px;"">Agent B","null","","","","",""
"null","","","video-keyboard-response","169","405361","0.0-169.0","91acsgym","","","null","","Agent B","veridical","STIM_SET_2_144/285715.bmp_pp67_L2_V1.0_veridical_freeview_isoTrue_fps144.mp4",""
"","","","call-function","170","405362","0.0-170.0","91acsgym","","","","","","","",""
"2113.414999999979","{""judgement"":1}","[0]","survey-likert","171","407476","0.0-171.0","91acsgym","","","","","","","","1"
"1122.9500000000116","{""confidence"":1}","[0]","survey-likert","172","408601","0.0-172.0","91acsgym","","","","","","","",""
"8867.890000000014","","","instructions","173","417469","0.0-173.0","91acsgym","[{""page_index"":0,""viewing_time"":6985.804999999993},{""page_index"":1,""viewing_time"":1520.0050000000047},{""page_index"":2,""viewing_time"":360.64000000001397}]","","","","","","",""
"1405.9099999999744","","","instructions","174","418876","0.0-174.0","91acsgym","[{""page_index"":0,""viewing_time"":181.25},{""page_index"":1,""viewing_time"":431.90499999996973},{""page_index"":2,""viewing_time"":792.0050000000047}]","","","","","","",""
"","","","call-function","175","418877","0.0-175.0","91acsgym","","","","","","","",""
"null","","","html-keyboard-response","176","420377","0.0-176.0","91acsgym","","<span style=""color:Black; font-size:50px;"">Agent A","null","","","","",""
"null","","","video-keyboard-response","177","423439","0.0-177.0","91acsgym","","","null","","Agent A","scrambled","STIM_SET_5/1159427.bmp_pp98_L1_V1.0_veridical_freeview_isoTrue_Hflip_fps144.mp4",""
"null","","","html-keyboard-response","178","424940","0.0-178.0","91acsgym","","<span style=""color:Black; font-size:50px;"">Agent B","null","","","","",""
"null","","","video-keyboard-response","179","428019","0.0-179.0","91acsgym","","","null","","Agent B","veridical","STIM_SET_2_144/1159427.bmp_pp98_L1_V1.0_veridical_freeview_isoTrue_fps144.mp4",""
"","","","call-function","180","428019","0.0-180.0","91acsgym","","","","","","","",""
"1626.3250000000116","{""judgement"":1}","[0]","survey-likert","181","429646","0.0-181.0","91acsgym","","","","","","","","1"
"1904.3300000000163","{""confidence"":2}","[0]","survey-likert","182","431552","0.0-182.0","91acsgym","","","","","","","",""
"","","","call-function","183","431552","0.0-183.0","91acsgym","","","","","","","",""
"null","","","html-keyboard-response","184","433058","0.0-184.0","91acsgym","","<span style=""color:Black; font-size:50px;"">Agent A","null","","","","",""
"null","","","video-keyboard-response","185","436141","0.0-185.0","91acsgym","","","null","","Agent A","veridical","STIM_SET_2_144/1592747.bmp_pp53_L2_V1.0_veridical_freeview_isoTrue_fps144.mp4",""
"null","","","html-keyboard-response","186","437643","0.0-186.0","91acsgym","","<span style=""color:Black; font-size:50px;"">Agent B","null","","","","",""
"null","","","video-keyboard-response","187","440727","0.0-187.0","91acsgym","","","null","","Agent B","scrambled","STIM_SET_5/1592747.bmp_pp53_L2_V1.0_veridical_freeview_isoTrue_Hflip_fps144.mp4",""
"","","","call-function","188","440727","0.0-188.0","91acsgym","","","","","","","",""
"2152.9799999999814","{""judgement"":1}","[0]","survey-likert","189","442881","0.0-189.0","91acsgym","","","","","","","","0"
"1659.8550000000396","{""confidence"":2}","[0]","survey-likert","190","444543","0.0-190.0","91acsgym","","","","","","","",""
"","","","call-function","191","444543","0.0-191.0","91acsgym","","","","","","","",""
"null","","","html-keyboard-response","192","446045","0.0-192.0","91acsgym","","<span style=""color:Black; font-size:50px;"">Agent A","null","","","","",""
"null","","","video-keyboard-response","193","449133","0.0-193.0","91acsgym","","","null","","Agent A","veridical","STIM_SET_2_144/1592038.bmp_pp79_L2_V1.0_veridical_freeview_isoTrue_fps144.mp4",""
"null","","","html-keyboard-response","194","450636","0.0-194.0","91acsgym","","<span style=""color:Black; font-size:50px;"">Agent B","null","","","","",""
"null","","","video-keyboard-response","195","453723","0.0-195.0","91acsgym","","","null","","Agent B","scrambled","STIM_SET_5/1592038.bmp_pp79_L2_V1.0_veridical_freeview_isoTrue_Hflip_fps144.mp4",""
"","","","call-function","196","453724","0.0-196.0","91acsgym","","","","","","","",""
"1914.2350000000442","{""judgement"":1}","[0]","survey-likert","197","455639","0.0-197.0","91acsgym","","","","","","","","0"
"1665.945000000007","{""confidence"":1}","[0]","survey-likert","198","457306","0.0-198.0","91acsgym","","","","","","","",""
"","","","call-function","199","457306","0.0-199.0","91acsgym","","","","","","","",""
"null","","","html-keyboard-response","200","458809","0.0-200.0","91acsgym","","<span style=""color:Black; font-size:50px;"">Agent A","null","","","","",""
"null","","","video-keyboard-response","201","461873","0.0-201.0","91acsgym","","","null","","Agent A","veridical","STIM_SET_2_144/713652.bmp_pp89_L1_V1_veridical_freeview_isoTrue_fps144.mp4",""
"null","","","html-keyboard-response","202","463376","0.0-202.0","91acsgym","","<span style=""color:Black; font-size:50px;"">Agent B","null","","","","",""
"null","","","video-keyboard-response","203","466436","0.0-203.0","91acsgym","","","null","","Agent B","scrambled","STIM_SET_5/713652.bmp_pp89_L1_V1_veridical_freeview_isoTrue_Hflip_fps144.mp4",""
"","","","call-function","204","466437","0.0-204.0","91acsgym","","","","","","","",""
"1834.4199999999837","{""judgement"":0}","[0]","survey-likert","205","468273","0.0-205.0","91acsgym","","","","","","","","0"
"1974.304999999993","{""confidence"":2}","[0]","survey-likert","206","470248","0.0-206.0","91acsgym","","","","","","","",""
"","","","call-function","207","470249","0.0-207.0","91acsgym","","","","","","","",""
"null","","","html-keyboard-response","208","471751","0.0-208.0","91acsgym","","<span style=""color:Black; font-size:50px;"">Agent A","null","","","","",""
"null","","","video-keyboard-response","209","474827","0.0-209.0","91acsgym","","","null","","Agent A","scrambled","STIM_SET_5/1159874.bmp_pp96_L2_V1.0_veridical_freeview_isoTrue_Hflip_fps144.mp4",""
"null","","","html-keyboard-response","210","476330","0.0-210.0","91acsgym","","<span style=""color:Black; font-size:50px;"">Agent B","null","","","","",""
"null","","","video-keyboard-response","211","479407","0.0-211.0","91acsgym","","","null","","Agent B","veridical","STIM_SET_2_144/1159874.bmp_pp96_L2_V1.0_veridical_freeview_isoTrue_fps144.mp4",""
"","","","call-function","212","479408","0.0-212.0","91acsgym","","","","","","","",""
"1843.1199999999953","{""judgement"":0}","[0]","survey-likert","213","481253","0.0-213.0","91acsgym","","","","","","","","1"
"1814.1149999999907","{""confidence"":2}","[0]","survey-likert","214","483070","0.0-214.0","91acsgym","","","","","","","",""
"","","","call-function","215","483071","0.0-215.0","91acsgym","","","","","","","",""
"null","","","html-keyboard-response","216","484572","0.0-216.0","91acsgym","","<span style=""color:Black; font-size:50px;"">Agent A","null","","","","",""
"null","","","video-keyboard-response","217","487650","0.0-217.0","91acsgym","","","null","","Agent A","veridical","STIM_SET_2_144/1159592.bmp_pp91_L3_V1.0_veridical_freeview_isoTrue_fps144.mp4",""
"null","","","html-keyboard-response","218","489153","0.0-218.0","91acsgym","","<span style=""color:Black; font-size:50px;"">Agent B","null","","","","",""
"null","","","video-keyboard-response","219","492230","0.0-219.0","91acsgym","","","null","","Agent B","scrambled","STIM_SET_5/1159592.bmp_pp91_L3_V1.0_veridical_freeview_isoTrue_Hflip_fps144.mp4",""
"","","","call-function","220","492231","0.0-220.0","91acsgym","","","","","","","",""
"2626.9749999999767","{""judgement"":0}","[0]","survey-likert","221","494859","0.0-221.0","91acsgym","","","","","","","","0"
"2385.6600000000326","{""confidence"":2}","[0]","survey-likert","222","497246","0.0-222.0","91acsgym","","","","","","","",""
"","","","call-function","223","497246","0.0-223.0","91acsgym","","","","","","","",""
"null","","","html-keyboard-response","224","498752","0.0-224.0","91acsgym","","<span style=""color:Black; font-size:50px;"">Agent A","null","","","","",""
"null","","","video-keyboard-response","225","501816","0.0-225.0","91acsgym","","","null","","Agent A","veridical","STIM_SET_2_144/498326.bmp_pp57_L1_V1.0_veridical_freeview_isoTrue_fps144.mp4",""
"null","","","html-keyboard-response","226","503317","0.0-226.0","91acsgym","","<span style=""color:Black; font-size:50px;"">Agent B","null","","","","",""
"null","","","video-keyboard-response","227","506380","0.0-227.0","91acsgym","","","null","","Agent B","scrambled","STIM_SET_5/498326.bmp_pp57_L1_V1.0_veridical_freeview_isoTrue_Hflip_fps144.mp4",""
"","","","call-function","228","506381","0.0-228.0","91acsgym","","","","","","","",""
"1539.9499999999534","{""judgement"":1}","[0]","survey-likert","229","507922","0.0-229.0","91acsgym","","","","","","","","0"
"1699.054999999993","{""confidence"":1}","[0]","survey-likert","230","509622","0.0-230.0","91acsgym","","","","","","","",""
"","","","call-function","231","509623","0.0-231.0","91acsgym","","","","","","","",""
"null","","","html-keyboard-response","232","511126","0.0-232.0","91acsgym","","<span style=""color:Black; font-size:50px;"">Agent A","null","","","","",""
"null","","","video-keyboard-response","233","514212","0.0-233.0","91acsgym","","","null","","Agent A","scrambled","STIM_SET_5/498258.bmp_pp51_L1_V1.0_veridical_freeview_isoTrue_Hflip_fps144.mp4",""
"null","","","html-keyboard-response","234","515716","0.0-234.0","91acsgym","","<span style=""color:Black; font-size:50px;"">Agent B","null","","","","",""
"null","","","video-keyboard-response","235","518801","0.0-235.0","91acsgym","","","null","","Agent B","veridical","STIM_SET_2_144/498258.bmp_pp51_L1_V1.0_veridical_freeview_isoTrue_fps144.mp4",""
"","","","call-function","236","518801","0.0-236.0","91acsgym","","","","","","","",""
"2168.350000000035","{""judgement"":0}","[0]","survey-likert","237","520971","0.0-237.0","91acsgym","","","","","","","","1"
"1478.0349999999744","{""confidence"":2}","[0]","survey-likert","238","522450","0.0-238.0","91acsgym","","","","","","","",""
"","","","call-function","239","522451","0.0-239.0","91acsgym","","","","","","","",""
"null","","","html-keyboard-response","240","523951","0.0-240.0","91acsgym","","<span style=""color:Black; font-size:50px;"">Agent A","null","","","","",""
"null","","","video-keyboard-response","241","527029","0.0-241.0","91acsgym","","","null","","Agent A","scrambled","STIM_SET_5/285932.bmp_pp64_L1_V1.0_veridical_freeview_isoTrue_Hflip_fps144.mp4",""
"null","","","html-keyboard-response","242","528535","0.0-242.0","91acsgym","","<span style=""color:Black; font-size:50px;"">Agent B","null","","","","",""
"null","","","video-keyboard-response","243","531611","0.0-243.0","91acsgym","","","null","","Agent B","veridical","STIM_SET_2_144/285932.bmp_pp64_L1_V1.0_veridical_freeview_isoTrue_fps144.mp4",""
"","","","call-function","244","531611","0.0-244.0","91acsgym","","","","","","","",""
"2499.70000000007","{""judgement"":0}","[0]","survey-likert","245","534112","0.0-245.0","91acsgym","","","","","","","","1"
"1515.8549999999814","{""confidence"":1}","[0]","survey-likert","246","535629","0.0-246.0","91acsgym","","","","","","","",""
"","","","call-function","247","535629","0.0-247.0","91acsgym","","","","","","","",""
"null","","","html-keyboard-response","248","537132","0.0-248.0","91acsgym","","<span style=""color:Black; font-size:50px;"">Agent A","null","","","","",""
"null","","","video-keyboard-response","249","540222","0.0-249.0","91acsgym","","","null","","Agent A","veridical","STIM_SET_2_144/1592168.bmp_pp71_L1_V1.0_veridical_freeview_isoTrue_fps144.mp4",""
"null","","","html-keyboard-response","250","541723","0.0-250.0","91acsgym","","<span style=""color:Black; font-size:50px;"">Agent B","null","","","","",""
"null","","","video-keyboard-response","251","544816","0.0-251.0","91acsgym","","","null","","Agent B","scrambled","STIM_SET_5/1592168.bmp_pp71_L1_V1.0_veridical_freeview_isoTrue_Hflip_fps144.mp4",""
"","","","call-function","252","544817","0.0-252.0","91acsgym","","","","","","","",""
"4007.3850000000093","{""judgement"":1}","[0]","survey-likert","253","548825","0.0-253.0","91acsgym","","","","","","","","0"
"1193.6850000000559","{""confidence"":1}","[0]","survey-likert","254","550020","0.0-254.0","91acsgym","","","","","","","",""
"2672.5200000000186","","","instructions","255","552694","0.0-255.0","91acsgym","[{""page_index"":0,""viewing_time"":1252.6949999999488},{""page_index"":1,""viewing_time"":1016.1500000000233},{""page_index"":2,""viewing_time"":403.09499999997206}]","","","","","","",""
"1231.2550000000047","","","instructions","256","553926","0.0-256.0","91acsgym","[{""page_index"":0,""viewing_time"":335.0649999999441},{""page_index"":1,""viewing_time"":424.9799999999814},{""page_index"":2,""viewing_time"":471.1050000000978}]","","","","","","",""
"","","","call-function","257","553927","0.0-257.0","91acsgym","","","","","","","",""
"null","","","html-keyboard-response","258","555428","0.0-258.0","91acsgym","","<span style=""color:Black; font-size:50px;"">Agent A","null","","","","",""
"null","","","video-keyboard-response","259","558493","0.0-259.0","91acsgym","","","null","","Agent A","scrambled","STIM_SET_5/61513.bmp_pp75_L1_V1.0_veridical_freeview_isoTrue_Hflip_fps144.mp4",""
"null","","","html-keyboard-response","260","559994","0.0-260.0","91acsgym","","<span style=""color:Black; font-size:50px;"">Agent B","null","","","","",""
"null","","","video-keyboard-response","261","563065","0.0-261.0","91acsgym","","","null","","Agent B","veridical","STIM_SET_2_144/61513.bmp_pp75_L1_V1.0_veridical_freeview_isoTrue_fps144.mp4",""
"","","","call-function","262","563065","0.0-262.0","91acsgym","","","","","","","",""
"2299.2149999999674","{""judgement"":0}","[0]","survey-likert","263","565365","0.0-263.0","91acsgym","","","","","","","","1"
"2077.1999999999534","{""confidence"":2}","[0]","survey-likert","264","567444","0.0-264.0","91acsgym","","","","","","","",""
"","","","call-function","265","567445","0.0-265.0","91acsgym","","","","","","","",""
"null","","","html-keyboard-response","266","568949","0.0-266.0","91acsgym","","<span style=""color:Black; font-size:50px;"">Agent A","null","","","","",""
"null","","","video-keyboard-response","267","572013","0.0-267.0","91acsgym","","","null","","Agent A","veridical","STIM_SET_2_144/713689.bmp_pp153_L3_V1.0_veridical_freeview_isoTrue_fps144.mp4",""
"null","","","html-keyboard-response","268","573518","0.0-268.0","91acsgym","","<span style=""color:Black; font-size:50px;"">Agent B","null","","","","",""
"null","","","video-keyboard-response","269","576579","0.0-269.0","91acsgym","","","null","","Agent B","scrambled","STIM_SET_5/713689.bmp_pp153_L3_V1.0_veridical_freeview_isoTrue_Hflip_fps144.mp4",""
"","","","call-function","270","576579","0.0-270.0","91acsgym","","","","","","","",""
"2299.9599999999627","{""judgement"":1}","[0]","survey-likert","271","578880","0.0-271.0","91acsgym","","","","","","","","0"
"1935.7449999999953","{""confidence"":2}","[0]","survey-likert","272","580818","0.0-272.0","91acsgym","","","","","","","",""
"","","","call-function","273","580818","0.0-273.0","91acsgym","","","","","","","",""
"null","","","html-keyboard-response","274","582320","0.0-274.0","91acsgym","","<span style=""color:Black; font-size:50px;"">Agent A","null","","","","",""
"null","","","video-keyboard-response","275","585397","0.0-275.0","91acsgym","","","null","","Agent A","veridical","STIM_SET_2_144/107955.bmp_pp90_L2_V1.0_veridical_freeview_isoTrue_fps144.mp4",""
"null","","","html-keyboard-response","276","586900","0.0-276.0","91acsgym","","<span style=""color:Black; font-size:50px;"">Agent B","null","","","","",""
"null","","","video-keyboard-response","277","589975","0.0-277.0","91acsgym","","","null","","Agent B","scrambled","STIM_SET_5/107955.bmp_pp90_L2_V1.0_veridical_freeview_isoTrue_Hflip_fps144.mp4",""
"","","","call-function","278","589976","0.0-278.0","91acsgym","","","","","","","",""
"3034.784999999916","{""judgement"":1}","[0]","survey-likert","279","593011","0.0-279.0","91acsgym","","","","","","","","0"
"1290.420000000042","{""confidence"":1}","[0]","survey-likert","280","594303","0.0-280.0","91acsgym","","","","","","","",""
"","","","call-function","281","594303","0.0-281.0","91acsgym","","","","","","","",""
"null","","","html-keyboard-response","282","595806","0.0-282.0","91acsgym","","<span style=""color:Black; font-size:50px;"">Agent A","null","","","","",""
"null","","","video-keyboard-response","283","598907","0.0-283.0","91acsgym","","","null","","Agent A","veridical","STIM_SET_2_144/498025.bmp_pp81_L1_V1.0_veridical_freeview_isoTrue_fps144.mp4",""
"null","","","html-keyboard-response","284","600411","0.0-284.0","91acsgym","","<span style=""color:Black; font-size:50px;"">Agent B","null","","","","",""
"null","","","video-keyboard-response","285","603509","0.0-285.0","91acsgym","","","null","","Agent B","scrambled","STIM_SET_5/498025.bmp_pp81_L1_V1.0_veridical_freeview_isoTrue_Hflip_fps144.mp4",""
"","","","call-function","286","603509","0.0-286.0","91acsgym","","","","","","","",""
"1529.8800000000047","{""judgement"":0}","[0]","survey-likert","287","605040","0.0-287.0","91acsgym","","","","","","","","0"
"1693.2100000000792","{""confidence"":3}","[0]","survey-likert","288","606734","0.0-288.0","91acsgym","","","","","","","",""
"","","","call-function","289","606735","0.0-289.0","91acsgym","","","","","","","",""
"null","","","html-keyboard-response","290","608238","0.0-290.0","91acsgym","","<span style=""color:Black; font-size:50px;"">Agent A","null","","","","",""
"null","","","video-keyboard-response","291","611316","0.0-291.0","91acsgym","","","null","","Agent A","veridical","STIM_SET_2_144/1592857.bmp_pp52_L1_V1_veridical_freeview_isoTrue_fps144.mp4",""
"null","","","html-keyboard-response","292","612819","0.0-292.0","91acsgym","","<span style=""color:Black; font-size:50px;"">Agent B","null","","","","",""
"null","","","video-keyboard-response","293","615916","0.0-293.0","91acsgym","","","null","","Agent B","scrambled","STIM_SET_5/1592857.bmp_pp52_L1_V1_veridical_freeview_isoTrue_Hflip_fps144.mp4",""
"","","","call-function","294","615917","0.0-294.0","91acsgym","","","","","","","",""
"2071.734999999986","{""judgement"":1}","[0]","survey-likert","295","617991","0.0-295.0","91acsgym","","","","","","","","0"
"1140.045000000042","{""confidence"":2}","[0]","survey-likert","296","619133","0.0-296.0","91acsgym","","","","","","","",""
"","","","call-function","297","619134","0.0-297.0","91acsgym","","","","","","","",""
"null","","","html-keyboard-response","298","620637","0.0-298.0","91acsgym","","<span style=""color:Black; font-size:50px;"">Agent A","null","","","","",""
"null","","","video-keyboard-response","299","623705","0.0-299.0","91acsgym","","","null","","Agent A","scrambled","STIM_SET_5/1159973.bmp_pp98_L1_V1.0_veridical_freeview_isoTrue_Hflip_fps144.mp4",""
"null","","","html-keyboard-response","300","625208","0.0-300.0","91acsgym","","<span style=""color:Black; font-size:50px;"">Agent B","null","","","","",""
"null","","","video-keyboard-response","301","628275","0.0-301.0","91acsgym","","","null","","Agent B","veridical","STIM_SET_2_144/1159973.bmp_pp98_L1_V1.0_veridical_freeview_isoTrue_fps144.mp4",""
"","","","call-function","302","628276","0.0-302.0","91acsgym","","","","","","","",""
"2096.9150000000373","{""judgement"":1}","[0]","survey-likert","303","630374","0.0-303.0","91acsgym","","","","","","","","1"
"1654.4749999999767","{""confidence"":2}","[0]","survey-likert","304","632030","0.0-304.0","91acsgym","","","","","","","",""
"","","","call-function","305","632031","0.0-305.0","91acsgym","","","","","","","",""
"null","","","html-keyboard-response","306","633537","0.0-306.0","91acsgym","","<span style=""color:Black; font-size:50px;"">Agent A","null","","","","",""
"null","","","video-keyboard-response","307","636600","0.0-307.0","91acsgym","","","null","","Agent A","veridical","STIM_SET_2_144/1591920.bmp_pp97_L3_V1_veridical_freeview_isoTrue_fps144.mp4",""
"null","","","html-keyboard-response","308","638104","0.0-308.0","91acsgym","","<span style=""color:Black; font-size:50px;"">Agent B","null","","","","",""
"null","","","video-keyboard-response","309","641179","0.0-309.0","91acsgym","","","null","","Agent B","scrambled","STIM_SET_5/1591920.bmp_pp97_L3_V1_veridical_freeview_isoTrue_Hflip_fps144.mp4",""
"","","","call-function","310","641180","0.0-310.0","91acsgym","","","","","","","",""
"2508.545000000042","{""judgement"":1}","[0]","survey-likert","311","643689","0.0-311.0","91acsgym","","","","","","","","0"
"1423.7850000000326","{""confidence"":2}","[0]","survey-likert","312","645114","0.0-312.0","91acsgym","","","","","","","",""
"","","","call-function","313","645115","0.0-313.0","91acsgym","","","","","","","",""
"null","","","html-keyboard-response","314","646618","0.0-314.0","91acsgym","","<span style=""color:Black; font-size:50px;"">Agent A","null","","","","",""
"null","","","video-keyboard-response","315","649715","0.0-315.0","91acsgym","","","null","","Agent A","veridical","STIM_SET_2_144/285946.bmp_pp79_L2_V1.0_veridical_freeview_isoTrue_fps144.mp4",""
"null","","","html-keyboard-response","316","651216","0.0-316.0","91acsgym","","<span style=""color:Black; font-size:50px;"">Agent B","null","","","","",""
"null","","","video-keyboard-response","317","654316","0.0-317.0","91acsgym","","","null","","Agent B","scrambled","STIM_SET_5/285946.bmp_pp79_L2_V1.0_veridical_freeview_isoTrue_Hflip_fps144.mp4",""
"","","","call-function","318","654316","0.0-318.0","91acsgym","","","","","","","",""
"2619.2600000000093","{""judgement"":1}","[0]","survey-likert","319","656936","0.0-319.0","91acsgym","","","","","","","","0"
"1658.7550000000047","{""confidence"":0}","[0]","survey-likert","320","658596","0.0-320.0","91acsgym","","","","","","","",""
"","","","call-function","321","658597","0.0-321.0","91acsgym","","","","","","","",""
"null","","","html-keyboard-response","322","660099","0.0-322.0","91acsgym","","<span style=""color:Black; font-size:50px;"">Agent A","null","","","","",""
"null","","","video-keyboard-response","323","663181","0.0-323.0","91acsgym","","","null","","Agent A","scrambled","STIM_SET_5/498398.bmp_pp81_L1_V1.0_veridical_freeview_isoTrue_Hflip_fps144.mp4",""
"null","","","html-keyboard-response","324","664685","0.0-324.0","91acsgym","","<span style=""color:Black; font-size:50px;"">Agent B","null","","","","",""
"null","","","video-keyboard-response","325","667760","0.0-325.0","91acsgym","","","null","","Agent B","veridical","STIM_SET_2_144/498398.bmp_pp81_L1_V1.0_veridical_freeview_isoTrue_fps144.mp4",""
"","","","call-function","326","667761","0.0-326.0","91acsgym","","","","","","","",""
"2650.6350000000093","{""judgement"":0}","[0]","survey-likert","327","670412","0.0-327.0","91acsgym","","","","","","","","1"
"1597.7750000000233","{""confidence"":2}","[0]","survey-likert","328","672011","0.0-328.0","91acsgym","","","","","","","",""
"","","","call-function","329","672012","0.0-329.0","91acsgym","","","","","","","",""
"null","","","html-keyboard-response","330","673514","0.0-330.0","91acsgym","","<span style=""color:Black; font-size:50px;"">Agent A","null","","","","",""
"null","","","video-keyboard-response","331","676602","0.0-331.0","91acsgym","","","null","","Agent A","veridical","STIM_SET_2_144/713633.bmp_pp58_L1_V1.0_veridical_freeview_isoTrue_fps144.mp4",""
"null","","","html-keyboard-response","332","678108","0.0-332.0","91acsgym","","<span style=""color:Black; font-size:50px;"">Agent B","null","","","","",""
"null","","","video-keyboard-response","333","681184","0.0-333.0","91acsgym","","","null","","Agent B","scrambled","STIM_SET_5/713633.bmp_pp58_L1_V1.0_veridical_freeview_isoTrue_Hflip_fps144.mp4",""
"","","","call-function","334","681185","0.0-334.0","91acsgym","","","","","","","",""
"8848.75","{""judgement"":0}","[0]","survey-likert","335","690035","0.0-335.0","91acsgym","","","","","","","","0"
"1599.3349999999627","{""confidence"":2}","[0]","survey-likert","336","691635","0.0-336.0","91acsgym","","","","","","","",""
"15064.119999999995","","","instructions","337","706701","0.0-337.0","91acsgym","[{""page_index"":0,""viewing_time"":13416.755000000005},{""page_index"":1,""viewing_time"":1478.9350000000559},{""page_index"":2,""viewing_time"":168.22499999997672}]","","","","","","",""
"1551.030000000028","","","instructions","338","708253","0.0-338.0","91acsgym","[{""page_index"":0,""viewing_time"":190.17499999993015},{""page_index"":1,""viewing_time"":768.6800000000512},{""page_index"":2,""viewing_time"":591.3299999999581}]","","","","","","",""
"","","","call-function","339","708255","0.0-339.0","91acsgym","","","","","","","",""
"null","","","html-keyboard-response","340","709759","0.0-340.0","91acsgym","","<span style=""color:Black; font-size:50px;"">Agent A","null","","","","",""
"null","","","video-keyboard-response","341","712834","0.0-341.0","91acsgym","","","null","","Agent A","scrambled","STIM_SET_5/107909.bmp_pp95_L2_V1.0_veridical_freeview_isoTrue_Hflip_fps144.mp4",""
"null","","","html-keyboard-response","342","714337","0.0-342.0","91acsgym","","<span style=""color:Black; font-size:50px;"">Agent B","null","","","","",""
"null","","","video-keyboard-response","343","717414","0.0-343.0","91acsgym","","","null","","Agent B","veridical","STIM_SET_2_144/107909.bmp_pp95_L2_V1.0_veridical_freeview_isoTrue_fps144.mp4",""
"","","","call-function","344","717415","0.0-344.0","91acsgym","","","","","","","",""
"2108.3499999999767","{""judgement"":1}","[0]","survey-likert","345","719524","0.0-345.0","91acsgym","","","","","","","","1"
"2600.2399999999907","{""confidence"":2}","[0]","survey-likert","346","722126","0.0-346.0","91acsgym","","","","","","","",""
"","","","call-function","347","722127","0.0-347.0","91acsgym","","","","","","","",""
"null","","","html-keyboard-response","348","723629","0.0-348.0","91acsgym","","<span style=""color:Black; font-size:50px;"">Agent A","null","","","","",""
"null","","","video-keyboard-response","349","726703","0.0-349.0","91acsgym","","","null","","Agent A","scrambled","STIM_SET_5/713381.bmp_pp82_L2_V1.0_veridical_freeview_isoTrue_Hflip_fps144.mp4",""
"null","","","html-keyboard-response","350","728205","0.0-350.0","91acsgym","","<span style=""color:Black; font-size:50px;"">Agent B","null","","","","",""
"null","","","video-keyboard-response","351","731282","0.0-351.0","91acsgym","","","null","","Agent B","veridical","STIM_SET_2_144/713381.bmp_pp82_L2_V1.0_veridical_freeview_isoTrue_fps144.mp4",""
"","","","call-function","352","731282","0.0-352.0","91acsgym","","","","","","","",""
"2662.7850000000326","{""judgement"":1}","[0]","survey-likert","353","733946","0.0-353.0","91acsgym","","","","","","","","1"
"2798.0749999999534","{""confidence"":2}","[0]","survey-likert","354","736745","0.0-354.0","91acsgym","","","","","","","",""
"","","","call-function","355","736746","0.0-355.0","91acsgym","","","","","","","",""
"null","","","html-keyboard-response","356","738249","0.0-356.0","91acsgym","","<span style=""color:Black; font-size:50px;"">Agent A","null","","","","",""
"null","","","video-keyboard-response","357","741342","0.0-357.0","91acsgym","","","null","","Agent A","veridical","STIM_SET_2_144/713742.bmp_pp91_L3_V1.0_veridical_freeview_isoTrue_fps144.mp4",""
"null","","","html-keyboard-response","358","742850","0.0-358.0","91acsgym","","<span style=""color:Black; font-size:50px;"">Agent B","null","","","","",""
"null","","","video-keyboard-response","359","745938","0.0-359.0","91acsgym","","","null","","Agent B","scrambled","STIM_SET_5/713742.bmp_pp91_L3_V1.0_veridical_freeview_isoTrue_Hflip_fps144.mp4",""
"","","","call-function","360","745939","0.0-360.0","91acsgym","","","","","","","",""
"5339.805000000051","{""judgement"":1}","[0]","survey-likert","361","751279","0.0-361.0","91acsgym","","","","","","","","0"
"2377.054999999935","{""confidence"":2}","[0]","survey-likert","362","753658","0.0-362.0","91acsgym","","","","","","","",""
"","","","call-function","363","753658","0.0-363.0","91acsgym","","","","","","","",""
"null","","","html-keyboard-response","364","755162","0.0-364.0","91acsgym","","<span style=""color:Black; font-size:50px;"">Agent A","null","","","","",""
"null","","","video-keyboard-response","365","758246","0.0-365.0","91acsgym","","","null","","Agent A","scrambled","STIM_SET_5/1592530.bmp_pp75_L1_V1.0_veridical_freeview_isoTrue_Hflip_fps144.mp4",""
"null","","","html-keyboard-response","366","759751","0.0-366.0","91acsgym","","<span style=""color:Black; font-size:50px;"">Agent B","null","","","","",""
"null","","","video-keyboard-response","367","762835","0.0-367.0","91acsgym","","","null","","Agent B","veridical","STIM_SET_2_144/1592530.bmp_pp75_L1_V1.0_veridical_freeview_isoTrue_fps144.mp4",""
"","","","call-function","368","762836","0.0-368.0","91acsgym","","","","","","","",""
"1753.7849999999162","{""judgement"":0}","[0]","survey-likert","369","764590","0.0-369.0","91acsgym","","","","","","","","1"
"1237.9500000000698","{""confidence"":2}","[0]","survey-likert","370","765829","0.0-370.0","91acsgym","","","","","","","",""
"","","","call-function","371","765830","0.0-371.0","91acsgym","","","","","","","",""
"null","","","html-keyboard-response","372","767332","0.0-372.0","91acsgym","","<span style=""color:Black; font-size:50px;"">Agent A","null","","","","",""
"null","","","video-keyboard-response","373","770413","0.0-373.0","91acsgym","","","null","","Agent A","scrambled","STIM_SET_5/1592289.bmp_pp92_L3_V1.0_veridical_freeview_isoTrue_Hflip_fps144.mp4",""
"null","","","html-keyboard-response","374","771915","0.0-374.0","91acsgym","","<span style=""color:Black; font-size:50px;"">Agent B","null","","","","",""
"null","","","video-keyboard-response","375","775002","0.0-375.0","91acsgym","","","null","","Agent B","veridical","STIM_SET_2_144/1592289.bmp_pp92_L3_V1.0_veridical_freeview_isoTrue_fps144.mp4",""
"","","","call-function","376","775003","0.0-376.0","91acsgym","","","","","","","",""
"1985.3499999999767","{""judgement"":1}","[0]","survey-likert","377","776990","0.0-377.0","91acsgym","","","","","","","","1"
"1712.829999999958","{""confidence"":2}","[0]","survey-likert","378","778704","0.0-378.0","91acsgym","","","","","","","",""
"","","","call-function","379","778704","0.0-379.0","91acsgym","","","","","","","",""
"null","","","html-keyboard-response","380","780207","0.0-380.0","91acsgym","","<span style=""color:Black; font-size:50px;"">Agent A","null","","","","",""
"null","","","video-keyboard-response","381","783282","0.0-381.0","91acsgym","","","null","","Agent A","scrambled","STIM_SET_5/1160247.bmp_pp54_L2_V1.0_veridical_freeview_isoTrue_Hflip_fps144.mp4",""
"null","","","html-keyboard-response","382","784786","0.0-382.0","91acsgym","","<span style=""color:Black; font-size:50px;"">Agent B","null","","","","",""
"null","","","video-keyboard-response","383","787864","0.0-383.0","91acsgym","","","null","","Agent B","veridical","STIM_SET_2_144/1160247.bmp_pp54_L2_V1.0_veridical_freeview_isoTrue_fps144.mp4",""
"","","","call-function","384","787865","0.0-384.0","91acsgym","","","","","","","",""
"4458.314999999944","{""judgement"":1}","[0]","survey-likert","385","792325","0.0-385.0","91acsgym","","","","","","","","1"
"1723.594999999972","{""confidence"":2}","[0]","survey-likert","386","794049","0.0-386.0","91acsgym","","","","","","","",""
"","","","call-function","387","794050","0.0-387.0","91acsgym","","","","","","","",""
"null","","","html-keyboard-response","388","795553","0.0-388.0","91acsgym","","<span style=""color:Black; font-size:50px;"">Agent A","null","","","","",""
"null","","","video-keyboard-response","389","798618","0.0-389.0","91acsgym","","","null","","Agent A","scrambled","STIM_SET_5/285684.bmp_pp80_L3_V1.0_veridical_freeview_isoTrue_Hflip_fps144.mp4",""
"null","","","html-keyboard-response","390","800120","0.0-390.0","91acsgym","","<span style=""color:Black; font-size:50px;"">Agent B","null","","","","",""
"null","","","video-keyboard-response","391","803181","0.0-391.0","91acsgym","","","null","","Agent B","veridical","STIM_SET_2_144/285684.bmp_pp80_L3_V1.0_veridical_freeview_isoTrue_fps144.mp4",""
"","","","call-function","392","803182","0.0-392.0","91acsgym","","","","","","","",""
"1520.0749999999534","{""judgement"":1}","[0]","survey-likert","393","804703","0.0-393.0","91acsgym","","","","","","","","1"
"1113.344999999972","{""confidence"":2}","[0]","survey-likert","394","805818","0.0-394.0","91acsgym","","","","","","","",""
"","","","call-function","395","805818","0.0-395.0","91acsgym","","","","","","","",""
"null","","","html-keyboard-response","396","807325","0.0-396.0","91acsgym","","<span style=""color:Black; font-size:50px;"">Agent A","null","","","","",""
"null","","","video-keyboard-response","397","810401","0.0-397.0","91acsgym","","","null","","Agent A","veridical","STIM_SET_2_144/1159325.bmp_pp67_L2_V1.0_veridical_freeview_isoTrue_fps144.mp4",""
"null","","","html-keyboard-response","398","811905","0.0-398.0","91acsgym","","<span style=""color:Black; font-size:50px;"">Agent B","null","","","","",""
"null","","","video-keyboard-response","399","814979","0.0-399.0","91acsgym","","","null","","Agent B","scrambled","STIM_SET_5/1159325.bmp_pp67_L2_V1.0_veridical_freeview_isoTrue_Hflip_fps144.mp4",""
"","","","call-function","400","814980","0.0-400.0","91acsgym","","","","","","","",""
"2074.5050000000047","{""judgement"":1}","[0]","survey-likert","401","817056","0.0-401.0","91acsgym","","","","","","","","0"
"1707.0350000000326","{""confidence"":1}","[0]","survey-likert","402","818764","0.0-402.0","91acsgym","","","","","","","",""
"","","","call-function","403","818764","0.0-403.0","91acsgym","","","","","","","",""
"null","","","html-keyboard-response","404","820267","0.0-404.0","91acsgym","","<span style=""color:Black; font-size:50px;"">Agent A","null","","","","",""
"null","","","video-keyboard-response","405","823353","0.0-405.0","91acsgym","","","null","","Agent A","scrambled","STIM_SET_5/1592305.bmp_pp65_L3_V1.0_veridical_freeview_isoTrue_Hflip_fps144.mp4",""
"null","","","html-keyboard-response","406","824860","0.0-406.0","91acsgym","","<span style=""color:Black; font-size:50px;"">Agent B","null","","","","",""
"null","","","video-keyboard-response","407","827943","0.0-407.0","91acsgym","","","null","","Agent B","veridical","STIM_SET_2_144/1592305.bmp_pp65_L3_V1.0_veridical_freeview_isoTrue_fps144.mp4",""
"","","","call-function","408","827943","0.0-408.0","91acsgym","","","","","","","",""
"1460.8850000000093","{""judgement"":0}","[0]","survey-likert","409","829405","0.0-409.0","91acsgym","","","","","","","","1"
"2153.195000000065","{""confidence"":2}","[0]","survey-likert","410","831560","0.0-410.0","91acsgym","","","","","","","",""
"","","","call-function","411","831561","0.0-411.0","91acsgym","","","","","","","",""
"null","","","html-keyboard-response","412","833064","0.0-412.0","91acsgym","","<span style=""color:Black; font-size:50px;"">Agent A","null","","","","",""
"null","","","video-keyboard-response","413","836156","0.0-413.0","91acsgym","","","null","","Agent A","scrambled","STIM_SET_5/285959.bmp_pp93_L1_V1.0_veridical_freeview_isoTrue_Hflip_fps144.mp4",""
"null","","","html-keyboard-response","414","837662","0.0-414.0","91acsgym","","<span style=""color:Black; font-size:50px;"">Agent B","null","","","","",""
"null","","","video-keyboard-response","415","840745","0.0-415.0","91acsgym","","","null","","Agent B","veridical","STIM_SET_2_144/285959.bmp_pp93_L1_V1.0_veridical_freeview_isoTrue_fps144.mp4",""
"","","","call-function","416","840746","0.0-416.0","91acsgym","","","","","","","",""
"3039.530000000028","{""judgement"":1}","[0]","survey-likert","417","843787","0.0-417.0","91acsgym","","","","","","","","1"
"1789.375","{""confidence"":1}","[0]","survey-likert","418","845578","0.0-418.0","91acsgym","","","","","","","",""
"85634.19999999995","","","instructions","419","931214","0.0-419.0","91acsgym","[{""page_index"":0,""viewing_time"":2199.7550000000047},{""page_index"":1,""viewing_time"":82898.04000000004},{""page_index"":2,""viewing_time"":535.484999999986}]","","","","","","",""
"4663.2200000000885","","","instructions","420","935877","0.0-420.0","91acsgym","[{""page_index"":0,""viewing_time"":318.58500000007916},{""page_index"":1,""viewing_time"":351.94999999995343},{""page_index"":2,""viewing_time"":3991.8800000000047}]","","","","","","",""
"","","","call-function","421","935878","0.0-421.0","91acsgym","","","","","","","",""
"662.0749999999534","","","html-keyboard-response","422","936541","0.0-422.0","91acsgym","","<span style=""color:Black; font-size:50px;"">Agent A","39","","","","",""
"null","","","video-keyboard-response","423","939604","0.0-423.0","91acsgym","","","null","","Agent A","scrambled","STIM_SET_5/1592314.bmp_pp100_L3_V1.0_veridical_freeview_isoTrue_Hflip_fps144.mp4",""
"null","","","html-keyboard-response","424","941111","0.0-424.0","91acsgym","","<span style=""color:Black; font-size:50px;"">Agent B","null","","","","",""
"null","","","video-keyboard-response","425","944175","0.0-425.0","91acsgym","","","null","","Agent B","veridical","STIM_SET_2_144/1592314.bmp_pp100_L3_V1.0_veridical_freeview_isoTrue_fps144.mp4",""
"","","","call-function","426","944176","0.0-426.0","91acsgym","","","","","","","",""
"2482.6300000000047","{""judgement"":0}","[0]","survey-likert","427","946659","0.0-427.0","91acsgym","","","","","","","","1"
"2241.0250000000233","{""confidence"":0}","[0]","survey-likert","428","948902","0.0-428.0","91acsgym","","","","","","","",""
"","","","call-function","429","948902","0.0-429.0","91acsgym","","","","","","","",""
"null","","","html-keyboard-response","430","950409","0.0-430.0","91acsgym","","<span style=""color:Black; font-size:50px;"">Agent A","null","","","","",""
"null","","","video-keyboard-response","431","953471","0.0-431.0","91acsgym","","","null","","Agent A","veridical","STIM_SET_2_144/1592150.bmp_pp77_L3_V1.0_veridical_freeview_isoTrue_fps144.mp4",""
"null","","","html-keyboard-response","432","954977","0.0-432.0","91acsgym","","<span style=""color:Black; font-size:50px;"">Agent B","null","","","","",""
"null","","","video-keyboard-response","433","958040","0.0-433.0","91acsgym","","","null","","Agent B","scrambled","STIM_SET_5/1592150.bmp_pp77_L3_V1.0_veridical_freeview_isoTrue_Hflip_fps144.mp4",""
"","","","call-function","434","958041","0.0-434.0","91acsgym","","","","","","","",""
"2233.8950000000186","{""judgement"":1}","[0]","survey-likert","435","960276","0.0-435.0","91acsgym","","","","","","","","0"
"2501.695000000065","{""confidence"":1}","[0]","survey-likert","436","962779","0.0-436.0","91acsgym","","","","","","","",""
"","","","call-function","437","962780","0.0-437.0","91acsgym","","","","","","","",""
"null","","","html-keyboard-response","438","964283","0.0-438.0","91acsgym","","<span style=""color:Black; font-size:50px;"">Agent A","null","","","","",""
"null","","","video-keyboard-response","439","967361","0.0-439.0","91acsgym","","","null","","Agent A","scrambled","STIM_SET_5/1592567.bmp_pp70_L2_V1.0_veridical_freeview_isoTrue_Hflip_fps144.mp4",""
"null","","","html-keyboard-response","440","968864","0.0-440.0","91acsgym","","<span style=""color:Black; font-size:50px;"">Agent B","null","","","","",""
"null","","","video-keyboard-response","441","971938","0.0-441.0","91acsgym","","","null","","Agent B","veridical","STIM_SET_2_144/1592567.bmp_pp70_L2_V1.0_veridical_freeview_isoTrue_fps144.mp4",""
"","","","call-function","442","971938","0.0-442.0","91acsgym","","","","","","","",""
"2016.8600000001024","{""judgement"":0}","[0]","survey-likert","443","973956","0.0-443.0","91acsgym","","","","","","","","1"
"1482.1049999999814","{""confidence"":2}","[0]","survey-likert","444","975440","0.0-444.0","91acsgym","","","","","","","",""
"","","","call-function","445","975440","0.0-445.0","91acsgym","","","","","","","",""
"null","","","html-keyboard-response","446","976943","0.0-446.0","91acsgym","","<span style=""color:Black; font-size:50px;"">Agent A","null","","","","",""
"null","","","video-keyboard-response","447","980022","0.0-447.0","91acsgym","","","null","","Agent A","scrambled","STIM_SET_5/1591975.bmp_pp88_L2_V1.0_veridical_freeview_isoTrue_Hflip_fps144.mp4",""
"null","","","html-keyboard-response","448","981525","0.0-448.0","91acsgym","","<span style=""color:Black; font-size:50px;"">Agent B","null","","","","",""
"null","","","video-keyboard-response","449","984599","0.0-449.0","91acsgym","","","null","","Agent B","veridical","STIM_SET_2_144/1591975.bmp_pp88_L2_V1.0_veridical_freeview_isoTrue_fps144.mp4",""
"","","","call-function","450","984600","0.0-450.0","91acsgym","","","","","","","",""
"1676.3100000000559","{""judgement"":1}","[0]","survey-likert","451","986277","0.0-451.0","91acsgym","","","","","","","","1"
"1680.5050000000047","{""confidence"":2}","[0]","survey-likert","452","987959","0.0-452.0","91acsgym","","","","","","","",""
"","","","call-function","453","987960","0.0-453.0","91acsgym","","","","","","","",""
"null","","","html-keyboard-response","454","989460","0.0-454.0","91acsgym","","<span style=""color:Black; font-size:50px;"">Agent A","null","","","","",""
"null","","","video-keyboard-response","455","992540","0.0-455.0","91acsgym","","","null","","Agent A","veridical","STIM_SET_2_144/1160204.bmp_pp54_L2_V1.0_veridical_freeview_isoTrue_fps144.mp4",""
"null","","","html-keyboard-response","456","994043","0.0-456.0","91acsgym","","<span style=""color:Black; font-size:50px;"">Agent B","null","","","","",""
"null","","","video-keyboard-response","457","997126","0.0-457.0","91acsgym","","","null","","Agent B","scrambled","STIM_SET_5/1160204.bmp_pp54_L2_V1.0_veridical_freeview_isoTrue_Hflip_fps144.mp4",""
"","","","call-function","458","997127","0.0-458.0","91acsgym","","","","","","","",""
"2522.710000000079","{""judgement"":0}","[0]","survey-likert","459","999650","0.0-459.0","91acsgym","","","","","","","","0"
"1331.5050000000047","{""confidence"":3}","[0]","survey-likert","460","1000983","0.0-460.0","91acsgym","","","","","","","",""
"","","","call-function","461","1000984","0.0-461.0","91acsgym","","","","","","","",""
"null","","","html-keyboard-response","462","1002486","0.0-462.0","91acsgym","","<span style=""color:Black; font-size:50px;"">Agent A","null","","","","",""
"null","","","video-keyboard-response","463","1005545","0.0-463.0","91acsgym","","","null","","Agent A","veridical","STIM_SET_2_144/1592129.bmp_pp153_L3_V1.0_veridical_freeview_isoTrue_fps144.mp4",""
"null","","","html-keyboard-response","464","1007050","0.0-464.0","91acsgym","","<span style=""color:Black; font-size:50px;"">Agent B","null","","","","",""
"null","","","video-keyboard-response","465","1010114","0.0-465.0","91acsgym","","","null","","Agent B","scrambled","STIM_SET_5/1592129.bmp_pp153_L3_V1.0_veridical_freeview_isoTrue_Hflip_fps144.mp4",""
"","","","call-function","466","1010115","0.0-466.0","91acsgym","","","","","","","",""
"3256.9100000000326","{""judgement"":0}","[0]","survey-likert","467","1013373","0.0-467.0","91acsgym","","","","","","","","0"
"1562.4799999999814","{""confidence"":2}","[0]","survey-likert","468","1014937","0.0-468.0","91acsgym","","","","","","","",""
"","","","call-function","469","1014937","0.0-469.0","91acsgym","","","","","","","",""
"null","","","html-keyboard-response","470","1016441","0.0-470.0","91acsgym","","<span style=""color:Black; font-size:50px;"">Agent A","null","","","","",""
"null","","","video-keyboard-response","471","1019515","0.0-471.0","91acsgym","","","null","","Agent A","scrambled","STIM_SET_5/713858.bmp_pp57_L1_V1.0_veridical_freeview_isoTrue_Hflip_fps144.mp4",""
"null","","","html-keyboard-response","472","1021018","0.0-472.0","91acsgym","","<span style=""color:Black; font-size:50px;"">Agent B","null","","","","",""
"null","","","video-keyboard-response","473","1024095","0.0-473.0","91acsgym","","","null","","Agent B","veridical","STIM_SET_2_144/713858.bmp_pp57_L1_V1.0_veridical_freeview_isoTrue_fps144.mp4",""
"","","","call-function","474","1024097","0.0-474.0","91acsgym","","","","","","","",""
"1684.5200000000186","{""judgement"":0}","[0]","survey-likert","475","1025783","0.0-475.0","91acsgym","","","","","","","","1"
"1331.5700000000652","{""confidence"":2}","[0]","survey-likert","476","1027116","0.0-476.0","91acsgym","","","","","","","",""
"","","","call-function","477","1027116","0.0-477.0","91acsgym","","","","","","","",""
"null","","","html-keyboard-response","478","1028619","0.0-478.0","91acsgym","","<span style=""color:Black; font-size:50px;"">Agent A","null","","","","",""
"null","","","video-keyboard-response","479","1031687","0.0-479.0","91acsgym","","","null","","Agent A","scrambled","STIM_SET_5/1159956.bmp_pp59_L3_V1.0_veridical_freeview_isoTrue_Hflip_fps144.mp4",""
"null","","","html-keyboard-response","480","1033190","0.0-480.0","91acsgym","","<span style=""color:Black; font-size:50px;"">Agent B","null","","","","",""
"null","","","video-keyboard-response","481","1036257","0.0-481.0","91acsgym","","","null","","Agent B","veridical","STIM_SET_2_144/1159956.bmp_pp59_L3_V1.0_veridical_freeview_isoTrue_fps144.mp4",""
"","","","call-function","482","1036258","0.0-482.0","91acsgym","","","","","","","",""
"1600.3649999999907","{""judgement"":0}","[0]","survey-likert","483","1037859","0.0-483.0","91acsgym","","","","","","","","1"
"1241.469999999972","{""confidence"":1}","[0]","survey-likert","484","1039102","0.0-484.0","91acsgym","","","","","","","",""
"","","","call-function","485","1039103","0.0-485.0","91acsgym","","","","","","","",""
"null","","","html-keyboard-response","486","1040604","0.0-486.0","91acsgym","","<span style=""color:Black; font-size:50px;"">Agent A","null","","","","",""
"null","","","video-keyboard-response","487","1043673","0.0-487.0","91acsgym","","","null","","Agent A","scrambled","STIM_SET_5/498261.bmp_pp84_L3_V1.0_veridical_freeview_isoTrue_Hflip_fps144.mp4",""
"null","","","html-keyboard-response","488","1045175","0.0-488.0","91acsgym","","<span style=""color:Black; font-size:50px;"">Agent B","null","","","","",""
"null","","","video-keyboard-response","489","1048264","0.0-489.0","91acsgym","","","null","","Agent B","veridical","STIM_SET_2_144/498261.bmp_pp84_L3_V1.0_veridical_freeview_isoTrue_fps144.mp4",""
"","","","call-function","490","1048264","0.0-490.0","91acsgym","","","","","","","",""
"2112.305000000051","{""judgement"":0}","[0]","survey-likert","491","1050377","0.0-491.0","91acsgym","","","","","","","","1"
"1420.844999999972","{""confidence"":2}","[0]","survey-likert","492","1051799","0.0-492.0","91acsgym","","","","","","","",""
"","","","call-function","493","1051800","0.0-493.0","91acsgym","","","","","","","",""
"null","","","html-keyboard-response","494","1053306","0.0-494.0","91acsgym","","<span style=""color:Black; font-size:50px;"">Agent A","null","","","","",""
"null","","","video-keyboard-response","495","1056380","0.0-495.0","91acsgym","","","null","","Agent A","veridical","STIM_SET_2_144/713328.bmp_pp86_L2_V1.0_veridical_freeview_isoTrue_fps144.mp4",""
"null","","","html-keyboard-response","496","1057887","0.0-496.0","91acsgym","","<span style=""color:Black; font-size:50px;"">Agent B","null","","","","",""
"null","","","video-keyboard-response","497","1060962","0.0-497.0","91acsgym","","","null","","Agent B","scrambled","STIM_SET_5/713328.bmp_pp86_L2_V1.0_veridical_freeview_isoTrue_Hflip_fps144.mp4",""
"","","","call-function","498","1060962","0.0-498.0","91acsgym","","","","","","","",""
"2195.5","{""judgement"":1}","[0]","survey-likert","499","1063159","0.0-499.0","91acsgym","","","","","","","","0"
"2539.054999999935","{""confidence"":2}","[0]","survey-likert","500","1065699","0.0-500.0","91acsgym","","","","","","","",""
"2618.755000000121","","","instructions","501","1068318","0.0-501.0","91acsgym","[{""page_index"":0,""viewing_time"":1285.6950000000652},{""page_index"":1,""viewing_time"":1001.0400000000373},{""page_index"":2,""viewing_time"":331.8699999998789}]","","","","","","",""
"862.3050000001676","","","instructions","502","1069181","0.0-502.0","91acsgym","[{""page_index"":0,""viewing_time"":146.62000000011176},{""page_index"":1,""viewing_time"":237.03000000002794},{""page_index"":2,""viewing_time"":478.5449999999255}]","","","","","","",""
"","","","call-function","503","1069182","0.0-503.0","91acsgym","","","","","","","",""
"null","","","html-keyboard-response","504","1070688","0.0-504.0","91acsgym","","<span style=""color:Black; font-size:50px;"">Agent A","null","","","","",""
"null","","","video-keyboard-response","505","1073769","0.0-505.0","91acsgym","","","null","","Agent A","veridical","STIM_SET_2_144/1159819.bmp_pp151_L1_V1.0_veridical_freeview_isoTrue_fps144.mp4",""
"null","","","html-keyboard-response","506","1075275","0.0-506.0","91acsgym","","<span style=""color:Black; font-size:50px;"">Agent B","null","","","","",""
"null","","","video-keyboard-response","507","1078358","0.0-507.0","91acsgym","","","null","","Agent B","scrambled","STIM_SET_5/1159819.bmp_pp151_L1_V1.0_veridical_freeview_isoTrue_Hflip_fps144.mp4",""
"","","","call-function","508","1078359","0.0-508.0","91acsgym","","","","","","","",""
"2279.8350000001956","{""judgement"":0}","[0]","survey-likert","509","1080639","0.0-509.0","91acsgym","","","","","","","","0"
"2224.0200000000186","{""confidence"":1}","[0]","survey-likert","510","1082864","0.0-510.0","91acsgym","","","","","","","",""
"","","","call-function","511","1082865","0.0-511.0","91acsgym","","","","","","","",""
"null","","","html-keyboard-response","512","1084368","0.0-512.0","91acsgym","","<span style=""color:Black; font-size:50px;"">Agent A","null","","","","",""
"null","","","video-keyboard-response","513","1087443","0.0-513.0","91acsgym","","","null","","Agent A","veridical","STIM_SET_2_144/713790.bmp_pp100_L3_V1_veridical_freeview_isoTrue_fps144.mp4",""
"null","","","html-keyboard-response","514","1088945","0.0-514.0","91acsgym","","<span style=""color:Black; font-size:50px;"">Agent B","null","","","","",""
"null","","","video-keyboard-response","515","1092041","0.0-515.0","91acsgym","","","null","","Agent B","scrambled","STIM_SET_5/713790.bmp_pp100_L3_V1_veridical_freeview_isoTrue_Hflip_fps144.mp4",""
"","","","call-function","516","1092041","0.0-516.0","91acsgym","","","","","","","",""
"2010.280000000028","{""judgement"":1}","[0]","survey-likert","517","1094053","0.0-517.0","91acsgym","","","","","","","","0"
"1369.7600000000093","{""confidence"":2}","[0]","survey-likert","518","1095424","0.0-518.0","91acsgym","","","","","","","",""
"","","","call-function","519","1095424","0.0-519.0","91acsgym","","","","","","","",""
"null","","","html-keyboard-response","520","1096929","0.0-520.0","91acsgym","","<span style=""color:Black; font-size:50px;"">Agent A","null","","","","",""
"null","","","video-keyboard-response","521","1099996","0.0-521.0","91acsgym","","","null","","Agent A","scrambled","STIM_SET_5/1592350.bmp_pp55_L3_V1.0_veridical_freeview_isoTrue_Hflip_fps144.mp4",""
"null","","","html-keyboard-response","522","1101499","0.0-522.0","91acsgym","","<span style=""color:Black; font-size:50px;"">Agent B","null","","","","",""
"null","","","video-keyboard-response","523","1104566","0.0-523.0","91acsgym","","","null","","Agent B","veridical","STIM_SET_2_144/1592350.bmp_pp55_L3_V1.0_veridical_freeview_isoTrue_fps144.mp4",""
"","","","call-function","524","1104567","0.0-524.0","91acsgym","","","","","","","",""
"2074.7600000000093","{""judgement"":0}","[0]","survey-likert","525","1106643","0.0-525.0","91acsgym","","","","","","","","1"
"1868.5400000000373","{""confidence"":2}","[0]","survey-likert","526","1108514","0.0-526.0","91acsgym","","","","","","","",""
"","","","call-function","527","1108515","0.0-527.0","91acsgym","","","","","","","",""
"null","","","html-keyboard-response","528","1110019","0.0-528.0","91acsgym","","<span style=""color:Black; font-size:50px;"">Agent A","null","","","","",""
"null","","","video-keyboard-response","529","1113088","0.0-529.0","91acsgym","","","null","","Agent A","veridical","STIM_SET_2_144/1592298.bmp_pp56_L3_V1.0_veridical_freeview_isoTrue_fps144.mp4",""
"null","","","html-keyboard-response","530","1114591","0.0-530.0","91acsgym","","<span style=""color:Black; font-size:50px;"">Agent B","null","","","","",""
"null","","","video-keyboard-response","531","1117659","0.0-531.0","91acsgym","","","null","","Agent B","scrambled","STIM_SET_5/1592298.bmp_pp56_L3_V1.0_veridical_freeview_isoTrue_Hflip_fps144.mp4",""
"","","","call-function","532","1117660","0.0-532.0","91acsgym","","","","","","","",""
"2257.905000000028","{""judgement"":1}","[0]","survey-likert","533","1119919","0.0-533.0","91acsgym","","","","","","","","0"
"2238.7600000000093","{""confidence"":2}","[0]","survey-likert","534","1122159","0.0-534.0","91acsgym","","","","","","","",""
"","","","call-function","535","1122160","0.0-535.0","91acsgym","","","","","","","",""
"null","","","html-keyboard-response","536","1123664","0.0-536.0","91acsgym","","<span style=""color:Black; font-size:50px;"">Agent A","null","","","","",""
"null","","","video-keyboard-response","537","1126740","0.0-537.0","91acsgym","","","null","","Agent A","scrambled","STIM_SET_5/498372.bmp_pp95_L2_V1_veridical_freeview_isoTrue_Hflip_fps144.mp4",""
"null","","","html-keyboard-response","538","1128245","0.0-538.0","91acsgym","","<span style=""color:Black; font-size:50px;"">Agent B","null","","","","",""
"null","","","video-keyboard-response","539","1131321","0.0-539.0","91acsgym","","","null","","Agent B","veridical","STIM_SET_2_144/498372.bmp_pp95_L2_V1_veridical_freeview_isoTrue_fps144.mp4",""
"","","","call-function","540","1131321","0.0-540.0","91acsgym","","","","","","","",""
"1585.969999999972","{""judgement"":1}","[0]","survey-likert","541","1132908","0.0-541.0","91acsgym","","","","","","","","1"
"2707.3649999999907","{""confidence"":2}","[0]","survey-likert","542","1135617","0.0-542.0","91acsgym","","","","","","","",""
"","","","call-function","543","1135618","0.0-543.0","91acsgym","","","","","","","",""
"null","","","html-keyboard-response","544","1137122","0.0-544.0","91acsgym","","<span style=""color:Black; font-size:50px;"">Agent A","null","","","","",""
"null","","","video-keyboard-response","545","1140201","0.0-545.0","91acsgym","","","null","","Agent A","veridical","STIM_SET_2_144/1159860.bmp_pp152_L2_V1.0_veridical_freeview_isoTrue_fps144.mp4",""
"null","","","html-keyboard-response","546","1141705","0.0-546.0","91acsgym","","<span style=""color:Black; font-size:50px;"">Agent B","null","","","","",""
"null","","","video-keyboard-response","547","1144781","0.0-547.0","91acsgym","","","null","","Agent B","scrambled","STIM_SET_5/1159860.bmp_pp152_L2_V1.0_veridical_freeview_isoTrue_Hflip_fps144.mp4",""
"","","","call-function","548","1144781","0.0-548.0","91acsgym","","","","","","","",""
"2055.0499999998137","{""judgement"":1}","[0]","survey-likert","549","1146837","0.0-549.0","91acsgym","","","","","","","","0"
"1719.5649999999441","{""confidence"":2}","[0]","survey-likert","550","1148559","0.0-550.0","91acsgym","","","","","","","",""
"","","","call-function","551","1148559","0.0-551.0","91acsgym","","","","","","","",""
"null","","","html-keyboard-response","552","1150064","0.0-552.0","91acsgym","","<span style=""color:Black; font-size:50px;"">Agent A","null","","","","",""
"null","","","video-keyboard-response","553","1153155","0.0-553.0","91acsgym","","","null","","Agent A","scrambled","STIM_SET_5/713770.bmp_pp89_L1_V1.0_veridical_freeview_isoTrue_Hflip_fps144.mp4",""
"null","","","html-keyboard-response","554","1154660","0.0-554.0","91acsgym","","<span style=""color:Black; font-size:50px;"">Agent B","null","","","","",""
"null","","","video-keyboard-response","555","1157749","0.0-555.0","91acsgym","","","null","","Agent B","veridical","STIM_SET_2_144/713770.bmp_pp89_L1_V1.0_veridical_freeview_isoTrue_fps144.mp4",""
"","","","call-function","556","1157749","0.0-556.0","91acsgym","","","","","","","",""
"1893.2849999999162","{""judgement"":0}","[0]","survey-likert","557","1159643","0.0-557.0","91acsgym","","","","","","","","1"
"1236.5700000000652","{""confidence"":1}","[0]","survey-likert","558","1160881","0.0-558.0","91acsgym","","","","","","","",""
"","","","call-function","559","1160882","0.0-559.0","91acsgym","","","","","","","",""
"null","","","html-keyboard-response","560","1162383","0.0-560.0","91acsgym","","<span style=""color:Black; font-size:50px;"">Agent A","null","","","","",""
"null","","","video-keyboard-response","561","1165467","0.0-561.0","91acsgym","","","null","","Agent A","scrambled","STIM_SET_5/713788.bmp_pp52_L1_V1.0_veridical_freeview_isoTrue_Hflip_fps144.mp4",""
"null","","","html-keyboard-response","562","1166971","0.0-562.0","91acsgym","","<span style=""color:Black; font-size:50px;"">Agent B","null","","","","",""
"null","","","video-keyboard-response","563","1170052","0.0-563.0","91acsgym","","","null","","Agent B","veridical","STIM_SET_2_144/713788.bmp_pp52_L1_V1.0_veridical_freeview_isoTrue_fps144.mp4",""
"","","","call-function","564","1170053","0.0-564.0","91acsgym","","","","","","","",""
"2936.945000000065","{""judgement"":0}","[0]","survey-likert","565","1172991","0.0-565.0","91acsgym","","","","","","","","1"
"2442.190000000177","{""confidence"":2}","[0]","survey-likert","566","1175435","0.0-566.0","91acsgym","","","","","","","",""
"","","","call-function","567","1175436","0.0-567.0","91acsgym","","","","","","","",""
"null","","","html-keyboard-response","568","1176937","0.0-568.0","91acsgym","","<span style=""color:Black; font-size:50px;"">Agent A","null","","","","",""
"null","","","video-keyboard-response","569","1180014","0.0-569.0","91acsgym","","","null","","Agent A","veridical","STIM_SET_2_144/1592568.bmp_pp71_L1_V1.0_veridical_freeview_isoTrue_fps144.mp4",""
"null","","","html-keyboard-response","570","1181519","0.0-570.0","91acsgym","","<span style=""color:Black; font-size:50px;"">Agent B","null","","","","",""
"null","","","video-keyboard-response","571","1184595","0.0-571.0","91acsgym","","","null","","Agent B","scrambled","STIM_SET_5/1592568.bmp_pp71_L1_V1.0_veridical_freeview_isoTrue_Hflip_fps144.mp4",""
"","","","call-function","572","1184596","0.0-572.0","91acsgym","","","","","","","",""
"3242.725000000093","{""judgement"":0}","[0]","survey-likert","573","1187840","0.0-573.0","91acsgym","","","","","","","","0"
"1753.440000000177","{""confidence"":2}","[0]","survey-likert","574","1189595","0.0-574.0","91acsgym","","","","","","","",""
"","","","call-function","575","1189596","0.0-575.0","91acsgym","","","","","","","",""
"null","","","html-keyboard-response","576","1191099","0.0-576.0","91acsgym","","<span style=""color:Black; font-size:50px;"">Agent A","null","","","","",""
"null","","","video-keyboard-response","577","1194160","0.0-577.0","91acsgym","","","null","","Agent A","scrambled","STIM_SET_5/1592951.bmp_pp80_L3_V1.0_veridical_freeview_isoTrue_Hflip_fps144.mp4",""
"null","","","html-keyboard-response","578","1195663","0.0-578.0","91acsgym","","<span style=""color:Black; font-size:50px;"">Agent B","null","","","","",""
"null","","","video-keyboard-response","579","1198725","0.0-579.0","91acsgym","","","null","","Agent B","veridical","STIM_SET_2_144/1592951.bmp_pp80_L3_V1.0_veridical_freeview_isoTrue_fps144.mp4",""
"","","","call-function","580","1198726","0.0-580.0","91acsgym","","","","","","","",""
"10617.854999999981","{""judgement"":1}","[0]","survey-likert","581","1209345","0.0-581.0","91acsgym","","","","","","","","1"
"1442.6700000001583","{""confidence"":1}","[0]","survey-likert","582","1210789","0.0-582.0","91acsgym","","","","","","","",""
"1306.719999999972","","","instructions","583","1212096","0.0-583.0","91acsgym","[{""page_index"":0,""viewing_time"":1306.5849999999627}]","","","","","","",""
"1636.2750000001397","","","instructions","584","1213733","0.0-584.0","91acsgym","[{""page_index"":0,""viewing_time"":1636.1750000000466}]","","","","","","",""
"5751.709999999963","{""post-1"":2}","[0]","survey-likert","585","1219486","0.0-585.0","91acsgym","","","","","","","",""
"6135.704999999842","{""post-1"":1}","[0]","survey-likert","586","1225623","0.0-586.0","91acsgym","","","","","","","",""
"6812.614999999991","{""post-2"":0}","[0]","survey-likert","587","1232437","0.0-587.0","91acsgym","","","","","","","",""
"1984.5700000000652","{""post-2"":0}","[0]","survey-likert","588","1234424","0.0-588.0","91acsgym","","","","","","","",""
"5095.1699999999255","{""post-3"":1}","[0]","survey-likert","589","1239521","0.0-589.0","91acsgym","","","","","","","",""
"5697.174999999814","{""post-3"":1}","[0]","survey-likert","590","1245220","0.0-590.0","91acsgym","","","","","","","",""
"6529.824999999953","{""post-4"":1}","[0]","survey-likert","591","1251751","0.0-591.0","91acsgym","","","","","","","",""
"1781.869999999879","{""post-4"":0}","[0]","survey-likert","592","1253534","0.0-592.0","91acsgym","","","","","","","",""
"8332.869999999879","{""post-5"":0}","[0]","survey-likert","593","1261868","0.0-593.0","91acsgym","","","","","","","",""
"5598.909999999916","{""post-5"":0}","[0]","survey-likert","594","1267468","0.0-594.0","91acsgym","","","","","","","",""
"52882.73499999987","{""Q0"":""It was pretty boring. A few times I forgot what was just shown but that was only for a small amount of them. I tried to think about looking as how we read, from left to right\n""}","","survey-text","595","1320357","0.0-595.0","91acsgym","","","","","","","",""
"58082.570000000065","{""Q0"":""Yeah, I was looking at left to right at first, so look left than right, but then I realized it would be better to look at looking from the left to the right which may involve going right first. The ones that only went one direction were easy to differentiate.""}","","survey-text","596","1378444","0.0-596.0","91acsgym","","","","","","","",""
"64376.70499999984","{""Q0"":""The ones where they would look a little bit in one direction and then look to the other so like a little to the left and then all the way right. Then I wasn't sure whether something just caught their attention or if they were browsing.""}","","survey-text","597","1442824","0.0-597.0","91acsgym","","","","","","","",""
"1245.1049999999814","","","instructions","598","1444071","0.0-598.0","91acsgym","[{""page_index"":0,""viewing_time"":1244.969999999972}]","","","","","","",""
"36579.820000000065","{""Experimenter_end"":[""Printed ID# 91acsgym on consent form"",""Given subject SONA credit or payment"",""Given the subject debrief form""]}","[0]","survey-multi-select","599","1480653","0.0-599.0","91acsgym","","","","","","","",""
