"rt","responses","question_order","trial_type","trial_index","time_elapsed","internal_node_id","ID","view_history","stimulus","key_press","value","agent","condition","image","correct_answer"
"18645.065","{""Experimenter"":[""Confirmed subject's identity"",""Confirmed normal or corrected-to-normal vision"",""Obtained consent (signature and date)"",""Checked the test room lighting"",""Checked computer screen lighting"",""Checked distance from screen to chin rest (50cm)"",""Cleaned and adjusted chin rest"",""Counterbalanced the order of the tasks"",""Opened the experiment in Firefox"",""Made the experiment full screen"",""Encouraged subject to silence phone, put away distractors, etc.""]}","[0]","survey-multi-select","0","18653","0.0-0.0","9afnfr99","","","","","","","",""
"160917.075","","","instructions","1","179571","0.0-1.0","9afnfr99","[{""page_index"":0,""viewing_time"":160916.92500000002}]","","","","","","",""
"14112.270000000019","","","instructions","2","193684","0.0-2.0","9afnfr99","[{""page_index"":0,""viewing_time"":6538.920000000013},{""page_index"":1,""viewing_time"":1451.8550000000105},{""page_index"":2,""viewing_time"":6121.375}]","","","","","","",""
"2371.5449999999837","","","instructions","3","196056","0.0-3.0","9afnfr99","[{""page_index"":0,""viewing_time"":2371.414999999979}]","","","","","","",""
"null","","","video-keyboard-response","4","199133","0.0-4.0","9afnfr99","","","null","","","","",""
"6358.729999999981","","","instructions","5","205492","0.0-5.0","9afnfr99","[{""page_index"":0,""viewing_time"":2213.8399999999965},{""page_index"":1,""viewing_time"":91.06500000000233},{""page_index"":2,""viewing_time"":4053.720000000001}]","","","","","","",""
"2785.6849999999977","","","instructions","6","208278","0.0-6.0","9afnfr99","[{""page_index"":0,""viewing_time"":2785.5800000000163}]","","","","","","",""
"1191.789999999979","","","instructions","7","209470","0.0-7.0","9afnfr99","[{""page_index"":0,""viewing_time"":1191.5}]","","","","","","",""
"null","","","video-keyboard-response","8","212542","0.0-8.0","9afnfr99","","","null","","","","",""
"25053.160000000003","","","instructions","9","237596","0.0-9.0","9afnfr99","[{""page_index"":0,""viewing_time"":1099.125},{""page_index"":1,""viewing_time"":3946.8699999999953},{""page_index"":2,""viewing_time"":20007.03}]","","","","","","",""
"2681.649999999994","","","instructions","10","240278","0.0-10.0","9afnfr99","[{""page_index"":0,""viewing_time"":2681.529999999999}]","","","","","","",""
"","","","call-function","11","240279","0.0-11.0","9afnfr99","","","","","","","",""
"null","","","html-keyboard-response","12","241784","0.0-12.0","9afnfr99","","<span style=""color:Black; font-size:50px;"">Agent A","null","","","","",""
"null","","","video-keyboard-response","13","244859","0.0-13.0","9afnfr99","","","null","","Agent A","veridical","STIM_SET_2_144/498372.bmp_pp95_L2_V1_veridical_freeview_isoTrue_fps144.mp4",""
"null","","","html-keyboard-response","14","246363","0.0-14.0","9afnfr99","","<span style=""color:Black; font-size:50px;"">Agent B","null","","","","",""
"null","","","video-keyboard-response","15","249439","0.0-15.0","9afnfr99","","","null","","Agent B","scrambled","STIM_SET_5/498372.bmp_pp95_L2_V1_veridical_freeview_isoTrue_Hflip_fps144.mp4",""
"","","","call-function","16","249439","0.0-16.0","9afnfr99","","","","","","","",""
"2724.8150000000023","{""judgement"":1}","[0]","survey-likert","17","252165","0.0-17.0","9afnfr99","","","","","","","","0"
"2966.1849999999977","{""confidence"":2}","[0]","survey-likert","18","255133","0.0-18.0","9afnfr99","","","","","","","",""
"","","","call-function","19","255133","0.0-19.0","9afnfr99","","","","","","","",""
"null","","","html-keyboard-response","20","256637","0.0-20.0","9afnfr99","","<span style=""color:Black; font-size:50px;"">Agent A","null","","","","",""
"null","","","video-keyboard-response","21","259807","0.0-21.0","9afnfr99","","","null","","Agent A","scrambled","STIM_SET_5/1592025.bmp_pp68_L1_V1.0_veridical_freeview_isoTrue_Hflip_fps144.mp4",""
"null","","","html-keyboard-response","22","261310","0.0-22.0","9afnfr99","","<span style=""color:Black; font-size:50px;"">Agent B","null","","","","",""
"null","","","video-keyboard-response","23","264379","0.0-23.0","9afnfr99","","","null","","Agent B","veridical","STIM_SET_2_144/1592025.bmp_pp68_L1_V1.0_veridical_freeview_isoTrue_fps144.mp4",""
"","","","call-function","24","264380","0.0-24.0","9afnfr99","","","","","","","",""
"3948.6450000000186","{""judgement"":0}","[0]","survey-likert","25","268329","0.0-25.0","9afnfr99","","","","","","","","1"
"2543.2750000000233","{""confidence"":1}","[0]","survey-likert","26","270873","0.0-26.0","9afnfr99","","","","","","","",""
"","","","call-function","27","270874","0.0-27.0","9afnfr99","","","","","","","",""
"null","","","html-keyboard-response","28","272379","0.0-28.0","9afnfr99","","<span style=""color:Black; font-size:50px;"">Agent A","null","","","","",""
"null","","","video-keyboard-response","29","275470","0.0-29.0","9afnfr99","","","null","","Agent A","scrambled","STIM_SET_5/713328.bmp_pp86_L2_V1.0_veridical_freeview_isoTrue_Hflip_fps144.mp4",""
"null","","","html-keyboard-response","30","276976","0.0-30.0","9afnfr99","","<span style=""color:Black; font-size:50px;"">Agent B","null","","","","",""
"null","","","video-keyboard-response","31","280038","0.0-31.0","9afnfr99","","","null","","Agent B","veridical","STIM_SET_2_144/713328.bmp_pp86_L2_V1.0_veridical_freeview_isoTrue_fps144.mp4",""
"","","","call-function","32","280038","0.0-32.0","9afnfr99","","","","","","","",""
"4345.289999999979","{""judgement"":1}","[0]","survey-likert","33","284384","0.0-33.0","9afnfr99","","","","","","","","1"
"2669.4099999999744","{""confidence"":1}","[0]","survey-likert","34","287054","0.0-34.0","9afnfr99","","","","","","","",""
"","","","call-function","35","287055","0.0-35.0","9afnfr99","","","","","","","",""
"null","","","html-keyboard-response","36","288557","0.0-36.0","9afnfr99","","<span style=""color:Black; font-size:50px;"">Agent A","null","","","","",""
"null","","","video-keyboard-response","37","291661","0.0-37.0","9afnfr99","","","null","","Agent A","veridical","STIM_SET_2_144/713790.bmp_pp100_L3_V1_veridical_freeview_isoTrue_fps144.mp4",""
"null","","","html-keyboard-response","38","293163","0.0-38.0","9afnfr99","","<span style=""color:Black; font-size:50px;"">Agent B","null","","","","",""
"null","","","video-keyboard-response","39","296274","0.0-39.0","9afnfr99","","","null","","Agent B","scrambled","STIM_SET_5/713790.bmp_pp100_L3_V1_veridical_freeview_isoTrue_Hflip_fps144.mp4",""
"","","","call-function","40","296274","0.0-40.0","9afnfr99","","","","","","","",""
"2366.475000000035","{""judgement"":1}","[0]","survey-likert","41","298642","0.0-41.0","9afnfr99","","","","","","","","0"
"1793.0599999999977","{""confidence"":2}","[0]","survey-likert","42","300436","0.0-42.0","9afnfr99","","","","","","","",""
"","","","call-function","43","300436","0.0-43.0","9afnfr99","","","","","","","",""
"null","","","html-keyboard-response","44","301940","0.0-44.0","9afnfr99","","<span style=""color:Black; font-size:50px;"">Agent A","null","","","","",""
"null","","","video-keyboard-response","45","305001","0.0-45.0","9afnfr99","","","null","","Agent A","veridical","STIM_SET_2_144/1592857.bmp_pp52_L1_V1_veridical_freeview_isoTrue_fps144.mp4",""
"null","","","html-keyboard-response","46","306508","0.0-46.0","9afnfr99","","<span style=""color:Black; font-size:50px;"">Agent B","null","","","","",""
"null","","","video-keyboard-response","47","309571","0.0-47.0","9afnfr99","","","null","","Agent B","scrambled","STIM_SET_5/1592857.bmp_pp52_L1_V1_veridical_freeview_isoTrue_Hflip_fps144.mp4",""
"","","","call-function","48","309571","0.0-48.0","9afnfr99","","","","","","","",""
"2626.5299999999697","{""judgement"":1}","[0]","survey-likert","49","312199","0.0-49.0","9afnfr99","","","","","","","","0"
"1710.1699999999837","{""confidence"":2}","[0]","survey-likert","50","313910","0.0-50.0","9afnfr99","","","","","","","",""
"","","","call-function","51","313911","0.0-51.0","9afnfr99","","","","","","","",""
"null","","","html-keyboard-response","52","315413","0.0-52.0","9afnfr99","","<span style=""color:Black; font-size:50px;"">Agent A","null","","","","",""
"null","","","video-keyboard-response","53","318474","0.0-53.0","9afnfr99","","","null","","Agent A","scrambled","STIM_SET_5/1592044.bmp_pp94_L2_V1.0_veridical_freeview_isoTrue_Hflip_fps144.mp4",""
"null","","","html-keyboard-response","54","319980","0.0-54.0","9afnfr99","","<span style=""color:Black; font-size:50px;"">Agent B","null","","","","",""
"null","","","video-keyboard-response","55","323042","0.0-55.0","9afnfr99","","","null","","Agent B","veridical","STIM_SET_2_144/1592044.bmp_pp94_L2_V1.0_veridical_freeview_isoTrue_fps144.mp4",""
"","","","call-function","56","323042","0.0-56.0","9afnfr99","","","","","","","",""
"1949.195000000007","{""judgement"":0}","[0]","survey-likert","57","324992","0.0-57.0","9afnfr99","","","","","","","","1"
"1643.390000000014","{""confidence"":1}","[0]","survey-likert","58","326637","0.0-58.0","9afnfr99","","","","","","","",""
"","","","call-function","59","326637","0.0-59.0","9afnfr99","","","","","","","",""
"null","","","html-keyboard-response","60","328143","0.0-60.0","9afnfr99","","<span style=""color:Black; font-size:50px;"">Agent A","null","","","","",""
"null","","","video-keyboard-response","61","331242","0.0-61.0","9afnfr99","","","null","","Agent A","scrambled","STIM_SET_5/713858.bmp_pp57_L1_V1.0_veridical_freeview_isoTrue_Hflip_fps144.mp4",""
"null","","","html-keyboard-response","62","332744","0.0-62.0","9afnfr99","","<span style=""color:Black; font-size:50px;"">Agent B","null","","","","",""
"null","","","video-keyboard-response","63","335834","0.0-63.0","9afnfr99","","","null","","Agent B","veridical","STIM_SET_2_144/713858.bmp_pp57_L1_V1.0_veridical_freeview_isoTrue_fps144.mp4",""
"","","","call-function","64","335834","0.0-64.0","9afnfr99","","","","","","","",""
"1797.625","{""judgement"":0}","[0]","survey-likert","65","337633","0.0-65.0","9afnfr99","","","","","","","","1"
"2899.7949999999837","{""confidence"":0}","[0]","survey-likert","66","340533","0.0-66.0","9afnfr99","","","","","","","",""
"","","","call-function","67","340534","0.0-67.0","9afnfr99","","","","","","","",""
"null","","","html-keyboard-response","68","342035","0.0-68.0","9afnfr99","","<span style=""color:Black; font-size:50px;"">Agent A","null","","","","",""
"null","","","video-keyboard-response","69","345112","0.0-69.0","9afnfr99","","","null","","Agent A","veridical","STIM_SET_2_144/1159392.bmp_pp96_L2_V1.0_veridical_freeview_isoTrue_fps144.mp4",""
"null","","","html-keyboard-response","70","346618","0.0-70.0","9afnfr99","","<span style=""color:Black; font-size:50px;"">Agent B","null","","","","",""
"null","","","video-keyboard-response","71","349694","0.0-71.0","9afnfr99","","","null","","Agent B","scrambled","STIM_SET_5/1159392.bmp_pp96_L2_V1.0_veridical_freeview_isoTrue_Hflip_fps144.mp4",""
"","","","call-function","72","349695","0.0-72.0","9afnfr99","","","","","","","",""
"2646.5749999999534","{""judgement"":0}","[0]","survey-likert","73","352342","0.0-73.0","9afnfr99","","","","","","","","0"
"1696.655000000028","{""confidence"":0}","[0]","survey-likert","74","354040","0.0-74.0","9afnfr99","","","","","","","",""
"","","","call-function","75","354040","0.0-75.0","9afnfr99","","","","","","","",""
"null","","","html-keyboard-response","76","355541","0.0-76.0","9afnfr99","","<span style=""color:Black; font-size:50px;"">Agent A","null","","","","",""
"null","","","video-keyboard-response","77","358631","0.0-77.0","9afnfr99","","","null","","Agent A","scrambled","STIM_SET_5/1592747.bmp_pp53_L2_V1.0_veridical_freeview_isoTrue_Hflip_fps144.mp4",""
"null","","","html-keyboard-response","78","360133","0.0-78.0","9afnfr99","","<span style=""color:Black; font-size:50px;"">Agent B","null","","","","",""
"null","","","video-keyboard-response","79","363226","0.0-79.0","9afnfr99","","","null","","Agent B","veridical","STIM_SET_2_144/1592747.bmp_pp53_L2_V1.0_veridical_freeview_isoTrue_fps144.mp4",""
"","","","call-function","80","363226","0.0-80.0","9afnfr99","","","","","","","",""
"2093.585000000021","{""judgement"":0}","[0]","survey-likert","81","365320","0.0-81.0","9afnfr99","","","","","","","","1"
"4723.625","{""confidence"":2}","[0]","survey-likert","82","370045","0.0-82.0","9afnfr99","","","","","","","",""
"","","","call-function","83","370045","0.0-83.0","9afnfr99","","","","","","","",""
"null","","","html-keyboard-response","84","371548","0.0-84.0","9afnfr99","","<span style=""color:Black; font-size:50px;"">Agent A","null","","","","",""
"null","","","video-keyboard-response","85","374623","0.0-85.0","9afnfr99","","","null","","Agent A","scrambled","STIM_SET_5/1592038.bmp_pp79_L2_V1.0_veridical_freeview_isoTrue_Hflip_fps144.mp4",""
"null","","","html-keyboard-response","86","376128","0.0-86.0","9afnfr99","","<span style=""color:Black; font-size:50px;"">Agent B","null","","","","",""
"null","","","video-keyboard-response","87","379200","0.0-87.0","9afnfr99","","","null","","Agent B","veridical","STIM_SET_2_144/1592038.bmp_pp79_L2_V1.0_veridical_freeview_isoTrue_fps144.mp4",""
"","","","call-function","88","379201","0.0-88.0","9afnfr99","","","","","","","",""
"4785.049999999988","{""judgement"":1}","[0]","survey-likert","89","383987","0.0-89.0","9afnfr99","","","","","","","","1"
"1588.420000000042","{""confidence"":0}","[0]","survey-likert","90","385576","0.0-90.0","9afnfr99","","","","","","","",""
"6017.329999999958","","","instructions","91","391594","0.0-91.0","9afnfr99","[{""page_index"":0,""viewing_time"":1569.164999999979},{""page_index"":1,""viewing_time"":60.13000000000466},{""page_index"":2,""viewing_time"":4387.825000000012}]","","","","","","",""
"4342.635000000009","","","instructions","92","395937","0.0-92.0","9afnfr99","[{""page_index"":0,""viewing_time"":694.8400000000256},{""page_index"":1,""viewing_time"":2963.2399999999907},{""page_index"":2,""viewing_time"":684.3549999999814}]","","","","","","",""
"","","","call-function","93","395938","0.0-93.0","9afnfr99","","","","","","","",""
"null","","","html-keyboard-response","94","397440","0.0-94.0","9afnfr99","","<span style=""color:Black; font-size:50px;"">Agent A","null","","","","",""
"null","","","video-keyboard-response","95","400518","0.0-95.0","9afnfr99","","","null","","Agent A","scrambled","STIM_SET_5/285959.bmp_pp93_L1_V1.0_veridical_freeview_isoTrue_Hflip_fps144.mp4",""
"null","","","html-keyboard-response","96","402025","0.0-96.0","9afnfr99","","<span style=""color:Black; font-size:50px;"">Agent B","null","","","","",""
"null","","","video-keyboard-response","97","405102","0.0-97.0","9afnfr99","","","null","","Agent B","veridical","STIM_SET_2_144/285959.bmp_pp93_L1_V1.0_veridical_freeview_isoTrue_fps144.mp4",""
"","","","call-function","98","405102","0.0-98.0","9afnfr99","","","","","","","",""
"1957.265000000014","{""judgement"":0}","[0]","survey-likert","99","407061","0.0-99.0","9afnfr99","","","","","","","","1"
"2874.8450000000303","{""confidence"":0}","[0]","survey-likert","100","409937","0.0-100.0","9afnfr99","","","","","","","",""
"","","","call-function","101","409937","0.0-101.0","9afnfr99","","","","","","","",""
"null","","","html-keyboard-response","102","411439","0.0-102.0","9afnfr99","","<span style=""color:Black; font-size:50px;"">Agent A","null","","","","",""
"null","","","video-keyboard-response","103","414505","0.0-103.0","9afnfr99","","","null","","Agent A","veridical","STIM_SET_2_144/1159329.bmp_pp61_L2_V1.0_veridical_freeview_isoTrue_fps144.mp4",""
"null","","","html-keyboard-response","104","416011","0.0-104.0","9afnfr99","","<span style=""color:Black; font-size:50px;"">Agent B","null","","","","",""
"null","","","video-keyboard-response","105","419076","0.0-105.0","9afnfr99","","","null","","Agent B","scrambled","STIM_SET_5/1159329.bmp_pp61_L2_V1.0_veridical_freeview_isoTrue_Hflip_fps144.mp4",""
"","","","call-function","106","419077","0.0-106.0","9afnfr99","","","","","","","",""
"2124.375","{""judgement"":0}","[0]","survey-likert","107","421202","0.0-107.0","9afnfr99","","","","","","","","0"
"1598.6650000000373","{""confidence"":1}","[0]","survey-likert","108","422802","0.0-108.0","9afnfr99","","","","","","","",""
"","","","call-function","109","422802","0.0-109.0","9afnfr99","","","","","","","",""
"null","","","html-keyboard-response","110","424305","0.0-110.0","9afnfr99","","<span style=""color:Black; font-size:50px;"">Agent A","null","","","","",""
"null","","","video-keyboard-response","111","427399","0.0-111.0","9afnfr99","","","null","","Agent A","scrambled","STIM_SET_5/61513.bmp_pp75_L1_V1.0_veridical_freeview_isoTrue_Hflip_fps144.mp4",""
"null","","","html-keyboard-response","112","428905","0.0-112.0","9afnfr99","","<span style=""color:Black; font-size:50px;"">Agent B","null","","","","",""
"null","","","video-keyboard-response","113","431989","0.0-113.0","9afnfr99","","","null","","Agent B","veridical","STIM_SET_2_144/61513.bmp_pp75_L1_V1.0_veridical_freeview_isoTrue_fps144.mp4",""
"","","","call-function","114","431989","0.0-114.0","9afnfr99","","","","","","","",""
"2990.960000000021","{""judgement"":1}","[0]","survey-likert","115","434982","0.0-115.0","9afnfr99","","","","","","","","1"
"1251.1749999999884","{""confidence"":1}","[0]","survey-likert","116","436234","0.0-116.0","9afnfr99","","","","","","","",""
"","","","call-function","117","436234","0.0-117.0","9afnfr99","","","","","","","",""
"null","","","html-keyboard-response","118","437739","0.0-118.0","9afnfr99","","<span style=""color:Black; font-size:50px;"">Agent A","null","","","","",""
"null","","","video-keyboard-response","119","440820","0.0-119.0","9afnfr99","","","null","","Agent A","scrambled","STIM_SET_5/498261.bmp_pp84_L3_V1.0_veridical_freeview_isoTrue_Hflip_fps144.mp4",""
"null","","","html-keyboard-response","120","442322","0.0-120.0","9afnfr99","","<span style=""color:Black; font-size:50px;"">Agent B","null","","","","",""
"null","","","video-keyboard-response","121","445403","0.0-121.0","9afnfr99","","","null","","Agent B","veridical","STIM_SET_2_144/498261.bmp_pp84_L3_V1.0_veridical_freeview_isoTrue_fps144.mp4",""
"","","","call-function","122","445403","0.0-122.0","9afnfr99","","","","","","","",""
"2103.164999999979","{""judgement"":0}","[0]","survey-likert","123","447507","0.0-123.0","9afnfr99","","","","","","","","1"
"2532.875","{""confidence"":1}","[0]","survey-likert","124","450041","0.0-124.0","9afnfr99","","","","","","","",""
"","","","call-function","125","450041","0.0-125.0","9afnfr99","","","","","","","",""
"null","","","html-keyboard-response","126","451543","0.0-126.0","9afnfr99","","<span style=""color:Black; font-size:50px;"">Agent A","null","","","","",""
"null","","","video-keyboard-response","127","454619","0.0-127.0","9afnfr99","","","null","","Agent A","veridical","STIM_SET_2_144/1159325.bmp_pp67_L2_V1.0_veridical_freeview_isoTrue_fps144.mp4",""
"null","","","html-keyboard-response","128","456124","0.0-128.0","9afnfr99","","<span style=""color:Black; font-size:50px;"">Agent B","null","","","","",""
"null","","","video-keyboard-response","129","459195","0.0-129.0","9afnfr99","","","null","","Agent B","scrambled","STIM_SET_5/1159325.bmp_pp67_L2_V1.0_veridical_freeview_isoTrue_Hflip_fps144.mp4",""
"","","","call-function","130","459195","0.0-130.0","9afnfr99","","","","","","","",""
"3425.7600000000093","{""judgement"":1}","[0]","survey-likert","131","462622","0.0-131.0","9afnfr99","","","","","","","","0"
"1985.4249999999884","{""confidence"":1}","[0]","survey-likert","132","464609","0.0-132.0","9afnfr99","","","","","","","",""
"","","","call-function","133","464609","0.0-133.0","9afnfr99","","","","","","","",""
"null","","","html-keyboard-response","134","466112","0.0-134.0","9afnfr99","","<span style=""color:Black; font-size:50px;"">Agent A","null","","","","",""
"null","","","video-keyboard-response","135","469176","0.0-135.0","9afnfr99","","","null","","Agent A","veridical","STIM_SET_2_144/713689.bmp_pp153_L3_V1.0_veridical_freeview_isoTrue_fps144.mp4",""
"null","","","html-keyboard-response","136","470677","0.0-136.0","9afnfr99","","<span style=""color:Black; font-size:50px;"">Agent B","null","","","","",""
"null","","","video-keyboard-response","137","473737","0.0-137.0","9afnfr99","","","null","","Agent B","scrambled","STIM_SET_5/713689.bmp_pp153_L3_V1.0_veridical_freeview_isoTrue_Hflip_fps144.mp4",""
"","","","call-function","138","473737","0.0-138.0","9afnfr99","","","","","","","",""
"1980.570000000007","{""judgement"":0}","[0]","survey-likert","139","475718","0.0-139.0","9afnfr99","","","","","","","","0"
"1973.875","{""confidence"":1}","[0]","survey-likert","140","477693","0.0-140.0","9afnfr99","","","","","","","",""
"","","","call-function","141","477693","0.0-141.0","9afnfr99","","","","","","","",""
"null","","","html-keyboard-response","142","479195","0.0-142.0","9afnfr99","","<span style=""color:Black; font-size:50px;"">Agent A","null","","","","",""
"null","","","video-keyboard-response","143","482263","0.0-143.0","9afnfr99","","","null","","Agent A","scrambled","STIM_SET_5/150277.bmp_pp65_L3_V1.0_veridical_freeview_isoTrue_Hflip_fps144.mp4",""
"null","","","html-keyboard-response","144","483766","0.0-144.0","9afnfr99","","<span style=""color:Black; font-size:50px;"">Agent B","null","","","","",""
"null","","","video-keyboard-response","145","486837","0.0-145.0","9afnfr99","","","null","","Agent B","veridical","STIM_SET_2_144/150277.bmp_pp65_L3_V1.0_veridical_freeview_isoTrue_fps144.mp4",""
"","","","call-function","146","486838","0.0-146.0","9afnfr99","","","","","","","",""
"1466.664999999979","{""judgement"":0}","[0]","survey-likert","147","488305","0.0-147.0","9afnfr99","","","","","","","","1"
"1701.1050000000396","{""confidence"":1}","[0]","survey-likert","148","490008","0.0-148.0","9afnfr99","","","","","","","",""
"","","","call-function","149","490009","0.0-149.0","9afnfr99","","","","","","","",""
"null","","","html-keyboard-response","150","491514","0.0-150.0","9afnfr99","","<span style=""color:Black; font-size:50px;"">Agent A","null","","","","",""
"null","","","video-keyboard-response","151","494582","0.0-151.0","9afnfr99","","","null","","Agent A","scrambled","STIM_SET_5/1159956.bmp_pp59_L3_V1.0_veridical_freeview_isoTrue_Hflip_fps144.mp4",""
"null","","","html-keyboard-response","152","496089","0.0-152.0","9afnfr99","","<span style=""color:Black; font-size:50px;"">Agent B","null","","","","",""
"null","","","video-keyboard-response","153","499158","0.0-153.0","9afnfr99","","","null","","Agent B","veridical","STIM_SET_2_144/1159956.bmp_pp59_L3_V1.0_veridical_freeview_isoTrue_fps144.mp4",""
"","","","call-function","154","499158","0.0-154.0","9afnfr99","","","","","","","",""
"1732.570000000007","{""judgement"":0}","[0]","survey-likert","155","500892","0.0-155.0","9afnfr99","","","","","","","","1"
"3373.6500000000233","{""confidence"":1}","[0]","survey-likert","156","504266","0.0-156.0","9afnfr99","","","","","","","",""
"","","","call-function","157","504267","0.0-157.0","9afnfr99","","","","","","","",""
"null","","","html-keyboard-response","158","505769","0.0-158.0","9afnfr99","","<span style=""color:Black; font-size:50px;"">Agent A","null","","","","",""
"null","","","video-keyboard-response","159","508835","0.0-159.0","9afnfr99","","","null","","Agent A","scrambled","STIM_SET_5/1592298.bmp_pp56_L3_V1.0_veridical_freeview_isoTrue_Hflip_fps144.mp4",""
"null","","","html-keyboard-response","160","510339","0.0-160.0","9afnfr99","","<span style=""color:Black; font-size:50px;"">Agent B","null","","","","",""
"null","","","video-keyboard-response","161","513408","0.0-161.0","9afnfr99","","","null","","Agent B","veridical","STIM_SET_2_144/1592298.bmp_pp56_L3_V1.0_veridical_freeview_isoTrue_fps144.mp4",""
"","","","call-function","162","513408","0.0-162.0","9afnfr99","","","","","","","",""
"1297.7449999999953","{""judgement"":0}","[0]","survey-likert","163","514707","0.0-163.0","9afnfr99","","","","","","","","1"
"2250.984999999986","{""confidence"":2}","[0]","survey-likert","164","516959","0.0-164.0","9afnfr99","","","","","","","",""
"","","","call-function","165","516959","0.0-165.0","9afnfr99","","","","","","","",""
"null","","","html-keyboard-response","166","518463","0.0-166.0","9afnfr99","","<span style=""color:Black; font-size:50px;"">Agent A","null","","","","",""
"null","","","video-keyboard-response","167","521556","0.0-167.0","9afnfr99","","","null","","Agent A","scrambled","STIM_SET_5/1592289.bmp_pp92_L3_V1.0_veridical_freeview_isoTrue_Hflip_fps144.mp4",""
"null","","","html-keyboard-response","168","523060","0.0-168.0","9afnfr99","","<span style=""color:Black; font-size:50px;"">Agent B","null","","","","",""
"null","","","video-keyboard-response","169","526145","0.0-169.0","9afnfr99","","","null","","Agent B","veridical","STIM_SET_2_144/1592289.bmp_pp92_L3_V1.0_veridical_freeview_isoTrue_fps144.mp4",""
"","","","call-function","170","526145","0.0-170.0","9afnfr99","","","","","","","",""
"1691.4799999999814","{""judgement"":0}","[0]","survey-likert","171","527838","0.0-171.0","9afnfr99","","","","","","","","1"
"2049.8850000000093","{""confidence"":1}","[0]","survey-likert","172","529889","0.0-172.0","9afnfr99","","","","","","","",""
"10858.145000000019","","","instructions","173","540747","0.0-173.0","9afnfr99","[{""page_index"":0,""viewing_time"":8445.035000000033},{""page_index"":1,""viewing_time"":1030.9499999999534},{""page_index"":2,""viewing_time"":1381.9400000000605}]","","","","","","",""
"2675.6300000000047","","","instructions","174","543423","0.0-174.0","9afnfr99","[{""page_index"":0,""viewing_time"":607.9799999999814},{""page_index"":1,""viewing_time"":1546.5699999999488},{""page_index"":2,""viewing_time"":520.9700000000885}]","","","","","","",""
"","","","call-function","175","543423","0.0-175.0","9afnfr99","","","","","","","",""
"null","","","html-keyboard-response","176","544924","0.0-176.0","9afnfr99","","<span style=""color:Black; font-size:50px;"">Agent A","null","","","","",""
"null","","","video-keyboard-response","177","548009","0.0-177.0","9afnfr99","","","null","","Agent A","scrambled","STIM_SET_5/713788.bmp_pp52_L1_V1.0_veridical_freeview_isoTrue_Hflip_fps144.mp4",""
"null","","","html-keyboard-response","178","549512","0.0-178.0","9afnfr99","","<span style=""color:Black; font-size:50px;"">Agent B","null","","","","",""
"null","","","video-keyboard-response","179","552598","0.0-179.0","9afnfr99","","","null","","Agent B","veridical","STIM_SET_2_144/713788.bmp_pp52_L1_V1.0_veridical_freeview_isoTrue_fps144.mp4",""
"","","","call-function","180","552598","0.0-180.0","9afnfr99","","","","","","","",""
"2182.905000000028","{""judgement"":1}","[0]","survey-likert","181","554782","0.0-181.0","9afnfr99","","","","","","","","1"
"1156.2350000001024","{""confidence"":1}","[0]","survey-likert","182","555939","0.0-182.0","9afnfr99","","","","","","","",""
"","","","call-function","183","555939","0.0-183.0","9afnfr99","","","","","","","",""
"null","","","html-keyboard-response","184","557441","0.0-184.0","9afnfr99","","<span style=""color:Black; font-size:50px;"">Agent A","null","","","","",""
"null","","","video-keyboard-response","185","560503","0.0-185.0","9afnfr99","","","null","","Agent A","scrambled","STIM_SET_5/1592047.bmp_pp51_L1_V1.0_veridical_freeview_isoTrue_Hflip_fps144.mp4",""
"null","","","html-keyboard-response","186","562006","0.0-186.0","9afnfr99","","<span style=""color:Black; font-size:50px;"">Agent B","null","","","","",""
"null","","","video-keyboard-response","187","565066","0.0-187.0","9afnfr99","","","null","","Agent B","veridical","STIM_SET_2_144/1592047.bmp_pp51_L1_V1.0_veridical_freeview_isoTrue_fps144.mp4",""
"","","","call-function","188","565067","0.0-188.0","9afnfr99","","","","","","","",""
"4744.704999999958","{""judgement"":0}","[0]","survey-likert","189","569813","0.0-189.0","9afnfr99","","","","","","","","1"
"1816.0200000000186","{""confidence"":1}","[0]","survey-likert","190","571631","0.0-190.0","9afnfr99","","","","","","","",""
"","","","call-function","191","571633","0.0-191.0","9afnfr99","","","","","","","",""
"null","","","html-keyboard-response","192","573135","0.0-192.0","9afnfr99","","<span style=""color:Black; font-size:50px;"">Agent A","null","","","","",""
"null","","","video-keyboard-response","193","576197","0.0-193.0","9afnfr99","","","null","","Agent A","veridical","STIM_SET_2_144/1160049.bmp_pp53_L2_V1.0_veridical_freeview_isoTrue_fps144.mp4",""
"null","","","html-keyboard-response","194","577701","0.0-194.0","9afnfr99","","<span style=""color:Black; font-size:50px;"">Agent B","null","","","","",""
"null","","","video-keyboard-response","195","580761","0.0-195.0","9afnfr99","","","null","","Agent B","scrambled","STIM_SET_5/1160049.bmp_pp53_L2_V1.0_veridical_freeview_isoTrue_Hflip_fps144.mp4",""
"","","","call-function","196","580761","0.0-196.0","9afnfr99","","","","","","","",""
"2210.284999999916","{""judgement"":1}","[0]","survey-likert","197","582973","0.0-197.0","9afnfr99","","","","","","","","0"
"1393.265000000014","{""confidence"":1}","[0]","survey-likert","198","584367","0.0-198.0","9afnfr99","","","","","","","",""
"","","","call-function","199","584368","0.0-199.0","9afnfr99","","","","","","","",""
"null","","","html-keyboard-response","200","585872","0.0-200.0","9afnfr99","","<span style=""color:Black; font-size:50px;"">Agent A","null","","","","",""
"null","","","video-keyboard-response","201","588937","0.0-201.0","9afnfr99","","","null","","Agent A","scrambled","STIM_SET_5/150463.bmp_pp55_L3_V1.0_veridical_freeview_isoTrue_Hflip_fps144.mp4",""
"null","","","html-keyboard-response","202","590439","0.0-202.0","9afnfr99","","<span style=""color:Black; font-size:50px;"">Agent B","null","","","","",""
"null","","","video-keyboard-response","203","593507","0.0-203.0","9afnfr99","","","null","","Agent B","veridical","STIM_SET_2_144/150463.bmp_pp55_L3_V1.0_veridical_freeview_isoTrue_fps144.mp4",""
"","","","call-function","204","593507","0.0-204.0","9afnfr99","","","","","","","",""
"3810.644999999902","{""judgement"":1}","[0]","survey-likert","205","597319","0.0-205.0","9afnfr99","","","","","","","","1"
"2001.359999999986","{""confidence"":1}","[0]","survey-likert","206","599321","0.0-206.0","9afnfr99","","","","","","","",""
"","","","call-function","207","599321","0.0-207.0","9afnfr99","","","","","","","",""
"null","","","html-keyboard-response","208","600822","0.0-208.0","9afnfr99","","<span style=""color:Black; font-size:50px;"">Agent A","null","","","","",""
"null","","","video-keyboard-response","209","603917","0.0-209.0","9afnfr99","","","null","","Agent A","veridical","STIM_SET_2_144/1160204.bmp_pp54_L2_V1.0_veridical_freeview_isoTrue_fps144.mp4",""
"null","","","html-keyboard-response","210","605423","0.0-210.0","9afnfr99","","<span style=""color:Black; font-size:50px;"">Agent B","null","","","","",""
"null","","","video-keyboard-response","211","608510","0.0-211.0","9afnfr99","","","null","","Agent B","scrambled","STIM_SET_5/1160204.bmp_pp54_L2_V1.0_veridical_freeview_isoTrue_Hflip_fps144.mp4",""
"","","","call-function","212","608511","0.0-212.0","9afnfr99","","","","","","","",""
"1812.1999999999534","{""judgement"":0}","[0]","survey-likert","213","610324","0.0-213.0","9afnfr99","","","","","","","","0"
"2142.2550000000047","{""confidence"":1}","[0]","survey-likert","214","612467","0.0-214.0","9afnfr99","","","","","","","",""
"","","","call-function","215","612467","0.0-215.0","9afnfr99","","","","","","","",""
"null","","","html-keyboard-response","216","613969","0.0-216.0","9afnfr99","","<span style=""color:Black; font-size:50px;"">Agent A","null","","","","",""
"null","","","video-keyboard-response","217","617052","0.0-217.0","9afnfr99","","","null","","Agent A","veridical","STIM_SET_2_144/1159508.bmp_pp151_L1_V1.0_veridical_freeview_isoTrue_fps144.mp4",""
"null","","","html-keyboard-response","218","618554","0.0-218.0","9afnfr99","","<span style=""color:Black; font-size:50px;"">Agent B","null","","","","",""
"null","","","video-keyboard-response","219","621638","0.0-219.0","9afnfr99","","","null","","Agent B","scrambled","STIM_SET_5/1159508.bmp_pp151_L1_V1.0_veridical_freeview_isoTrue_Hflip_fps144.mp4",""
"","","","call-function","220","621638","0.0-220.0","9afnfr99","","","","","","","",""
"2426.984999999986","{""judgement"":1}","[0]","survey-likert","221","624066","0.0-221.0","9afnfr99","","","","","","","","0"
"1271.2399999999907","{""confidence"":1}","[0]","survey-likert","222","625338","0.0-222.0","9afnfr99","","","","","","","",""
"","","","call-function","223","625338","0.0-223.0","9afnfr99","","","","","","","",""
"null","","","html-keyboard-response","224","626839","0.0-224.0","9afnfr99","","<span style=""color:Black; font-size:50px;"">Agent A","null","","","","",""
"null","","","video-keyboard-response","225","629937","0.0-225.0","9afnfr99","","","null","","Agent A","veridical","STIM_SET_2_144/498025.bmp_pp81_L1_V1.0_veridical_freeview_isoTrue_fps144.mp4",""
"null","","","html-keyboard-response","226","631440","0.0-226.0","9afnfr99","","<span style=""color:Black; font-size:50px;"">Agent B","null","","","","",""
"null","","","video-keyboard-response","227","634538","0.0-227.0","9afnfr99","","","null","","Agent B","scrambled","STIM_SET_5/498025.bmp_pp81_L1_V1.0_veridical_freeview_isoTrue_Hflip_fps144.mp4",""
"","","","call-function","228","634538","0.0-228.0","9afnfr99","","","","","","","",""
"1381.1049999999814","{""judgement"":0}","[0]","survey-likert","229","635920","0.0-229.0","9afnfr99","","","","","","","","0"
"1771.1049999999814","{""confidence"":1}","[0]","survey-likert","230","637692","0.0-230.0","9afnfr99","","","","","","","",""
"","","","call-function","231","637693","0.0-231.0","9afnfr99","","","","","","","",""
"null","","","html-keyboard-response","232","639199","0.0-232.0","9afnfr99","","<span style=""color:Black; font-size:50px;"">Agent A","null","","","","",""
"null","","","video-keyboard-response","233","642275","0.0-233.0","9afnfr99","","","null","","Agent A","scrambled","STIM_SET_5/1159592.bmp_pp91_L3_V1.0_veridical_freeview_isoTrue_Hflip_fps144.mp4",""
"null","","","html-keyboard-response","234","643777","0.0-234.0","9afnfr99","","<span style=""color:Black; font-size:50px;"">Agent B","null","","","","",""
"null","","","video-keyboard-response","235","646853","0.0-235.0","9afnfr99","","","null","","Agent B","veridical","STIM_SET_2_144/1159592.bmp_pp91_L3_V1.0_veridical_freeview_isoTrue_fps144.mp4",""
"","","","call-function","236","646853","0.0-236.0","9afnfr99","","","","","","","",""
"2883.465000000084","{""judgement"":1}","[0]","survey-likert","237","649738","0.0-237.0","9afnfr99","","","","","","","","1"
"1442.1399999998976","{""confidence"":1}","[0]","survey-likert","238","651181","0.0-238.0","9afnfr99","","","","","","","",""
"","","","call-function","239","651181","0.0-239.0","9afnfr99","","","","","","","",""
"null","","","html-keyboard-response","240","652682","0.0-240.0","9afnfr99","","<span style=""color:Black; font-size:50px;"">Agent A","null","","","","",""
"null","","","video-keyboard-response","241","655746","0.0-241.0","9afnfr99","","","null","","Agent A","veridical","STIM_SET_2_144/1159860.bmp_pp152_L2_V1.0_veridical_freeview_isoTrue_fps144.mp4",""
"null","","","html-keyboard-response","242","657252","0.0-242.0","9afnfr99","","<span style=""color:Black; font-size:50px;"">Agent B","null","","","","",""
"null","","","video-keyboard-response","243","660313","0.0-243.0","9afnfr99","","","null","","Agent B","scrambled","STIM_SET_5/1159860.bmp_pp152_L2_V1.0_veridical_freeview_isoTrue_Hflip_fps144.mp4",""
"","","","call-function","244","660314","0.0-244.0","9afnfr99","","","","","","","",""
"1498.6499999999069","{""judgement"":0}","[0]","survey-likert","245","661814","0.0-245.0","9afnfr99","","","","","","","","0"
"1330.9000000000233","{""confidence"":1}","[0]","survey-likert","246","663146","0.0-246.0","9afnfr99","","","","","","","",""
"","","","call-function","247","663147","0.0-247.0","9afnfr99","","","","","","","",""
"null","","","html-keyboard-response","248","664648","0.0-248.0","9afnfr99","","<span style=""color:Black; font-size:50px;"">Agent A","null","","","","",""
"null","","","video-keyboard-response","249","667709","0.0-249.0","9afnfr99","","","null","","Agent A","veridical","STIM_SET_2_144/1592314.bmp_pp100_L3_V1.0_veridical_freeview_isoTrue_fps144.mp4",""
"null","","","html-keyboard-response","250","669216","0.0-250.0","9afnfr99","","<span style=""color:Black; font-size:50px;"">Agent B","null","","","","",""
"null","","","video-keyboard-response","251","672275","0.0-251.0","9afnfr99","","","null","","Agent B","scrambled","STIM_SET_5/1592314.bmp_pp100_L3_V1.0_veridical_freeview_isoTrue_Hflip_fps144.mp4",""
"","","","call-function","252","672276","0.0-252.0","9afnfr99","","","","","","","",""
"3400.2249999999767","{""judgement"":0}","[0]","survey-likert","253","675677","0.0-253.0","9afnfr99","","","","","","","","0"
"1704.469999999972","{""confidence"":1}","[0]","survey-likert","254","677382","0.0-254.0","9afnfr99","","","","","","","",""
"7227.160000000033","","","instructions","255","684610","0.0-255.0","9afnfr99","[{""page_index"":0,""viewing_time"":3868.8399999999674},{""page_index"":1,""viewing_time"":675.6199999999953},{""page_index"":2,""viewing_time"":2682.475000000093}]","","","","","","",""
"3195.3249999999534","","","instructions","256","687806","0.0-256.0","9afnfr99","[{""page_index"":0,""viewing_time"":1604.7999999999302},{""page_index"":1,""viewing_time"":1017.9100000000326},{""page_index"":2,""viewing_time"":572.5050000000047}]","","","","","","",""
"","","","call-function","257","687806","0.0-257.0","9afnfr99","","","","","","","",""
"null","","","html-keyboard-response","258","689312","0.0-258.0","9afnfr99","","<span style=""color:Black; font-size:50px;"">Agent A","null","","","","",""
"null","","","video-keyboard-response","259","692381","0.0-259.0","9afnfr99","","","null","","Agent A","scrambled","STIM_SET_5/1592530.bmp_pp75_L1_V1.0_veridical_freeview_isoTrue_Hflip_fps144.mp4",""
"null","","","html-keyboard-response","260","693885","0.0-260.0","9afnfr99","","<span style=""color:Black; font-size:50px;"">Agent B","null","","","","",""
"null","","","video-keyboard-response","261","696954","0.0-261.0","9afnfr99","","","null","","Agent B","veridical","STIM_SET_2_144/1592530.bmp_pp75_L1_V1.0_veridical_freeview_isoTrue_fps144.mp4",""
"","","","call-function","262","696954","0.0-262.0","9afnfr99","","","","","","","",""
"2498.75","{""judgement"":1}","[0]","survey-likert","263","699454","0.0-263.0","9afnfr99","","","","","","","","1"
"1179.140000000014","{""confidence"":1}","[0]","survey-likert","264","700634","0.0-264.0","9afnfr99","","","","","","","",""
"","","","call-function","265","700635","0.0-265.0","9afnfr99","","","","","","","",""
"null","","","html-keyboard-response","266","702140","0.0-266.0","9afnfr99","","<span style=""color:Black; font-size:50px;"">Agent A","null","","","","",""
"null","","","video-keyboard-response","267","705225","0.0-267.0","9afnfr99","","","null","","Agent A","scrambled","STIM_SET_5/1592567.bmp_pp70_L2_V1.0_veridical_freeview_isoTrue_Hflip_fps144.mp4",""
"null","","","html-keyboard-response","268","706731","0.0-268.0","9afnfr99","","<span style=""color:Black; font-size:50px;"">Agent B","null","","","","",""
"null","","","video-keyboard-response","269","709808","0.0-269.0","9afnfr99","","","null","","Agent B","veridical","STIM_SET_2_144/1592567.bmp_pp70_L2_V1.0_veridical_freeview_isoTrue_fps144.mp4",""
"","","","call-function","270","709808","0.0-270.0","9afnfr99","","","","","","","",""
"1322.8199999999488","{""judgement"":0}","[0]","survey-likert","271","711132","0.0-271.0","9afnfr99","","","","","","","","1"
"3333.3300000000745","{""confidence"":1}","[0]","survey-likert","272","714467","0.0-272.0","9afnfr99","","","","","","","",""
"","","","call-function","273","714467","0.0-273.0","9afnfr99","","","","","","","",""
"null","","","html-keyboard-response","274","715970","0.0-274.0","9afnfr99","","<span style=""color:Black; font-size:50px;"">Agent A","null","","","","",""
"null","","","video-keyboard-response","275","719054","0.0-275.0","9afnfr99","","","null","","Agent A","scrambled","STIM_SET_5/498258.bmp_pp51_L1_V1.0_veridical_freeview_isoTrue_Hflip_fps144.mp4",""
"null","","","html-keyboard-response","276","720558","0.0-276.0","9afnfr99","","<span style=""color:Black; font-size:50px;"">Agent B","null","","","","",""
"null","","","video-keyboard-response","277","723638","0.0-277.0","9afnfr99","","","null","","Agent B","veridical","STIM_SET_2_144/498258.bmp_pp51_L1_V1.0_veridical_freeview_isoTrue_fps144.mp4",""
"","","","call-function","278","723639","0.0-278.0","9afnfr99","","","","","","","",""
"2009.6049999999814","{""judgement"":0}","[0]","survey-likert","279","725649","0.0-279.0","9afnfr99","","","","","","","","1"
"3804.280000000028","{""confidence"":1}","[0]","survey-likert","280","729455","0.0-280.0","9afnfr99","","","","","","","",""
"","","","call-function","281","729455","0.0-281.0","9afnfr99","","","","","","","",""
"null","","","html-keyboard-response","282","730959","0.0-282.0","9afnfr99","","<span style=""color:Black; font-size:50px;"">Agent A","null","","","","",""
"null","","","video-keyboard-response","283","734024","0.0-283.0","9afnfr99","","","null","","Agent A","scrambled","STIM_SET_5/107955.bmp_pp90_L2_V1.0_veridical_freeview_isoTrue_Hflip_fps144.mp4",""
"null","","","html-keyboard-response","284","735529","0.0-284.0","9afnfr99","","<span style=""color:Black; font-size:50px;"">Agent B","null","","","","",""
"null","","","video-keyboard-response","285","738592","0.0-285.0","9afnfr99","","","null","","Agent B","veridical","STIM_SET_2_144/107955.bmp_pp90_L2_V1.0_veridical_freeview_isoTrue_fps144.mp4",""
"","","","call-function","286","738593","0.0-286.0","9afnfr99","","","","","","","",""
"2123.3150000000605","{""judgement"":0}","[0]","survey-likert","287","740717","0.0-287.0","9afnfr99","","","","","","","","1"
"2197.0050000000047","{""confidence"":1}","[0]","survey-likert","288","742915","0.0-288.0","9afnfr99","","","","","","","",""
"","","","call-function","289","742915","0.0-289.0","9afnfr99","","","","","","","",""
"null","","","html-keyboard-response","290","744417","0.0-290.0","9afnfr99","","<span style=""color:Black; font-size:50px;"">Agent A","null","","","","",""
"null","","","video-keyboard-response","291","747500","0.0-291.0","9afnfr99","","","null","","Agent A","veridical","STIM_SET_2_144/498396.bmp_pp99_L2_V1.0_veridical_freeview_isoTrue_fps144.mp4",""
"null","","","html-keyboard-response","292","749007","0.0-292.0","9afnfr99","","<span style=""color:Black; font-size:50px;"">Agent B","null","","","","",""
"null","","","video-keyboard-response","293","752094","0.0-293.0","9afnfr99","","","null","","Agent B","scrambled","STIM_SET_5/498396.bmp_pp99_L2_V1.0_veridical_freeview_isoTrue_Hflip_fps144.mp4",""
"","","","call-function","294","752095","0.0-294.0","9afnfr99","","","","","","","",""
"1479.9600000000792","{""judgement"":0}","[0]","survey-likert","295","753576","0.0-295.0","9afnfr99","","","","","","","","0"
"1605.219999999972","{""confidence"":1}","[0]","survey-likert","296","755184","0.0-296.0","9afnfr99","","","","","","","",""
"","","","call-function","297","755185","0.0-297.0","9afnfr99","","","","","","","",""
"null","","","html-keyboard-response","298","756687","0.0-298.0","9afnfr99","","<span style=""color:Black; font-size:50px;"">Agent A","null","","","","",""
"null","","","video-keyboard-response","299","759755","0.0-299.0","9afnfr99","","","null","","Agent A","veridical","STIM_SET_2_144/1592350.bmp_pp55_L3_V1.0_veridical_freeview_isoTrue_fps144.mp4",""
"null","","","html-keyboard-response","300","761257","0.0-300.0","9afnfr99","","<span style=""color:Black; font-size:50px;"">Agent B","null","","","","",""
"null","","","video-keyboard-response","301","764322","0.0-301.0","9afnfr99","","","null","","Agent B","scrambled","STIM_SET_5/1592350.bmp_pp55_L3_V1.0_veridical_freeview_isoTrue_Hflip_fps144.mp4",""
"","","","call-function","302","764323","0.0-302.0","9afnfr99","","","","","","","",""
"2034.4749999999767","{""judgement"":0}","[0]","survey-likert","303","766358","0.0-303.0","9afnfr99","","","","","","","","0"
"1597.4399999999441","{""confidence"":1}","[0]","survey-likert","304","767957","0.0-304.0","9afnfr99","","","","","","","",""
"","","","call-function","305","767958","0.0-305.0","9afnfr99","","","","","","","",""
"null","","","html-keyboard-response","306","769459","0.0-306.0","9afnfr99","","<span style=""color:Black; font-size:50px;"">Agent A","null","","","","",""
"null","","","video-keyboard-response","307","772520","0.0-307.0","9afnfr99","","","null","","Agent A","veridical","STIM_SET_2_144/1592951.bmp_pp80_L3_V1.0_veridical_freeview_isoTrue_fps144.mp4",""
"null","","","html-keyboard-response","308","774025","0.0-308.0","9afnfr99","","<span style=""color:Black; font-size:50px;"">Agent B","null","","","","",""
"null","","","video-keyboard-response","309","777089","0.0-309.0","9afnfr99","","","null","","Agent B","scrambled","STIM_SET_5/1592951.bmp_pp80_L3_V1.0_veridical_freeview_isoTrue_Hflip_fps144.mp4",""
"","","","call-function","310","777089","0.0-310.0","9afnfr99","","","","","","","",""
"3052.9499999999534","{""judgement"":0}","[0]","survey-likert","311","780143","0.0-311.0","9afnfr99","","","","","","","","0"
"1824.7850000000326","{""confidence"":1}","[0]","survey-likert","312","781969","0.0-312.0","9afnfr99","","","","","","","",""
"","","","call-function","313","781970","0.0-313.0","9afnfr99","","","","","","","",""
"null","","","html-keyboard-response","314","783471","0.0-314.0","9afnfr99","","<span style=""color:Black; font-size:50px;"">Agent A","null","","","","",""
"null","","","video-keyboard-response","315","786553","0.0-315.0","9afnfr99","","","null","","Agent A","scrambled","STIM_SET_5/713652.bmp_pp89_L1_V1_veridical_freeview_isoTrue_Hflip_fps144.mp4",""
"null","","","html-keyboard-response","316","788060","0.0-316.0","9afnfr99","","<span style=""color:Black; font-size:50px;"">Agent B","null","","","","",""
"null","","","video-keyboard-response","317","791137","0.0-317.0","9afnfr99","","","null","","Agent B","veridical","STIM_SET_2_144/713652.bmp_pp89_L1_V1_veridical_freeview_isoTrue_fps144.mp4",""
"","","","call-function","318","791137","0.0-318.0","9afnfr99","","","","","","","",""
"1998.75","{""judgement"":0}","[0]","survey-likert","319","793137","0.0-319.0","9afnfr99","","","","","","","","1"
"1310.6350000000093","{""confidence"":1}","[0]","survey-likert","320","794449","0.0-320.0","9afnfr99","","","","","","","",""
"","","","call-function","321","794449","0.0-321.0","9afnfr99","","","","","","","",""
"null","","","html-keyboard-response","322","795956","0.0-322.0","9afnfr99","","<span style=""color:Black; font-size:50px;"">Agent A","null","","","","",""
"null","","","video-keyboard-response","323","799031","0.0-323.0","9afnfr99","","","null","","Agent A","veridical","STIM_SET_2_144/1591975.bmp_pp88_L2_V1.0_veridical_freeview_isoTrue_fps144.mp4",""
"null","","","html-keyboard-response","324","800532","0.0-324.0","9afnfr99","","<span style=""color:Black; font-size:50px;"">Agent B","null","","","","",""
"null","","","video-keyboard-response","325","803608","0.0-325.0","9afnfr99","","","null","","Agent B","scrambled","STIM_SET_5/1591975.bmp_pp88_L2_V1.0_veridical_freeview_isoTrue_Hflip_fps144.mp4",""
"","","","call-function","326","803608","0.0-326.0","9afnfr99","","","","","","","",""
"1365.0950000000885","{""judgement"":0}","[0]","survey-likert","327","804974","0.0-327.0","9afnfr99","","","","","","","","0"
"1107.8149999999441","{""confidence"":1}","[0]","survey-likert","328","806083","0.0-328.0","9afnfr99","","","","","","","",""
"","","","call-function","329","806083","0.0-329.0","9afnfr99","","","","","","","",""
"null","","","html-keyboard-response","330","807584","0.0-330.0","9afnfr99","","<span style=""color:Black; font-size:50px;"">Agent A","null","","","","",""
"null","","","video-keyboard-response","331","810661","0.0-331.0","9afnfr99","","","null","","Agent A","veridical","STIM_SET_2_144/285684.bmp_pp80_L3_V1.0_veridical_freeview_isoTrue_fps144.mp4",""
"null","","","html-keyboard-response","332","812163","0.0-332.0","9afnfr99","","<span style=""color:Black; font-size:50px;"">Agent B","null","","","","",""
"null","","","video-keyboard-response","333","815239","0.0-333.0","9afnfr99","","","null","","Agent B","scrambled","STIM_SET_5/285684.bmp_pp80_L3_V1.0_veridical_freeview_isoTrue_Hflip_fps144.mp4",""
"","","","call-function","334","815239","0.0-334.0","9afnfr99","","","","","","","",""
"4130.359999999986","{""judgement"":0}","[0]","survey-likert","335","819370","0.0-335.0","9afnfr99","","","","","","","","0"
"2591.3150000000605","{""confidence"":1}","[0]","survey-likert","336","821963","0.0-336.0","9afnfr99","","","","","","","",""
"10117.845000000088","","","instructions","337","832081","0.0-337.0","9afnfr99","[{""page_index"":0,""viewing_time"":1721.2900000000373},{""page_index"":1,""viewing_time"":6777.300000000047},{""page_index"":2,""viewing_time"":1618.9949999999953}]","","","","","","",""
"2046.125","","","instructions","338","834128","0.0-338.0","9afnfr99","[{""page_index"":0,""viewing_time"":617.8850000000093},{""page_index"":1,""viewing_time"":704.109999999986},{""page_index"":2,""viewing_time"":724.0200000000186}]","","","","","","",""
"","","","call-function","339","834128","0.0-339.0","9afnfr99","","","","","","","",""
"null","","","html-keyboard-response","340","835632","0.0-340.0","9afnfr99","","<span style=""color:Black; font-size:50px;"">Agent A","null","","","","",""
"null","","","video-keyboard-response","341","838705","0.0-341.0","9afnfr99","","","null","","Agent A","veridical","STIM_SET_2_144/1592305.bmp_pp65_L3_V1.0_veridical_freeview_isoTrue_fps144.mp4",""
"null","","","html-keyboard-response","342","840208","0.0-342.0","9afnfr99","","<span style=""color:Black; font-size:50px;"">Agent B","null","","","","",""
"null","","","video-keyboard-response","343","843273","0.0-343.0","9afnfr99","","","null","","Agent B","scrambled","STIM_SET_5/1592305.bmp_pp65_L3_V1.0_veridical_freeview_isoTrue_Hflip_fps144.mp4",""
"","","","call-function","344","843274","0.0-344.0","9afnfr99","","","","","","","",""
"2238.7449999999953","{""judgement"":0}","[0]","survey-likert","345","845514","0.0-345.0","9afnfr99","","","","","","","","0"
"2060.9949999999953","{""confidence"":2}","[0]","survey-likert","346","847577","0.0-346.0","9afnfr99","","","","","","","",""
"","","","call-function","347","847578","0.0-347.0","9afnfr99","","","","","","","",""
"null","","","html-keyboard-response","348","849085","0.0-348.0","9afnfr99","","<span style=""color:Black; font-size:50px;"">Agent A","null","","","","",""
"null","","","video-keyboard-response","349","852153","0.0-349.0","9afnfr99","","","null","","Agent A","veridical","STIM_SET_2_144/1592201.bmp_pp97_L3_V1.0_veridical_freeview_isoTrue_fps144.mp4",""
"null","","","html-keyboard-response","350","853655","0.0-350.0","9afnfr99","","<span style=""color:Black; font-size:50px;"">Agent B","null","","","","",""
"null","","","video-keyboard-response","351","856722","0.0-351.0","9afnfr99","","","null","","Agent B","scrambled","STIM_SET_5/1592201.bmp_pp97_L3_V1.0_veridical_freeview_isoTrue_Hflip_fps144.mp4",""
"","","","call-function","352","856723","0.0-352.0","9afnfr99","","","","","","","",""
"1825.9150000000373","{""judgement"":0}","[0]","survey-likert","353","858550","0.0-353.0","9afnfr99","","","","","","","","0"
"1346.4250000000466","{""confidence"":2}","[0]","survey-likert","354","859897","0.0-354.0","9afnfr99","","","","","","","",""
"","","","call-function","355","859898","0.0-355.0","9afnfr99","","","","","","","",""
"null","","","html-keyboard-response","356","861402","0.0-356.0","9afnfr99","","<span style=""color:Black; font-size:50px;"">Agent A","null","","","","",""
"null","","","video-keyboard-response","357","864463","0.0-357.0","9afnfr99","","","null","","Agent A","scrambled","STIM_SET_5/286034.bmp_pp69_L3_V1.0_veridical_freeview_isoTrue_Hflip_fps144.mp4",""
"null","","","html-keyboard-response","358","865965","0.0-358.0","9afnfr99","","<span style=""color:Black; font-size:50px;"">Agent B","null","","","","",""
"null","","","video-keyboard-response","359","869024","0.0-359.0","9afnfr99","","","null","","Agent B","veridical","STIM_SET_2_144/286034.bmp_pp69_L3_V1.0_veridical_freeview_isoTrue_fps144.mp4",""
"","","","call-function","360","869024","0.0-360.0","9afnfr99","","","","","","","",""
"1692.1500000000233","{""judgement"":0}","[0]","survey-likert","361","870717","0.0-361.0","9afnfr99","","","","","","","","1"
"1053.1750000000466","{""confidence"":2}","[0]","survey-likert","362","871772","0.0-362.0","9afnfr99","","","","","","","",""
"","","","call-function","363","871772","0.0-363.0","9afnfr99","","","","","","","",""
"null","","","html-keyboard-response","364","873274","0.0-364.0","9afnfr99","","<span style=""color:Black; font-size:50px;"">Agent A","null","","","","",""
"null","","","video-keyboard-response","365","876375","0.0-365.0","9afnfr99","","","null","","Agent A","veridical","STIM_SET_2_144/1592568.bmp_pp71_L1_V1.0_veridical_freeview_isoTrue_fps144.mp4",""
"null","","","html-keyboard-response","366","877882","0.0-366.0","9afnfr99","","<span style=""color:Black; font-size:50px;"">Agent B","null","","","","",""
"null","","","video-keyboard-response","367","880968","0.0-367.0","9afnfr99","","","null","","Agent B","scrambled","STIM_SET_5/1592568.bmp_pp71_L1_V1.0_veridical_freeview_isoTrue_Hflip_fps144.mp4",""
"","","","call-function","368","880968","0.0-368.0","9afnfr99","","","","","","","",""
"1453.0199999999022","{""judgement"":0}","[0]","survey-likert","369","882422","0.0-369.0","9afnfr99","","","","","","","","0"
"1174.765000000014","{""confidence"":2}","[0]","survey-likert","370","883598","0.0-370.0","9afnfr99","","","","","","","",""
"","","","call-function","371","883599","0.0-371.0","9afnfr99","","","","","","","",""
"null","","","html-keyboard-response","372","885102","0.0-372.0","9afnfr99","","<span style=""color:Black; font-size:50px;"">Agent A","null","","","","",""
"null","","","video-keyboard-response","373","888185","0.0-373.0","9afnfr99","","","null","","Agent A","scrambled","STIM_SET_5/1159973.bmp_pp98_L1_V1.0_veridical_freeview_isoTrue_Hflip_fps144.mp4",""
"null","","","html-keyboard-response","374","889688","0.0-374.0","9afnfr99","","<span style=""color:Black; font-size:50px;"">Agent B","null","","","","",""
"null","","","video-keyboard-response","375","892770","0.0-375.0","9afnfr99","","","null","","Agent B","veridical","STIM_SET_2_144/1159973.bmp_pp98_L1_V1.0_veridical_freeview_isoTrue_fps144.mp4",""
"","","","call-function","376","892771","0.0-376.0","9afnfr99","","","","","","","",""
"2156.9749999999767","{""judgement"":1}","[0]","survey-likert","377","894929","0.0-377.0","9afnfr99","","","","","","","","1"
"6457.310000000056","{""confidence"":2}","[0]","survey-likert","378","901387","0.0-378.0","9afnfr99","","","","","","","",""
"","","","call-function","379","901387","0.0-379.0","9afnfr99","","","","","","","",""
"null","","","html-keyboard-response","380","902890","0.0-380.0","9afnfr99","","<span style=""color:Black; font-size:50px;"">Agent A","null","","","","",""
"null","","","video-keyboard-response","381","905983","0.0-381.0","9afnfr99","","","null","","Agent A","scrambled","STIM_SET_5/713770.bmp_pp89_L1_V1.0_veridical_freeview_isoTrue_Hflip_fps144.mp4",""
"null","","","html-keyboard-response","382","907485","0.0-382.0","9afnfr99","","<span style=""color:Black; font-size:50px;"">Agent B","null","","","","",""
"null","","","video-keyboard-response","383","910571","0.0-383.0","9afnfr99","","","null","","Agent B","veridical","STIM_SET_2_144/713770.bmp_pp89_L1_V1.0_veridical_freeview_isoTrue_fps144.mp4",""
"","","","call-function","384","910571","0.0-384.0","9afnfr99","","","","","","","",""
"1239.0100000000093","{""judgement"":0}","[0]","survey-likert","385","911811","0.0-385.0","9afnfr99","","","","","","","","1"
"2001.6149999999907","{""confidence"":2}","[0]","survey-likert","386","913814","0.0-386.0","9afnfr99","","","","","","","",""
"","","","call-function","387","913815","0.0-387.0","9afnfr99","","","","","","","",""
"null","","","html-keyboard-response","388","915319","0.0-388.0","9afnfr99","","<span style=""color:Black; font-size:50px;"">Agent A","null","","","","",""
"null","","","video-keyboard-response","389","918401","0.0-389.0","9afnfr99","","","null","","Agent A","scrambled","STIM_SET_5/285946.bmp_pp79_L2_V1.0_veridical_freeview_isoTrue_Hflip_fps144.mp4",""
"null","","","html-keyboard-response","390","919905","0.0-390.0","9afnfr99","","<span style=""color:Black; font-size:50px;"">Agent B","null","","","","",""
"null","","","video-keyboard-response","391","922984","0.0-391.0","9afnfr99","","","null","","Agent B","veridical","STIM_SET_2_144/285946.bmp_pp79_L2_V1.0_veridical_freeview_isoTrue_fps144.mp4",""
"","","","call-function","392","922985","0.0-392.0","9afnfr99","","","","","","","",""
"1739.1350000000093","{""judgement"":0}","[0]","survey-likert","393","924725","0.0-393.0","9afnfr99","","","","","","","","1"
"1550.5249999999069","{""confidence"":2}","[0]","survey-likert","394","926276","0.0-394.0","9afnfr99","","","","","","","",""
"","","","call-function","395","926277","0.0-395.0","9afnfr99","","","","","","","",""
"null","","","html-keyboard-response","396","927779","0.0-396.0","9afnfr99","","<span style=""color:Black; font-size:50px;"">Agent A","null","","","","",""
"null","","","video-keyboard-response","397","930854","0.0-397.0","9afnfr99","","","null","","Agent A","scrambled","STIM_SET_5/1160247.bmp_pp54_L2_V1.0_veridical_freeview_isoTrue_Hflip_fps144.mp4",""
"null","","","html-keyboard-response","398","932359","0.0-398.0","9afnfr99","","<span style=""color:Black; font-size:50px;"">Agent B","null","","","","",""
"null","","","video-keyboard-response","399","935435","0.0-399.0","9afnfr99","","","null","","Agent B","veridical","STIM_SET_2_144/1160247.bmp_pp54_L2_V1.0_veridical_freeview_isoTrue_fps144.mp4",""
"","","","call-function","400","935436","0.0-400.0","9afnfr99","","","","","","","",""
"1405.7750000000233","{""judgement"":0}","[0]","survey-likert","401","936843","0.0-401.0","9afnfr99","","","","","","","","1"
"1046.6300000000047","{""confidence"":2}","[0]","survey-likert","402","937892","0.0-402.0","9afnfr99","","","","","","","",""
"","","","call-function","403","937893","0.0-403.0","9afnfr99","","","","","","","",""
"null","","","html-keyboard-response","404","939395","0.0-404.0","9afnfr99","","<span style=""color:Black; font-size:50px;"">Agent A","null","","","","",""
"null","","","video-keyboard-response","405","942458","0.0-405.0","9afnfr99","","","null","","Agent A","veridical","STIM_SET_2_144/498398.bmp_pp81_L1_V1.0_veridical_freeview_isoTrue_fps144.mp4",""
"null","","","html-keyboard-response","406","943962","0.0-406.0","9afnfr99","","<span style=""color:Black; font-size:50px;"">Agent B","null","","","","",""
"null","","","video-keyboard-response","407","947024","0.0-407.0","9afnfr99","","","null","","Agent B","scrambled","STIM_SET_5/498398.bmp_pp81_L1_V1.0_veridical_freeview_isoTrue_Hflip_fps144.mp4",""
"","","","call-function","408","947025","0.0-408.0","9afnfr99","","","","","","","",""
"2324.194999999949","{""judgement"":0}","[0]","survey-likert","409","949350","0.0-409.0","9afnfr99","","","","","","","","0"
"1957.4599999999627","{""confidence"":2}","[0]","survey-likert","410","951309","0.0-410.0","9afnfr99","","","","","","","",""
"","","","call-function","411","951310","0.0-411.0","9afnfr99","","","","","","","",""
"null","","","html-keyboard-response","412","952816","0.0-412.0","9afnfr99","","<span style=""color:Black; font-size:50px;"">Agent A","null","","","","",""
"null","","","video-keyboard-response","413","955878","0.0-413.0","9afnfr99","","","null","","Agent A","scrambled","STIM_SET_5/1592129.bmp_pp153_L3_V1.0_veridical_freeview_isoTrue_Hflip_fps144.mp4",""
"null","","","html-keyboard-response","414","957385","0.0-414.0","9afnfr99","","<span style=""color:Black; font-size:50px;"">Agent B","null","","","","",""
"null","","","video-keyboard-response","415","960446","0.0-415.0","9afnfr99","","","null","","Agent B","veridical","STIM_SET_2_144/1592129.bmp_pp153_L3_V1.0_veridical_freeview_isoTrue_fps144.mp4",""
"","","","call-function","416","960447","0.0-416.0","9afnfr99","","","","","","","",""
"1556.5550000000512","{""judgement"":0}","[0]","survey-likert","417","962004","0.0-417.0","9afnfr99","","","","","","","","1"
"1824.1149999999907","{""confidence"":2}","[0]","survey-likert","418","963830","0.0-418.0","9afnfr99","","","","","","","",""
"14876.670000000042","","","instructions","419","978707","0.0-419.0","9afnfr99","[{""page_index"":0,""viewing_time"":882.0799999999581},{""page_index"":1,""viewing_time"":13246.470000000088},{""page_index"":2,""viewing_time"":747.9699999999721}]","","","","","","",""
"3571.774999999907","","","instructions","420","982279","0.0-420.0","9afnfr99","[{""page_index"":0,""viewing_time"":1858.8499999999767},{""page_index"":1,""viewing_time"":973.6999999999534},{""page_index"":2,""viewing_time"":739.1199999999953}]","","","","","","",""
"","","","call-function","421","982279","0.0-421.0","9afnfr99","","","","","","","",""
"null","","","html-keyboard-response","422","983781","0.0-422.0","9afnfr99","","<span style=""color:Black; font-size:50px;"">Agent A","null","","","","",""
"null","","","video-keyboard-response","423","986840","0.0-423.0","9afnfr99","","","null","","Agent A","veridical","STIM_SET_2_144/1592017.bmp_pp154_L1_V1.0_veridical_freeview_isoTrue_fps144.mp4",""
"null","","","html-keyboard-response","424","988342","0.0-424.0","9afnfr99","","<span style=""color:Black; font-size:50px;"">Agent B","null","","","","",""
"null","","","video-keyboard-response","425","991428","0.0-425.0","9afnfr99","","","null","","Agent B","scrambled","STIM_SET_5/1592017.bmp_pp154_L1_V1.0_veridical_freeview_isoTrue_Hflip_fps144.mp4",""
"","","","call-function","426","991428","0.0-426.0","9afnfr99","","","","","","","",""
"2295.1049999999814","{""judgement"":0}","[0]","survey-likert","427","993724","0.0-427.0","9afnfr99","","","","","","","","0"
"1073.6800000000512","{""confidence"":2}","[0]","survey-likert","428","994800","0.0-428.0","9afnfr99","","","","","","","",""
"","","","call-function","429","994800","0.0-429.0","9afnfr99","","","","","","","",""
"null","","","html-keyboard-response","430","996305","0.0-430.0","9afnfr99","","<span style=""color:Black; font-size:50px;"">Agent A","null","","","","",""
"null","","","video-keyboard-response","431","999389","0.0-431.0","9afnfr99","","","null","","Agent A","scrambled","STIM_SET_5/713920.bmp_pp76_L1_V1.0_veridical_freeview_isoTrue_Hflip_fps144.mp4",""
"null","","","html-keyboard-response","432","1000890","0.0-432.0","9afnfr99","","<span style=""color:Black; font-size:50px;"">Agent B","null","","","","",""
"null","","","video-keyboard-response","433","1003971","0.0-433.0","9afnfr99","","","null","","Agent B","veridical","STIM_SET_2_144/713920.bmp_pp76_L1_V1.0_veridical_freeview_isoTrue_fps144.mp4",""
"","","","call-function","434","1003971","0.0-434.0","9afnfr99","","","","","","","",""
"4774.974999999977","{""judgement"":1}","[0]","survey-likert","435","1008747","0.0-435.0","9afnfr99","","","","","","","","1"
"3753.54999999993","{""confidence"":2}","[0]","survey-likert","436","1012502","0.0-436.0","9afnfr99","","","","","","","",""
"","","","call-function","437","1012503","0.0-437.0","9afnfr99","","","","","","","",""
"null","","","html-keyboard-response","438","1014005","0.0-438.0","9afnfr99","","<span style=""color:Black; font-size:50px;"">Agent A","null","","","","",""
"null","","","video-keyboard-response","439","1017077","0.0-439.0","9afnfr99","","","null","","Agent A","scrambled","STIM_SET_5/1159819.bmp_pp151_L1_V1.0_veridical_freeview_isoTrue_Hflip_fps144.mp4",""
"null","","","html-keyboard-response","440","1018584","0.0-440.0","9afnfr99","","<span style=""color:Black; font-size:50px;"">Agent B","null","","","","",""
"null","","","video-keyboard-response","441","1021652","0.0-441.0","9afnfr99","","","null","","Agent B","veridical","STIM_SET_2_144/1159819.bmp_pp151_L1_V1.0_veridical_freeview_isoTrue_fps144.mp4",""
"","","","call-function","442","1021653","0.0-442.0","9afnfr99","","","","","","","",""
"2351.984999999986","{""judgement"":0}","[0]","survey-likert","443","1024006","0.0-443.0","9afnfr99","","","","","","","","1"
"1287.9949999999953","{""confidence"":2}","[0]","survey-likert","444","1025295","0.0-444.0","9afnfr99","","","","","","","",""
"","","","call-function","445","1025295","0.0-445.0","9afnfr99","","","","","","","",""
"null","","","html-keyboard-response","446","1026799","0.0-446.0","9afnfr99","","<span style=""color:Black; font-size:50px;"">Agent A","null","","","","",""
"null","","","video-keyboard-response","447","1029863","0.0-447.0","9afnfr99","","","null","","Agent A","scrambled","STIM_SET_5/498326.bmp_pp57_L1_V1.0_veridical_freeview_isoTrue_Hflip_fps144.mp4",""
"null","","","html-keyboard-response","448","1031368","0.0-448.0","9afnfr99","","<span style=""color:Black; font-size:50px;"">Agent B","null","","","","",""
"null","","","video-keyboard-response","449","1034430","0.0-449.0","9afnfr99","","","null","","Agent B","veridical","STIM_SET_2_144/498326.bmp_pp57_L1_V1.0_veridical_freeview_isoTrue_fps144.mp4",""
"","","","call-function","450","1034431","0.0-450.0","9afnfr99","","","","","","","",""
"3081.7249999999767","{""judgement"":0}","[0]","survey-likert","451","1037514","0.0-451.0","9afnfr99","","","","","","","","1"
"2019.545000000042","{""confidence"":2}","[0]","survey-likert","452","1039534","0.0-452.0","9afnfr99","","","","","","","",""
"","","","call-function","453","1039535","0.0-453.0","9afnfr99","","","","","","","",""
"null","","","html-keyboard-response","454","1041036","0.0-454.0","9afnfr99","","<span style=""color:Black; font-size:50px;"">Agent A","null","","","","",""
"null","","","video-keyboard-response","455","1044124","0.0-455.0","9afnfr99","","","null","","Agent A","scrambled","STIM_SET_5/285715.bmp_pp67_L2_V1.0_veridical_freeview_isoTrue_Hflip_fps144.mp4",""
"null","","","html-keyboard-response","456","1045626","0.0-456.0","9afnfr99","","<span style=""color:Black; font-size:50px;"">Agent B","null","","","","",""
"null","","","video-keyboard-response","457","1048700","0.0-457.0","9afnfr99","","","null","","Agent B","veridical","STIM_SET_2_144/285715.bmp_pp67_L2_V1.0_veridical_freeview_isoTrue_fps144.mp4",""
"","","","call-function","458","1048701","0.0-458.0","9afnfr99","","","","","","","",""
"1622.5549999999348","{""judgement"":0}","[0]","survey-likert","459","1050324","0.0-459.0","9afnfr99","","","","","","","","1"
"1742.5449999999255","{""confidence"":2}","[0]","survey-likert","460","1052068","0.0-460.0","9afnfr99","","","","","","","",""
"","","","call-function","461","1052069","0.0-461.0","9afnfr99","","","","","","","",""
"null","","","html-keyboard-response","462","1053571","0.0-462.0","9afnfr99","","<span style=""color:Black; font-size:50px;"">Agent A","null","","","","",""
"null","","","video-keyboard-response","463","1056658","0.0-463.0","9afnfr99","","","null","","Agent A","veridical","STIM_SET_2_144/1591781.bmp_pp63_L1_V1.0_veridical_freeview_isoTrue_fps144.mp4",""
"null","","","html-keyboard-response","464","1058161","0.0-464.0","9afnfr99","","<span style=""color:Black; font-size:50px;"">Agent B","null","","","","",""
"null","","","video-keyboard-response","465","1061250","0.0-465.0","9afnfr99","","","null","","Agent B","scrambled","STIM_SET_5/1591781.bmp_pp63_L1_V1.0_veridical_freeview_isoTrue_Hflip_fps144.mp4",""
"","","","call-function","466","1061250","0.0-466.0","9afnfr99","","","","","","","",""
"2928.3050000001676","{""judgement"":0}","[0]","survey-likert","467","1064179","0.0-467.0","9afnfr99","","","","","","","","0"
"2068.160000000149","{""confidence"":2}","[0]","survey-likert","468","1066248","0.0-468.0","9afnfr99","","","","","","","",""
"","","","call-function","469","1066249","0.0-469.0","9afnfr99","","","","","","","",""
"null","","","html-keyboard-response","470","1067753","0.0-470.0","9afnfr99","","<span style=""color:Black; font-size:50px;"">Agent A","null","","","","",""
"null","","","video-keyboard-response","471","1070831","0.0-471.0","9afnfr99","","","null","","Agent A","veridical","STIM_SET_2_144/713829.bmp_pp60_L3_V1.0_veridical_freeview_isoTrue_fps144.mp4",""
"null","","","html-keyboard-response","472","1072337","0.0-472.0","9afnfr99","","<span style=""color:Black; font-size:50px;"">Agent B","null","","","","",""
"null","","","video-keyboard-response","473","1075414","0.0-473.0","9afnfr99","","","null","","Agent B","scrambled","STIM_SET_5/713829.bmp_pp60_L3_V1.0_veridical_freeview_isoTrue_Hflip_fps144.mp4",""
"","","","call-function","474","1075414","0.0-474.0","9afnfr99","","","","","","","",""
"2251.2750000001397","{""judgement"":0}","[0]","survey-likert","475","1077666","0.0-475.0","9afnfr99","","","","","","","","0"
"1495.9500000001863","{""confidence"":2}","[0]","survey-likert","476","1079163","0.0-476.0","9afnfr99","","","","","","","",""
"","","","call-function","477","1079164","0.0-477.0","9afnfr99","","","","","","","",""
"null","","","html-keyboard-response","478","1080667","0.0-478.0","9afnfr99","","<span style=""color:Black; font-size:50px;"">Agent A","null","","","","",""
"null","","","video-keyboard-response","479","1083743","0.0-479.0","9afnfr99","","","null","","Agent A","veridical","STIM_SET_2_144/713381.bmp_pp82_L2_V1.0_veridical_freeview_isoTrue_fps144.mp4",""
"null","","","html-keyboard-response","480","1085246","0.0-480.0","9afnfr99","","<span style=""color:Black; font-size:50px;"">Agent B","null","","","","",""
"null","","","video-keyboard-response","481","1088319","0.0-481.0","9afnfr99","","","null","","Agent B","scrambled","STIM_SET_5/713381.bmp_pp82_L2_V1.0_veridical_freeview_isoTrue_Hflip_fps144.mp4",""
"","","","call-function","482","1088320","0.0-482.0","9afnfr99","","","","","","","",""
"3052.945000000065","{""judgement"":1}","[0]","survey-likert","483","1091374","0.0-483.0","9afnfr99","","","","","","","","0"
"1008.8549999999814","{""confidence"":1}","[0]","survey-likert","484","1092385","0.0-484.0","9afnfr99","","","","","","","",""
"","","","call-function","485","1092386","0.0-485.0","9afnfr99","","","","","","","",""
"null","","","html-keyboard-response","486","1093893","0.0-486.0","9afnfr99","","<span style=""color:Black; font-size:50px;"">Agent A","null","","","","",""
"null","","","video-keyboard-response","487","1096968","0.0-487.0","9afnfr99","","","null","","Agent A","scrambled","STIM_SET_5/107909.bmp_pp95_L2_V1.0_veridical_freeview_isoTrue_Hflip_fps144.mp4",""
"null","","","html-keyboard-response","488","1098469","0.0-488.0","9afnfr99","","<span style=""color:Black; font-size:50px;"">Agent B","null","","","","",""
"null","","","video-keyboard-response","489","1101545","0.0-489.0","9afnfr99","","","null","","Agent B","veridical","STIM_SET_2_144/107909.bmp_pp95_L2_V1.0_veridical_freeview_isoTrue_fps144.mp4",""
"","","","call-function","490","1101545","0.0-490.0","9afnfr99","","","","","","","",""
"1642.2949999999255","{""judgement"":0}","[0]","survey-likert","491","1103189","0.0-491.0","9afnfr99","","","","","","","","1"
"1008.1049999999814","{""confidence"":1}","[0]","survey-likert","492","1104198","0.0-492.0","9afnfr99","","","","","","","",""
"","","","call-function","493","1104198","0.0-493.0","9afnfr99","","","","","","","",""
"null","","","html-keyboard-response","494","1105701","0.0-494.0","9afnfr99","","<span style=""color:Black; font-size:50px;"">Agent A","null","","","","",""
"null","","","video-keyboard-response","495","1108769","0.0-495.0","9afnfr99","","","null","","Agent A","veridical","STIM_SET_2_144/713274.bmp_pp73_L3_V1.0_veridical_freeview_isoTrue_fps144.mp4",""
"null","","","html-keyboard-response","496","1110274","0.0-496.0","9afnfr99","","<span style=""color:Black; font-size:50px;"">Agent B","null","","","","",""
"null","","","video-keyboard-response","497","1113340","0.0-497.0","9afnfr99","","","null","","Agent B","scrambled","STIM_SET_5/713274.bmp_pp73_L3_V1.0_veridical_freeview_isoTrue_Hflip_fps144.mp4",""
"","","","call-function","498","1113341","0.0-498.0","9afnfr99","","","","","","","",""
"1688.7049999998417","{""judgement"":0}","[0]","survey-likert","499","1115031","0.0-499.0","9afnfr99","","","","","","","","0"
"1684.8149999999441","{""confidence"":2}","[0]","survey-likert","500","1116717","0.0-500.0","9afnfr99","","","","","","","",""
"1862.8100000000559","","","instructions","501","1118580","0.0-501.0","9afnfr99","[{""page_index"":0,""viewing_time"":813.2900000000373},{""page_index"":1,""viewing_time"":505.49500000011176},{""page_index"":2,""viewing_time"":543.8449999999721}]","","","","","","",""
"1249.6850000000559","","","instructions","502","1119830","0.0-502.0","9afnfr99","[{""page_index"":0,""viewing_time"":381.4399999999441},{""page_index"":1,""viewing_time"":413},{""page_index"":2,""viewing_time"":455.0250000001397}]","","","","","","",""
"","","","call-function","503","1119830","0.0-503.0","9afnfr99","","","","","","","",""
"null","","","html-keyboard-response","504","1121331","0.0-504.0","9afnfr99","","<span style=""color:Black; font-size:50px;"">Agent A","null","","","","",""
"null","","","video-keyboard-response","505","1124425","0.0-505.0","9afnfr99","","","null","","Agent A","scrambled","STIM_SET_5/1160189.bmp_pp64_L1_V1.0_veridical_freeview_isoTrue_Hflip_fps144.mp4",""
"null","","","html-keyboard-response","506","1125928","0.0-506.0","9afnfr99","","<span style=""color:Black; font-size:50px;"">Agent B","null","","","","",""
"null","","","video-keyboard-response","507","1129012","0.0-507.0","9afnfr99","","","null","","Agent B","veridical","STIM_SET_2_144/1160189.bmp_pp64_L1_V1.0_veridical_freeview_isoTrue_fps144.mp4",""
"","","","call-function","508","1129012","0.0-508.0","9afnfr99","","","","","","","",""
"1515.4399999999441","{""judgement"":0}","[0]","survey-likert","509","1130528","0.0-509.0","9afnfr99","","","","","","","","1"
"1798.125","{""confidence"":2}","[0]","survey-likert","510","1132328","0.0-510.0","9afnfr99","","","","","","","",""
"","","","call-function","511","1132328","0.0-511.0","9afnfr99","","","","","","","",""
"null","","","html-keyboard-response","512","1133829","0.0-512.0","9afnfr99","","<span style=""color:Black; font-size:50px;"">Agent A","null","","","","",""
"null","","","video-keyboard-response","513","1136922","0.0-513.0","9afnfr99","","","null","","Agent A","veridical","STIM_SET_2_144/713633.bmp_pp58_L1_V1.0_veridical_freeview_isoTrue_fps144.mp4",""
"null","","","html-keyboard-response","514","1138425","0.0-514.0","9afnfr99","","<span style=""color:Black; font-size:50px;"">Agent B","null","","","","",""
"null","","","video-keyboard-response","515","1141514","0.0-515.0","9afnfr99","","","null","","Agent B","scrambled","STIM_SET_5/713633.bmp_pp58_L1_V1.0_veridical_freeview_isoTrue_Hflip_fps144.mp4",""
"","","","call-function","516","1141515","0.0-516.0","9afnfr99","","","","","","","",""
"1274.5849999999627","{""judgement"":0}","[0]","survey-likert","517","1142790","0.0-517.0","9afnfr99","","","","","","","","0"
"1982.1899999999441","{""confidence"":2}","[0]","survey-likert","518","1144774","0.0-518.0","9afnfr99","","","","","","","",""
"","","","call-function","519","1144774","0.0-519.0","9afnfr99","","","","","","","",""
"null","","","html-keyboard-response","520","1146279","0.0-520.0","9afnfr99","","<span style=""color:Black; font-size:50px;"">Agent A","null","","","","",""
"null","","","video-keyboard-response","521","1149368","0.0-521.0","9afnfr99","","","null","","Agent A","scrambled","STIM_SET_5/713742.bmp_pp91_L3_V1.0_veridical_freeview_isoTrue_Hflip_fps144.mp4",""
"null","","","html-keyboard-response","522","1150875","0.0-522.0","9afnfr99","","<span style=""color:Black; font-size:50px;"">Agent B","null","","","","",""
"null","","","video-keyboard-response","523","1153965","0.0-523.0","9afnfr99","","","null","","Agent B","veridical","STIM_SET_2_144/713742.bmp_pp91_L3_V1.0_veridical_freeview_isoTrue_fps144.mp4",""
"","","","call-function","524","1153966","0.0-524.0","9afnfr99","","","","","","","",""
"1511.9399999999441","{""judgement"":0}","[0]","survey-likert","525","1155479","0.0-525.0","9afnfr99","","","","","","","","1"
"1943.6699999999255","{""confidence"":2}","[0]","survey-likert","526","1157424","0.0-526.0","9afnfr99","","","","","","","",""
"","","","call-function","527","1157424","0.0-527.0","9afnfr99","","","","","","","",""
"null","","","html-keyboard-response","528","1158928","0.0-528.0","9afnfr99","","<span style=""color:Black; font-size:50px;"">Agent A","null","","","","",""
"null","","","video-keyboard-response","529","1161987","0.0-529.0","9afnfr99","","","null","","Agent A","veridical","STIM_SET_2_144/1591920.bmp_pp97_L3_V1_veridical_freeview_isoTrue_fps144.mp4",""
"null","","","html-keyboard-response","530","1163492","0.0-530.0","9afnfr99","","<span style=""color:Black; font-size:50px;"">Agent B","null","","","","",""
"null","","","video-keyboard-response","531","1166550","0.0-531.0","9afnfr99","","","null","","Agent B","scrambled","STIM_SET_5/1591920.bmp_pp97_L3_V1_veridical_freeview_isoTrue_Hflip_fps144.mp4",""
"","","","call-function","532","1166551","0.0-532.0","9afnfr99","","","","","","","",""
"1615.6049999999814","{""judgement"":0}","[0]","survey-likert","533","1168167","0.0-533.0","9afnfr99","","","","","","","","0"
"2720.940000000177","{""confidence"":2}","[0]","survey-likert","534","1170889","0.0-534.0","9afnfr99","","","","","","","",""
"","","","call-function","535","1170889","0.0-535.0","9afnfr99","","","","","","","",""
"null","","","html-keyboard-response","536","1172396","0.0-536.0","9afnfr99","","<span style=""color:Black; font-size:50px;"">Agent A","null","","","","",""
"null","","","video-keyboard-response","537","1175465","0.0-537.0","9afnfr99","","","null","","Agent A","veridical","STIM_SET_2_144/1592921.bmp_pp69_L3_V1.0_veridical_freeview_isoTrue_fps144.mp4",""
"null","","","html-keyboard-response","538","1176972","0.0-538.0","9afnfr99","","<span style=""color:Black; font-size:50px;"">Agent B","null","","","","",""
"null","","","video-keyboard-response","539","1180037","0.0-539.0","9afnfr99","","","null","","Agent B","scrambled","STIM_SET_5/1592921.bmp_pp69_L3_V1.0_veridical_freeview_isoTrue_Hflip_fps144.mp4",""
"","","","call-function","540","1180039","0.0-540.0","9afnfr99","","","","","","","",""
"1667.4549999998417","{""judgement"":0}","[0]","survey-likert","541","1181708","0.0-541.0","9afnfr99","","","","","","","","0"
"1894.1850000000559","{""confidence"":2}","[0]","survey-likert","542","1183603","0.0-542.0","9afnfr99","","","","","","","",""
"","","","call-function","543","1183603","0.0-543.0","9afnfr99","","","","","","","",""
"null","","","html-keyboard-response","544","1185109","0.0-544.0","9afnfr99","","<span style=""color:Black; font-size:50px;"">Agent A","null","","","","",""
"null","","","video-keyboard-response","545","1188186","0.0-545.0","9afnfr99","","","null","","Agent A","veridical","STIM_SET_2_144/1159874.bmp_pp96_L2_V1.0_veridical_freeview_isoTrue_fps144.mp4",""
"null","","","html-keyboard-response","546","1189692","0.0-546.0","9afnfr99","","<span style=""color:Black; font-size:50px;"">Agent B","null","","","","",""
"null","","","video-keyboard-response","547","1192768","0.0-547.0","9afnfr99","","","null","","Agent B","scrambled","STIM_SET_5/1159874.bmp_pp96_L2_V1.0_veridical_freeview_isoTrue_Hflip_fps144.mp4",""
"","","","call-function","548","1192768","0.0-548.0","9afnfr99","","","","","","","",""
"1399.5900000000838","{""judgement"":0}","[0]","survey-likert","549","1194169","0.0-549.0","9afnfr99","","","","","","","","0"
"1364.469999999972","{""confidence"":2}","[0]","survey-likert","550","1195535","0.0-550.0","9afnfr99","","","","","","","",""
"","","","call-function","551","1195536","0.0-551.0","9afnfr99","","","","","","","",""
"null","","","html-keyboard-response","552","1197040","0.0-552.0","9afnfr99","","<span style=""color:Black; font-size:50px;"">Agent A","null","","","","",""
"null","","","video-keyboard-response","553","1200100","0.0-553.0","9afnfr99","","","null","","Agent A","scrambled","STIM_SET_5/285932.bmp_pp64_L1_V1.0_veridical_freeview_isoTrue_Hflip_fps144.mp4",""
"null","","","html-keyboard-response","554","1201602","0.0-554.0","9afnfr99","","<span style=""color:Black; font-size:50px;"">Agent B","null","","","","",""
"null","","","video-keyboard-response","555","1204689","0.0-555.0","9afnfr99","","","null","","Agent B","veridical","STIM_SET_2_144/285932.bmp_pp64_L1_V1.0_veridical_freeview_isoTrue_fps144.mp4",""
"","","","call-function","556","1204689","0.0-556.0","9afnfr99","","","","","","","",""
"1628.2950000001583","{""judgement"":0}","[0]","survey-likert","557","1206319","0.0-557.0","9afnfr99","","","","","","","","1"
"1459.1099999998696","{""confidence"":2}","[0]","survey-likert","558","1207779","0.0-558.0","9afnfr99","","","","","","","",""
"","","","call-function","559","1207779","0.0-559.0","9afnfr99","","","","","","","",""
"null","","","html-keyboard-response","560","1209281","0.0-560.0","9afnfr99","","<span style=""color:Black; font-size:50px;"">Agent A","null","","","","",""
"null","","","video-keyboard-response","561","1212372","0.0-561.0","9afnfr99","","","null","","Agent A","veridical","STIM_SET_2_144/1592168.bmp_pp71_L1_V1.0_veridical_freeview_isoTrue_fps144.mp4",""
"null","","","html-keyboard-response","562","1213879","0.0-562.0","9afnfr99","","<span style=""color:Black; font-size:50px;"">Agent B","null","","","","",""
"null","","","video-keyboard-response","563","1216963","0.0-563.0","9afnfr99","","","null","","Agent B","scrambled","STIM_SET_5/1592168.bmp_pp71_L1_V1.0_veridical_freeview_isoTrue_Hflip_fps144.mp4",""
"","","","call-function","564","1216964","0.0-564.0","9afnfr99","","","","","","","",""
"1666.9850000001024","{""judgement"":0}","[0]","survey-likert","565","1218632","0.0-565.0","9afnfr99","","","","","","","","0"
"1630.845000000205","{""confidence"":2}","[0]","survey-likert","566","1220263","0.0-566.0","9afnfr99","","","","","","","",""
"","","","call-function","567","1220264","0.0-567.0","9afnfr99","","","","","","","",""
"null","","","html-keyboard-response","568","1221767","0.0-568.0","9afnfr99","","<span style=""color:Black; font-size:50px;"">Agent A","null","","","","",""
"null","","","video-keyboard-response","569","1224844","0.0-569.0","9afnfr99","","","null","","Agent A","scrambled","STIM_SET_5/1592150.bmp_pp77_L3_V1.0_veridical_freeview_isoTrue_Hflip_fps144.mp4",""
"null","","","html-keyboard-response","570","1226351","0.0-570.0","9afnfr99","","<span style=""color:Black; font-size:50px;"">Agent B","null","","","","",""
"null","","","video-keyboard-response","571","1229430","0.0-571.0","9afnfr99","","","null","","Agent B","veridical","STIM_SET_2_144/1592150.bmp_pp77_L3_V1.0_veridical_freeview_isoTrue_fps144.mp4",""
"","","","call-function","572","1229430","0.0-572.0","9afnfr99","","","","","","","",""
"2389.344999999972","{""judgement"":0}","[0]","survey-likert","573","1231821","0.0-573.0","9afnfr99","","","","","","","","1"
"2156.9849999998696","{""confidence"":2}","[0]","survey-likert","574","1233979","0.0-574.0","9afnfr99","","","","","","","",""
"","","","call-function","575","1233979","0.0-575.0","9afnfr99","","","","","","","",""
"null","","","html-keyboard-response","576","1235482","0.0-576.0","9afnfr99","","<span style=""color:Black; font-size:50px;"">Agent A","null","","","","",""
"null","","","video-keyboard-response","577","1238558","0.0-577.0","9afnfr99","","","null","","Agent A","veridical","STIM_SET_2_144/1159427.bmp_pp98_L1_V1.0_veridical_freeview_isoTrue_fps144.mp4",""
"null","","","html-keyboard-response","578","1240064","0.0-578.0","9afnfr99","","<span style=""color:Black; font-size:50px;"">Agent B","null","","","","",""
"null","","","video-keyboard-response","579","1243128","0.0-579.0","9afnfr99","","","null","","Agent B","scrambled","STIM_SET_5/1159427.bmp_pp98_L1_V1.0_veridical_freeview_isoTrue_Hflip_fps144.mp4",""
"","","","call-function","580","1243129","0.0-580.0","9afnfr99","","","","","","","",""
"1937.279999999795","{""judgement"":1}","[0]","survey-likert","581","1245067","0.0-581.0","9afnfr99","","","","","","","","0"
"1120.7399999999907","{""confidence"":2}","[0]","survey-likert","582","1246189","0.0-582.0","9afnfr99","","","","","","","",""
"1296.4950000001118","","","instructions","583","1247486","0.0-583.0","9afnfr99","[{""page_index"":0,""viewing_time"":1296.280000000028}]","","","","","","",""
"1699.7250000000931","","","instructions","584","1249186","0.0-584.0","9afnfr99","[{""page_index"":0,""viewing_time"":1699.6100000001024}]","","","","","","",""
"16062.104999999981","{""post-1"":1}","[0]","survey-likert","585","1265250","0.0-585.0","9afnfr99","","","","","","","",""
"8699.914999999804","{""post-1"":0}","[0]","survey-likert","586","1273951","0.0-586.0","9afnfr99","","","","","","","",""
"4485.2949999999255","{""post-2"":2}","[0]","survey-likert","587","1278437","0.0-587.0","9afnfr99","","","","","","","",""
"5221.829999999842","{""post-2"":1}","[0]","survey-likert","588","1283661","0.0-588.0","9afnfr99","","","","","","","",""
"5249.389999999898","{""post-3"":2}","[0]","survey-likert","589","1288912","0.0-589.0","9afnfr99","","","","","","","",""
"6249.155000000028","{""post-3"":1}","[0]","survey-likert","590","1295164","0.0-590.0","9afnfr99","","","","","","","",""
"7217.729999999981","{""post-4"":1}","[0]","survey-likert","591","1302383","0.0-591.0","9afnfr99","","","","","","","",""
"7359.504999999888","{""post-4"":1}","[0]","survey-likert","592","1309744","0.0-592.0","9afnfr99","","","","","","","",""
"6373.864999999991","{""post-5"":1}","[0]","survey-likert","593","1316119","0.0-593.0","9afnfr99","","","","","","","",""
"3558.7299999999814","{""post-5"":2}","[0]","survey-likert","594","1319679","0.0-594.0","9afnfr99","","","","","","","",""
"1661.410000000149","{""Q0"":""""}","","survey-text","595","1321346","0.0-595.0","9afnfr99","","","","","","","",""
"1371.1699999999255","{""Q0"":""""}","","survey-text","596","1322720","0.0-596.0","9afnfr99","","","","","","","",""
"60.425000000046566","{""Q0"":""""}","","survey-text","597","1322783","0.0-597.0","9afnfr99","","","","","","","",""
"10718.880000000121","","","instructions","598","1333502","0.0-598.0","9afnfr99","[{""page_index"":0,""viewing_time"":10718.745000000112}]","","","","","","",""
"347210.3899999999","{""Experimenter_end"":[""Printed ID# 9afnfr99 on consent form"",""Given subject SONA credit or payment"",""Given the subject debrief form""]}","[0]","survey-multi-select","599","1680715","0.0-599.0","9afnfr99","","","","","","","",""
