"rt","responses","question_order","trial_type","trial_index","time_elapsed","internal_node_id","ID","view_history","stimulus","key_press","value","agent","condition","image","correct_answer"
"60301.145","{""Experimenter"":[""Confirmed subject's identity"",""Confirmed normal or corrected-to-normal vision"",""Obtained consent (signature and date)"",""Checked the test room lighting"",""Checked computer screen lighting"",""Checked distance from screen to chin rest (50cm)"",""Cleaned and adjusted chin rest"",""Counterbalanced the order of the tasks"",""Opened the experiment in Firefox"",""Made the experiment full screen"",""Encouraged subject to silence phone, put away distractors, etc.""]}","[0]","survey-multi-select","0","60309","0.0-0.0","9hc6u1hw","","","","","","","",""
"8929.824999999997","","","instructions","1","69240","0.0-1.0","9hc6u1hw","[{""page_index"":0,""viewing_time"":8929.660000000003}]","","","","","","",""
"6521.25","{""Age"":12,""Sex"":1,""Gender"":1}","[0,1,2]","survey-likert","2","75764","0.0-2.0","9hc6u1hw","","","","","","","",""
"7094.87999999999","","","instructions","3","82859","0.0-3.0","9hc6u1hw","[{""page_index"":0,""viewing_time"":3637.7999999999884},{""page_index"":1,""viewing_time"":1529.87000000001},{""page_index"":2,""viewing_time"":1927.0800000000017}]","","","","","","",""
"2302.4900000000052","","","instructions","4","85163","0.0-4.0","9hc6u1hw","[{""page_index"":0,""viewing_time"":2302.3899999999994}]","","","","","","",""
"null","","","video-keyboard-response","5","88237","0.0-5.0","9hc6u1hw","","","null","","","","",""
"3426.1900000000023","","","instructions","6","91664","0.0-6.0","9hc6u1hw","[{""page_index"":0,""viewing_time"":1175.0100000000093},{""page_index"":1,""viewing_time"":961},{""page_index"":2,""viewing_time"":1290.074999999997}]","","","","","","",""
"4696.845000000001","","","instructions","7","96362","0.0-7.0","9hc6u1hw","[{""page_index"":0,""viewing_time"":4696.735000000001}]","","","","","","",""
"915.1600000000035","","","instructions","8","97278","0.0-8.0","9hc6u1hw","[{""page_index"":0,""viewing_time"":914.9400000000023}]","","","","","","",""
"null","","","video-keyboard-response","9","100349","0.0-9.0","9hc6u1hw","","","null","","","","",""
"4709.459999999992","","","instructions","10","105059","0.0-10.0","9hc6u1hw","[{""page_index"":0,""viewing_time"":1094.4949999999953},{""page_index"":1,""viewing_time"":1509.300000000003},{""page_index"":2,""viewing_time"":2105.5350000000035}]","","","","","","",""
"3676.100000000006","","","instructions","11","108736","0.0-11.0","9hc6u1hw","[{""page_index"":0,""viewing_time"":3675.9850000000006}]","","","","","","",""
"","","","call-function","12","108737","0.0-12.0","9hc6u1hw","","","","","","","",""
"null","","","html-keyboard-response","13","110243","0.0-13.0","9hc6u1hw","","<span style=""color:Black; font-size:50px;"">Agent A","null","","","","",""
"null","","","video-keyboard-response","14","113056","0.0-14.0","9hc6u1hw","","","null","","Agent A","veridical","FOR_REV_MAP_BLOBBY_STIM/1159508.bmp_pp151_L1_V1.0_veridical_freeview_isoTrue_fps144.mp4",""
"null","","","html-keyboard-response","15","114561","0.0-15.0","9hc6u1hw","","<span style=""color:Black; font-size:50px;"">Agent B","null","","","","",""
"null","","","video-keyboard-response","16","117374","0.0-16.0","9hc6u1hw","","","null","","Agent B","scrambled","FOR_REV_MAP_BLOBBY_STIM/1159508.bmp_pp151_L1_V1.0_veridical_freeview_isoTrue_fps144_reversed_REAL.mp4",""
"","","","call-function","17","117375","0.0-17.0","9hc6u1hw","","","","","","","",""
"1264.8150000000023","{""judgement"":1}","[0]","survey-likert","18","118640","0.0-18.0","9hc6u1hw","","","","","","","","0"
"1038.0149999999994","{""confidence"":0}","[0]","survey-likert","19","119679","0.0-19.0","9hc6u1hw","","","","","","","",""
"","","","call-function","20","119680","0.0-20.0","9hc6u1hw","","","","","","","",""
"null","","","html-keyboard-response","21","121184","0.0-21.0","9hc6u1hw","","<span style=""color:Black; font-size:50px;"">Agent A","null","","","","",""
"null","","","video-keyboard-response","22","124018","0.0-22.0","9hc6u1hw","","","null","","Agent A","veridical","FOR_REV_MAP_BLOBBY_STIM/1159392.bmp_pp96_L2_V1.0_veridical_freeview_isoTrue_fps144.mp4",""
"null","","","html-keyboard-response","23","125523","0.0-23.0","9hc6u1hw","","<span style=""color:Black; font-size:50px;"">Agent B","null","","","","",""
"null","","","video-keyboard-response","24","128328","0.0-24.0","9hc6u1hw","","","null","","Agent B","scrambled","FOR_REV_MAP_BLOBBY_STIM/1159392.bmp_pp96_L2_V1.0_veridical_freeview_isoTrue_fps144_reversed_REAL.mp4",""
"","","","call-function","25","128329","0.0-25.0","9hc6u1hw","","","","","","","",""
"5621.349999999991","{""judgement"":1}","[0]","survey-likert","26","133951","0.0-26.0","9hc6u1hw","","","","","","","","0"
"7128.880000000005","{""confidence"":0}","[0]","survey-likert","27","141082","0.0-27.0","9hc6u1hw","","","","","","","",""
"","","","call-function","28","141082","0.0-28.0","9hc6u1hw","","","","","","","",""
"null","","","html-keyboard-response","29","142583","0.0-29.0","9hc6u1hw","","<span style=""color:Black; font-size:50px;"">Agent A","null","","","","",""
"null","","","video-keyboard-response","30","145347","0.0-30.0","9hc6u1hw","","","null","","Agent A","scrambled","FOR_REV_MAP_BLOBBY_STIM/1159329.bmp_pp61_L2_V1.0_veridical_freeview_isoTrue_fps144_reversed_REAL.mp4",""
"null","","","html-keyboard-response","31","146851","0.0-31.0","9hc6u1hw","","<span style=""color:Black; font-size:50px;"">Agent B","null","","","","",""
"null","","","video-keyboard-response","32","149612","0.0-32.0","9hc6u1hw","","","null","","Agent B","veridical","FOR_REV_MAP_BLOBBY_STIM/1159329.bmp_pp61_L2_V1.0_veridical_freeview_isoTrue_fps144.mp4",""
"","","","call-function","33","149612","0.0-33.0","9hc6u1hw","","","","","","","",""
"1629.9100000000035","{""judgement"":0}","[0]","survey-likert","34","151243","0.0-34.0","9hc6u1hw","","","","","","","","1"
"1202.8500000000058","{""confidence"":0}","[0]","survey-likert","35","152448","0.0-35.0","9hc6u1hw","","","","","","","",""
"","","","call-function","36","152448","0.0-36.0","9hc6u1hw","","","","","","","",""
"null","","","html-keyboard-response","37","153951","0.0-37.0","9hc6u1hw","","<span style=""color:Black; font-size:50px;"">Agent A","null","","","","",""
"null","","","video-keyboard-response","38","156767","0.0-38.0","9hc6u1hw","","","null","","Agent A","veridical","FOR_REV_MAP_BLOBBY_STIM/1592857.bmp_pp52_L1_V1.0_veridical_freeview_isoTrue_fps144.mp4",""
"null","","","html-keyboard-response","39","158270","0.0-39.0","9hc6u1hw","","<span style=""color:Black; font-size:50px;"">Agent B","null","","","","",""
"null","","","video-keyboard-response","40","161088","0.0-40.0","9hc6u1hw","","","null","","Agent B","scrambled","FOR_REV_MAP_BLOBBY_STIM/1592857.bmp_pp52_L1_V1.0_veridical_freeview_isoTrue_fps144_reversed_REAL.mp4",""
"","","","call-function","41","161088","0.0-41.0","9hc6u1hw","","","","","","","",""
"1345.210000000021","{""judgement"":1}","[0]","survey-likert","42","162434","0.0-42.0","9hc6u1hw","","","","","","","","0"
"1005.5400000000081","{""confidence"":0}","[0]","survey-likert","43","163441","0.0-43.0","9hc6u1hw","","","","","","","",""
"","","","call-function","44","163442","0.0-44.0","9hc6u1hw","","","","","","","",""
"null","","","html-keyboard-response","45","164943","0.0-45.0","9hc6u1hw","","<span style=""color:Black; font-size:50px;"">Agent A","null","","","","",""
"null","","","video-keyboard-response","46","167734","0.0-46.0","9hc6u1hw","","","null","","Agent A","scrambled","FOR_REV_MAP_BLOBBY_STIM/713328.bmp_pp86_L2_V1.0_veridical_freeview_isoTrue_fps144_reversed_REAL.mp4",""
"null","","","html-keyboard-response","47","169236","0.0-47.0","9hc6u1hw","","<span style=""color:Black; font-size:50px;"">Agent B","null","","","","",""
"null","","","video-keyboard-response","48","172007","0.0-48.0","9hc6u1hw","","","null","","Agent B","veridical","FOR_REV_MAP_BLOBBY_STIM/713328.bmp_pp86_L2_V1.0_veridical_freeview_isoTrue_fps144.mp4",""
"","","","call-function","49","172007","0.0-49.0","9hc6u1hw","","","","","","","",""
"1222.7900000000081","{""judgement"":1}","[0]","survey-likert","50","173231","0.0-50.0","9hc6u1hw","","","","","","","","1"
"1600.2450000000244","{""confidence"":0}","[0]","survey-likert","51","174832","0.0-51.0","9hc6u1hw","","","","","","","",""
"","","","call-function","52","174833","0.0-52.0","9hc6u1hw","","","","","","","",""
"null","","","html-keyboard-response","53","176339","0.0-53.0","9hc6u1hw","","<span style=""color:Black; font-size:50px;"">Agent A","null","","","","",""
"null","","","video-keyboard-response","54","179150","0.0-54.0","9hc6u1hw","","","null","","Agent A","veridical","FOR_REV_MAP_BLOBBY_STIM/713689.bmp_pp153_L3_V1.0_veridical_freeview_isoTrue_fps144.mp4",""
"null","","","html-keyboard-response","55","180651","0.0-55.0","9hc6u1hw","","<span style=""color:Black; font-size:50px;"">Agent B","null","","","","",""
"null","","","video-keyboard-response","56","183487","0.0-56.0","9hc6u1hw","","","null","","Agent B","scrambled","FOR_REV_MAP_BLOBBY_STIM/713689.bmp_pp153_L3_V1.0_veridical_freeview_isoTrue_fps144_reversed_REAL.mp4",""
"","","","call-function","57","183487","0.0-57.0","9hc6u1hw","","","","","","","",""
"1421.3899999999849","{""judgement"":0}","[0]","survey-likert","58","184909","0.0-58.0","9hc6u1hw","","","","","","","","0"
"1421.6000000000058","{""confidence"":0}","[0]","survey-likert","59","186332","0.0-59.0","9hc6u1hw","","","","","","","",""
"","","","call-function","60","186333","0.0-60.0","9hc6u1hw","","","","","","","",""
"null","","","html-keyboard-response","61","187835","0.0-61.0","9hc6u1hw","","<span style=""color:Black; font-size:50px;"">Agent A","null","","","","",""
"null","","","video-keyboard-response","62","190670","0.0-62.0","9hc6u1hw","","","null","","Agent A","scrambled","FOR_REV_MAP_BLOBBY_STIM/713742.bmp_pp91_L3_V1.0_veridical_freeview_isoTrue_fps144_reversed_REAL.mp4",""
"null","","","html-keyboard-response","63","192177","0.0-63.0","9hc6u1hw","","<span style=""color:Black; font-size:50px;"">Agent B","null","","","","",""
"null","","","video-keyboard-response","64","195023","0.0-64.0","9hc6u1hw","","","null","","Agent B","veridical","FOR_REV_MAP_BLOBBY_STIM/713742.bmp_pp91_L3_V1.0_veridical_freeview_isoTrue_fps144.mp4",""
"","","","call-function","65","195023","0.0-65.0","9hc6u1hw","","","","","","","",""
"1854.5950000000012","{""judgement"":0}","[0]","survey-likert","66","196879","0.0-66.0","9hc6u1hw","","","","","","","","1"
"901.5249999999942","{""confidence"":0}","[0]","survey-likert","67","197781","0.0-67.0","9hc6u1hw","","","","","","","",""
"","","","call-function","68","197782","0.0-68.0","9hc6u1hw","","","","","","","",""
"null","","","html-keyboard-response","69","199283","0.0-69.0","9hc6u1hw","","<span style=""color:Black; font-size:50px;"">Agent A","null","","","","",""
"null","","","video-keyboard-response","70","202059","0.0-70.0","9hc6u1hw","","","null","","Agent A","scrambled","FOR_REV_MAP_BLOBBY_STIM/1592298.bmp_pp56_L3_V1.0_veridical_freeview_isoTrue_fps144_reversed_REAL.mp4",""
"null","","","html-keyboard-response","71","203566","0.0-71.0","9hc6u1hw","","<span style=""color:Black; font-size:50px;"">Agent B","null","","","","",""
"null","","","video-keyboard-response","72","206337","0.0-72.0","9hc6u1hw","","","null","","Agent B","veridical","FOR_REV_MAP_BLOBBY_STIM/1592298.bmp_pp56_L3_V1.0_veridical_freeview_isoTrue_fps144.mp4",""
"","","","call-function","73","206337","0.0-73.0","9hc6u1hw","","","","","","","",""
"1375.0599999999977","{""judgement"":0}","[0]","survey-likert","74","207713","0.0-74.0","9hc6u1hw","","","","","","","","1"
"1264.140000000014","{""confidence"":0}","[0]","survey-likert","75","208979","0.0-75.0","9hc6u1hw","","","","","","","",""
"","","","call-function","76","208980","0.0-76.0","9hc6u1hw","","","","","","","",""
"null","","","html-keyboard-response","77","210483","0.0-77.0","9hc6u1hw","","<span style=""color:Black; font-size:50px;"">Agent A","null","","","","",""
"null","","","video-keyboard-response","78","213166","0.0-78.0","9hc6u1hw","","","null","","Agent A","veridical","FOR_REV_MAP_BLOBBY_STIM/61513.bmp_pp75_L1_V1.0_veridical_freeview_isoTrue_fps144.mp4",""
"null","","","html-keyboard-response","79","214669","0.0-79.0","9hc6u1hw","","<span style=""color:Black; font-size:50px;"">Agent B","null","","","","",""
"null","","","video-keyboard-response","80","217336","0.0-80.0","9hc6u1hw","","","null","","Agent B","scrambled","FOR_REV_MAP_BLOBBY_STIM/61513.bmp_pp75_L1_V1.0_veridical_freeview_isoTrue_fps144_reversed_REAL.mp4",""
"","","","call-function","81","217337","0.0-81.0","9hc6u1hw","","","","","","","",""
"1727.2599999999802","{""judgement"":0}","[0]","survey-likert","82","219066","0.0-82.0","9hc6u1hw","","","","","","","","0"
"2174.985000000015","{""confidence"":0}","[0]","survey-likert","83","221243","0.0-83.0","9hc6u1hw","","","","","","","",""
"","","","call-function","84","221243","0.0-84.0","9hc6u1hw","","","","","","","",""
"null","","","html-keyboard-response","85","222745","0.0-85.0","9hc6u1hw","","<span style=""color:Black; font-size:50px;"">Agent A","null","","","","",""
"null","","","video-keyboard-response","86","225510","0.0-86.0","9hc6u1hw","","","null","","Agent A","veridical","FOR_REV_MAP_BLOBBY_STIM/150463.bmp_pp55_L3_V1.0_veridical_freeview_isoTrue_fps144.mp4",""
"null","","","html-keyboard-response","87","227013","0.0-87.0","9hc6u1hw","","<span style=""color:Black; font-size:50px;"">Agent B","null","","","","",""
"null","","","video-keyboard-response","88","229775","0.0-88.0","9hc6u1hw","","","null","","Agent B","scrambled","FOR_REV_MAP_BLOBBY_STIM/150463.bmp_pp55_L3_V1.0_veridical_freeview_isoTrue_fps144_reversed_REAL.mp4",""
"","","","call-function","89","229776","0.0-89.0","9hc6u1hw","","","","","","","",""
"3851.170000000013","{""judgement"":1}","[0]","survey-likert","90","233629","0.0-90.0","9hc6u1hw","","","","","","","","0"
"1209.6849999999977","{""confidence"":0}","[0]","survey-likert","91","234840","0.0-91.0","9hc6u1hw","","","","","","","",""
"44398.360000000015","","","instructions","92","279239","0.0-92.0","9hc6u1hw","[{""page_index"":0,""viewing_time"":2733.0599999999977},{""page_index"":1,""viewing_time"":41124.985000000015},{""page_index"":2,""viewing_time"":540.1149999999907}]","","","","","","",""
"1735.2550000000047","","","instructions","93","280975","0.0-93.0","9hc6u1hw","[{""page_index"":0,""viewing_time"":567.210000000021},{""page_index"":1,""viewing_time"":643.9349999999977},{""page_index"":2,""viewing_time"":524.0050000000047}]","","","","","","",""
"","","","call-function","94","280975","0.0-94.0","9hc6u1hw","","","","","","","",""
"null","","","html-keyboard-response","95","282479","0.0-95.0","9hc6u1hw","","<span style=""color:Black; font-size:50px;"">Agent A","null","","","","",""
"null","","","video-keyboard-response","96","285166","0.0-96.0","9hc6u1hw","","","null","","Agent A","scrambled","FOR_REV_MAP_BLOBBY_STIM/1592350.bmp_pp55_L3_V1.0_veridical_freeview_isoTrue_fps144_reversed_REAL.mp4",""
"null","","","html-keyboard-response","97","286670","0.0-97.0","9hc6u1hw","","<span style=""color:Black; font-size:50px;"">Agent B","null","","","","",""
"null","","","video-keyboard-response","98","289373","0.0-98.0","9hc6u1hw","","","null","","Agent B","veridical","FOR_REV_MAP_BLOBBY_STIM/1592350.bmp_pp55_L3_V1.0_veridical_freeview_isoTrue_fps144.mp4",""
"","","","call-function","99","289373","0.0-99.0","9hc6u1hw","","","","","","","",""
"3199.3300000000163","{""judgement"":1}","[0]","survey-likert","100","292573","0.0-100.0","9hc6u1hw","","","","","","","","1"
"1189.4349999999977","{""confidence"":0}","[0]","survey-likert","101","293764","0.0-101.0","9hc6u1hw","","","","","","","",""
"","","","call-function","102","293765","0.0-102.0","9hc6u1hw","","","","","","","",""
"null","","","html-keyboard-response","103","295269","0.0-103.0","9hc6u1hw","","<span style=""color:Black; font-size:50px;"">Agent A","null","","","","",""
"null","","","video-keyboard-response","104","298037","0.0-104.0","9hc6u1hw","","","null","","Agent A","scrambled","FOR_REV_MAP_BLOBBY_STIM/498372.bmp_pp95_L2_V1.0_veridical_freeview_isoTrue_fps144_reversed_REAL.mp4",""
"null","","","html-keyboard-response","105","299539","0.0-105.0","9hc6u1hw","","<span style=""color:Black; font-size:50px;"">Agent B","null","","","","",""
"null","","","video-keyboard-response","106","302306","0.0-106.0","9hc6u1hw","","","null","","Agent B","veridical","FOR_REV_MAP_BLOBBY_STIM/498372.bmp_pp95_L2_V1.0_veridical_freeview_isoTrue_fps144.mp4",""
"","","","call-function","107","302307","0.0-107.0","9hc6u1hw","","","","","","","",""
"1780.030000000028","{""judgement"":1}","[0]","survey-likert","108","304087","0.0-108.0","9hc6u1hw","","","","","","","","1"
"1215.780000000028","{""confidence"":0}","[0]","survey-likert","109","305304","0.0-109.0","9hc6u1hw","","","","","","","",""
"","","","call-function","110","305305","0.0-110.0","9hc6u1hw","","","","","","","",""
"null","","","html-keyboard-response","111","306808","0.0-111.0","9hc6u1hw","","<span style=""color:Black; font-size:50px;"">Agent A","null","","","","",""
"null","","","video-keyboard-response","112","309691","0.0-112.0","9hc6u1hw","","","null","","Agent A","veridical","FOR_REV_MAP_BLOBBY_STIM/1160189.bmp_pp64_L1_V1.0_veridical_freeview_isoTrue_fps144.mp4",""
"null","","","html-keyboard-response","113","311193","0.0-113.0","9hc6u1hw","","<span style=""color:Black; font-size:50px;"">Agent B","null","","","","",""
"null","","","video-keyboard-response","114","314056","0.0-114.0","9hc6u1hw","","","null","","Agent B","scrambled","FOR_REV_MAP_BLOBBY_STIM/1160189.bmp_pp64_L1_V1.0_veridical_freeview_isoTrue_fps144_reversed_REAL.mp4",""
"","","","call-function","115","314057","0.0-115.0","9hc6u1hw","","","","","","","",""
"1088.1300000000047","{""judgement"":0}","[0]","survey-likert","116","315146","0.0-116.0","9hc6u1hw","","","","","","","","0"
"960.9349999999977","{""confidence"":1}","[0]","survey-likert","117","316108","0.0-117.0","9hc6u1hw","","","","","","","",""
"","","","call-function","118","316108","0.0-118.0","9hc6u1hw","","","","","","","",""
"null","","","html-keyboard-response","119","317609","0.0-119.0","9hc6u1hw","","<span style=""color:Black; font-size:50px;"">Agent A","null","","","","",""
"null","","","video-keyboard-response","120","320407","0.0-120.0","9hc6u1hw","","","null","","Agent A","veridical","FOR_REV_MAP_BLOBBY_STIM/286034.bmp_pp69_L3_V1.0_veridical_freeview_isoTrue_fps144.mp4",""
"null","","","html-keyboard-response","121","321911","0.0-121.0","9hc6u1hw","","<span style=""color:Black; font-size:50px;"">Agent B","null","","","","",""
"null","","","video-keyboard-response","122","324711","0.0-122.0","9hc6u1hw","","","null","","Agent B","scrambled","FOR_REV_MAP_BLOBBY_STIM/286034.bmp_pp69_L3_V1.0_veridical_freeview_isoTrue_fps144_reversed_REAL.mp4",""
"","","","call-function","123","324711","0.0-123.0","9hc6u1hw","","","","","","","",""
"2536.75","{""judgement"":0}","[0]","survey-likert","124","327249","0.0-124.0","9hc6u1hw","","","","","","","","0"
"1936.039999999979","{""confidence"":0}","[0]","survey-likert","125","329186","0.0-125.0","9hc6u1hw","","","","","","","",""
"","","","call-function","126","329187","0.0-126.0","9hc6u1hw","","","","","","","",""
"null","","","html-keyboard-response","127","330689","0.0-127.0","9hc6u1hw","","<span style=""color:Black; font-size:50px;"">Agent A","null","","","","",""
"null","","","video-keyboard-response","128","333546","0.0-128.0","9hc6u1hw","","","null","","Agent A","veridical","FOR_REV_MAP_BLOBBY_STIM/498396.bmp_pp99_L2_V1.0_veridical_freeview_isoTrue_fps144.mp4",""
"null","","","html-keyboard-response","129","335051","0.0-129.0","9hc6u1hw","","<span style=""color:Black; font-size:50px;"">Agent B","null","","","","",""
"null","","","video-keyboard-response","130","337900","0.0-130.0","9hc6u1hw","","","null","","Agent B","scrambled","FOR_REV_MAP_BLOBBY_STIM/498396.bmp_pp99_L2_V1.0_veridical_freeview_isoTrue_fps144_reversed_REAL.mp4",""
"","","","call-function","131","337901","0.0-131.0","9hc6u1hw","","","","","","","",""
"1499.390000000014","{""judgement"":1}","[0]","survey-likert","132","339401","0.0-132.0","9hc6u1hw","","","","","","","","0"
"1249.765000000014","{""confidence"":0}","[0]","survey-likert","133","340652","0.0-133.0","9hc6u1hw","","","","","","","",""
"","","","call-function","134","340653","0.0-134.0","9hc6u1hw","","","","","","","",""
"null","","","html-keyboard-response","135","342156","0.0-135.0","9hc6u1hw","","<span style=""color:Black; font-size:50px;"">Agent A","null","","","","",""
"null","","","video-keyboard-response","136","344850","0.0-136.0","9hc6u1hw","","","null","","Agent A","scrambled","FOR_REV_MAP_BLOBBY_STIM/1592038.bmp_pp79_L2_V1.0_veridical_freeview_isoTrue_fps144_reversed_REAL.mp4",""
"null","","","html-keyboard-response","137","346357","0.0-137.0","9hc6u1hw","","<span style=""color:Black; font-size:50px;"">Agent B","null","","","","",""
"null","","","video-keyboard-response","138","349037","0.0-138.0","9hc6u1hw","","","null","","Agent B","veridical","FOR_REV_MAP_BLOBBY_STIM/1592038.bmp_pp79_L2_V1.0_veridical_freeview_isoTrue_fps144.mp4",""
"","","","call-function","139","349038","0.0-139.0","9hc6u1hw","","","","","","","",""
"1446.0800000000163","{""judgement"":1}","[0]","survey-likert","140","350484","0.0-140.0","9hc6u1hw","","","","","","","","1"
"1833.7600000000093","{""confidence"":0}","[0]","survey-likert","141","352319","0.0-141.0","9hc6u1hw","","","","","","","",""
"","","","call-function","142","352320","0.0-142.0","9hc6u1hw","","","","","","","",""
"null","","","html-keyboard-response","143","353822","0.0-143.0","9hc6u1hw","","<span style=""color:Black; font-size:50px;"">Agent A","null","","","","",""
"null","","","video-keyboard-response","144","356419","0.0-144.0","9hc6u1hw","","","null","","Agent A","scrambled","FOR_REV_MAP_BLOBBY_STIM/498398.bmp_pp81_L1_V1.0_veridical_freeview_isoTrue_fps144_reversed_REAL.mp4",""
"null","","","html-keyboard-response","145","357926","0.0-145.0","9hc6u1hw","","<span style=""color:Black; font-size:50px;"">Agent B","null","","","","",""
"null","","","video-keyboard-response","146","360516","0.0-146.0","9hc6u1hw","","","null","","Agent B","veridical","FOR_REV_MAP_BLOBBY_STIM/498398.bmp_pp81_L1_V1.0_veridical_freeview_isoTrue_fps144.mp4",""
"","","","call-function","147","360517","0.0-147.0","9hc6u1hw","","","","","","","",""
"1537.1299999999464","{""judgement"":1}","[0]","survey-likert","148","362055","0.0-148.0","9hc6u1hw","","","","","","","","1"
"1650.7700000000186","{""confidence"":0}","[0]","survey-likert","149","363707","0.0-149.0","9hc6u1hw","","","","","","","",""
"","","","call-function","150","363707","0.0-150.0","9hc6u1hw","","","","","","","",""
"null","","","html-keyboard-response","151","365211","0.0-151.0","9hc6u1hw","","<span style=""color:Black; font-size:50px;"">Agent A","null","","","","",""
"null","","","video-keyboard-response","152","368031","0.0-152.0","9hc6u1hw","","","null","","Agent A","veridical","FOR_REV_MAP_BLOBBY_STIM/713652.bmp_pp89_L1_V1.0_veridical_freeview_isoTrue_fps144.mp4",""
"null","","","html-keyboard-response","153","369536","0.0-153.0","9hc6u1hw","","<span style=""color:Black; font-size:50px;"">Agent B","null","","","","",""
"null","","","video-keyboard-response","154","372336","0.0-154.0","9hc6u1hw","","","null","","Agent B","scrambled","FOR_REV_MAP_BLOBBY_STIM/713652.bmp_pp89_L1_V1.0_veridical_freeview_isoTrue_fps144_reversed_REAL.mp4",""
"","","","call-function","155","372338","0.0-155.0","9hc6u1hw","","","","","","","",""
"1658.954999999958","{""judgement"":1}","[0]","survey-likert","156","373998","0.0-156.0","9hc6u1hw","","","","","","","","0"
"1401.030000000028","{""confidence"":0}","[0]","survey-likert","157","375400","0.0-157.0","9hc6u1hw","","","","","","","",""
"","","","call-function","158","375402","0.0-158.0","9hc6u1hw","","","","","","","",""
"null","","","html-keyboard-response","159","376905","0.0-159.0","9hc6u1hw","","<span style=""color:Black; font-size:50px;"">Agent A","null","","","","",""
"null","","","video-keyboard-response","160","379826","0.0-160.0","9hc6u1hw","","","null","","Agent A","scrambled","FOR_REV_MAP_BLOBBY_STIM/1592568.bmp_pp71_L1_V1.0_veridical_freeview_isoTrue_fps144_reversed_REAL.mp4",""
"null","","","html-keyboard-response","161","381328","0.0-161.0","9hc6u1hw","","<span style=""color:Black; font-size:50px;"">Agent B","null","","","","",""
"null","","","video-keyboard-response","162","384253","0.0-162.0","9hc6u1hw","","","null","","Agent B","veridical","FOR_REV_MAP_BLOBBY_STIM/1592568.bmp_pp71_L1_V1.0_veridical_freeview_isoTrue_fps144.mp4",""
"","","","call-function","163","384254","0.0-163.0","9hc6u1hw","","","","","","","",""
"1384.5250000000233","{""judgement"":1}","[0]","survey-likert","164","385640","0.0-164.0","9hc6u1hw","","","","","","","","1"
"1227.554999999993","{""confidence"":0}","[0]","survey-likert","165","386869","0.0-165.0","9hc6u1hw","","","","","","","",""
"","","","call-function","166","386869","0.0-166.0","9hc6u1hw","","","","","","","",""
"null","","","html-keyboard-response","167","388375","0.0-167.0","9hc6u1hw","","<span style=""color:Black; font-size:50px;"">Agent A","null","","","","",""
"null","","","video-keyboard-response","168","391254","0.0-168.0","9hc6u1hw","","","null","","Agent A","veridical","FOR_REV_MAP_BLOBBY_STIM/1592201.bmp_pp97_L3_V1.0_veridical_freeview_isoTrue_fps144.mp4",""
"null","","","html-keyboard-response","169","392759","0.0-169.0","9hc6u1hw","","<span style=""color:Black; font-size:50px;"">Agent B","null","","","","",""
"null","","","video-keyboard-response","170","395618","0.0-170.0","9hc6u1hw","","","null","","Agent B","scrambled","FOR_REV_MAP_BLOBBY_STIM/1592201.bmp_pp97_L3_V1.0_veridical_freeview_isoTrue_fps144_reversed_REAL.mp4",""
"","","","call-function","171","395618","0.0-171.0","9hc6u1hw","","","","","","","",""
"2381.7050000000163","{""judgement"":1}","[0]","survey-likert","172","398001","0.0-172.0","9hc6u1hw","","","","","","","","0"
"2283.3150000000023","{""confidence"":0}","[0]","survey-likert","173","400285","0.0-173.0","9hc6u1hw","","","","","","","",""
"23970.785000000033","","","instructions","174","424257","0.0-174.0","9hc6u1hw","[{""page_index"":0,""viewing_time"":4744.990000000049},{""page_index"":1,""viewing_time"":18403.534999999974},{""page_index"":2,""viewing_time"":822.0599999999977}]","","","","","","",""
"5594.465000000026","","","instructions","175","429852","0.0-175.0","9hc6u1hw","[{""page_index"":0,""viewing_time"":578.609999999986},{""page_index"":1,""viewing_time"":1389.625},{""page_index"":2,""viewing_time"":3626.0200000000186}]","","","","","","",""
"","","","call-function","176","429852","0.0-176.0","9hc6u1hw","","","","","","","",""
"null","","","html-keyboard-response","177","431356","0.0-177.0","9hc6u1hw","","<span style=""color:Black; font-size:50px;"">Agent A","null","","","","",""
"null","","","video-keyboard-response","178","434138","0.0-178.0","9hc6u1hw","","","null","","Agent A","scrambled","FOR_REV_MAP_BLOBBY_STIM/1592747.bmp_pp53_L2_V1.0_veridical_freeview_isoTrue_fps144_reversed_REAL.mp4",""
"null","","","html-keyboard-response","179","435640","0.0-179.0","9hc6u1hw","","<span style=""color:Black; font-size:50px;"">Agent B","null","","","","",""
"null","","","video-keyboard-response","180","438408","0.0-180.0","9hc6u1hw","","","null","","Agent B","veridical","FOR_REV_MAP_BLOBBY_STIM/1592747.bmp_pp53_L2_V1.0_veridical_freeview_isoTrue_fps144.mp4",""
"","","","call-function","181","438408","0.0-181.0","9hc6u1hw","","","","","","","",""
"2035.3950000000186","{""judgement"":1}","[0]","survey-likert","182","440444","0.0-182.0","9hc6u1hw","","","","","","","","1"
"1008.4749999999767","{""confidence"":0}","[0]","survey-likert","183","441454","0.0-183.0","9hc6u1hw","","","","","","","",""
"","","","call-function","184","441455","0.0-184.0","9hc6u1hw","","","","","","","",""
"null","","","html-keyboard-response","185","442957","0.0-185.0","9hc6u1hw","","<span style=""color:Black; font-size:50px;"">Agent A","null","","","","",""
"null","","","video-keyboard-response","186","445568","0.0-186.0","9hc6u1hw","","","null","","Agent A","scrambled","FOR_REV_MAP_BLOBBY_STIM/713633.bmp_pp58_L1_V1.0_veridical_freeview_isoTrue_fps144_reversed_REAL.mp4",""
"null","","","html-keyboard-response","187","447075","0.0-187.0","9hc6u1hw","","<span style=""color:Black; font-size:50px;"">Agent B","null","","","","",""
"null","","","video-keyboard-response","188","449664","0.0-188.0","9hc6u1hw","","","null","","Agent B","veridical","FOR_REV_MAP_BLOBBY_STIM/713633.bmp_pp58_L1_V1.0_veridical_freeview_isoTrue_fps144.mp4",""
"","","","call-function","189","449664","0.0-189.0","9hc6u1hw","","","","","","","",""
"1424.7550000000047","{""judgement"":1}","[0]","survey-likert","190","451090","0.0-190.0","9hc6u1hw","","","","","","","","1"
"991.570000000007","{""confidence"":0}","[0]","survey-likert","191","452084","0.0-191.0","9hc6u1hw","","","","","","","",""
"","","","call-function","192","452084","0.0-192.0","9hc6u1hw","","","","","","","",""
"null","","","html-keyboard-response","193","453589","0.0-193.0","9hc6u1hw","","<span style=""color:Black; font-size:50px;"">Agent A","null","","","","",""
"null","","","video-keyboard-response","194","456287","0.0-194.0","9hc6u1hw","","","null","","Agent A","veridical","FOR_REV_MAP_BLOBBY_STIM/1159427.bmp_pp98_L1_V1.0_veridical_freeview_isoTrue_fps144.mp4",""
"null","","","html-keyboard-response","195","457790","0.0-195.0","9hc6u1hw","","<span style=""color:Black; font-size:50px;"">Agent B","null","","","","",""
"null","","","video-keyboard-response","196","460487","0.0-196.0","9hc6u1hw","","","null","","Agent B","scrambled","FOR_REV_MAP_BLOBBY_STIM/1159427.bmp_pp98_L1_V1.0_veridical_freeview_isoTrue_fps144_reversed_REAL.mp4",""
"","","","call-function","197","460488","0.0-197.0","9hc6u1hw","","","","","","","",""
"1994.8950000000186","{""judgement"":0}","[0]","survey-likert","198","462484","0.0-198.0","9hc6u1hw","","","","","","","","0"
"2286.070000000007","{""confidence"":1}","[0]","survey-likert","199","464771","0.0-199.0","9hc6u1hw","","","","","","","",""
"","","","call-function","200","464772","0.0-200.0","9hc6u1hw","","","","","","","",""
"null","","","html-keyboard-response","201","466275","0.0-201.0","9hc6u1hw","","<span style=""color:Black; font-size:50px;"">Agent A","null","","","","",""
"null","","","video-keyboard-response","202","469043","0.0-202.0","9hc6u1hw","","","null","","Agent A","scrambled","FOR_REV_MAP_BLOBBY_STIM/1592047.bmp_pp51_L1_V1.0_veridical_freeview_isoTrue_fps144_reversed_REAL.mp4",""
"null","","","html-keyboard-response","203","470545","0.0-203.0","9hc6u1hw","","<span style=""color:Black; font-size:50px;"">Agent B","null","","","","",""
"null","","","video-keyboard-response","204","473315","0.0-204.0","9hc6u1hw","","","null","","Agent B","veridical","FOR_REV_MAP_BLOBBY_STIM/1592047.bmp_pp51_L1_V1.0_veridical_freeview_isoTrue_fps144.mp4",""
"","","","call-function","205","473315","0.0-205.0","9hc6u1hw","","","","","","","",""
"1449.375","{""judgement"":1}","[0]","survey-likert","206","474765","0.0-206.0","9hc6u1hw","","","","","","","","1"
"2123.4249999999884","{""confidence"":0}","[0]","survey-likert","207","476890","0.0-207.0","9hc6u1hw","","","","","","","",""
"","","","call-function","208","476891","0.0-208.0","9hc6u1hw","","","","","","","",""
"null","","","html-keyboard-response","209","478396","0.0-209.0","9hc6u1hw","","<span style=""color:Black; font-size:50px;"">Agent A","null","","","","",""
"null","","","video-keyboard-response","210","481139","0.0-210.0","9hc6u1hw","","","null","","Agent A","scrambled","FOR_REV_MAP_BLOBBY_STIM/1159592.bmp_pp91_L3_V1.0_veridical_freeview_isoTrue_fps144_reversed_REAL.mp4",""
"null","","","html-keyboard-response","211","482641","0.0-211.0","9hc6u1hw","","<span style=""color:Black; font-size:50px;"">Agent B","null","","","","",""
"null","","","video-keyboard-response","212","485377","0.0-212.0","9hc6u1hw","","","null","","Agent B","veridical","FOR_REV_MAP_BLOBBY_STIM/1159592.bmp_pp91_L3_V1.0_veridical_freeview_isoTrue_fps144.mp4",""
"","","","call-function","213","485377","0.0-213.0","9hc6u1hw","","","","","","","",""
"1278.030000000028","{""judgement"":0}","[0]","survey-likert","214","486656","0.0-214.0","9hc6u1hw","","","","","","","","1"
"2110.8150000000023","{""confidence"":0}","[0]","survey-likert","215","488768","0.0-215.0","9hc6u1hw","","","","","","","",""
"","","","call-function","216","488769","0.0-216.0","9hc6u1hw","","","","","","","",""
"null","","","html-keyboard-response","217","490274","0.0-217.0","9hc6u1hw","","<span style=""color:Black; font-size:50px;"">Agent A","null","","","","",""
"null","","","video-keyboard-response","218","492219","0.0-218.0","9hc6u1hw","","","null","","Agent A","veridical","FOR_REV_MAP_BLOBBY_STIM/285946.bmp_pp79_L2_V1.0_veridical_freeview_isoTrue_fps144.mp4",""
"null","","","html-keyboard-response","219","493724","0.0-219.0","9hc6u1hw","","<span style=""color:Black; font-size:50px;"">Agent B","null","","","","",""
"null","","","video-keyboard-response","220","495620","0.0-220.0","9hc6u1hw","","","null","","Agent B","scrambled","FOR_REV_MAP_BLOBBY_STIM/285946.bmp_pp79_L2_V1.0_veridical_freeview_isoTrue_fps144_reversed_REAL.mp4",""
"","","","call-function","221","495621","0.0-221.0","9hc6u1hw","","","","","","","",""
"2804.969999999972","{""judgement"":0}","[0]","survey-likert","222","498427","0.0-222.0","9hc6u1hw","","","","","","","","0"
"1507.490000000049","{""confidence"":1}","[0]","survey-likert","223","499936","0.0-223.0","9hc6u1hw","","","","","","","",""
"","","","call-function","224","499936","0.0-224.0","9hc6u1hw","","","","","","","",""
"null","","","html-keyboard-response","225","501437","0.0-225.0","9hc6u1hw","","<span style=""color:Black; font-size:50px;"">Agent A","null","","","","",""
"null","","","video-keyboard-response","226","504186","0.0-226.0","9hc6u1hw","","","null","","Agent A","scrambled","FOR_REV_MAP_BLOBBY_STIM/1159956.bmp_pp59_L3_V1.0_veridical_freeview_isoTrue_fps144_reversed_REAL.mp4",""
"null","","","html-keyboard-response","227","505690","0.0-227.0","9hc6u1hw","","<span style=""color:Black; font-size:50px;"">Agent B","null","","","","",""
"null","","","video-keyboard-response","228","508418","0.0-228.0","9hc6u1hw","","","null","","Agent B","veridical","FOR_REV_MAP_BLOBBY_STIM/1159956.bmp_pp59_L3_V1.0_veridical_freeview_isoTrue_fps144.mp4",""
"","","","call-function","229","508418","0.0-229.0","9hc6u1hw","","","","","","","",""
"1477.7399999999907","{""judgement"":0}","[0]","survey-likert","230","509897","0.0-230.0","9hc6u1hw","","","","","","","","1"
"1883.640000000014","{""confidence"":0}","[0]","survey-likert","231","511782","0.0-231.0","9hc6u1hw","","","","","","","",""
"","","","call-function","232","511782","0.0-232.0","9hc6u1hw","","","","","","","",""
"null","","","html-keyboard-response","233","513287","0.0-233.0","9hc6u1hw","","<span style=""color:Black; font-size:50px;"">Agent A","null","","","","",""
"null","","","video-keyboard-response","234","516129","0.0-234.0","9hc6u1hw","","","null","","Agent A","scrambled","FOR_REV_MAP_BLOBBY_STIM/713829.bmp_pp60_L3_V1.0_veridical_freeview_isoTrue_fps144_reversed_REAL.mp4",""
"null","","","html-keyboard-response","235","517633","0.0-235.0","9hc6u1hw","","<span style=""color:Black; font-size:50px;"">Agent B","null","","","","",""
"null","","","video-keyboard-response","236","520475","0.0-236.0","9hc6u1hw","","","null","","Agent B","veridical","FOR_REV_MAP_BLOBBY_STIM/713829.bmp_pp60_L3_V1.0_veridical_freeview_isoTrue_fps144.mp4",""
"","","","call-function","237","520476","0.0-237.0","9hc6u1hw","","","","","","","",""
"2346.4650000000256","{""judgement"":0}","[0]","survey-likert","238","522824","0.0-238.0","9hc6u1hw","","","","","","","","1"
"1118.1199999999953","{""confidence"":1}","[0]","survey-likert","239","523944","0.0-239.0","9hc6u1hw","","","","","","","",""
"","","","call-function","240","523945","0.0-240.0","9hc6u1hw","","","","","","","",""
"null","","","html-keyboard-response","241","525452","0.0-241.0","9hc6u1hw","","<span style=""color:Black; font-size:50px;"">Agent A","null","","","","",""
"null","","","video-keyboard-response","242","528242","0.0-242.0","9hc6u1hw","","","null","","Agent A","veridical","FOR_REV_MAP_BLOBBY_STIM/1591781.bmp_pp63_L1_V1.0_veridical_freeview_isoTrue_fps144.mp4",""
"null","","","html-keyboard-response","243","529747","0.0-243.0","9hc6u1hw","","<span style=""color:Black; font-size:50px;"">Agent B","null","","","","",""
"null","","","video-keyboard-response","244","532538","0.0-244.0","9hc6u1hw","","","null","","Agent B","scrambled","FOR_REV_MAP_BLOBBY_STIM/1591781.bmp_pp63_L1_V1.0_veridical_freeview_isoTrue_fps144_reversed_REAL.mp4",""
"","","","call-function","245","532539","0.0-245.0","9hc6u1hw","","","","","","","",""
"2120.0849999999627","{""judgement"":0}","[0]","survey-likert","246","534660","0.0-246.0","9hc6u1hw","","","","","","","","0"
"1083.125","{""confidence"":0}","[0]","survey-likert","247","535744","0.0-247.0","9hc6u1hw","","","","","","","",""
"","","","call-function","248","535745","0.0-248.0","9hc6u1hw","","","","","","","",""
"null","","","html-keyboard-response","249","537248","0.0-249.0","9hc6u1hw","","<span style=""color:Black; font-size:50px;"">Agent A","null","","","","",""
"null","","","video-keyboard-response","250","540095","0.0-250.0","9hc6u1hw","","","null","","Agent A","scrambled","FOR_REV_MAP_BLOBBY_STIM/498261.bmp_pp84_L3_V1.0_veridical_freeview_isoTrue_fps144_reversed_REAL.mp4",""
"null","","","html-keyboard-response","251","541598","0.0-251.0","9hc6u1hw","","<span style=""color:Black; font-size:50px;"">Agent B","null","","","","",""
"null","","","video-keyboard-response","252","544431","0.0-252.0","9hc6u1hw","","","null","","Agent B","veridical","FOR_REV_MAP_BLOBBY_STIM/498261.bmp_pp84_L3_V1.0_veridical_freeview_isoTrue_fps144.mp4",""
"","","","call-function","253","544431","0.0-253.0","9hc6u1hw","","","","","","","",""
"4382.664999999921","{""judgement"":1}","[0]","survey-likert","254","548815","0.0-254.0","9hc6u1hw","","","","","","","","1"
"1072.8850000000093","{""confidence"":0}","[0]","survey-likert","255","549889","0.0-255.0","9hc6u1hw","","","","","","","",""
"37318.54000000004","","","instructions","256","587208","0.0-256.0","9hc6u1hw","[{""page_index"":0,""viewing_time"":35834.70000000007},{""page_index"":1,""viewing_time"":1068.734999999986},{""page_index"":2,""viewing_time"":414.90500000002794}]","","","","","","",""
"1802.5449999999255","","","instructions","257","589011","0.0-257.0","9hc6u1hw","[{""page_index"":0,""viewing_time"":420.25},{""page_index"":1,""viewing_time"":860.0050000000047},{""page_index"":2,""viewing_time"":522.0449999999255}]","","","","","","",""
"","","","call-function","258","589012","0.0-258.0","9hc6u1hw","","","","","","","",""
"null","","","html-keyboard-response","259","590515","0.0-259.0","9hc6u1hw","","<span style=""color:Black; font-size:50px;"">Agent A","null","","","","",""
"null","","","video-keyboard-response","260","593293","0.0-260.0","9hc6u1hw","","","null","","Agent A","veridical","FOR_REV_MAP_BLOBBY_STIM/1592567.bmp_pp70_L2_V1.0_veridical_freeview_isoTrue_fps144.mp4",""
"null","","","html-keyboard-response","261","594795","0.0-261.0","9hc6u1hw","","<span style=""color:Black; font-size:50px;"">Agent B","null","","","","",""
"null","","","video-keyboard-response","262","597568","0.0-262.0","9hc6u1hw","","","null","","Agent B","scrambled","FOR_REV_MAP_BLOBBY_STIM/1592567.bmp_pp70_L2_V1.0_veridical_freeview_isoTrue_fps144_reversed_REAL.mp4",""
"","","","call-function","263","597569","0.0-263.0","9hc6u1hw","","","","","","","",""
"1345.204999999958","{""judgement"":1}","[0]","survey-likert","264","598915","0.0-264.0","9hc6u1hw","","","","","","","","0"
"977.2449999999953","{""confidence"":1}","[0]","survey-likert","265","599894","0.0-265.0","9hc6u1hw","","","","","","","",""
"","","","call-function","266","599894","0.0-266.0","9hc6u1hw","","","","","","","",""
"null","","","html-keyboard-response","267","601395","0.0-267.0","9hc6u1hw","","<span style=""color:Black; font-size:50px;"">Agent A","null","","","","",""
"null","","","video-keyboard-response","268","603997","0.0-268.0","9hc6u1hw","","","null","","Agent A","scrambled","FOR_REV_MAP_BLOBBY_STIM/1159874.bmp_pp96_L2_V1.0_veridical_freeview_isoTrue_fps144_reversed_REAL.mp4",""
"null","","","html-keyboard-response","269","605500","0.0-269.0","9hc6u1hw","","<span style=""color:Black; font-size:50px;"">Agent B","null","","","","",""
"null","","","video-keyboard-response","270","608101","0.0-270.0","9hc6u1hw","","","null","","Agent B","veridical","FOR_REV_MAP_BLOBBY_STIM/1159874.bmp_pp96_L2_V1.0_veridical_freeview_isoTrue_fps144.mp4",""
"","","","call-function","271","608102","0.0-271.0","9hc6u1hw","","","","","","","",""
"2452.265000000014","{""judgement"":1}","[0]","survey-likert","272","610555","0.0-272.0","9hc6u1hw","","","","","","","","1"
"2008.9100000000326","{""confidence"":0}","[0]","survey-likert","273","612565","0.0-273.0","9hc6u1hw","","","","","","","",""
"","","","call-function","274","612566","0.0-274.0","9hc6u1hw","","","","","","","",""
"null","","","html-keyboard-response","275","614072","0.0-275.0","9hc6u1hw","","<span style=""color:Black; font-size:50px;"">Agent A","null","","","","",""
"null","","","video-keyboard-response","276","616183","0.0-276.0","9hc6u1hw","","","null","","Agent A","scrambled","FOR_REV_MAP_BLOBBY_STIM/1159973.bmp_pp98_L1_V1.0_veridical_freeview_isoTrue_fps144_reversed_REAL.mp4",""
"null","","","html-keyboard-response","277","617690","0.0-277.0","9hc6u1hw","","<span style=""color:Black; font-size:50px;"">Agent B","null","","","","",""
"null","","","video-keyboard-response","278","619792","0.0-278.0","9hc6u1hw","","","null","","Agent B","veridical","FOR_REV_MAP_BLOBBY_STIM/1159973.bmp_pp98_L1_V1.0_veridical_freeview_isoTrue_fps144.mp4",""
"","","","call-function","279","619792","0.0-279.0","9hc6u1hw","","","","","","","",""
"1978.0699999999488","{""judgement"":0}","[0]","survey-likert","280","621771","0.0-280.0","9hc6u1hw","","","","","","","","1"
"1948.844999999972","{""confidence"":0}","[0]","survey-likert","281","623721","0.0-281.0","9hc6u1hw","","","","","","","",""
"","","","call-function","282","623722","0.0-282.0","9hc6u1hw","","","","","","","",""
"null","","","html-keyboard-response","283","625227","0.0-283.0","9hc6u1hw","","<span style=""color:Black; font-size:50px;"">Agent A","null","","","","",""
"null","","","video-keyboard-response","284","627685","0.0-284.0","9hc6u1hw","","","null","","Agent A","veridical","FOR_REV_MAP_BLOBBY_STIM/1592951.bmp_pp80_L3_V1.0_veridical_freeview_isoTrue_fps144.mp4",""
"null","","","html-keyboard-response","285","629191","0.0-285.0","9hc6u1hw","","<span style=""color:Black; font-size:50px;"">Agent B","null","","","","",""
"null","","","video-keyboard-response","286","631627","0.0-286.0","9hc6u1hw","","","null","","Agent B","scrambled","FOR_REV_MAP_BLOBBY_STIM/1592951.bmp_pp80_L3_V1.0_veridical_freeview_isoTrue_fps144_reversed_REAL.mp4",""
"","","","call-function","287","631628","0.0-287.0","9hc6u1hw","","","","","","","",""
"2340.4749999999767","{""judgement"":0}","[0]","survey-likert","288","633970","0.0-288.0","9hc6u1hw","","","","","","","","0"
"1114.9599999999627","{""confidence"":0}","[0]","survey-likert","289","635086","0.0-289.0","9hc6u1hw","","","","","","","",""
"","","","call-function","290","635087","0.0-290.0","9hc6u1hw","","","","","","","",""
"null","","","html-keyboard-response","291","636593","0.0-291.0","9hc6u1hw","","<span style=""color:Black; font-size:50px;"">Agent A","null","","","","",""
"null","","","video-keyboard-response","292","639430","0.0-292.0","9hc6u1hw","","","null","","Agent A","veridical","FOR_REV_MAP_BLOBBY_STIM/1160204.bmp_pp54_L2_V1.0_veridical_freeview_isoTrue_fps144.mp4",""
"null","","","html-keyboard-response","293","640937","0.0-293.0","9hc6u1hw","","<span style=""color:Black; font-size:50px;"">Agent B","null","","","","",""
"null","","","video-keyboard-response","294","643774","0.0-294.0","9hc6u1hw","","","null","","Agent B","scrambled","FOR_REV_MAP_BLOBBY_STIM/1160204.bmp_pp54_L2_V1.0_veridical_freeview_isoTrue_fps144_reversed_REAL.mp4",""
"","","","call-function","295","643775","0.0-295.0","9hc6u1hw","","","","","","","",""
"1458.079999999958","{""judgement"":1}","[0]","survey-likert","296","645234","0.0-296.0","9hc6u1hw","","","","","","","","0"
"1608.6300000000047","{""confidence"":1}","[0]","survey-likert","297","646844","0.0-297.0","9hc6u1hw","","","","","","","",""
"","","","call-function","298","646844","0.0-298.0","9hc6u1hw","","","","","","","",""
"null","","","html-keyboard-response","299","648346","0.0-299.0","9hc6u1hw","","<span style=""color:Black; font-size:50px;"">Agent A","null","","","","",""
"null","","","video-keyboard-response","300","651081","0.0-300.0","9hc6u1hw","","","null","","Agent A","scrambled","FOR_REV_MAP_BLOBBY_STIM/285715.bmp_pp67_L2_V1.0_veridical_freeview_isoTrue_fps144_reversed_REAL.mp4",""
"null","","","html-keyboard-response","301","652583","0.0-301.0","9hc6u1hw","","<span style=""color:Black; font-size:50px;"">Agent B","null","","","","",""
"null","","","video-keyboard-response","302","655318","0.0-302.0","9hc6u1hw","","","null","","Agent B","veridical","FOR_REV_MAP_BLOBBY_STIM/285715.bmp_pp67_L2_V1.0_veridical_freeview_isoTrue_fps144.mp4",""
"","","","call-function","303","655318","0.0-303.0","9hc6u1hw","","","","","","","",""
"1315.670000000042","{""judgement"":1}","[0]","survey-likert","304","656635","0.0-304.0","9hc6u1hw","","","","","","","","1"
"1869.140000000014","{""confidence"":0}","[0]","survey-likert","305","658505","0.0-305.0","9hc6u1hw","","","","","","","",""
"","","","call-function","306","658506","0.0-306.0","9hc6u1hw","","","","","","","",""
"null","","","html-keyboard-response","307","660011","0.0-307.0","9hc6u1hw","","<span style=""color:Black; font-size:50px;"">Agent A","null","","","","",""
"null","","","video-keyboard-response","308","662810","0.0-308.0","9hc6u1hw","","","null","","Agent A","scrambled","FOR_REV_MAP_BLOBBY_STIM/1592305.bmp_pp65_L3_V1.0_veridical_freeview_isoTrue_fps144_reversed_REAL.mp4",""
"null","","","html-keyboard-response","309","664314","0.0-309.0","9hc6u1hw","","<span style=""color:Black; font-size:50px;"">Agent B","null","","","","",""
"null","","","video-keyboard-response","310","667112","0.0-310.0","9hc6u1hw","","","null","","Agent B","veridical","FOR_REV_MAP_BLOBBY_STIM/1592305.bmp_pp65_L3_V1.0_veridical_freeview_isoTrue_fps144.mp4",""
"","","","call-function","311","667114","0.0-311.0","9hc6u1hw","","","","","","","",""
"2218.439999999944","{""judgement"":0}","[0]","survey-likert","312","669334","0.0-312.0","9hc6u1hw","","","","","","","","1"
"975.4650000000838","{""confidence"":0}","[0]","survey-likert","313","670311","0.0-313.0","9hc6u1hw","","","","","","","",""
"","","","call-function","314","670312","0.0-314.0","9hc6u1hw","","","","","","","",""
"null","","","html-keyboard-response","315","671814","0.0-315.0","9hc6u1hw","","<span style=""color:Black; font-size:50px;"">Agent A","null","","","","",""
"null","","","video-keyboard-response","316","674590","0.0-316.0","9hc6u1hw","","","null","","Agent A","scrambled","FOR_REV_MAP_BLOBBY_STIM/1592289.bmp_pp92_L3_V1.0_veridical_freeview_isoTrue_fps144_reversed_REAL.mp4",""
"null","","","html-keyboard-response","317","676095","0.0-317.0","9hc6u1hw","","<span style=""color:Black; font-size:50px;"">Agent B","null","","","","",""
"null","","","video-keyboard-response","318","678889","0.0-318.0","9hc6u1hw","","","null","","Agent B","veridical","FOR_REV_MAP_BLOBBY_STIM/1592289.bmp_pp92_L3_V1.0_veridical_freeview_isoTrue_fps144.mp4",""
"","","","call-function","319","678890","0.0-319.0","9hc6u1hw","","","","","","","",""
"3389.774999999907","{""judgement"":1}","[0]","survey-likert","320","682281","0.0-320.0","9hc6u1hw","","","","","","","","1"
"2020.030000000028","{""confidence"":0}","[0]","survey-likert","321","684302","0.0-321.0","9hc6u1hw","","","","","","","",""
"","","","call-function","322","684303","0.0-322.0","9hc6u1hw","","","","","","","",""
"null","","","html-keyboard-response","323","685806","0.0-323.0","9hc6u1hw","","<span style=""color:Black; font-size:50px;"">Agent A","null","","","","",""
"null","","","video-keyboard-response","324","688627","0.0-324.0","9hc6u1hw","","","null","","Agent A","scrambled","FOR_REV_MAP_BLOBBY_STIM/1592314.bmp_pp100_L3_V1.0_veridical_freeview_isoTrue_fps144_reversed_REAL.mp4",""
"null","","","html-keyboard-response","325","690132","0.0-325.0","9hc6u1hw","","<span style=""color:Black; font-size:50px;"">Agent B","null","","","","",""
"null","","","video-keyboard-response","326","692936","0.0-326.0","9hc6u1hw","","","null","","Agent B","veridical","FOR_REV_MAP_BLOBBY_STIM/1592314.bmp_pp100_L3_V1.0_veridical_freeview_isoTrue_fps144.mp4",""
"","","","call-function","327","692937","0.0-327.0","9hc6u1hw","","","","","","","",""
"2443.045000000042","{""judgement"":0}","[0]","survey-likert","328","695381","0.0-328.0","9hc6u1hw","","","","","","","","1"
"1637.7399999999907","{""confidence"":0}","[0]","survey-likert","329","697020","0.0-329.0","9hc6u1hw","","","","","","","",""
"","","","call-function","330","697020","0.0-330.0","9hc6u1hw","","","","","","","",""
"null","","","html-keyboard-response","331","698526","0.0-331.0","9hc6u1hw","","<span style=""color:Black; font-size:50px;"">Agent A","null","","","","",""
"null","","","video-keyboard-response","332","701318","0.0-332.0","9hc6u1hw","","","null","","Agent A","scrambled","FOR_REV_MAP_BLOBBY_STIM/285932.bmp_pp64_L1_V1.0_veridical_freeview_isoTrue_fps144_reversed_REAL.mp4",""
"null","","","html-keyboard-response","333","702821","0.0-333.0","9hc6u1hw","","<span style=""color:Black; font-size:50px;"">Agent B","null","","","","",""
"null","","","video-keyboard-response","334","705603","0.0-334.0","9hc6u1hw","","","null","","Agent B","veridical","FOR_REV_MAP_BLOBBY_STIM/285932.bmp_pp64_L1_V1.0_veridical_freeview_isoTrue_fps144.mp4",""
"","","","call-function","335","705604","0.0-335.0","9hc6u1hw","","","","","","","",""
"1759.5100000000093","{""judgement"":1}","[0]","survey-likert","336","707365","0.0-336.0","9hc6u1hw","","","","","","","","1"
"1096.9500000000698","{""confidence"":0}","[0]","survey-likert","337","708463","0.0-337.0","9hc6u1hw","","","","","","","",""
"13491.395000000019","","","instructions","338","721955","0.0-338.0","9hc6u1hw","[{""page_index"":0,""viewing_time"":2920.1900000000605},{""page_index"":1,""viewing_time"":9719.25},{""page_index"":2,""viewing_time"":851.6500000000233}]","","","","","","",""
"3181.329999999958","","","instructions","339","725137","0.0-339.0","9hc6u1hw","[{""page_index"":0,""viewing_time"":915.140000000014},{""page_index"":1,""viewing_time"":1518.0249999999069},{""page_index"":2,""viewing_time"":748.0600000000559}]","","","","","","",""
"","","","call-function","340","725138","0.0-340.0","9hc6u1hw","","","","","","","",""
"null","","","html-keyboard-response","341","726641","0.0-341.0","9hc6u1hw","","<span style=""color:Black; font-size:50px;"">Agent A","null","","","","",""
"null","","","video-keyboard-response","342","729416","0.0-342.0","9hc6u1hw","","","null","","Agent A","veridical","FOR_REV_MAP_BLOBBY_STIM/1592017.bmp_pp154_L1_V1.0_veridical_freeview_isoTrue_fps144.mp4",""
"null","","","html-keyboard-response","343","730920","0.0-343.0","9hc6u1hw","","<span style=""color:Black; font-size:50px;"">Agent B","null","","","","",""
"null","","","video-keyboard-response","344","733699","0.0-344.0","9hc6u1hw","","","null","","Agent B","scrambled","FOR_REV_MAP_BLOBBY_STIM/1592017.bmp_pp154_L1_V1.0_veridical_freeview_isoTrue_fps144_reversed_REAL.mp4",""
"","","","call-function","345","733699","0.0-345.0","9hc6u1hw","","","","","","","",""
"1484.6300000000047","{""judgement"":0}","[0]","survey-likert","346","735185","0.0-346.0","9hc6u1hw","","","","","","","","0"
"1743.5849999999627","{""confidence"":0}","[0]","survey-likert","347","736930","0.0-347.0","9hc6u1hw","","","","","","","",""
"","","","call-function","348","736930","0.0-348.0","9hc6u1hw","","","","","","","",""
"null","","","html-keyboard-response","349","738432","0.0-349.0","9hc6u1hw","","<span style=""color:Black; font-size:50px;"">Agent A","null","","","","",""
"null","","","video-keyboard-response","350","741294","0.0-350.0","9hc6u1hw","","","null","","Agent A","veridical","FOR_REV_MAP_BLOBBY_STIM/498258.bmp_pp51_L1_V1.0_veridical_freeview_isoTrue_fps144.mp4",""
"null","","","html-keyboard-response","351","742796","0.0-351.0","9hc6u1hw","","<span style=""color:Black; font-size:50px;"">Agent B","null","","","","",""
"null","","","video-keyboard-response","352","745594","0.0-352.0","9hc6u1hw","","","null","","Agent B","scrambled","FOR_REV_MAP_BLOBBY_STIM/498258.bmp_pp51_L1_V1.0_veridical_freeview_isoTrue_fps144_reversed_REAL.mp4",""
"","","","call-function","353","745594","0.0-353.0","9hc6u1hw","","","","","","","",""
"2682.2399999999907","{""judgement"":0}","[0]","survey-likert","354","748278","0.0-354.0","9hc6u1hw","","","","","","","","0"
"1127.9899999999907","{""confidence"":0}","[0]","survey-likert","355","749407","0.0-355.0","9hc6u1hw","","","","","","","",""
"","","","call-function","356","749408","0.0-356.0","9hc6u1hw","","","","","","","",""
"null","","","html-keyboard-response","357","750910","0.0-357.0","9hc6u1hw","","<span style=""color:Black; font-size:50px;"">Agent A","null","","","","",""
"null","","","video-keyboard-response","358","753680","0.0-358.0","9hc6u1hw","","","null","","Agent A","scrambled","FOR_REV_MAP_BLOBBY_STIM/1159860.bmp_pp152_L2_V1.0_veridical_freeview_isoTrue_fps144_reversed_REAL.mp4",""
"null","","","html-keyboard-response","359","755184","0.0-359.0","9hc6u1hw","","<span style=""color:Black; font-size:50px;"">Agent B","null","","","","",""
"null","","","video-keyboard-response","360","757954","0.0-360.0","9hc6u1hw","","","null","","Agent B","veridical","FOR_REV_MAP_BLOBBY_STIM/1159860.bmp_pp152_L2_V1.0_veridical_freeview_isoTrue_fps144.mp4",""
"","","","call-function","361","757955","0.0-361.0","9hc6u1hw","","","","","","","",""
"3199.6300000000047","{""judgement"":0}","[0]","survey-likert","362","761156","0.0-362.0","9hc6u1hw","","","","","","","","1"
"1025.2850000000326","{""confidence"":0}","[0]","survey-likert","363","762182","0.0-363.0","9hc6u1hw","","","","","","","",""
"","","","call-function","364","762183","0.0-364.0","9hc6u1hw","","","","","","","",""
"null","","","html-keyboard-response","365","763686","0.0-365.0","9hc6u1hw","","<span style=""color:Black; font-size:50px;"">Agent A","null","","","","",""
"null","","","video-keyboard-response","366","766433","0.0-366.0","9hc6u1hw","","","null","","Agent A","scrambled","FOR_REV_MAP_BLOBBY_STIM/1591975.bmp_pp88_L2_V1.0_veridical_freeview_isoTrue_fps144_reversed_REAL.mp4",""
"null","","","html-keyboard-response","367","767937","0.0-367.0","9hc6u1hw","","<span style=""color:Black; font-size:50px;"">Agent B","null","","","","",""
"null","","","video-keyboard-response","368","770684","0.0-368.0","9hc6u1hw","","","null","","Agent B","veridical","FOR_REV_MAP_BLOBBY_STIM/1591975.bmp_pp88_L2_V1.0_veridical_freeview_isoTrue_fps144.mp4",""
"","","","call-function","369","770685","0.0-369.0","9hc6u1hw","","","","","","","",""
"1341.75","{""judgement"":0}","[0]","survey-likert","370","772028","0.0-370.0","9hc6u1hw","","","","","","","","1"
"1052.2999999999302","{""confidence"":0}","[0]","survey-likert","371","773082","0.0-371.0","9hc6u1hw","","","","","","","",""
"","","","call-function","372","773082","0.0-372.0","9hc6u1hw","","","","","","","",""
"null","","","html-keyboard-response","373","774585","0.0-373.0","9hc6u1hw","","<span style=""color:Black; font-size:50px;"">Agent A","null","","","","",""
"null","","","video-keyboard-response","374","777283","0.0-374.0","9hc6u1hw","","","null","","Agent A","veridical","FOR_REV_MAP_BLOBBY_STIM/713858.bmp_pp57_L1_V1.0_veridical_freeview_isoTrue_fps144.mp4",""
"null","","","html-keyboard-response","375","778787","0.0-375.0","9hc6u1hw","","<span style=""color:Black; font-size:50px;"">Agent B","null","","","","",""
"null","","","video-keyboard-response","376","781488","0.0-376.0","9hc6u1hw","","","null","","Agent B","scrambled","FOR_REV_MAP_BLOBBY_STIM/713858.bmp_pp57_L1_V1.0_veridical_freeview_isoTrue_fps144_reversed_REAL.mp4",""
"","","","call-function","377","781489","0.0-377.0","9hc6u1hw","","","","","","","",""
"1559.3149999999441","{""judgement"":1}","[0]","survey-likert","378","783049","0.0-378.0","9hc6u1hw","","","","","","","","0"
"1087.4599999999627","{""confidence"":0}","[0]","survey-likert","379","784138","0.0-379.0","9hc6u1hw","","","","","","","",""
"","","","call-function","380","784138","0.0-380.0","9hc6u1hw","","","","","","","",""
"null","","","html-keyboard-response","381","785641","0.0-381.0","9hc6u1hw","","<span style=""color:Black; font-size:50px;"">Agent A","null","","","","",""
"null","","","video-keyboard-response","382","788494","0.0-382.0","9hc6u1hw","","","null","","Agent A","veridical","FOR_REV_MAP_BLOBBY_STIM/498326.bmp_pp57_L1_V1.0_veridical_freeview_isoTrue_fps144.mp4",""
"null","","","html-keyboard-response","383","790001","0.0-383.0","9hc6u1hw","","<span style=""color:Black; font-size:50px;"">Agent B","null","","","","",""
"null","","","video-keyboard-response","384","792863","0.0-384.0","9hc6u1hw","","","null","","Agent B","scrambled","FOR_REV_MAP_BLOBBY_STIM/498326.bmp_pp57_L1_V1.0_veridical_freeview_isoTrue_fps144_reversed_REAL.mp4",""
"","","","call-function","385","792863","0.0-385.0","9hc6u1hw","","","","","","","",""
"1958.7299999999814","{""judgement"":0}","[0]","survey-likert","386","794823","0.0-386.0","9hc6u1hw","","","","","","","","0"
"1184.5200000000186","{""confidence"":0}","[0]","survey-likert","387","796009","0.0-387.0","9hc6u1hw","","","","","","","",""
"","","","call-function","388","796009","0.0-388.0","9hc6u1hw","","","","","","","",""
"null","","","html-keyboard-response","389","797514","0.0-389.0","9hc6u1hw","","<span style=""color:Black; font-size:50px;"">Agent A","null","","","","",""
"null","","","video-keyboard-response","390","800361","0.0-390.0","9hc6u1hw","","","null","","Agent A","scrambled","FOR_REV_MAP_BLOBBY_STIM/713790.bmp_pp100_L3_V1.0_veridical_freeview_isoTrue_fps144_reversed_REAL.mp4",""
"null","","","html-keyboard-response","391","801868","0.0-391.0","9hc6u1hw","","<span style=""color:Black; font-size:50px;"">Agent B","null","","","","",""
"null","","","video-keyboard-response","392","804664","0.0-392.0","9hc6u1hw","","","null","","Agent B","veridical","FOR_REV_MAP_BLOBBY_STIM/713790.bmp_pp100_L3_V1.0_veridical_freeview_isoTrue_fps144.mp4",""
"","","","call-function","393","804664","0.0-393.0","9hc6u1hw","","","","","","","",""
"6038.770000000019","{""judgement"":1}","[0]","survey-likert","394","810704","0.0-394.0","9hc6u1hw","","","","","","","","1"
"1377.7449999999953","{""confidence"":0}","[0]","survey-likert","395","812083","0.0-395.0","9hc6u1hw","","","","","","","",""
"","","","call-function","396","812084","0.0-396.0","9hc6u1hw","","","","","","","",""
"null","","","html-keyboard-response","397","813588","0.0-397.0","9hc6u1hw","","<span style=""color:Black; font-size:50px;"">Agent A","null","","","","",""
"null","","","video-keyboard-response","398","816392","0.0-398.0","9hc6u1hw","","","null","","Agent A","veridical","FOR_REV_MAP_BLOBBY_STIM/1591920.bmp_pp97_L3_V1.0_veridical_freeview_isoTrue_fps144.mp4",""
"null","","","html-keyboard-response","399","817896","0.0-399.0","9hc6u1hw","","<span style=""color:Black; font-size:50px;"">Agent B","null","","","","",""
"null","","","video-keyboard-response","400","820700","0.0-400.0","9hc6u1hw","","","null","","Agent B","scrambled","FOR_REV_MAP_BLOBBY_STIM/1591920.bmp_pp97_L3_V1.0_veridical_freeview_isoTrue_fps144_reversed_REAL.mp4",""
"","","","call-function","401","820702","0.0-401.0","9hc6u1hw","","","","","","","",""
"3111.29999999993","{""judgement"":0}","[0]","survey-likert","402","823814","0.0-402.0","9hc6u1hw","","","","","","","","0"
"1987.9600000000792","{""confidence"":0}","[0]","survey-likert","403","825804","0.0-403.0","9hc6u1hw","","","","","","","",""
"","","","call-function","404","825806","0.0-404.0","9hc6u1hw","","","","","","","",""
"null","","","html-keyboard-response","405","827313","0.0-405.0","9hc6u1hw","","<span style=""color:Black; font-size:50px;"">Agent A","null","","","","",""
"null","","","video-keyboard-response","406","830102","0.0-406.0","9hc6u1hw","","","null","","Agent A","veridical","FOR_REV_MAP_BLOBBY_STIM/107909.bmp_pp95_L2_V1.0_veridical_freeview_isoTrue_fps144.mp4",""
"null","","","html-keyboard-response","407","831604","0.0-407.0","9hc6u1hw","","<span style=""color:Black; font-size:50px;"">Agent B","null","","","","",""
"null","","","video-keyboard-response","408","834392","0.0-408.0","9hc6u1hw","","","null","","Agent B","scrambled","FOR_REV_MAP_BLOBBY_STIM/107909.bmp_pp95_L2_V1.0_veridical_freeview_isoTrue_fps144_reversed_REAL.mp4",""
"","","","call-function","409","834393","0.0-409.0","9hc6u1hw","","","","","","","",""
"1726.5599999999395","{""judgement"":1}","[0]","survey-likert","410","836121","0.0-410.0","9hc6u1hw","","","","","","","","0"
"1178.640000000014","{""confidence"":0}","[0]","survey-likert","411","837301","0.0-411.0","9hc6u1hw","","","","","","","",""
"","","","call-function","412","837302","0.0-412.0","9hc6u1hw","","","","","","","",""
"null","","","html-keyboard-response","413","838805","0.0-413.0","9hc6u1hw","","<span style=""color:Black; font-size:50px;"">Agent A","null","","","","",""
"null","","","video-keyboard-response","414","841568","0.0-414.0","9hc6u1hw","","","null","","Agent A","scrambled","FOR_REV_MAP_BLOBBY_STIM/1592044.bmp_pp94_L2_V1.0_veridical_freeview_isoTrue_fps144_reversed_REAL.mp4",""
"null","","","html-keyboard-response","415","843072","0.0-415.0","9hc6u1hw","","<span style=""color:Black; font-size:50px;"">Agent B","null","","","","",""
"null","","","video-keyboard-response","416","845838","0.0-416.0","9hc6u1hw","","","null","","Agent B","veridical","FOR_REV_MAP_BLOBBY_STIM/1592044.bmp_pp94_L2_V1.0_veridical_freeview_isoTrue_fps144.mp4",""
"","","","call-function","417","845838","0.0-417.0","9hc6u1hw","","","","","","","",""
"1827.8100000000559","{""judgement"":0}","[0]","survey-likert","418","847667","0.0-418.0","9hc6u1hw","","","","","","","","1"
"1078.8549999999814","{""confidence"":0}","[0]","survey-likert","419","848747","0.0-419.0","9hc6u1hw","","","","","","","",""
"205467.015","","","instructions","420","1054215","0.0-420.0","9hc6u1hw","[{""page_index"":0,""viewing_time"":204386.93499999994},{""page_index"":1,""viewing_time"":521.4499999999534},{""page_index"":2,""viewing_time"":558.4799999999814}]","","","","","","",""
"1575.0149999998976","","","instructions","421","1055791","0.0-421.0","9hc6u1hw","[{""page_index"":0,""viewing_time"":506.81999999983236},{""page_index"":1,""viewing_time"":572.4750000000931},{""page_index"":2,""viewing_time"":495.50499999988824}]","","","","","","",""
"","","","call-function","422","1055791","0.0-422.0","9hc6u1hw","","","","","","","",""
"null","","","html-keyboard-response","423","1057294","0.0-423.0","9hc6u1hw","","<span style=""color:Black; font-size:50px;"">Agent A","null","","","","",""
"null","","","video-keyboard-response","424","1060057","0.0-424.0","9hc6u1hw","","","null","","Agent A","veridical","FOR_REV_MAP_BLOBBY_STIM/1160247.bmp_pp54_L2_V1.0_veridical_freeview_isoTrue_fps144.mp4",""
"null","","","html-keyboard-response","425","1061560","0.0-425.0","9hc6u1hw","","<span style=""color:Black; font-size:50px;"">Agent B","null","","","","",""
"null","","","video-keyboard-response","426","1064309","0.0-426.0","9hc6u1hw","","","null","","Agent B","scrambled","FOR_REV_MAP_BLOBBY_STIM/1160247.bmp_pp54_L2_V1.0_veridical_freeview_isoTrue_fps144_reversed_REAL.mp4",""
"","","","call-function","427","1064310","0.0-427.0","9hc6u1hw","","","","","","","",""
"1904.25","{""judgement"":0}","[0]","survey-likert","428","1066215","0.0-428.0","9hc6u1hw","","","","","","","","0"
"2499.4749999998603","{""confidence"":1}","[0]","survey-likert","429","1068715","0.0-429.0","9hc6u1hw","","","","","","","",""
"","","","call-function","430","1068716","0.0-430.0","9hc6u1hw","","","","","","","",""
"null","","","html-keyboard-response","431","1070220","0.0-431.0","9hc6u1hw","","<span style=""color:Black; font-size:50px;"">Agent A","null","","","","",""
"null","","","video-keyboard-response","432","1072991","0.0-432.0","9hc6u1hw","","","null","","Agent A","scrambled","FOR_REV_MAP_BLOBBY_STIM/1160049.bmp_pp53_L2_V1.0_veridical_freeview_isoTrue_fps144_reversed_REAL.mp4",""
"null","","","html-keyboard-response","433","1074497","0.0-433.0","9hc6u1hw","","<span style=""color:Black; font-size:50px;"">Agent B","null","","","","",""
"null","","","video-keyboard-response","434","1077264","0.0-434.0","9hc6u1hw","","","null","","Agent B","veridical","FOR_REV_MAP_BLOBBY_STIM/1160049.bmp_pp53_L2_V1.0_veridical_freeview_isoTrue_fps144.mp4",""
"","","","call-function","435","1077265","0.0-435.0","9hc6u1hw","","","","","","","",""
"1339.5149999998976","{""judgement"":0}","[0]","survey-likert","436","1078605","0.0-436.0","9hc6u1hw","","","","","","","","1"
"1402.6650000000373","{""confidence"":0}","[0]","survey-likert","437","1080009","0.0-437.0","9hc6u1hw","","","","","","","",""
"","","","call-function","438","1080010","0.0-438.0","9hc6u1hw","","","","","","","",""
"null","","","html-keyboard-response","439","1081513","0.0-439.0","9hc6u1hw","","<span style=""color:Black; font-size:50px;"">Agent A","null","","","","",""
"null","","","video-keyboard-response","440","1084323","0.0-440.0","9hc6u1hw","","","null","","Agent A","veridical","FOR_REV_MAP_BLOBBY_STIM/1592150.bmp_pp77_L3_V1.0_veridical_freeview_isoTrue_fps144.mp4",""
"null","","","html-keyboard-response","441","1085827","0.0-441.0","9hc6u1hw","","<span style=""color:Black; font-size:50px;"">Agent B","null","","","","",""
"null","","","video-keyboard-response","442","1088629","0.0-442.0","9hc6u1hw","","","null","","Agent B","scrambled","FOR_REV_MAP_BLOBBY_STIM/1592150.bmp_pp77_L3_V1.0_veridical_freeview_isoTrue_fps144_reversed_REAL.mp4",""
"","","","call-function","443","1088629","0.0-443.0","9hc6u1hw","","","","","","","",""
"1700.190000000177","{""judgement"":0}","[0]","survey-likert","444","1090330","0.0-444.0","9hc6u1hw","","","","","","","","0"
"890.1750000000466","{""confidence"":0}","[0]","survey-likert","445","1091222","0.0-445.0","9hc6u1hw","","","","","","","",""
"","","","call-function","446","1091223","0.0-446.0","9hc6u1hw","","","","","","","",""
"null","","","html-keyboard-response","447","1092729","0.0-447.0","9hc6u1hw","","<span style=""color:Black; font-size:50px;"">Agent A","null","","","","",""
"null","","","video-keyboard-response","448","1095505","0.0-448.0","9hc6u1hw","","","null","","Agent A","scrambled","FOR_REV_MAP_BLOBBY_STIM/285684.bmp_pp80_L3_V1.0_veridical_freeview_isoTrue_fps144_reversed_REAL.mp4",""
"null","","","html-keyboard-response","449","1097007","0.0-449.0","9hc6u1hw","","<span style=""color:Black; font-size:50px;"">Agent B","null","","","","",""
"null","","","video-keyboard-response","450","1099780","0.0-450.0","9hc6u1hw","","","null","","Agent B","veridical","FOR_REV_MAP_BLOBBY_STIM/285684.bmp_pp80_L3_V1.0_veridical_freeview_isoTrue_fps144.mp4",""
"","","","call-function","451","1099780","0.0-451.0","9hc6u1hw","","","","","","","",""
"1243.4199999999255","{""judgement"":0}","[0]","survey-likert","452","1101024","0.0-452.0","9hc6u1hw","","","","","","","","1"
"1066.7450000001118","{""confidence"":0}","[0]","survey-likert","453","1102092","0.0-453.0","9hc6u1hw","","","","","","","",""
"","","","call-function","454","1102093","0.0-454.0","9hc6u1hw","","","","","","","",""
"null","","","html-keyboard-response","455","1103597","0.0-455.0","9hc6u1hw","","<span style=""color:Black; font-size:50px;"">Agent A","null","","","","",""
"null","","","video-keyboard-response","456","1106359","0.0-456.0","9hc6u1hw","","","null","","Agent A","veridical","FOR_REV_MAP_BLOBBY_STIM/1592168.bmp_pp71_L1_V1.0_veridical_freeview_isoTrue_fps144.mp4",""
"null","","","html-keyboard-response","457","1107865","0.0-457.0","9hc6u1hw","","<span style=""color:Black; font-size:50px;"">Agent B","null","","","","",""
"null","","","video-keyboard-response","458","1110624","0.0-458.0","9hc6u1hw","","","null","","Agent B","scrambled","FOR_REV_MAP_BLOBBY_STIM/1592168.bmp_pp71_L1_V1.0_veridical_freeview_isoTrue_fps144_reversed_REAL.mp4",""
"","","","call-function","459","1110625","0.0-459.0","9hc6u1hw","","","","","","","",""
"2039.7900000000373","{""judgement"":1}","[0]","survey-likert","460","1112665","0.0-460.0","9hc6u1hw","","","","","","","","0"
"1216.844999999972","{""confidence"":0}","[0]","survey-likert","461","1113883","0.0-461.0","9hc6u1hw","","","","","","","",""
"","","","call-function","462","1113884","0.0-462.0","9hc6u1hw","","","","","","","",""
"null","","","html-keyboard-response","463","1115388","0.0-463.0","9hc6u1hw","","<span style=""color:Black; font-size:50px;"">Agent A","null","","","","",""
"null","","","video-keyboard-response","464","1118198","0.0-464.0","9hc6u1hw","","","null","","Agent A","scrambled","FOR_REV_MAP_BLOBBY_STIM/150277.bmp_pp65_L3_V1.0_veridical_freeview_isoTrue_fps144_reversed_REAL.mp4",""
"null","","","html-keyboard-response","465","1119700","0.0-465.0","9hc6u1hw","","<span style=""color:Black; font-size:50px;"">Agent B","null","","","","",""
"null","","","video-keyboard-response","466","1122477","0.0-466.0","9hc6u1hw","","","null","","Agent B","veridical","FOR_REV_MAP_BLOBBY_STIM/150277.bmp_pp65_L3_V1.0_veridical_freeview_isoTrue_fps144.mp4",""
"","","","call-function","467","1122477","0.0-467.0","9hc6u1hw","","","","","","","",""
"2349.1450000000186","{""judgement"":0}","[0]","survey-likert","468","1124827","0.0-468.0","9hc6u1hw","","","","","","","","1"
"1360.839999999851","{""confidence"":0}","[0]","survey-likert","469","1126189","0.0-469.0","9hc6u1hw","","","","","","","",""
"","","","call-function","470","1126190","0.0-470.0","9hc6u1hw","","","","","","","",""
"null","","","html-keyboard-response","471","1127691","0.0-471.0","9hc6u1hw","","<span style=""color:Black; font-size:50px;"">Agent A","null","","","","",""
"null","","","video-keyboard-response","472","1130380","0.0-472.0","9hc6u1hw","","","null","","Agent A","veridical","FOR_REV_MAP_BLOBBY_STIM/713788.bmp_pp52_L1_V1.0_veridical_freeview_isoTrue_fps144.mp4",""
"null","","","html-keyboard-response","473","1131885","0.0-473.0","9hc6u1hw","","<span style=""color:Black; font-size:50px;"">Agent B","null","","","","",""
"null","","","video-keyboard-response","474","1134558","0.0-474.0","9hc6u1hw","","","null","","Agent B","scrambled","FOR_REV_MAP_BLOBBY_STIM/713788.bmp_pp52_L1_V1.0_veridical_freeview_isoTrue_fps144_reversed_REAL.mp4",""
"","","","call-function","475","1134559","0.0-475.0","9hc6u1hw","","","","","","","",""
"1498.5499999998137","{""judgement"":0}","[0]","survey-likert","476","1136058","0.0-476.0","9hc6u1hw","","","","","","","","0"
"875.9300000001676","{""confidence"":0}","[0]","survey-likert","477","1136936","0.0-477.0","9hc6u1hw","","","","","","","",""
"","","","call-function","478","1136936","0.0-478.0","9hc6u1hw","","","","","","","",""
"null","","","html-keyboard-response","479","1138439","0.0-479.0","9hc6u1hw","","<span style=""color:Black; font-size:50px;"">Agent A","null","","","","",""
"null","","","video-keyboard-response","480","1141328","0.0-480.0","9hc6u1hw","","","null","","Agent A","veridical","FOR_REV_MAP_BLOBBY_STIM/713770.bmp_pp89_L1_V1.0_veridical_freeview_isoTrue_fps144.mp4",""
"null","","","html-keyboard-response","481","1142831","0.0-481.0","9hc6u1hw","","<span style=""color:Black; font-size:50px;"">Agent B","null","","","","",""
"null","","","video-keyboard-response","482","1145638","0.0-482.0","9hc6u1hw","","","null","","Agent B","scrambled","FOR_REV_MAP_BLOBBY_STIM/713770.bmp_pp89_L1_V1.0_veridical_freeview_isoTrue_fps144_reversed_REAL.mp4",""
"","","","call-function","483","1145639","0.0-483.0","9hc6u1hw","","","","","","","",""
"1295.7949999999255","{""judgement"":0}","[0]","survey-likert","484","1146935","0.0-484.0","9hc6u1hw","","","","","","","","0"
"932.8549999999814","{""confidence"":0}","[0]","survey-likert","485","1147869","0.0-485.0","9hc6u1hw","","","","","","","",""
"","","","call-function","486","1147870","0.0-486.0","9hc6u1hw","","","","","","","",""
"null","","","html-keyboard-response","487","1149372","0.0-487.0","9hc6u1hw","","<span style=""color:Black; font-size:50px;"">Agent A","null","","","","",""
"null","","","video-keyboard-response","488","1152122","0.0-488.0","9hc6u1hw","","","null","","Agent A","scrambled","FOR_REV_MAP_BLOBBY_STIM/285959.bmp_pp93_L1_V1.0_veridical_freeview_isoTrue_fps144_reversed_REAL.mp4",""
"null","","","html-keyboard-response","489","1153626","0.0-489.0","9hc6u1hw","","<span style=""color:Black; font-size:50px;"">Agent B","null","","","","",""
"null","","","video-keyboard-response","490","1156365","0.0-490.0","9hc6u1hw","","","null","","Agent B","veridical","FOR_REV_MAP_BLOBBY_STIM/285959.bmp_pp93_L1_V1.0_veridical_freeview_isoTrue_fps144.mp4",""
"","","","call-function","491","1156366","0.0-491.0","9hc6u1hw","","","","","","","",""
"1432.9650000000838","{""judgement"":1}","[0]","survey-likert","492","1157800","0.0-492.0","9hc6u1hw","","","","","","","","1"
"2133.3250000001863","{""confidence"":0}","[0]","survey-likert","493","1159935","0.0-493.0","9hc6u1hw","","","","","","","",""
"","","","call-function","494","1159937","0.0-494.0","9hc6u1hw","","","","","","","",""
"null","","","html-keyboard-response","495","1161441","0.0-495.0","9hc6u1hw","","<span style=""color:Black; font-size:50px;"">Agent A","null","","","","",""
"null","","","video-keyboard-response","496","1164371","0.0-496.0","9hc6u1hw","","","null","","Agent A","scrambled","FOR_REV_MAP_BLOBBY_STIM/498025.bmp_pp81_L1_V1.0_veridical_freeview_isoTrue_fps144_reversed_REAL.mp4",""
"null","","","html-keyboard-response","497","1165876","0.0-497.0","9hc6u1hw","","<span style=""color:Black; font-size:50px;"">Agent B","null","","","","",""
"null","","","video-keyboard-response","498","1168808","0.0-498.0","9hc6u1hw","","","null","","Agent B","veridical","FOR_REV_MAP_BLOBBY_STIM/498025.bmp_pp81_L1_V1.0_veridical_freeview_isoTrue_fps144.mp4",""
"","","","call-function","499","1168809","0.0-499.0","9hc6u1hw","","","","","","","",""
"1558.6450000000186","{""judgement"":1}","[0]","survey-likert","500","1170369","0.0-500.0","9hc6u1hw","","","","","","","","1"
"1953.969999999972","{""confidence"":0}","[0]","survey-likert","501","1172324","0.0-501.0","9hc6u1hw","","","","","","","",""
"62442.14999999991","","","instructions","502","1234767","0.0-502.0","9hc6u1hw","[{""page_index"":0,""viewing_time"":61514.0149999999},{""page_index"":1,""viewing_time"":506.3149999999441},{""page_index"":2,""viewing_time"":421.66500000003725}]","","","","","","",""
"3615.195000000065","","","instructions","503","1238383","0.0-503.0","9hc6u1hw","[{""page_index"":0,""viewing_time"":508.0700000000652},{""page_index"":1,""viewing_time"":612.0049999998882},{""page_index"":2,""viewing_time"":2495.0150000001304}]","","","","","","",""
"","","","call-function","504","1238384","0.0-504.0","9hc6u1hw","","","","","","","",""
"null","","","html-keyboard-response","505","1239885","0.0-505.0","9hc6u1hw","","<span style=""color:Black; font-size:50px;"">Agent A","null","","","","",""
"null","","","video-keyboard-response","506","1242734","0.0-506.0","9hc6u1hw","","","null","","Agent A","veridical","FOR_REV_MAP_BLOBBY_STIM/107955.bmp_pp90_L2_V1.0_veridical_freeview_isoTrue_fps144.mp4",""
"null","","","html-keyboard-response","507","1244237","0.0-507.0","9hc6u1hw","","<span style=""color:Black; font-size:50px;"">Agent B","null","","","","",""
"null","","","video-keyboard-response","508","1247054","0.0-508.0","9hc6u1hw","","","null","","Agent B","scrambled","FOR_REV_MAP_BLOBBY_STIM/107955.bmp_pp90_L2_V1.0_veridical_freeview_isoTrue_fps144_reversed_REAL.mp4",""
"","","","call-function","509","1247055","0.0-509.0","9hc6u1hw","","","","","","","",""
"1651.0800000000745","{""judgement"":0}","[0]","survey-likert","510","1248707","0.0-510.0","9hc6u1hw","","","","","","","","0"
"2094.560000000056","{""confidence"":0}","[0]","survey-likert","511","1250803","0.0-511.0","9hc6u1hw","","","","","","","",""
"","","","call-function","512","1250803","0.0-512.0","9hc6u1hw","","","","","","","",""
"null","","","html-keyboard-response","513","1252305","0.0-513.0","9hc6u1hw","","<span style=""color:Black; font-size:50px;"">Agent A","null","","","","",""
"null","","","video-keyboard-response","514","1255060","0.0-514.0","9hc6u1hw","","","null","","Agent A","scrambled","FOR_REV_MAP_BLOBBY_STIM/1592129.bmp_pp153_L3_V1.0_veridical_freeview_isoTrue_fps144_reversed_REAL.mp4",""
"null","","","html-keyboard-response","515","1256564","0.0-515.0","9hc6u1hw","","<span style=""color:Black; font-size:50px;"">Agent B","null","","","","",""
"null","","","video-keyboard-response","516","1259322","0.0-516.0","9hc6u1hw","","","null","","Agent B","veridical","FOR_REV_MAP_BLOBBY_STIM/1592129.bmp_pp153_L3_V1.0_veridical_freeview_isoTrue_fps144.mp4",""
"","","","call-function","517","1259323","0.0-517.0","9hc6u1hw","","","","","","","",""
"1707.3950000000186","{""judgement"":0}","[0]","survey-likert","518","1261031","0.0-518.0","9hc6u1hw","","","","","","","","1"
"1105.4749999998603","{""confidence"":0}","[0]","survey-likert","519","1262138","0.0-519.0","9hc6u1hw","","","","","","","",""
"","","","call-function","520","1262138","0.0-520.0","9hc6u1hw","","","","","","","",""
"null","","","html-keyboard-response","521","1263640","0.0-521.0","9hc6u1hw","","<span style=""color:Black; font-size:50px;"">Agent A","null","","","","",""
"null","","","video-keyboard-response","522","1266399","0.0-522.0","9hc6u1hw","","","null","","Agent A","scrambled","FOR_REV_MAP_BLOBBY_STIM/1159819.bmp_pp151_L1_V1.0_veridical_freeview_isoTrue_fps144_reversed_REAL.mp4",""
"null","","","html-keyboard-response","523","1267903","0.0-523.0","9hc6u1hw","","<span style=""color:Black; font-size:50px;"">Agent B","null","","","","",""
"null","","","video-keyboard-response","524","1270653","0.0-524.0","9hc6u1hw","","","null","","Agent B","veridical","FOR_REV_MAP_BLOBBY_STIM/1159819.bmp_pp151_L1_V1.0_veridical_freeview_isoTrue_fps144.mp4",""
"","","","call-function","525","1270654","0.0-525.0","9hc6u1hw","","","","","","","",""
"1619.125","{""judgement"":0}","[0]","survey-likert","526","1272274","0.0-526.0","9hc6u1hw","","","","","","","","1"
"1120.6449999997858","{""confidence"":0}","[0]","survey-likert","527","1273396","0.0-527.0","9hc6u1hw","","","","","","","",""
"","","","call-function","528","1273396","0.0-528.0","9hc6u1hw","","","","","","","",""
"null","","","html-keyboard-response","529","1274899","0.0-529.0","9hc6u1hw","","<span style=""color:Black; font-size:50px;"">Agent A","null","","","","",""
"null","","","video-keyboard-response","530","1277659","0.0-530.0","9hc6u1hw","","","null","","Agent A","scrambled","FOR_REV_MAP_BLOBBY_STIM/1159325.bmp_pp67_L2_V1.0_veridical_freeview_isoTrue_fps144_reversed_REAL.mp4",""
"null","","","html-keyboard-response","531","1279164","0.0-531.0","9hc6u1hw","","<span style=""color:Black; font-size:50px;"">Agent B","null","","","","",""
"null","","","video-keyboard-response","532","1281925","0.0-532.0","9hc6u1hw","","","null","","Agent B","veridical","FOR_REV_MAP_BLOBBY_STIM/1159325.bmp_pp67_L2_V1.0_veridical_freeview_isoTrue_fps144.mp4",""
"","","","call-function","533","1281926","0.0-533.0","9hc6u1hw","","","","","","","",""
"1498.1049999999814","{""judgement"":0}","[0]","survey-likert","534","1283424","0.0-534.0","9hc6u1hw","","","","","","","","1"
"1981.2599999997765","{""confidence"":0}","[0]","survey-likert","535","1285407","0.0-535.0","9hc6u1hw","","","","","","","",""
"","","","call-function","536","1285408","0.0-536.0","9hc6u1hw","","","","","","","",""
"null","","","html-keyboard-response","537","1286912","0.0-537.0","9hc6u1hw","","<span style=""color:Black; font-size:50px;"">Agent A","null","","","","",""
"null","","","video-keyboard-response","538","1289740","0.0-538.0","9hc6u1hw","","","null","","Agent A","scrambled","FOR_REV_MAP_BLOBBY_STIM/713274.bmp_pp73_L3_V1.0_veridical_freeview_isoTrue_fps144_reversed_REAL.mp4",""
"null","","","html-keyboard-response","539","1291244","0.0-539.0","9hc6u1hw","","<span style=""color:Black; font-size:50px;"">Agent B","null","","","","",""
"null","","","video-keyboard-response","540","1294046","0.0-540.0","9hc6u1hw","","","null","","Agent B","veridical","FOR_REV_MAP_BLOBBY_STIM/713274.bmp_pp73_L3_V1.0_veridical_freeview_isoTrue_fps144.mp4",""
"","","","call-function","541","1294047","0.0-541.0","9hc6u1hw","","","","","","","",""
"2658.4850000001024","{""judgement"":1}","[0]","survey-likert","542","1296706","0.0-542.0","9hc6u1hw","","","","","","","","1"
"1520.7099999999627","{""confidence"":0}","[0]","survey-likert","543","1298228","0.0-543.0","9hc6u1hw","","","","","","","",""
"","","","call-function","544","1298229","0.0-544.0","9hc6u1hw","","","","","","","",""
"null","","","html-keyboard-response","545","1299731","0.0-545.0","9hc6u1hw","","<span style=""color:Black; font-size:50px;"">Agent A","null","","","","",""
"null","","","video-keyboard-response","546","1302576","0.0-546.0","9hc6u1hw","","","null","","Agent A","scrambled","FOR_REV_MAP_BLOBBY_STIM/713920.bmp_pp76_L1_V1.0_veridical_freeview_isoTrue_fps144_reversed_REAL.mp4",""
"null","","","html-keyboard-response","547","1304080","0.0-547.0","9hc6u1hw","","<span style=""color:Black; font-size:50px;"">Agent B","null","","","","",""
"null","","","video-keyboard-response","548","1306888","0.0-548.0","9hc6u1hw","","","null","","Agent B","veridical","FOR_REV_MAP_BLOBBY_STIM/713920.bmp_pp76_L1_V1.0_veridical_freeview_isoTrue_fps144.mp4",""
"","","","call-function","549","1306888","0.0-549.0","9hc6u1hw","","","","","","","",""
"1518.5200000000186","{""judgement"":0}","[0]","survey-likert","550","1308408","0.0-550.0","9hc6u1hw","","","","","","","","1"
"1158.0049999998882","{""confidence"":0}","[0]","survey-likert","551","1309568","0.0-551.0","9hc6u1hw","","","","","","","",""
"","","","call-function","552","1309568","0.0-552.0","9hc6u1hw","","","","","","","",""
"null","","","html-keyboard-response","553","1311070","0.0-553.0","9hc6u1hw","","<span style=""color:Black; font-size:50px;"">Agent A","null","","","","",""
"null","","","video-keyboard-response","554","1313887","0.0-554.0","9hc6u1hw","","","null","","Agent A","veridical","FOR_REV_MAP_BLOBBY_STIM/1592025.bmp_pp68_L1_V1.0_veridical_freeview_isoTrue_fps144.mp4",""
"null","","","html-keyboard-response","555","1315389","0.0-555.0","9hc6u1hw","","<span style=""color:Black; font-size:50px;"">Agent B","null","","","","",""
"null","","","video-keyboard-response","556","1318203","0.0-556.0","9hc6u1hw","","","null","","Agent B","scrambled","FOR_REV_MAP_BLOBBY_STIM/1592025.bmp_pp68_L1_V1.0_veridical_freeview_isoTrue_fps144_reversed_REAL.mp4",""
"","","","call-function","557","1318204","0.0-557.0","9hc6u1hw","","","","","","","",""
"1794.875","{""judgement"":0}","[0]","survey-likert","558","1320000","0.0-558.0","9hc6u1hw","","","","","","","","0"
"1109.8899999998976","{""confidence"":0}","[0]","survey-likert","559","1321112","0.0-559.0","9hc6u1hw","","","","","","","",""
"","","","call-function","560","1321112","0.0-560.0","9hc6u1hw","","","","","","","",""
"null","","","html-keyboard-response","561","1322619","0.0-561.0","9hc6u1hw","","<span style=""color:Black; font-size:50px;"">Agent A","null","","","","",""
"null","","","video-keyboard-response","562","1325458","0.0-562.0","9hc6u1hw","","","null","","Agent A","veridical","FOR_REV_MAP_BLOBBY_STIM/1592921.bmp_pp69_L3_V1.0_veridical_freeview_isoTrue_fps144.mp4",""
"null","","","html-keyboard-response","563","1326964","0.0-563.0","9hc6u1hw","","<span style=""color:Black; font-size:50px;"">Agent B","null","","","","",""
"null","","","video-keyboard-response","564","1329783","0.0-564.0","9hc6u1hw","","","null","","Agent B","scrambled","FOR_REV_MAP_BLOBBY_STIM/1592921.bmp_pp69_L3_V1.0_veridical_freeview_isoTrue_fps144_reversed_REAL.mp4",""
"","","","call-function","565","1329784","0.0-565.0","9hc6u1hw","","","","","","","",""
"1370.2600000000093","{""judgement"":1}","[0]","survey-likert","566","1331155","0.0-566.0","9hc6u1hw","","","","","","","","0"
"1193.6299999998882","{""confidence"":0}","[0]","survey-likert","567","1332350","0.0-567.0","9hc6u1hw","","","","","","","",""
"","","","call-function","568","1332350","0.0-568.0","9hc6u1hw","","","","","","","",""
"null","","","html-keyboard-response","569","1333856","0.0-569.0","9hc6u1hw","","<span style=""color:Black; font-size:50px;"">Agent A","null","","","","",""
"null","","","video-keyboard-response","570","1336677","0.0-570.0","9hc6u1hw","","","null","","Agent A","scrambled","FOR_REV_MAP_BLOBBY_STIM/1592530.bmp_pp75_L1_V1.0_veridical_freeview_isoTrue_fps144_reversed_REAL.mp4",""
"null","","","html-keyboard-response","571","1338182","0.0-571.0","9hc6u1hw","","<span style=""color:Black; font-size:50px;"">Agent B","null","","","","",""
"null","","","video-keyboard-response","572","1341001","0.0-572.0","9hc6u1hw","","","null","","Agent B","veridical","FOR_REV_MAP_BLOBBY_STIM/1592530.bmp_pp75_L1_V1.0_veridical_freeview_isoTrue_fps144.mp4",""
"","","","call-function","573","1341002","0.0-573.0","9hc6u1hw","","","","","","","",""
"1361.2649999998976","{""judgement"":1}","[0]","survey-likert","574","1342365","0.0-574.0","9hc6u1hw","","","","","","","","1"
"1631.5600000000559","{""confidence"":0}","[0]","survey-likert","575","1343998","0.0-575.0","9hc6u1hw","","","","","","","",""
"","","","call-function","576","1343999","0.0-576.0","9hc6u1hw","","","","","","","",""
"null","","","html-keyboard-response","577","1345501","0.0-577.0","9hc6u1hw","","<span style=""color:Black; font-size:50px;"">Agent A","null","","","","",""
"null","","","video-keyboard-response","578","1348321","0.0-578.0","9hc6u1hw","","","null","","Agent A","veridical","FOR_REV_MAP_BLOBBY_STIM/713381.bmp_pp82_L2_V1.0_veridical_freeview_isoTrue_fps144.mp4",""
"null","","","html-keyboard-response","579","1349828","0.0-579.0","9hc6u1hw","","<span style=""color:Black; font-size:50px;"">Agent B","null","","","","",""
"null","","","video-keyboard-response","580","1352646","0.0-580.0","9hc6u1hw","","","null","","Agent B","scrambled","FOR_REV_MAP_BLOBBY_STIM/713381.bmp_pp82_L2_V1.0_veridical_freeview_isoTrue_fps144_reversed_REAL.mp4",""
"","","","call-function","581","1352647","0.0-581.0","9hc6u1hw","","","","","","","",""
"1679.0600000000559","{""judgement"":0}","[0]","survey-likert","582","1354327","0.0-582.0","9hc6u1hw","","","","","","","","0"
"922.7600000000093","{""confidence"":0}","[0]","survey-likert","583","1355251","0.0-583.0","9hc6u1hw","","","","","","","",""
"906.9650000000838","","","instructions","584","1356159","0.0-584.0","9hc6u1hw","[{""page_index"":0,""viewing_time"":906.8349999999627}]","","","","","","",""
"1174.3599999998696","","","instructions","585","1357334","0.0-585.0","9hc6u1hw","[{""page_index"":0,""viewing_time"":1174.2549999998882}]","","","","","","",""
"2402.5449999999255","{""post-1"":0}","[0]","survey-likert","586","1359738","0.0-586.0","9hc6u1hw","","","","","","","",""
"2266.3349999999627","{""post-1"":0}","[0]","survey-likert","587","1362006","0.0-587.0","9hc6u1hw","","","","","","","",""
"1707.494999999879","{""post-2"":0}","[0]","survey-likert","588","1363715","0.0-588.0","9hc6u1hw","","","","","","","",""
"1787.030000000028","{""post-2"":0}","[0]","survey-likert","589","1365503","0.0-589.0","9hc6u1hw","","","","","","","",""
"1551.0699999998324","{""post-3"":0}","[0]","survey-likert","590","1367055","0.0-590.0","9hc6u1hw","","","","","","","",""
"1716.6699999999255","{""post-3"":0}","[0]","survey-likert","591","1368773","0.0-591.0","9hc6u1hw","","","","","","","",""
"1242.8649999999907","{""post-4"":0}","[0]","survey-likert","592","1370017","0.0-592.0","9hc6u1hw","","","","","","","",""
"1759.0049999998882","{""post-4"":0}","[0]","survey-likert","593","1371778","0.0-593.0","9hc6u1hw","","","","","","","",""
"3546.1099999998696","{""post-5"":2}","[0]","survey-likert","594","1375325","0.0-594.0","9hc6u1hw","","","","","","","",""
"1823.1100000001024","{""post-5"":3}","[0]","survey-likert","595","1377149","0.0-595.0","9hc6u1hw","","","","","","","",""
"22877.27500000014","{""Q0"":""I literally had no idea for most of them. Not sure I was better than guessing.""}","","survey-text","596","1400032","0.0-596.0","9hc6u1hw","","","","","","","",""
"38417.62000000011","{""Q0"":""I found it very hard overall. I generally tended to prefer attention series that started with a broad pan over the entire scene and then focused on one spot, which I think is actually inconsistent with my answers in the first half... ""}","","survey-text","597","1438453","0.0-597.0","9hc6u1hw","","","","","","","",""
"13302.190000000177","{""Q0"":""Everything! Very hard to tell or even remember which was A vs B in the absence of visual cues""}","","survey-text","598","1451759","0.0-598.0","9hc6u1hw","","","","","","","",""
"1157.9250000000466","","","instructions","599","1452918","0.0-599.0","9hc6u1hw","[{""page_index"":0,""viewing_time"":1157.7949999999255}]","","","","","","",""
"389035.66000000015","{""Experimenter_end"":[""Printed ID# 9hc6u1hw on consent form"",""Given subject SONA credit or payment"",""Given the subject debrief form""]}","[0]","survey-multi-select","600","1841957","0.0-600.0","9hc6u1hw","","","","","","","",""
