"rt","responses","question_order","trial_type","trial_index","time_elapsed","internal_node_id","ID","view_history","stimulus","key_press","value","agent","condition","image","correct_answer"
"33377.075","{""Experimenter"":[""Confirmed subject's identity"",""Confirmed normal or corrected-to-normal vision"",""Obtained consent (signature and date)"",""Checked the test room lighting"",""Checked computer screen lighting"",""Checked distance from screen to chin rest (50cm)"",""Cleaned and adjusted chin rest"",""Counterbalanced the order of the tasks"",""Opened the experiment in Firefox"",""Made the experiment full screen"",""Encouraged subject to silence phone, put away distractors, etc.""]}","[0]","survey-multi-select","0","33384","0.0-0.0","9qycu3ld","","","","","","","",""
"2365.7350000000006","","","instructions","1","35752","0.0-1.0","9qycu3ld","[{""page_index"":0,""viewing_time"":2365.5550000000003}]","","","","","","",""
"3575.9349999999977","","","instructions","2","39328","0.0-2.0","9qycu3ld","[{""page_index"":0,""viewing_time"":1723.5699999999997},{""page_index"":1,""viewing_time"":824.2599999999948},{""page_index"":2,""viewing_time"":1027.9800000000032}]","","","","","","",""
"901.3550000000032","","","instructions","3","40230","0.0-3.0","9qycu3ld","[{""page_index"":0,""viewing_time"":901.2450000000026}]","","","","","","",""
"null","","","video-keyboard-response","4","43305","0.0-4.0","9qycu3ld","","","null","","","","",""
"4033.8800000000047","","","instructions","5","47340","0.0-5.0","9qycu3ld","[{""page_index"":0,""viewing_time"":829.1450000000041},{""page_index"":1,""viewing_time"":48.06999999999971},{""page_index"":2,""viewing_time"":3156.5599999999977}]","","","","","","",""
"1457.8099999999977","","","instructions","6","48798","0.0-6.0","9qycu3ld","[{""page_index"":0,""viewing_time"":1457.699999999997}]","","","","","","",""
"836.4750000000058","","","instructions","7","49635","0.0-7.0","9qycu3ld","[{""page_index"":0,""viewing_time"":836.2550000000047}]","","","","","","",""
"null","","","video-keyboard-response","8","52709","0.0-8.0","9qycu3ld","","","null","","","","",""
"4732.905000000006","","","instructions","9","57443","0.0-9.0","9qycu3ld","[{""page_index"":0,""viewing_time"":948.2150000000038},{""page_index"":1,""viewing_time"":1936.4949999999953},{""page_index"":2,""viewing_time"":1848.0650000000023}]","","","","","","",""
"4152.9749999999985","","","instructions","10","61596","0.0-10.0","9qycu3ld","[{""page_index"":0,""viewing_time"":4152.854999999996}]","","","","","","",""
"","","","call-function","11","61597","0.0-11.0","9qycu3ld","","","","","","","",""
"null","","","html-keyboard-response","12","63100","0.0-12.0","9qycu3ld","","<span style=""color:Black; font-size:50px;"">Agent A","null","","","","",""
"null","","","video-keyboard-response","13","66167","0.0-13.0","9qycu3ld","","","null","","Agent A","scrambled","STIM_SET_5/1592298.bmp_pp56_L3_V1.0_veridical_freeview_isoTrue_Hflip_fps144.mp4",""
"null","","","html-keyboard-response","14","67670","0.0-14.0","9qycu3ld","","<span style=""color:Black; font-size:50px;"">Agent B","null","","","","",""
"null","","","video-keyboard-response","15","70738","0.0-15.0","9qycu3ld","","","null","","Agent B","veridical","STIM_SET_2_144/1592298.bmp_pp56_L3_V1.0_veridical_freeview_isoTrue_fps144.mp4",""
"","","","call-function","16","70739","0.0-16.0","9qycu3ld","","","","","","","",""
"19623.104999999996","{""judgement"":0}","[0]","survey-likert","17","90363","0.0-17.0","9qycu3ld","","","","","","","","1"
"4889.845000000001","{""confidence"":0}","[0]","survey-likert","18","95254","0.0-18.0","9qycu3ld","","","","","","","",""
"","","","call-function","19","95255","0.0-19.0","9qycu3ld","","","","","","","",""
"null","","","html-keyboard-response","20","96759","0.0-20.0","9qycu3ld","","<span style=""color:Black; font-size:50px;"">Agent A","null","","","","",""
"null","","","video-keyboard-response","21","99856","0.0-21.0","9qycu3ld","","","null","","Agent A","veridical","STIM_SET_2_144/713381.bmp_pp82_L2_V1.0_veridical_freeview_isoTrue_fps144.mp4",""
"null","","","html-keyboard-response","22","101362","0.0-22.0","9qycu3ld","","<span style=""color:Black; font-size:50px;"">Agent B","null","","","","",""
"null","","","video-keyboard-response","23","104448","0.0-23.0","9qycu3ld","","","null","","Agent B","scrambled","STIM_SET_5/713381.bmp_pp82_L2_V1.0_veridical_freeview_isoTrue_Hflip_fps144.mp4",""
"","","","call-function","24","104449","0.0-24.0","9qycu3ld","","","","","","","",""
"4516.610000000001","{""judgement"":0}","[0]","survey-likert","25","108966","0.0-25.0","9qycu3ld","","","","","","","","0"
"4657.824999999997","{""confidence"":0}","[0]","survey-likert","26","113625","0.0-26.0","9qycu3ld","","","","","","","",""
"","","","call-function","27","113626","0.0-27.0","9qycu3ld","","","","","","","",""
"null","","","html-keyboard-response","28","115130","0.0-28.0","9qycu3ld","","<span style=""color:Black; font-size:50px;"">Agent A","null","","","","",""
"null","","","video-keyboard-response","29","118198","0.0-29.0","9qycu3ld","","","null","","Agent A","scrambled","STIM_SET_5/1592305.bmp_pp65_L3_V1.0_veridical_freeview_isoTrue_Hflip_fps144.mp4",""
"null","","","html-keyboard-response","30","119701","0.0-30.0","9qycu3ld","","<span style=""color:Black; font-size:50px;"">Agent B","null","","","","",""
"null","","","video-keyboard-response","31","122775","0.0-31.0","9qycu3ld","","","null","","Agent B","veridical","STIM_SET_2_144/1592305.bmp_pp65_L3_V1.0_veridical_freeview_isoTrue_fps144.mp4",""
"","","","call-function","32","122775","0.0-32.0","9qycu3ld","","","","","","","",""
"5642.75499999999","{""judgement"":1}","[0]","survey-likert","33","128419","0.0-33.0","9qycu3ld","","","","","","","","1"
"5522.869999999995","{""confidence"":1}","[0]","survey-likert","34","133944","0.0-34.0","9qycu3ld","","","","","","","",""
"","","","call-function","35","133945","0.0-35.0","9qycu3ld","","","","","","","",""
"null","","","html-keyboard-response","36","135448","0.0-36.0","9qycu3ld","","<span style=""color:Black; font-size:50px;"">Agent A","null","","","","",""
"null","","","video-keyboard-response","37","138513","0.0-37.0","9qycu3ld","","","null","","Agent A","scrambled","STIM_SET_5/1592150.bmp_pp77_L3_V1.0_veridical_freeview_isoTrue_Hflip_fps144.mp4",""
"null","","","html-keyboard-response","38","140015","0.0-38.0","9qycu3ld","","<span style=""color:Black; font-size:50px;"">Agent B","null","","","","",""
"null","","","video-keyboard-response","39","143084","0.0-39.0","9qycu3ld","","","null","","Agent B","veridical","STIM_SET_2_144/1592150.bmp_pp77_L3_V1.0_veridical_freeview_isoTrue_fps144.mp4",""
"","","","call-function","40","143085","0.0-40.0","9qycu3ld","","","","","","","",""
"11837.099999999977","{""judgement"":1}","[0]","survey-likert","41","154923","0.0-41.0","9qycu3ld","","","","","","","","1"
"2845.0750000000116","{""confidence"":0}","[0]","survey-likert","42","157769","0.0-42.0","9qycu3ld","","","","","","","",""
"","","","call-function","43","157770","0.0-43.0","9qycu3ld","","","","","","","",""
"null","","","html-keyboard-response","44","159276","0.0-44.0","9qycu3ld","","<span style=""color:Black; font-size:50px;"">Agent A","null","","","","",""
"null","","","video-keyboard-response","45","162344","0.0-45.0","9qycu3ld","","","null","","Agent A","scrambled","STIM_SET_5/61513.bmp_pp75_L1_V1.0_veridical_freeview_isoTrue_Hflip_fps144.mp4",""
"null","","","html-keyboard-response","46","163851","0.0-46.0","9qycu3ld","","<span style=""color:Black; font-size:50px;"">Agent B","null","","","","",""
"null","","","video-keyboard-response","47","166918","0.0-47.0","9qycu3ld","","","null","","Agent B","veridical","STIM_SET_2_144/61513.bmp_pp75_L1_V1.0_veridical_freeview_isoTrue_fps144.mp4",""
"","","","call-function","48","166918","0.0-48.0","9qycu3ld","","","","","","","",""
"6171.470000000001","{""judgement"":1}","[0]","survey-likert","49","173090","0.0-49.0","9qycu3ld","","","","","","","","1"
"3063.970000000001","{""confidence"":0}","[0]","survey-likert","50","176155","0.0-50.0","9qycu3ld","","","","","","","",""
"","","","call-function","51","176156","0.0-51.0","9qycu3ld","","","","","","","",""
"null","","","html-keyboard-response","52","177658","0.0-52.0","9qycu3ld","","<span style=""color:Black; font-size:50px;"">Agent A","null","","","","",""
"null","","","video-keyboard-response","53","180755","0.0-53.0","9qycu3ld","","","null","","Agent A","scrambled","STIM_SET_5/1160247.bmp_pp54_L2_V1.0_veridical_freeview_isoTrue_Hflip_fps144.mp4",""
"null","","","html-keyboard-response","54","182259","0.0-54.0","9qycu3ld","","<span style=""color:Black; font-size:50px;"">Agent B","null","","","","",""
"null","","","video-keyboard-response","55","185344","0.0-55.0","9qycu3ld","","","null","","Agent B","veridical","STIM_SET_2_144/1160247.bmp_pp54_L2_V1.0_veridical_freeview_isoTrue_fps144.mp4",""
"","","","call-function","56","185344","0.0-56.0","9qycu3ld","","","","","","","",""
"7894.1449999999895","{""judgement"":0}","[0]","survey-likert","57","193239","0.0-57.0","9qycu3ld","","","","","","","","1"
"1518.140000000014","{""confidence"":0}","[0]","survey-likert","58","194758","0.0-58.0","9qycu3ld","","","","","","","",""
"","","","call-function","59","194759","0.0-59.0","9qycu3ld","","","","","","","",""
"null","","","html-keyboard-response","60","196264","0.0-60.0","9qycu3ld","","<span style=""color:Black; font-size:50px;"">Agent A","null","","","","",""
"null","","","video-keyboard-response","61","199344","0.0-61.0","9qycu3ld","","","null","","Agent A","scrambled","STIM_SET_5/1160189.bmp_pp64_L1_V1.0_veridical_freeview_isoTrue_Hflip_fps144.mp4",""
"null","","","html-keyboard-response","62","200847","0.0-62.0","9qycu3ld","","<span style=""color:Black; font-size:50px;"">Agent B","null","","","","",""
"null","","","video-keyboard-response","63","203914","0.0-63.0","9qycu3ld","","","null","","Agent B","veridical","STIM_SET_2_144/1160189.bmp_pp64_L1_V1.0_veridical_freeview_isoTrue_fps144.mp4",""
"","","","call-function","64","203914","0.0-64.0","9qycu3ld","","","","","","","",""
"15089.054999999993","{""judgement"":1}","[0]","survey-likert","65","219004","0.0-65.0","9qycu3ld","","","","","","","","1"
"2262.649999999994","{""confidence"":0}","[0]","survey-likert","66","221268","0.0-66.0","9qycu3ld","","","","","","","",""
"","","","call-function","67","221268","0.0-67.0","9qycu3ld","","","","","","","",""
"null","","","html-keyboard-response","68","222773","0.0-68.0","9qycu3ld","","<span style=""color:Black; font-size:50px;"">Agent A","null","","","","",""
"null","","","video-keyboard-response","69","225835","0.0-69.0","9qycu3ld","","","null","","Agent A","veridical","STIM_SET_2_144/1592567.bmp_pp70_L2_V1.0_veridical_freeview_isoTrue_fps144.mp4",""
"null","","","html-keyboard-response","70","227337","0.0-70.0","9qycu3ld","","<span style=""color:Black; font-size:50px;"">Agent B","null","","","","",""
"null","","","video-keyboard-response","71","230400","0.0-71.0","9qycu3ld","","","null","","Agent B","scrambled","STIM_SET_5/1592567.bmp_pp70_L2_V1.0_veridical_freeview_isoTrue_Hflip_fps144.mp4",""
"","","","call-function","72","230400","0.0-72.0","9qycu3ld","","","","","","","",""
"4749.195000000007","{""judgement"":1}","[0]","survey-likert","73","235150","0.0-73.0","9qycu3ld","","","","","","","","0"
"2440.040000000008","{""confidence"":0}","[0]","survey-likert","74","237591","0.0-74.0","9qycu3ld","","","","","","","",""
"","","","call-function","75","237592","0.0-75.0","9qycu3ld","","","","","","","",""
"null","","","html-keyboard-response","76","239098","0.0-76.0","9qycu3ld","","<span style=""color:Black; font-size:50px;"">Agent A","null","","","","",""
"null","","","video-keyboard-response","77","242160","0.0-77.0","9qycu3ld","","","null","","Agent A","scrambled","STIM_SET_5/1160049.bmp_pp53_L2_V1.0_veridical_freeview_isoTrue_Hflip_fps144.mp4",""
"null","","","html-keyboard-response","78","243664","0.0-78.0","9qycu3ld","","<span style=""color:Black; font-size:50px;"">Agent B","null","","","","",""
"null","","","video-keyboard-response","79","246749","0.0-79.0","9qycu3ld","","","null","","Agent B","veridical","STIM_SET_2_144/1160049.bmp_pp53_L2_V1.0_veridical_freeview_isoTrue_fps144.mp4",""
"","","","call-function","80","246749","0.0-80.0","9qycu3ld","","","","","","","",""
"4823.244999999995","{""judgement"":0}","[0]","survey-likert","81","251573","0.0-81.0","9qycu3ld","","","","","","","","1"
"1410.8050000000221","{""confidence"":0}","[0]","survey-likert","82","252985","0.0-82.0","9qycu3ld","","","","","","","",""
"","","","call-function","83","252986","0.0-83.0","9qycu3ld","","","","","","","",""
"null","","","html-keyboard-response","84","254492","0.0-84.0","9qycu3ld","","<span style=""color:Black; font-size:50px;"">Agent A","null","","","","",""
"null","","","video-keyboard-response","85","257590","0.0-85.0","9qycu3ld","","","null","","Agent A","veridical","STIM_SET_2_144/285959.bmp_pp93_L1_V1.0_veridical_freeview_isoTrue_fps144.mp4",""
"null","","","html-keyboard-response","86","259094","0.0-86.0","9qycu3ld","","<span style=""color:Black; font-size:50px;"">Agent B","null","","","","",""
"null","","","video-keyboard-response","87","262181","0.0-87.0","9qycu3ld","","","null","","Agent B","scrambled","STIM_SET_5/285959.bmp_pp93_L1_V1.0_veridical_freeview_isoTrue_Hflip_fps144.mp4",""
"","","","call-function","88","262182","0.0-88.0","9qycu3ld","","","","","","","",""
"5802.035000000033","{""judgement"":1}","[0]","survey-likert","89","267985","0.0-89.0","9qycu3ld","","","","","","","","0"
"2300.1350000000093","{""confidence"":1}","[0]","survey-likert","90","270286","0.0-90.0","9qycu3ld","","","","","","","",""
"73163.66999999998","","","instructions","91","343451","0.0-91.0","9qycu3ld","[{""page_index"":0,""viewing_time"":2224.0650000000023},{""page_index"":1,""viewing_time"":70220.09000000003},{""page_index"":2,""viewing_time"":719.2999999999884}]","","","","","","",""
"1845.375","","","instructions","92","345296","0.0-92.0","9qycu3ld","[{""page_index"":0,""viewing_time"":684.5},{""page_index"":1,""viewing_time"":534},{""page_index"":2,""viewing_time"":626.7700000000186}]","","","","","","",""
"","","","call-function","93","345297","0.0-93.0","9qycu3ld","","","","","","","",""
"null","","","html-keyboard-response","94","346799","0.0-94.0","9qycu3ld","","<span style=""color:Black; font-size:50px;"">Agent A","null","","","","",""
"null","","","video-keyboard-response","95","349870","0.0-95.0","9qycu3ld","","","null","","Agent A","veridical","STIM_SET_2_144/1592921.bmp_pp69_L3_V1.0_veridical_freeview_isoTrue_fps144.mp4",""
"null","","","html-keyboard-response","96","351376","0.0-96.0","9qycu3ld","","<span style=""color:Black; font-size:50px;"">Agent B","null","","","","",""
"null","","","video-keyboard-response","97","354442","0.0-97.0","9qycu3ld","","","null","","Agent B","scrambled","STIM_SET_5/1592921.bmp_pp69_L3_V1.0_veridical_freeview_isoTrue_Hflip_fps144.mp4",""
"","","","call-function","98","354442","0.0-98.0","9qycu3ld","","","","","","","",""
"3723.2300000000396","{""judgement"":0}","[0]","survey-likert","99","358166","0.0-99.0","9qycu3ld","","","","","","","","0"
"1792.1749999999884","{""confidence"":0}","[0]","survey-likert","100","359959","0.0-100.0","9qycu3ld","","","","","","","",""
"","","","call-function","101","359960","0.0-101.0","9qycu3ld","","","","","","","",""
"null","","","html-keyboard-response","102","361466","0.0-102.0","9qycu3ld","","<span style=""color:Black; font-size:50px;"">Agent A","null","","","","",""
"null","","","video-keyboard-response","103","364543","0.0-103.0","9qycu3ld","","","null","","Agent A","scrambled","STIM_SET_5/713790.bmp_pp100_L3_V1_veridical_freeview_isoTrue_Hflip_fps144.mp4",""
"null","","","html-keyboard-response","104","366049","0.0-104.0","9qycu3ld","","<span style=""color:Black; font-size:50px;"">Agent B","null","","","","",""
"null","","","video-keyboard-response","105","369126","0.0-105.0","9qycu3ld","","","null","","Agent B","veridical","STIM_SET_2_144/713790.bmp_pp100_L3_V1_veridical_freeview_isoTrue_fps144.mp4",""
"","","","call-function","106","369127","0.0-106.0","9qycu3ld","","","","","","","",""
"3781.2249999999767","{""judgement"":0}","[0]","survey-likert","107","372909","0.0-107.0","9qycu3ld","","","","","","","","1"
"1744.1699999999837","{""confidence"":0}","[0]","survey-likert","108","374655","0.0-108.0","9qycu3ld","","","","","","","",""
"","","","call-function","109","374656","0.0-109.0","9qycu3ld","","","","","","","",""
"null","","","html-keyboard-response","110","376161","0.0-110.0","9qycu3ld","","<span style=""color:Black; font-size:50px;"">Agent A","null","","","","",""
"null","","","video-keyboard-response","111","379222","0.0-111.0","9qycu3ld","","","null","","Agent A","veridical","STIM_SET_2_144/1591920.bmp_pp97_L3_V1_veridical_freeview_isoTrue_fps144.mp4",""
"null","","","html-keyboard-response","112","380724","0.0-112.0","9qycu3ld","","<span style=""color:Black; font-size:50px;"">Agent B","null","","","","",""
"null","","","video-keyboard-response","113","383785","0.0-113.0","9qycu3ld","","","null","","Agent B","scrambled","STIM_SET_5/1591920.bmp_pp97_L3_V1_veridical_freeview_isoTrue_Hflip_fps144.mp4",""
"","","","call-function","114","383785","0.0-114.0","9qycu3ld","","","","","","","",""
"7655.52999999997","{""judgement"":0}","[0]","survey-likert","115","391442","0.0-115.0","9qycu3ld","","","","","","","","0"
"1420.7399999999907","{""confidence"":0}","[0]","survey-likert","116","392864","0.0-116.0","9qycu3ld","","","","","","","",""
"","","","call-function","117","392864","0.0-117.0","9qycu3ld","","","","","","","",""
"null","","","html-keyboard-response","118","394367","0.0-118.0","9qycu3ld","","<span style=""color:Black; font-size:50px;"">Agent A","null","","","","",""
"null","","","video-keyboard-response","119","397428","0.0-119.0","9qycu3ld","","","null","","Agent A","veridical","STIM_SET_2_144/107955.bmp_pp90_L2_V1.0_veridical_freeview_isoTrue_fps144.mp4",""
"null","","","html-keyboard-response","120","398930","0.0-120.0","9qycu3ld","","<span style=""color:Black; font-size:50px;"">Agent B","null","","","","",""
"null","","","video-keyboard-response","121","401992","0.0-121.0","9qycu3ld","","","null","","Agent B","scrambled","STIM_SET_5/107955.bmp_pp90_L2_V1.0_veridical_freeview_isoTrue_Hflip_fps144.mp4",""
"","","","call-function","122","401992","0.0-122.0","9qycu3ld","","","","","","","",""
"2831.5449999999837","{""judgement"":1}","[0]","survey-likert","123","404825","0.0-123.0","9qycu3ld","","","","","","","","0"
"2119.7099999999627","{""confidence"":0}","[0]","survey-likert","124","406946","0.0-124.0","9qycu3ld","","","","","","","",""
"","","","call-function","125","406946","0.0-125.0","9qycu3ld","","","","","","","",""
"null","","","html-keyboard-response","126","408452","0.0-126.0","9qycu3ld","","<span style=""color:Black; font-size:50px;"">Agent A","null","","","","",""
"null","","","video-keyboard-response","127","411540","0.0-127.0","9qycu3ld","","","null","","Agent A","veridical","STIM_SET_2_144/713328.bmp_pp86_L2_V1.0_veridical_freeview_isoTrue_fps144.mp4",""
"null","","","html-keyboard-response","128","413047","0.0-128.0","9qycu3ld","","<span style=""color:Black; font-size:50px;"">Agent B","null","","","","",""
"null","","","video-keyboard-response","129","416121","0.0-129.0","9qycu3ld","","","null","","Agent B","scrambled","STIM_SET_5/713328.bmp_pp86_L2_V1.0_veridical_freeview_isoTrue_Hflip_fps144.mp4",""
"","","","call-function","130","416122","0.0-130.0","9qycu3ld","","","","","","","",""
"2130.0449999999837","{""judgement"":0}","[0]","survey-likert","131","418253","0.0-131.0","9qycu3ld","","","","","","","","0"
"2825.75","{""confidence"":0}","[0]","survey-likert","132","421080","0.0-132.0","9qycu3ld","","","","","","","",""
"","","","call-function","133","421080","0.0-133.0","9qycu3ld","","","","","","","",""
"null","","","html-keyboard-response","134","422582","0.0-134.0","9qycu3ld","","<span style=""color:Black; font-size:50px;"">Agent A","null","","","","",""
"null","","","video-keyboard-response","135","425662","0.0-135.0","9qycu3ld","","","null","","Agent A","veridical","STIM_SET_2_144/1159819.bmp_pp151_L1_V1.0_veridical_freeview_isoTrue_fps144.mp4",""
"null","","","html-keyboard-response","136","427165","0.0-136.0","9qycu3ld","","<span style=""color:Black; font-size:50px;"">Agent B","null","","","","",""
"null","","","video-keyboard-response","137","430250","0.0-137.0","9qycu3ld","","","null","","Agent B","scrambled","STIM_SET_5/1159819.bmp_pp151_L1_V1.0_veridical_freeview_isoTrue_Hflip_fps144.mp4",""
"","","","call-function","138","430250","0.0-138.0","9qycu3ld","","","","","","","",""
"3140.0100000000093","{""judgement"":0}","[0]","survey-likert","139","433391","0.0-139.0","9qycu3ld","","","","","","","","0"
"2885.554999999993","{""confidence"":0}","[0]","survey-likert","140","436278","0.0-140.0","9qycu3ld","","","","","","","",""
"","","","call-function","141","436278","0.0-141.0","9qycu3ld","","","","","","","",""
"null","","","html-keyboard-response","142","437781","0.0-142.0","9qycu3ld","","<span style=""color:Black; font-size:50px;"">Agent A","null","","","","",""
"null","","","video-keyboard-response","143","440864","0.0-143.0","9qycu3ld","","","null","","Agent A","veridical","STIM_SET_2_144/498396.bmp_pp99_L2_V1.0_veridical_freeview_isoTrue_fps144.mp4",""
"null","","","html-keyboard-response","144","442370","0.0-144.0","9qycu3ld","","<span style=""color:Black; font-size:50px;"">Agent B","null","","","","",""
"null","","","video-keyboard-response","145","445434","0.0-145.0","9qycu3ld","","","null","","Agent B","scrambled","STIM_SET_5/498396.bmp_pp99_L2_V1.0_veridical_freeview_isoTrue_Hflip_fps144.mp4",""
"","","","call-function","146","445435","0.0-146.0","9qycu3ld","","","","","","","",""
"2982.5","{""judgement"":0}","[0]","survey-likert","147","448418","0.0-147.0","9qycu3ld","","","","","","","","0"
"2323.4550000000163","{""confidence"":0}","[0]","survey-likert","148","450744","0.0-148.0","9qycu3ld","","","","","","","",""
"","","","call-function","149","450744","0.0-149.0","9qycu3ld","","","","","","","",""
"null","","","html-keyboard-response","150","452247","0.0-150.0","9qycu3ld","","<span style=""color:Black; font-size:50px;"">Agent A","null","","","","",""
"null","","","video-keyboard-response","151","455317","0.0-151.0","9qycu3ld","","","null","","Agent A","veridical","STIM_SET_2_144/1159956.bmp_pp59_L3_V1.0_veridical_freeview_isoTrue_fps144.mp4",""
"null","","","html-keyboard-response","152","456820","0.0-152.0","9qycu3ld","","<span style=""color:Black; font-size:50px;"">Agent B","null","","","","",""
"null","","","video-keyboard-response","153","459902","0.0-153.0","9qycu3ld","","","null","","Agent B","scrambled","STIM_SET_5/1159956.bmp_pp59_L3_V1.0_veridical_freeview_isoTrue_Hflip_fps144.mp4",""
"","","","call-function","154","459902","0.0-154.0","9qycu3ld","","","","","","","",""
"2329.515000000014","{""judgement"":0}","[0]","survey-likert","155","462233","0.0-155.0","9qycu3ld","","","","","","","","0"
"1705.9599999999627","{""confidence"":0}","[0]","survey-likert","156","463939","0.0-156.0","9qycu3ld","","","","","","","",""
"","","","call-function","157","463940","0.0-157.0","9qycu3ld","","","","","","","",""
"null","","","html-keyboard-response","158","465445","0.0-158.0","9qycu3ld","","<span style=""color:Black; font-size:50px;"">Agent A","null","","","","",""
"null","","","video-keyboard-response","159","468512","0.0-159.0","9qycu3ld","","","null","","Agent A","veridical","STIM_SET_2_144/1159329.bmp_pp61_L2_V1.0_veridical_freeview_isoTrue_fps144.mp4",""
"null","","","html-keyboard-response","160","470017","0.0-160.0","9qycu3ld","","<span style=""color:Black; font-size:50px;"">Agent B","null","","","","",""
"null","","","video-keyboard-response","161","473086","0.0-161.0","9qycu3ld","","","null","","Agent B","scrambled","STIM_SET_5/1159329.bmp_pp61_L2_V1.0_veridical_freeview_isoTrue_Hflip_fps144.mp4",""
"","","","call-function","162","473086","0.0-162.0","9qycu3ld","","","","","","","",""
"2259.399999999965","{""judgement"":1}","[0]","survey-likert","163","475347","0.0-163.0","9qycu3ld","","","","","","","","0"
"3024.0999999999767","{""confidence"":0}","[0]","survey-likert","164","478372","0.0-164.0","9qycu3ld","","","","","","","",""
"","","","call-function","165","478373","0.0-165.0","9qycu3ld","","","","","","","",""
"null","","","html-keyboard-response","166","479877","0.0-166.0","9qycu3ld","","<span style=""color:Black; font-size:50px;"">Agent A","null","","","","",""
"null","","","video-keyboard-response","167","482961","0.0-167.0","9qycu3ld","","","null","","Agent A","scrambled","STIM_SET_5/498398.bmp_pp81_L1_V1.0_veridical_freeview_isoTrue_Hflip_fps144.mp4",""
"null","","","html-keyboard-response","168","484463","0.0-168.0","9qycu3ld","","<span style=""color:Black; font-size:50px;"">Agent B","null","","","","",""
"null","","","video-keyboard-response","169","487536","0.0-169.0","9qycu3ld","","","null","","Agent B","veridical","STIM_SET_2_144/498398.bmp_pp81_L1_V1.0_veridical_freeview_isoTrue_fps144.mp4",""
"","","","call-function","170","487537","0.0-170.0","9qycu3ld","","","","","","","",""
"2411.0900000000256","{""judgement"":0}","[0]","survey-likert","171","489949","0.0-171.0","9qycu3ld","","","","","","","","1"
"1263.984999999986","{""confidence"":1}","[0]","survey-likert","172","491213","0.0-172.0","9qycu3ld","","","","","","","",""
"1713.7850000000326","","","instructions","173","492928","0.0-173.0","9qycu3ld","[{""page_index"":0,""viewing_time"":1100.3450000000303},{""page_index"":1,""viewing_time"":533.0050000000047},{""page_index"":2,""viewing_time"":80.10999999998603}]","","","","","","",""
"1577.304999999993","","","instructions","174","494506","0.0-174.0","9qycu3ld","[{""page_index"":0,""viewing_time"":464.99499999999534},{""page_index"":1,""viewing_time"":529.1049999999814},{""page_index"":2,""viewing_time"":583.1000000000349}]","","","","","","",""
"","","","call-function","175","494506","0.0-175.0","9qycu3ld","","","","","","","",""
"null","","","html-keyboard-response","176","496010","0.0-176.0","9qycu3ld","","<span style=""color:Black; font-size:50px;"">Agent A","null","","","","",""
"null","","","video-keyboard-response","177","499103","0.0-177.0","9qycu3ld","","","null","","Agent A","veridical","STIM_SET_2_144/1592350.bmp_pp55_L3_V1.0_veridical_freeview_isoTrue_fps144.mp4",""
"null","","","html-keyboard-response","178","500605","0.0-178.0","9qycu3ld","","<span style=""color:Black; font-size:50px;"">Agent B","null","","","","",""
"null","","","video-keyboard-response","179","503687","0.0-179.0","9qycu3ld","","","null","","Agent B","scrambled","STIM_SET_5/1592350.bmp_pp55_L3_V1.0_veridical_freeview_isoTrue_Hflip_fps144.mp4",""
"","","","call-function","180","503687","0.0-180.0","9qycu3ld","","","","","","","",""
"4563.409999999974","{""judgement"":1}","[0]","survey-likert","181","508252","0.0-181.0","9qycu3ld","","","","","","","","0"
"1749.2299999999814","{""confidence"":0}","[0]","survey-likert","182","510002","0.0-182.0","9qycu3ld","","","","","","","",""
"","","","call-function","183","510002","0.0-183.0","9qycu3ld","","","","","","","",""
"null","","","html-keyboard-response","184","511506","0.0-184.0","9qycu3ld","","<span style=""color:Black; font-size:50px;"">Agent A","null","","","","",""
"null","","","video-keyboard-response","185","514574","0.0-185.0","9qycu3ld","","","null","","Agent A","veridical","STIM_SET_2_144/1159973.bmp_pp98_L1_V1.0_veridical_freeview_isoTrue_fps144.mp4",""
"null","","","html-keyboard-response","186","516081","0.0-186.0","9qycu3ld","","<span style=""color:Black; font-size:50px;"">Agent B","null","","","","",""
"null","","","video-keyboard-response","187","519150","0.0-187.0","9qycu3ld","","","null","","Agent B","scrambled","STIM_SET_5/1159973.bmp_pp98_L1_V1.0_veridical_freeview_isoTrue_Hflip_fps144.mp4",""
"","","","call-function","188","519151","0.0-188.0","9qycu3ld","","","","","","","",""
"5372.965000000026","{""judgement"":0}","[0]","survey-likert","189","524525","0.0-189.0","9qycu3ld","","","","","","","","0"
"1627.375","{""confidence"":0}","[0]","survey-likert","190","526154","0.0-190.0","9qycu3ld","","","","","","","",""
"","","","call-function","191","526155","0.0-191.0","9qycu3ld","","","","","","","",""
"null","","","html-keyboard-response","192","527655","0.0-192.0","9qycu3ld","","<span style=""color:Black; font-size:50px;"">Agent A","null","","","","",""
"null","","","video-keyboard-response","193","530721","0.0-193.0","9qycu3ld","","","null","","Agent A","veridical","STIM_SET_2_144/1592289.bmp_pp92_L3_V1.0_veridical_freeview_isoTrue_fps144.mp4",""
"null","","","html-keyboard-response","194","532224","0.0-194.0","9qycu3ld","","<span style=""color:Black; font-size:50px;"">Agent B","null","","","","",""
"null","","","video-keyboard-response","195","535290","0.0-195.0","9qycu3ld","","","null","","Agent B","scrambled","STIM_SET_5/1592289.bmp_pp92_L3_V1.0_veridical_freeview_isoTrue_Hflip_fps144.mp4",""
"","","","call-function","196","535290","0.0-196.0","9qycu3ld","","","","","","","",""
"7831.349999999977","{""judgement"":0}","[0]","survey-likert","197","543123","0.0-197.0","9qycu3ld","","","","","","","","0"
"2812.0749999999534","{""confidence"":0}","[0]","survey-likert","198","545936","0.0-198.0","9qycu3ld","","","","","","","",""
"","","","call-function","199","545937","0.0-199.0","9qycu3ld","","","","","","","",""
"null","","","html-keyboard-response","200","547442","0.0-200.0","9qycu3ld","","<span style=""color:Black; font-size:50px;"">Agent A","null","","","","",""
"null","","","video-keyboard-response","201","550507","0.0-201.0","9qycu3ld","","","null","","Agent A","veridical","STIM_SET_2_144/713788.bmp_pp52_L1_V1.0_veridical_freeview_isoTrue_fps144.mp4",""
"null","","","html-keyboard-response","202","552010","0.0-202.0","9qycu3ld","","<span style=""color:Black; font-size:50px;"">Agent B","null","","","","",""
"null","","","video-keyboard-response","203","555105","0.0-203.0","9qycu3ld","","","null","","Agent B","scrambled","STIM_SET_5/713788.bmp_pp52_L1_V1.0_veridical_freeview_isoTrue_Hflip_fps144.mp4",""
"","","","call-function","204","555105","0.0-204.0","9qycu3ld","","","","","","","",""
"3611","{""judgement"":0}","[0]","survey-likert","205","558717","0.0-205.0","9qycu3ld","","","","","","","","0"
"1575.9199999999255","{""confidence"":0}","[0]","survey-likert","206","560294","0.0-206.0","9qycu3ld","","","","","","","",""
"","","","call-function","207","560295","0.0-207.0","9qycu3ld","","","","","","","",""
"null","","","html-keyboard-response","208","561796","0.0-208.0","9qycu3ld","","<span style=""color:Black; font-size:50px;"">Agent A","null","","","","",""
"null","","","video-keyboard-response","209","564876","0.0-209.0","9qycu3ld","","","null","","Agent A","veridical","STIM_SET_2_144/713274.bmp_pp73_L3_V1.0_veridical_freeview_isoTrue_fps144.mp4",""
"null","","","html-keyboard-response","210","566378","0.0-210.0","9qycu3ld","","<span style=""color:Black; font-size:50px;"">Agent B","null","","","","",""
"null","","","video-keyboard-response","211","569461","0.0-211.0","9qycu3ld","","","null","","Agent B","scrambled","STIM_SET_5/713274.bmp_pp73_L3_V1.0_veridical_freeview_isoTrue_Hflip_fps144.mp4",""
"","","","call-function","212","569461","0.0-212.0","9qycu3ld","","","","","","","",""
"3068.6149999999907","{""judgement"":0}","[0]","survey-likert","213","572531","0.0-213.0","9qycu3ld","","","","","","","","0"
"1872.9599999999627","{""confidence"":0}","[0]","survey-likert","214","574405","0.0-214.0","9qycu3ld","","","","","","","",""
"","","","call-function","215","574405","0.0-215.0","9qycu3ld","","","","","","","",""
"null","","","html-keyboard-response","216","575907","0.0-216.0","9qycu3ld","","<span style=""color:Black; font-size:50px;"">Agent A","null","","","","",""
"null","","","video-keyboard-response","217","579007","0.0-217.0","9qycu3ld","","","null","","Agent A","scrambled","STIM_SET_5/498025.bmp_pp81_L1_V1.0_veridical_freeview_isoTrue_Hflip_fps144.mp4",""
"null","","","html-keyboard-response","218","580511","0.0-218.0","9qycu3ld","","<span style=""color:Black; font-size:50px;"">Agent B","null","","","","",""
"null","","","video-keyboard-response","219","583594","0.0-219.0","9qycu3ld","","","null","","Agent B","veridical","STIM_SET_2_144/498025.bmp_pp81_L1_V1.0_veridical_freeview_isoTrue_fps144.mp4",""
"","","","call-function","220","583594","0.0-220.0","9qycu3ld","","","","","","","",""
"2128.8349999999627","{""judgement"":1}","[0]","survey-likert","221","585724","0.0-221.0","9qycu3ld","","","","","","","","1"
"1662.7399999999907","{""confidence"":0}","[0]","survey-likert","222","587388","0.0-222.0","9qycu3ld","","","","","","","",""
"","","","call-function","223","587388","0.0-223.0","9qycu3ld","","","","","","","",""
"null","","","html-keyboard-response","224","588893","0.0-224.0","9qycu3ld","","<span style=""color:Black; font-size:50px;"">Agent A","null","","","","",""
"null","","","video-keyboard-response","225","591968","0.0-225.0","9qycu3ld","","","null","","Agent A","scrambled","STIM_SET_5/1592044.bmp_pp94_L2_V1.0_veridical_freeview_isoTrue_Hflip_fps144.mp4",""
"null","","","html-keyboard-response","226","593475","0.0-226.0","9qycu3ld","","<span style=""color:Black; font-size:50px;"">Agent B","null","","","","",""
"null","","","video-keyboard-response","227","596537","0.0-227.0","9qycu3ld","","","null","","Agent B","veridical","STIM_SET_2_144/1592044.bmp_pp94_L2_V1.0_veridical_freeview_isoTrue_fps144.mp4",""
"","","","call-function","228","596538","0.0-228.0","9qycu3ld","","","","","","","",""
"2521.219999999972","{""judgement"":1}","[0]","survey-likert","229","599060","0.0-229.0","9qycu3ld","","","","","","","","1"
"2421.109999999986","{""confidence"":1}","[0]","survey-likert","230","601482","0.0-230.0","9qycu3ld","","","","","","","",""
"","","","call-function","231","601483","0.0-231.0","9qycu3ld","","","","","","","",""
"null","","","html-keyboard-response","232","602989","0.0-232.0","9qycu3ld","","<span style=""color:Black; font-size:50px;"">Agent A","null","","","","",""
"null","","","video-keyboard-response","233","606071","0.0-233.0","9qycu3ld","","","null","","Agent A","veridical","STIM_SET_2_144/285946.bmp_pp79_L2_V1.0_veridical_freeview_isoTrue_fps144.mp4",""
"null","","","html-keyboard-response","234","607576","0.0-234.0","9qycu3ld","","<span style=""color:Black; font-size:50px;"">Agent B","null","","","","",""
"null","","","video-keyboard-response","235","610672","0.0-235.0","9qycu3ld","","","null","","Agent B","scrambled","STIM_SET_5/285946.bmp_pp79_L2_V1.0_veridical_freeview_isoTrue_Hflip_fps144.mp4",""
"","","","call-function","236","610673","0.0-236.0","9qycu3ld","","","","","","","",""
"2898.2050000000745","{""judgement"":0}","[0]","survey-likert","237","613572","0.0-237.0","9qycu3ld","","","","","","","","0"
"1683.109999999986","{""confidence"":0}","[0]","survey-likert","238","615256","0.0-238.0","9qycu3ld","","","","","","","",""
"","","","call-function","239","615257","0.0-239.0","9qycu3ld","","","","","","","",""
"null","","","html-keyboard-response","240","616759","0.0-240.0","9qycu3ld","","<span style=""color:Black; font-size:50px;"">Agent A","null","","","","",""
"null","","","video-keyboard-response","241","619826","0.0-241.0","9qycu3ld","","","null","","Agent A","scrambled","STIM_SET_5/1592025.bmp_pp68_L1_V1.0_veridical_freeview_isoTrue_Hflip_fps144.mp4",""
"null","","","html-keyboard-response","242","621332","0.0-242.0","9qycu3ld","","<span style=""color:Black; font-size:50px;"">Agent B","null","","","","",""
"null","","","video-keyboard-response","243","624419","0.0-243.0","9qycu3ld","","","null","","Agent B","veridical","STIM_SET_2_144/1592025.bmp_pp68_L1_V1.0_veridical_freeview_isoTrue_fps144.mp4",""
"","","","call-function","244","624420","0.0-244.0","9qycu3ld","","","","","","","",""
"2494.765000000014","{""judgement"":1}","[0]","survey-likert","245","626916","0.0-245.0","9qycu3ld","","","","","","","","1"
"1459.6599999999162","{""confidence"":0}","[0]","survey-likert","246","628377","0.0-246.0","9qycu3ld","","","","","","","",""
"","","","call-function","247","628377","0.0-247.0","9qycu3ld","","","","","","","",""
"null","","","html-keyboard-response","248","629884","0.0-248.0","9qycu3ld","","<span style=""color:Black; font-size:50px;"">Agent A","null","","","","",""
"null","","","video-keyboard-response","249","632977","0.0-249.0","9qycu3ld","","","null","","Agent A","veridical","STIM_SET_2_144/1160204.bmp_pp54_L2_V1.0_veridical_freeview_isoTrue_fps144.mp4",""
"null","","","html-keyboard-response","250","634481","0.0-250.0","9qycu3ld","","<span style=""color:Black; font-size:50px;"">Agent B","null","","","","",""
"null","","","video-keyboard-response","251","637562","0.0-251.0","9qycu3ld","","","null","","Agent B","scrambled","STIM_SET_5/1160204.bmp_pp54_L2_V1.0_veridical_freeview_isoTrue_Hflip_fps144.mp4",""
"","","","call-function","252","637562","0.0-252.0","9qycu3ld","","","","","","","",""
"4954.864999999991","{""judgement"":0}","[0]","survey-likert","253","642518","0.0-253.0","9qycu3ld","","","","","","","","0"
"1226.030000000028","{""confidence"":1}","[0]","survey-likert","254","643745","0.0-254.0","9qycu3ld","","","","","","","",""
"1809.9749999999767","","","instructions","255","645556","0.0-255.0","9qycu3ld","[{""page_index"":0,""viewing_time"":974.4450000000652},{""page_index"":1,""viewing_time"":418.4099999999162},{""page_index"":2,""viewing_time"":416.9200000000419}]","","","","","","",""
"1209.484999999986","","","instructions","256","646766","0.0-256.0","9qycu3ld","[{""page_index"":0,""viewing_time"":488.75},{""page_index"":1,""viewing_time"":358.75},{""page_index"":2,""viewing_time"":361.88000000000466}]","","","","","","",""
"","","","call-function","257","646766","0.0-257.0","9qycu3ld","","","","","","","",""
"null","","","html-keyboard-response","258","648268","0.0-258.0","9qycu3ld","","<span style=""color:Black; font-size:50px;"">Agent A","null","","","","",""
"null","","","video-keyboard-response","259","651328","0.0-259.0","9qycu3ld","","","null","","Agent A","scrambled","STIM_SET_5/1592017.bmp_pp154_L1_V1.0_veridical_freeview_isoTrue_Hflip_fps144.mp4",""
"null","","","html-keyboard-response","260","652834","0.0-260.0","9qycu3ld","","<span style=""color:Black; font-size:50px;"">Agent B","null","","","","",""
"null","","","video-keyboard-response","261","655917","0.0-261.0","9qycu3ld","","","null","","Agent B","veridical","STIM_SET_2_144/1592017.bmp_pp154_L1_V1.0_veridical_freeview_isoTrue_fps144.mp4",""
"","","","call-function","262","655917","0.0-262.0","9qycu3ld","","","","","","","",""
"1665.3000000000466","{""judgement"":1}","[0]","survey-likert","263","657583","0.0-263.0","9qycu3ld","","","","","","","","1"
"3445.4599999999627","{""confidence"":1}","[0]","survey-likert","264","661030","0.0-264.0","9qycu3ld","","","","","","","",""
"","","","call-function","265","661030","0.0-265.0","9qycu3ld","","","","","","","",""
"null","","","html-keyboard-response","266","662533","0.0-266.0","9qycu3ld","","<span style=""color:Black; font-size:50px;"">Agent A","null","","","","",""
"null","","","video-keyboard-response","267","665600","0.0-267.0","9qycu3ld","","","null","","Agent A","veridical","STIM_SET_2_144/498261.bmp_pp84_L3_V1.0_veridical_freeview_isoTrue_fps144.mp4",""
"null","","","html-keyboard-response","268","667103","0.0-268.0","9qycu3ld","","<span style=""color:Black; font-size:50px;"">Agent B","null","","","","",""
"null","","","video-keyboard-response","269","670170","0.0-269.0","9qycu3ld","","","null","","Agent B","scrambled","STIM_SET_5/498261.bmp_pp84_L3_V1.0_veridical_freeview_isoTrue_Hflip_fps144.mp4",""
"","","","call-function","270","670171","0.0-270.0","9qycu3ld","","","","","","","",""
"5571.910000000033","{""judgement"":0}","[0]","survey-likert","271","675745","0.0-271.0","9qycu3ld","","","","","","","","0"
"1342.125","{""confidence"":0}","[0]","survey-likert","272","677090","0.0-272.0","9qycu3ld","","","","","","","",""
"","","","call-function","273","677090","0.0-273.0","9qycu3ld","","","","","","","",""
"null","","","html-keyboard-response","274","678596","0.0-274.0","9qycu3ld","","<span style=""color:Black; font-size:50px;"">Agent A","null","","","","",""
"null","","","video-keyboard-response","275","681658","0.0-275.0","9qycu3ld","","","null","","Agent A","scrambled","STIM_SET_5/1592951.bmp_pp80_L3_V1.0_veridical_freeview_isoTrue_Hflip_fps144.mp4",""
"null","","","html-keyboard-response","276","683165","0.0-276.0","9qycu3ld","","<span style=""color:Black; font-size:50px;"">Agent B","null","","","","",""
"null","","","video-keyboard-response","277","686224","0.0-277.0","9qycu3ld","","","null","","Agent B","veridical","STIM_SET_2_144/1592951.bmp_pp80_L3_V1.0_veridical_freeview_isoTrue_fps144.mp4",""
"","","","call-function","278","686225","0.0-278.0","9qycu3ld","","","","","","","",""
"2215.3000000000466","{""judgement"":0}","[0]","survey-likert","279","688441","0.0-279.0","9qycu3ld","","","","","","","","1"
"1728.1949999999488","{""confidence"":0}","[0]","survey-likert","280","690170","0.0-280.0","9qycu3ld","","","","","","","",""
"","","","call-function","281","690171","0.0-281.0","9qycu3ld","","","","","","","",""
"null","","","html-keyboard-response","282","691675","0.0-282.0","9qycu3ld","","<span style=""color:Black; font-size:50px;"">Agent A","null","","","","",""
"null","","","video-keyboard-response","283","694734","0.0-283.0","9qycu3ld","","","null","","Agent A","veridical","STIM_SET_2_144/1592857.bmp_pp52_L1_V1_veridical_freeview_isoTrue_fps144.mp4",""
"null","","","html-keyboard-response","284","696240","0.0-284.0","9qycu3ld","","<span style=""color:Black; font-size:50px;"">Agent B","null","","","","",""
"null","","","video-keyboard-response","285","699301","0.0-285.0","9qycu3ld","","","null","","Agent B","scrambled","STIM_SET_5/1592857.bmp_pp52_L1_V1_veridical_freeview_isoTrue_Hflip_fps144.mp4",""
"","","","call-function","286","699302","0.0-286.0","9qycu3ld","","","","","","","",""
"3438.765000000014","{""judgement"":1}","[0]","survey-likert","287","702742","0.0-287.0","9qycu3ld","","","","","","","","0"
"2407.469999999972","{""confidence"":0}","[0]","survey-likert","288","705150","0.0-288.0","9qycu3ld","","","","","","","",""
"","","","call-function","289","705151","0.0-289.0","9qycu3ld","","","","","","","",""
"null","","","html-keyboard-response","290","706654","0.0-290.0","9qycu3ld","","<span style=""color:Black; font-size:50px;"">Agent A","null","","","","",""
"null","","","video-keyboard-response","291","709733","0.0-291.0","9qycu3ld","","","null","","Agent A","veridical","STIM_SET_2_144/1591975.bmp_pp88_L2_V1.0_veridical_freeview_isoTrue_fps144.mp4",""
"null","","","html-keyboard-response","292","711238","0.0-292.0","9qycu3ld","","<span style=""color:Black; font-size:50px;"">Agent B","null","","","","",""
"null","","","video-keyboard-response","293","714314","0.0-293.0","9qycu3ld","","","null","","Agent B","scrambled","STIM_SET_5/1591975.bmp_pp88_L2_V1.0_veridical_freeview_isoTrue_Hflip_fps144.mp4",""
"","","","call-function","294","714314","0.0-294.0","9qycu3ld","","","","","","","",""
"1752.125","{""judgement"":1}","[0]","survey-likert","295","716067","0.0-295.0","9qycu3ld","","","","","","","","0"
"1489.6999999999534","{""confidence"":0}","[0]","survey-likert","296","717558","0.0-296.0","9qycu3ld","","","","","","","",""
"","","","call-function","297","717558","0.0-297.0","9qycu3ld","","","","","","","",""
"null","","","html-keyboard-response","298","719063","0.0-298.0","9qycu3ld","","<span style=""color:Black; font-size:50px;"">Agent A","null","","","","",""
"null","","","video-keyboard-response","299","722142","0.0-299.0","9qycu3ld","","","null","","Agent A","scrambled","STIM_SET_5/1592201.bmp_pp97_L3_V1.0_veridical_freeview_isoTrue_Hflip_fps144.mp4",""
"null","","","html-keyboard-response","300","723646","0.0-300.0","9qycu3ld","","<span style=""color:Black; font-size:50px;"">Agent B","null","","","","",""
"null","","","video-keyboard-response","301","726736","0.0-301.0","9qycu3ld","","","null","","Agent B","veridical","STIM_SET_2_144/1592201.bmp_pp97_L3_V1.0_veridical_freeview_isoTrue_fps144.mp4",""
"","","","call-function","302","726736","0.0-302.0","9qycu3ld","","","","","","","",""
"1550.2900000000373","{""judgement"":0}","[0]","survey-likert","303","728287","0.0-303.0","9qycu3ld","","","","","","","","1"
"2195.189999999944","{""confidence"":1}","[0]","survey-likert","304","730483","0.0-304.0","9qycu3ld","","","","","","","",""
"","","","call-function","305","730484","0.0-305.0","9qycu3ld","","","","","","","",""
"null","","","html-keyboard-response","306","731990","0.0-306.0","9qycu3ld","","<span style=""color:Black; font-size:50px;"">Agent A","null","","","","",""
"null","","","video-keyboard-response","307","735065","0.0-307.0","9qycu3ld","","","null","","Agent A","veridical","STIM_SET_2_144/713652.bmp_pp89_L1_V1_veridical_freeview_isoTrue_fps144.mp4",""
"null","","","html-keyboard-response","308","736572","0.0-308.0","9qycu3ld","","<span style=""color:Black; font-size:50px;"">Agent B","null","","","","",""
"null","","","video-keyboard-response","309","739648","0.0-309.0","9qycu3ld","","","null","","Agent B","scrambled","STIM_SET_5/713652.bmp_pp89_L1_V1_veridical_freeview_isoTrue_Hflip_fps144.mp4",""
"","","","call-function","310","739649","0.0-310.0","9qycu3ld","","","","","","","",""
"2300.804999999935","{""judgement"":1}","[0]","survey-likert","311","741951","0.0-311.0","9qycu3ld","","","","","","","","0"
"1215.234999999986","{""confidence"":0}","[0]","survey-likert","312","743167","0.0-312.0","9qycu3ld","","","","","","","",""
"","","","call-function","313","743168","0.0-313.0","9qycu3ld","","","","","","","",""
"null","","","html-keyboard-response","314","744672","0.0-314.0","9qycu3ld","","<span style=""color:Black; font-size:50px;"">Agent A","null","","","","",""
"null","","","video-keyboard-response","315","747751","0.0-315.0","9qycu3ld","","","null","","Agent A","veridical","STIM_SET_2_144/713742.bmp_pp91_L3_V1.0_veridical_freeview_isoTrue_fps144.mp4",""
"null","","","html-keyboard-response","316","749258","0.0-316.0","9qycu3ld","","<span style=""color:Black; font-size:50px;"">Agent B","null","","","","",""
"null","","","video-keyboard-response","317","752335","0.0-317.0","9qycu3ld","","","null","","Agent B","scrambled","STIM_SET_5/713742.bmp_pp91_L3_V1.0_veridical_freeview_isoTrue_Hflip_fps144.mp4",""
"","","","call-function","318","752335","0.0-318.0","9qycu3ld","","","","","","","",""
"2261.564999999944","{""judgement"":1}","[0]","survey-likert","319","754598","0.0-319.0","9qycu3ld","","","","","","","","0"
"1350.7299999999814","{""confidence"":0}","[0]","survey-likert","320","755950","0.0-320.0","9qycu3ld","","","","","","","",""
"","","","call-function","321","755950","0.0-321.0","9qycu3ld","","","","","","","",""
"null","","","html-keyboard-response","322","757453","0.0-322.0","9qycu3ld","","<span style=""color:Black; font-size:50px;"">Agent A","null","","","","",""
"null","","","video-keyboard-response","323","760515","0.0-323.0","9qycu3ld","","","null","","Agent A","scrambled","STIM_SET_5/1159427.bmp_pp98_L1_V1.0_veridical_freeview_isoTrue_Hflip_fps144.mp4",""
"null","","","html-keyboard-response","324","762017","0.0-324.0","9qycu3ld","","<span style=""color:Black; font-size:50px;"">Agent B","null","","","","",""
"null","","","video-keyboard-response","325","765081","0.0-325.0","9qycu3ld","","","null","","Agent B","veridical","STIM_SET_2_144/1159427.bmp_pp98_L1_V1.0_veridical_freeview_isoTrue_fps144.mp4",""
"","","","call-function","326","765082","0.0-326.0","9qycu3ld","","","","","","","",""
"4193.104999999981","{""judgement"":0}","[0]","survey-likert","327","769276","0.0-327.0","9qycu3ld","","","","","","","","1"
"1260.7149999999674","{""confidence"":0}","[0]","survey-likert","328","770538","0.0-328.0","9qycu3ld","","","","","","","",""
"","","","call-function","329","770539","0.0-329.0","9qycu3ld","","","","","","","",""
"null","","","html-keyboard-response","330","772043","0.0-330.0","9qycu3ld","","<span style=""color:Black; font-size:50px;"">Agent A","null","","","","",""
"null","","","video-keyboard-response","331","775145","0.0-331.0","9qycu3ld","","","null","","Agent A","scrambled","STIM_SET_5/713858.bmp_pp57_L1_V1.0_veridical_freeview_isoTrue_Hflip_fps144.mp4",""
"null","","","html-keyboard-response","332","776650","0.0-332.0","9qycu3ld","","<span style=""color:Black; font-size:50px;"">Agent B","null","","","","",""
"null","","","video-keyboard-response","333","779746","0.0-333.0","9qycu3ld","","","null","","Agent B","veridical","STIM_SET_2_144/713858.bmp_pp57_L1_V1.0_veridical_freeview_isoTrue_fps144.mp4",""
"","","","call-function","334","779747","0.0-334.0","9qycu3ld","","","","","","","",""
"2180.6149999999907","{""judgement"":0}","[0]","survey-likert","335","781928","0.0-335.0","9qycu3ld","","","","","","","","1"
"2122.5350000000326","{""confidence"":1}","[0]","survey-likert","336","784052","0.0-336.0","9qycu3ld","","","","","","","",""
"2314.530000000028","","","instructions","337","786367","0.0-337.0","9qycu3ld","[{""page_index"":0,""viewing_time"":1007.3100000000559},{""page_index"":1,""viewing_time"":917.0299999999115},{""page_index"":2,""viewing_time"":389.9900000001071}]","","","","","","",""
"1202.454999999958","","","instructions","338","787570","0.0-338.0","9qycu3ld","[{""page_index"":0,""viewing_time"":537.359999999986},{""page_index"":1,""viewing_time"":370.98499999998603},{""page_index"":2,""viewing_time"":294.00500000000466}]","","","","","","",""
"","","","call-function","339","787570","0.0-339.0","9qycu3ld","","","","","","","",""
"null","","","html-keyboard-response","340","789074","0.0-340.0","9qycu3ld","","<span style=""color:Black; font-size:50px;"">Agent A","null","","","","",""
"null","","","video-keyboard-response","341","792160","0.0-341.0","9qycu3ld","","","null","","Agent A","scrambled","STIM_SET_5/286034.bmp_pp69_L3_V1.0_veridical_freeview_isoTrue_Hflip_fps144.mp4",""
"null","","","html-keyboard-response","342","793665","0.0-342.0","9qycu3ld","","<span style=""color:Black; font-size:50px;"">Agent B","null","","","","",""
"null","","","video-keyboard-response","343","796726","0.0-343.0","9qycu3ld","","","null","","Agent B","veridical","STIM_SET_2_144/286034.bmp_pp69_L3_V1.0_veridical_freeview_isoTrue_fps144.mp4",""
"","","","call-function","344","796727","0.0-344.0","9qycu3ld","","","","","","","",""
"3363.1300000000047","{""judgement"":1}","[0]","survey-likert","345","800091","0.0-345.0","9qycu3ld","","","","","","","","1"
"1856.0349999999162","{""confidence"":0}","[0]","survey-likert","346","801949","0.0-346.0","9qycu3ld","","","","","","","",""
"","","","call-function","347","801949","0.0-347.0","9qycu3ld","","","","","","","",""
"null","","","html-keyboard-response","348","803451","0.0-348.0","9qycu3ld","","<span style=""color:Black; font-size:50px;"">Agent A","null","","","","",""
"null","","","video-keyboard-response","349","806527","0.0-349.0","9qycu3ld","","","null","","Agent A","scrambled","STIM_SET_5/1591781.bmp_pp63_L1_V1.0_veridical_freeview_isoTrue_Hflip_fps144.mp4",""
"null","","","html-keyboard-response","350","808032","0.0-350.0","9qycu3ld","","<span style=""color:Black; font-size:50px;"">Agent B","null","","","","",""
"null","","","video-keyboard-response","351","811105","0.0-351.0","9qycu3ld","","","null","","Agent B","veridical","STIM_SET_2_144/1591781.bmp_pp63_L1_V1.0_veridical_freeview_isoTrue_fps144.mp4",""
"","","","call-function","352","811105","0.0-352.0","9qycu3ld","","","","","","","",""
"1777.545000000042","{""judgement"":0}","[0]","survey-likert","353","812884","0.0-353.0","9qycu3ld","","","","","","","","1"
"2921.6350000000093","{""confidence"":1}","[0]","survey-likert","354","815807","0.0-354.0","9qycu3ld","","","","","","","",""
"","","","call-function","355","815807","0.0-355.0","9qycu3ld","","","","","","","",""
"null","","","html-keyboard-response","356","817312","0.0-356.0","9qycu3ld","","<span style=""color:Black; font-size:50px;"">Agent A","null","","","","",""
"null","","","video-keyboard-response","357","820378","0.0-357.0","9qycu3ld","","","null","","Agent A","scrambled","STIM_SET_5/1159508.bmp_pp151_L1_V1.0_veridical_freeview_isoTrue_Hflip_fps144.mp4",""
"null","","","html-keyboard-response","358","821881","0.0-358.0","9qycu3ld","","<span style=""color:Black; font-size:50px;"">Agent B","null","","","","",""
"null","","","video-keyboard-response","359","824970","0.0-359.0","9qycu3ld","","","null","","Agent B","veridical","STIM_SET_2_144/1159508.bmp_pp151_L1_V1.0_veridical_freeview_isoTrue_fps144.mp4",""
"","","","call-function","360","824971","0.0-360.0","9qycu3ld","","","","","","","",""
"3202.844999999972","{""judgement"":1}","[0]","survey-likert","361","828175","0.0-361.0","9qycu3ld","","","","","","","","1"
"1229.094999999972","{""confidence"":0}","[0]","survey-likert","362","829405","0.0-362.0","9qycu3ld","","","","","","","",""
"","","","call-function","363","829405","0.0-363.0","9qycu3ld","","","","","","","",""
"null","","","html-keyboard-response","364","830908","0.0-364.0","9qycu3ld","","<span style=""color:Black; font-size:50px;"">Agent A","null","","","","",""
"null","","","video-keyboard-response","365","833984","0.0-365.0","9qycu3ld","","","null","","Agent A","scrambled","STIM_SET_5/498326.bmp_pp57_L1_V1.0_veridical_freeview_isoTrue_Hflip_fps144.mp4",""
"null","","","html-keyboard-response","366","835489","0.0-366.0","9qycu3ld","","<span style=""color:Black; font-size:50px;"">Agent B","null","","","","",""
"null","","","video-keyboard-response","367","838567","0.0-367.0","9qycu3ld","","","null","","Agent B","veridical","STIM_SET_2_144/498326.bmp_pp57_L1_V1.0_veridical_freeview_isoTrue_fps144.mp4",""
"","","","call-function","368","838568","0.0-368.0","9qycu3ld","","","","","","","",""
"1798.7600000000093","{""judgement"":1}","[0]","survey-likert","369","840367","0.0-369.0","9qycu3ld","","","","","","","","1"
"1665.719999999972","{""confidence"":0}","[0]","survey-likert","370","842034","0.0-370.0","9qycu3ld","","","","","","","",""
"","","","call-function","371","842034","0.0-371.0","9qycu3ld","","","","","","","",""
"null","","","html-keyboard-response","372","843537","0.0-372.0","9qycu3ld","","<span style=""color:Black; font-size:50px;"">Agent A","null","","","","",""
"null","","","video-keyboard-response","373","846621","0.0-373.0","9qycu3ld","","","null","","Agent A","veridical","STIM_SET_2_144/498258.bmp_pp51_L1_V1.0_veridical_freeview_isoTrue_fps144.mp4",""
"null","","","html-keyboard-response","374","848126","0.0-374.0","9qycu3ld","","<span style=""color:Black; font-size:50px;"">Agent B","null","","","","",""
"null","","","video-keyboard-response","375","851212","0.0-375.0","9qycu3ld","","","null","","Agent B","scrambled","STIM_SET_5/498258.bmp_pp51_L1_V1.0_veridical_freeview_isoTrue_Hflip_fps144.mp4",""
"","","","call-function","376","851213","0.0-376.0","9qycu3ld","","","","","","","",""
"2068.9899999999907","{""judgement"":1}","[0]","survey-likert","377","853282","0.0-377.0","9qycu3ld","","","","","","","","0"
"1973.8150000000605","{""confidence"":1}","[0]","survey-likert","378","855257","0.0-378.0","9qycu3ld","","","","","","","",""
"","","","call-function","379","855258","0.0-379.0","9qycu3ld","","","","","","","",""
"null","","","html-keyboard-response","380","856761","0.0-380.0","9qycu3ld","","<span style=""color:Black; font-size:50px;"">Agent A","null","","","","",""
"null","","","video-keyboard-response","381","859821","0.0-381.0","9qycu3ld","","","null","","Agent A","scrambled","STIM_SET_5/285715.bmp_pp67_L2_V1.0_veridical_freeview_isoTrue_Hflip_fps144.mp4",""
"null","","","html-keyboard-response","382","861323","0.0-382.0","9qycu3ld","","<span style=""color:Black; font-size:50px;"">Agent B","null","","","","",""
"null","","","video-keyboard-response","383","864401","0.0-383.0","9qycu3ld","","","null","","Agent B","veridical","STIM_SET_2_144/285715.bmp_pp67_L2_V1.0_veridical_freeview_isoTrue_fps144.mp4",""
"","","","call-function","384","864401","0.0-384.0","9qycu3ld","","","","","","","",""
"3528.390000000014","{""judgement"":1}","[0]","survey-likert","385","867930","0.0-385.0","9qycu3ld","","","","","","","","1"
"1802.2299999999814","{""confidence"":0}","[0]","survey-likert","386","869734","0.0-386.0","9qycu3ld","","","","","","","",""
"","","","call-function","387","869734","0.0-387.0","9qycu3ld","","","","","","","",""
"null","","","html-keyboard-response","388","871240","0.0-388.0","9qycu3ld","","<span style=""color:Black; font-size:50px;"">Agent A","null","","","","",""
"null","","","video-keyboard-response","389","874303","0.0-389.0","9qycu3ld","","","null","","Agent A","scrambled","STIM_SET_5/1592047.bmp_pp51_L1_V1.0_veridical_freeview_isoTrue_Hflip_fps144.mp4",""
"null","","","html-keyboard-response","390","875809","0.0-390.0","9qycu3ld","","<span style=""color:Black; font-size:50px;"">Agent B","null","","","","",""
"null","","","video-keyboard-response","391","878870","0.0-391.0","9qycu3ld","","","null","","Agent B","veridical","STIM_SET_2_144/1592047.bmp_pp51_L1_V1.0_veridical_freeview_isoTrue_fps144.mp4",""
"","","","call-function","392","878871","0.0-392.0","9qycu3ld","","","","","","","",""
"2911.180000000051","{""judgement"":1}","[0]","survey-likert","393","881783","0.0-393.0","9qycu3ld","","","","","","","","1"
"2322.5","{""confidence"":0}","[0]","survey-likert","394","884107","0.0-394.0","9qycu3ld","","","","","","","",""
"","","","call-function","395","884107","0.0-395.0","9qycu3ld","","","","","","","",""
"null","","","html-keyboard-response","396","885608","0.0-396.0","9qycu3ld","","<span style=""color:Black; font-size:50px;"">Agent A","null","","","","",""
"null","","","video-keyboard-response","397","888685","0.0-397.0","9qycu3ld","","","null","","Agent A","scrambled","STIM_SET_5/1592568.bmp_pp71_L1_V1.0_veridical_freeview_isoTrue_Hflip_fps144.mp4",""
"null","","","html-keyboard-response","398","890190","0.0-398.0","9qycu3ld","","<span style=""color:Black; font-size:50px;"">Agent B","null","","","","",""
"null","","","video-keyboard-response","399","893286","0.0-399.0","9qycu3ld","","","null","","Agent B","veridical","STIM_SET_2_144/1592568.bmp_pp71_L1_V1.0_veridical_freeview_isoTrue_fps144.mp4",""
"","","","call-function","400","893287","0.0-400.0","9qycu3ld","","","","","","","",""
"2239.3349999999627","{""judgement"":1}","[0]","survey-likert","401","895527","0.0-401.0","9qycu3ld","","","","","","","","1"
"1207.9449999999488","{""confidence"":0}","[0]","survey-likert","402","896736","0.0-402.0","9qycu3ld","","","","","","","",""
"","","","call-function","403","896737","0.0-403.0","9qycu3ld","","","","","","","",""
"null","","","html-keyboard-response","404","898243","0.0-404.0","9qycu3ld","","<span style=""color:Black; font-size:50px;"">Agent A","null","","","","",""
"null","","","video-keyboard-response","405","901335","0.0-405.0","9qycu3ld","","","null","","Agent A","scrambled","STIM_SET_5/1592747.bmp_pp53_L2_V1.0_veridical_freeview_isoTrue_Hflip_fps144.mp4",""
"null","","","html-keyboard-response","406","902840","0.0-406.0","9qycu3ld","","<span style=""color:Black; font-size:50px;"">Agent B","null","","","","",""
"null","","","video-keyboard-response","407","905930","0.0-407.0","9qycu3ld","","","null","","Agent B","veridical","STIM_SET_2_144/1592747.bmp_pp53_L2_V1.0_veridical_freeview_isoTrue_fps144.mp4",""
"","","","call-function","408","905931","0.0-408.0","9qycu3ld","","","","","","","",""
"1982.5499999999302","{""judgement"":1}","[0]","survey-likert","409","907914","0.0-409.0","9qycu3ld","","","","","","","","1"
"1528.0950000000885","{""confidence"":0}","[0]","survey-likert","410","909444","0.0-410.0","9qycu3ld","","","","","","","",""
"","","","call-function","411","909445","0.0-411.0","9qycu3ld","","","","","","","",""
"null","","","html-keyboard-response","412","910950","0.0-412.0","9qycu3ld","","<span style=""color:Black; font-size:50px;"">Agent A","null","","","","",""
"null","","","video-keyboard-response","413","914040","0.0-413.0","9qycu3ld","","","null","","Agent A","veridical","STIM_SET_2_144/150277.bmp_pp65_L3_V1.0_veridical_freeview_isoTrue_fps144.mp4",""
"null","","","html-keyboard-response","414","915541","0.0-414.0","9qycu3ld","","<span style=""color:Black; font-size:50px;"">Agent B","null","","","","",""
"null","","","video-keyboard-response","415","918630","0.0-415.0","9qycu3ld","","","null","","Agent B","scrambled","STIM_SET_5/150277.bmp_pp65_L3_V1.0_veridical_freeview_isoTrue_Hflip_fps144.mp4",""
"","","","call-function","416","918631","0.0-416.0","9qycu3ld","","","","","","","",""
"2093.5650000000605","{""judgement"":1}","[0]","survey-likert","417","920726","0.0-417.0","9qycu3ld","","","","","","","","0"
"1583.9350000000559","{""confidence"":0}","[0]","survey-likert","418","922311","0.0-418.0","9qycu3ld","","","","","","","",""
"1288.3800000000047","","","instructions","419","923599","0.0-419.0","9qycu3ld","[{""page_index"":0,""viewing_time"":925.1850000000559},{""page_index"":1,""viewing_time"":184.94999999995343},{""page_index"":2,""viewing_time"":178.02500000002328}]","","","","","","",""
"1222.0200000000186","","","instructions","420","924822","0.0-420.0","9qycu3ld","[{""page_index"":0,""viewing_time"":267.01500000001397},{""page_index"":1,""viewing_time"":465.90500000002794},{""page_index"":2,""viewing_time"":488.98499999998603}]","","","","","","",""
"","","","call-function","421","924822","0.0-421.0","9qycu3ld","","","","","","","",""
"null","","","html-keyboard-response","422","926327","0.0-422.0","9qycu3ld","","<span style=""color:Black; font-size:50px;"">Agent A","null","","","","",""
"null","","","video-keyboard-response","423","929403","0.0-423.0","9qycu3ld","","","null","","Agent A","veridical","STIM_SET_2_144/107909.bmp_pp95_L2_V1.0_veridical_freeview_isoTrue_fps144.mp4",""
"null","","","html-keyboard-response","424","930908","0.0-424.0","9qycu3ld","","<span style=""color:Black; font-size:50px;"">Agent B","null","","","","",""
"null","","","video-keyboard-response","425","933982","0.0-425.0","9qycu3ld","","","null","","Agent B","scrambled","STIM_SET_5/107909.bmp_pp95_L2_V1.0_veridical_freeview_isoTrue_Hflip_fps144.mp4",""
"","","","call-function","426","933984","0.0-426.0","9qycu3ld","","","","","","","",""
"1570.8099999999395","{""judgement"":1}","[0]","survey-likert","427","935556","0.0-427.0","9qycu3ld","","","","","","","","0"
"1578.75","{""confidence"":0}","[0]","survey-likert","428","937136","0.0-428.0","9qycu3ld","","","","","","","",""
"","","","call-function","429","937137","0.0-429.0","9qycu3ld","","","","","","","",""
"null","","","html-keyboard-response","430","938638","0.0-430.0","9qycu3ld","","<span style=""color:Black; font-size:50px;"">Agent A","null","","","","",""
"null","","","video-keyboard-response","431","941703","0.0-431.0","9qycu3ld","","","null","","Agent A","scrambled","STIM_SET_5/285684.bmp_pp80_L3_V1.0_veridical_freeview_isoTrue_Hflip_fps144.mp4",""
"null","","","html-keyboard-response","432","943208","0.0-432.0","9qycu3ld","","<span style=""color:Black; font-size:50px;"">Agent B","null","","","","",""
"null","","","video-keyboard-response","433","946271","0.0-433.0","9qycu3ld","","","null","","Agent B","veridical","STIM_SET_2_144/285684.bmp_pp80_L3_V1.0_veridical_freeview_isoTrue_fps144.mp4",""
"","","","call-function","434","946271","0.0-434.0","9qycu3ld","","","","","","","",""
"1364.3549999999814","{""judgement"":0}","[0]","survey-likert","435","947637","0.0-435.0","9qycu3ld","","","","","","","","1"
"2148.5599999999395","{""confidence"":1}","[0]","survey-likert","436","949787","0.0-436.0","9qycu3ld","","","","","","","",""
"","","","call-function","437","949787","0.0-437.0","9qycu3ld","","","","","","","",""
"null","","","html-keyboard-response","438","951288","0.0-438.0","9qycu3ld","","<span style=""color:Black; font-size:50px;"">Agent A","null","","","","",""
"null","","","video-keyboard-response","439","954347","0.0-439.0","9qycu3ld","","","null","","Agent A","scrambled","STIM_SET_5/1592129.bmp_pp153_L3_V1.0_veridical_freeview_isoTrue_Hflip_fps144.mp4",""
"null","","","html-keyboard-response","440","955851","0.0-440.0","9qycu3ld","","<span style=""color:Black; font-size:50px;"">Agent B","null","","","","",""
"null","","","video-keyboard-response","441","958936","0.0-441.0","9qycu3ld","","","null","","Agent B","veridical","STIM_SET_2_144/1592129.bmp_pp153_L3_V1.0_veridical_freeview_isoTrue_fps144.mp4",""
"","","","call-function","442","958936","0.0-442.0","9qycu3ld","","","","","","","",""
"5200.449999999953","{""judgement"":0}","[0]","survey-likert","443","964138","0.0-443.0","9qycu3ld","","","","","","","","1"
"1095.1650000000373","{""confidence"":0}","[0]","survey-likert","444","965234","0.0-444.0","9qycu3ld","","","","","","","",""
"","","","call-function","445","965234","0.0-445.0","9qycu3ld","","","","","","","",""
"null","","","html-keyboard-response","446","966741","0.0-446.0","9qycu3ld","","<span style=""color:Black; font-size:50px;"">Agent A","null","","","","",""
"null","","","video-keyboard-response","447","969817","0.0-447.0","9qycu3ld","","","null","","Agent A","scrambled","STIM_SET_5/713829.bmp_pp60_L3_V1.0_veridical_freeview_isoTrue_Hflip_fps144.mp4",""
"null","","","html-keyboard-response","448","971323","0.0-448.0","9qycu3ld","","<span style=""color:Black; font-size:50px;"">Agent B","null","","","","",""
"null","","","video-keyboard-response","449","974400","0.0-449.0","9qycu3ld","","","null","","Agent B","veridical","STIM_SET_2_144/713829.bmp_pp60_L3_V1.0_veridical_freeview_isoTrue_fps144.mp4",""
"","","","call-function","450","974401","0.0-450.0","9qycu3ld","","","","","","","",""
"2644.780000000028","{""judgement"":0}","[0]","survey-likert","451","977046","0.0-451.0","9qycu3ld","","","","","","","","1"
"1510.1749999999302","{""confidence"":0}","[0]","survey-likert","452","978558","0.0-452.0","9qycu3ld","","","","","","","",""
"","","","call-function","453","978558","0.0-453.0","9qycu3ld","","","","","","","",""
"null","","","html-keyboard-response","454","980060","0.0-454.0","9qycu3ld","","<span style=""color:Black; font-size:50px;"">Agent A","null","","","","",""
"null","","","video-keyboard-response","455","983143","0.0-455.0","9qycu3ld","","","null","","Agent A","veridical","STIM_SET_2_144/713920.bmp_pp76_L1_V1.0_veridical_freeview_isoTrue_fps144.mp4",""
"null","","","html-keyboard-response","456","984649","0.0-456.0","9qycu3ld","","<span style=""color:Black; font-size:50px;"">Agent B","null","","","","",""
"null","","","video-keyboard-response","457","987731","0.0-457.0","9qycu3ld","","","null","","Agent B","scrambled","STIM_SET_5/713920.bmp_pp76_L1_V1.0_veridical_freeview_isoTrue_Hflip_fps144.mp4",""
"","","","call-function","458","987731","0.0-458.0","9qycu3ld","","","","","","","",""
"1549.5100000000093","{""judgement"":1}","[0]","survey-likert","459","989282","0.0-459.0","9qycu3ld","","","","","","","","0"
"2047.905000000028","{""confidence"":0}","[0]","survey-likert","460","991331","0.0-460.0","9qycu3ld","","","","","","","",""
"","","","call-function","461","991331","0.0-461.0","9qycu3ld","","","","","","","",""
"null","","","html-keyboard-response","462","992833","0.0-462.0","9qycu3ld","","<span style=""color:Black; font-size:50px;"">Agent A","null","","","","",""
"null","","","video-keyboard-response","463","995907","0.0-463.0","9qycu3ld","","","null","","Agent A","veridical","STIM_SET_2_144/713689.bmp_pp153_L3_V1.0_veridical_freeview_isoTrue_fps144.mp4",""
"null","","","html-keyboard-response","464","997413","0.0-464.0","9qycu3ld","","<span style=""color:Black; font-size:50px;"">Agent B","null","","","","",""
"null","","","video-keyboard-response","465","1000475","0.0-465.0","9qycu3ld","","","null","","Agent B","scrambled","STIM_SET_5/713689.bmp_pp153_L3_V1.0_veridical_freeview_isoTrue_Hflip_fps144.mp4",""
"","","","call-function","466","1000475","0.0-466.0","9qycu3ld","","","","","","","",""
"2609.570000000065","{""judgement"":0}","[0]","survey-likert","467","1003086","0.0-467.0","9qycu3ld","","","","","","","","0"
"1220.9749999999767","{""confidence"":0}","[0]","survey-likert","468","1004308","0.0-468.0","9qycu3ld","","","","","","","",""
"","","","call-function","469","1004308","0.0-469.0","9qycu3ld","","","","","","","",""
"null","","","html-keyboard-response","470","1005810","0.0-470.0","9qycu3ld","","<span style=""color:Black; font-size:50px;"">Agent A","null","","","","",""
"null","","","video-keyboard-response","471","1008871","0.0-471.0","9qycu3ld","","","null","","Agent A","scrambled","STIM_SET_5/1159860.bmp_pp152_L2_V1.0_veridical_freeview_isoTrue_Hflip_fps144.mp4",""
"null","","","html-keyboard-response","472","1010377","0.0-472.0","9qycu3ld","","<span style=""color:Black; font-size:50px;"">Agent B","null","","","","",""
"null","","","video-keyboard-response","473","1013438","0.0-473.0","9qycu3ld","","","null","","Agent B","veridical","STIM_SET_2_144/1159860.bmp_pp152_L2_V1.0_veridical_freeview_isoTrue_fps144.mp4",""
"","","","call-function","474","1013439","0.0-474.0","9qycu3ld","","","","","","","",""
"2026.0050000000047","{""judgement"":1}","[0]","survey-likert","475","1015466","0.0-475.0","9qycu3ld","","","","","","","","1"
"1416.6699999999255","{""confidence"":0}","[0]","survey-likert","476","1016884","0.0-476.0","9qycu3ld","","","","","","","",""
"","","","call-function","477","1016884","0.0-477.0","9qycu3ld","","","","","","","",""
"null","","","html-keyboard-response","478","1018390","0.0-478.0","9qycu3ld","","<span style=""color:Black; font-size:50px;"">Agent A","null","","","","",""
"null","","","video-keyboard-response","479","1021466","0.0-479.0","9qycu3ld","","","null","","Agent A","veridical","STIM_SET_2_144/1159874.bmp_pp96_L2_V1.0_veridical_freeview_isoTrue_fps144.mp4",""
"null","","","html-keyboard-response","480","1022973","0.0-480.0","9qycu3ld","","<span style=""color:Black; font-size:50px;"">Agent B","null","","","","",""
"null","","","video-keyboard-response","481","1026074","0.0-481.0","9qycu3ld","","","null","","Agent B","scrambled","STIM_SET_5/1159874.bmp_pp96_L2_V1.0_veridical_freeview_isoTrue_Hflip_fps144.mp4",""
"","","","call-function","482","1026075","0.0-482.0","9qycu3ld","","","","","","","",""
"2352.1300000000047","{""judgement"":0}","[0]","survey-likert","483","1028428","0.0-483.0","9qycu3ld","","","","","","","","0"
"2008.0100000000093","{""confidence"":1}","[0]","survey-likert","484","1030437","0.0-484.0","9qycu3ld","","","","","","","",""
"","","","call-function","485","1030437","0.0-485.0","9qycu3ld","","","","","","","",""
"null","","","html-keyboard-response","486","1031939","0.0-486.0","9qycu3ld","","<span style=""color:Black; font-size:50px;"">Agent A","null","","","","",""
"null","","","video-keyboard-response","487","1035025","0.0-487.0","9qycu3ld","","","null","","Agent A","veridical","STIM_SET_2_144/285932.bmp_pp64_L1_V1.0_veridical_freeview_isoTrue_fps144.mp4",""
"null","","","html-keyboard-response","488","1036529","0.0-488.0","9qycu3ld","","<span style=""color:Black; font-size:50px;"">Agent B","null","","","","",""
"null","","","video-keyboard-response","489","1039613","0.0-489.0","9qycu3ld","","","null","","Agent B","scrambled","STIM_SET_5/285932.bmp_pp64_L1_V1.0_veridical_freeview_isoTrue_Hflip_fps144.mp4",""
"","","","call-function","490","1039614","0.0-490.0","9qycu3ld","","","","","","","",""
"3037.765000000014","{""judgement"":1}","[0]","survey-likert","491","1042653","0.0-491.0","9qycu3ld","","","","","","","","0"
"1587.030000000028","{""confidence"":0}","[0]","survey-likert","492","1044241","0.0-492.0","9qycu3ld","","","","","","","",""
"","","","call-function","493","1044241","0.0-493.0","9qycu3ld","","","","","","","",""
"null","","","html-keyboard-response","494","1045745","0.0-494.0","9qycu3ld","","<span style=""color:Black; font-size:50px;"">Agent A","null","","","","",""
"null","","","video-keyboard-response","495","1048835","0.0-495.0","9qycu3ld","","","null","","Agent A","veridical","STIM_SET_2_144/150463.bmp_pp55_L3_V1.0_veridical_freeview_isoTrue_fps144.mp4",""
"null","","","html-keyboard-response","496","1050338","0.0-496.0","9qycu3ld","","<span style=""color:Black; font-size:50px;"">Agent B","null","","","","",""
"null","","","video-keyboard-response","497","1053430","0.0-497.0","9qycu3ld","","","null","","Agent B","scrambled","STIM_SET_5/150463.bmp_pp55_L3_V1.0_veridical_freeview_isoTrue_Hflip_fps144.mp4",""
"","","","call-function","498","1053431","0.0-498.0","9qycu3ld","","","","","","","",""
"2062.600000000093","{""judgement"":0}","[0]","survey-likert","499","1055495","0.0-499.0","9qycu3ld","","","","","","","","0"
"960.2150000000838","{""confidence"":1}","[0]","survey-likert","500","1056457","0.0-500.0","9qycu3ld","","","","","","","",""
"1775.619999999879","","","instructions","501","1058234","0.0-501.0","9qycu3ld","[{""page_index"":0,""viewing_time"":754.1999999999534},{""page_index"":1,""viewing_time"":515.0949999999721},{""page_index"":2,""viewing_time"":506.1049999999814}]","","","","","","",""
"2170.399999999907","","","instructions","502","1060405","0.0-502.0","9qycu3ld","[{""page_index"":0,""viewing_time"":521.4150000000373},{""page_index"":1,""viewing_time"":1106.6350000000093},{""page_index"":2,""viewing_time"":542.2349999998696}]","","","","","","",""
"","","","call-function","503","1060406","0.0-503.0","9qycu3ld","","","","","","","",""
"null","","","html-keyboard-response","504","1061909","0.0-504.0","9qycu3ld","","<span style=""color:Black; font-size:50px;"">Agent A","null","","","","",""
"null","","","video-keyboard-response","505","1064972","0.0-505.0","9qycu3ld","","","null","","Agent A","scrambled","STIM_SET_5/1159325.bmp_pp67_L2_V1.0_veridical_freeview_isoTrue_Hflip_fps144.mp4",""
"null","","","html-keyboard-response","506","1066478","0.0-506.0","9qycu3ld","","<span style=""color:Black; font-size:50px;"">Agent B","null","","","","",""
"null","","","video-keyboard-response","507","1069538","0.0-507.0","9qycu3ld","","","null","","Agent B","veridical","STIM_SET_2_144/1159325.bmp_pp67_L2_V1.0_veridical_freeview_isoTrue_fps144.mp4",""
"","","","call-function","508","1069539","0.0-508.0","9qycu3ld","","","","","","","",""
"2554.689999999944","{""judgement"":0}","[0]","survey-likert","509","1072094","0.0-509.0","9qycu3ld","","","","","","","","1"
"1524.875","{""confidence"":0}","[0]","survey-likert","510","1073621","0.0-510.0","9qycu3ld","","","","","","","",""
"","","","call-function","511","1073621","0.0-511.0","9qycu3ld","","","","","","","",""
"null","","","html-keyboard-response","512","1075123","0.0-512.0","9qycu3ld","","<span style=""color:Black; font-size:50px;"">Agent A","null","","","","",""
"null","","","video-keyboard-response","513","1078199","0.0-513.0","9qycu3ld","","","null","","Agent A","veridical","STIM_SET_2_144/498372.bmp_pp95_L2_V1_veridical_freeview_isoTrue_fps144.mp4",""
"null","","","html-keyboard-response","514","1079701","0.0-514.0","9qycu3ld","","<span style=""color:Black; font-size:50px;"">Agent B","null","","","","",""
"null","","","video-keyboard-response","515","1082776","0.0-515.0","9qycu3ld","","","null","","Agent B","scrambled","STIM_SET_5/498372.bmp_pp95_L2_V1_veridical_freeview_isoTrue_Hflip_fps144.mp4",""
"","","","call-function","516","1082777","0.0-516.0","9qycu3ld","","","","","","","",""
"1661.219999999972","{""judgement"":1}","[0]","survey-likert","517","1084439","0.0-517.0","9qycu3ld","","","","","","","","0"
"1140.8199999998324","{""confidence"":1}","[0]","survey-likert","518","1085581","0.0-518.0","9qycu3ld","","","","","","","",""
"","","","call-function","519","1085581","0.0-519.0","9qycu3ld","","","","","","","",""
"null","","","html-keyboard-response","520","1087088","0.0-520.0","9qycu3ld","","<span style=""color:Black; font-size:50px;"">Agent A","null","","","","",""
"null","","","video-keyboard-response","521","1090176","0.0-521.0","9qycu3ld","","","null","","Agent A","veridical","STIM_SET_2_144/1592530.bmp_pp75_L1_V1.0_veridical_freeview_isoTrue_fps144.mp4",""
"null","","","html-keyboard-response","522","1091679","0.0-522.0","9qycu3ld","","<span style=""color:Black; font-size:50px;"">Agent B","null","","","","",""
"null","","","video-keyboard-response","523","1094764","0.0-523.0","9qycu3ld","","","null","","Agent B","scrambled","STIM_SET_5/1592530.bmp_pp75_L1_V1.0_veridical_freeview_isoTrue_Hflip_fps144.mp4",""
"","","","call-function","524","1094764","0.0-524.0","9qycu3ld","","","","","","","",""
"1938.7249999998603","{""judgement"":1}","[0]","survey-likert","525","1096704","0.0-525.0","9qycu3ld","","","","","","","","0"
"1926.25","{""confidence"":0}","[0]","survey-likert","526","1098631","0.0-526.0","9qycu3ld","","","","","","","",""
"","","","call-function","527","1098632","0.0-527.0","9qycu3ld","","","","","","","",""
"null","","","html-keyboard-response","528","1100137","0.0-528.0","9qycu3ld","","<span style=""color:Black; font-size:50px;"">Agent A","null","","","","",""
"null","","","video-keyboard-response","529","1103227","0.0-529.0","9qycu3ld","","","null","","Agent A","scrambled","STIM_SET_5/713633.bmp_pp58_L1_V1.0_veridical_freeview_isoTrue_Hflip_fps144.mp4",""
"null","","","html-keyboard-response","530","1104734","0.0-530.0","9qycu3ld","","<span style=""color:Black; font-size:50px;"">Agent B","null","","","","",""
"null","","","video-keyboard-response","531","1107827","0.0-531.0","9qycu3ld","","","null","","Agent B","veridical","STIM_SET_2_144/713633.bmp_pp58_L1_V1.0_veridical_freeview_isoTrue_fps144.mp4",""
"","","","call-function","532","1107827","0.0-532.0","9qycu3ld","","","","","","","",""
"2019.2900000000373","{""judgement"":1}","[0]","survey-likert","533","1109848","0.0-533.0","9qycu3ld","","","","","","","","1"
"1708.7849999999162","{""confidence"":0}","[0]","survey-likert","534","1111557","0.0-534.0","9qycu3ld","","","","","","","",""
"","","","call-function","535","1111558","0.0-535.0","9qycu3ld","","","","","","","",""
"null","","","html-keyboard-response","536","1113060","0.0-536.0","9qycu3ld","","<span style=""color:Black; font-size:50px;"">Agent A","null","","","","",""
"null","","","video-keyboard-response","537","1116138","0.0-537.0","9qycu3ld","","","null","","Agent A","scrambled","STIM_SET_5/1592314.bmp_pp100_L3_V1.0_veridical_freeview_isoTrue_Hflip_fps144.mp4",""
"null","","","html-keyboard-response","538","1117640","0.0-538.0","9qycu3ld","","<span style=""color:Black; font-size:50px;"">Agent B","null","","","","",""
"null","","","video-keyboard-response","539","1120719","0.0-539.0","9qycu3ld","","","null","","Agent B","veridical","STIM_SET_2_144/1592314.bmp_pp100_L3_V1.0_veridical_freeview_isoTrue_fps144.mp4",""
"","","","call-function","540","1120720","0.0-540.0","9qycu3ld","","","","","","","",""
"2430.0400000000373","{""judgement"":1}","[0]","survey-likert","541","1123151","0.0-541.0","9qycu3ld","","","","","","","","1"
"2383.9899999999907","{""confidence"":0}","[0]","survey-likert","542","1125536","0.0-542.0","9qycu3ld","","","","","","","",""
"","","","call-function","543","1125536","0.0-543.0","9qycu3ld","","","","","","","",""
"null","","","html-keyboard-response","544","1127039","0.0-544.0","9qycu3ld","","<span style=""color:Black; font-size:50px;"">Agent A","null","","","","",""
"null","","","video-keyboard-response","545","1130114","0.0-545.0","9qycu3ld","","","null","","Agent A","veridical","STIM_SET_2_144/1592168.bmp_pp71_L1_V1.0_veridical_freeview_isoTrue_fps144.mp4",""
"null","","","html-keyboard-response","546","1131620","0.0-546.0","9qycu3ld","","<span style=""color:Black; font-size:50px;"">Agent B","null","","","","",""
"null","","","video-keyboard-response","547","1134698","0.0-547.0","9qycu3ld","","","null","","Agent B","scrambled","STIM_SET_5/1592168.bmp_pp71_L1_V1.0_veridical_freeview_isoTrue_Hflip_fps144.mp4",""
"","","","call-function","548","1134698","0.0-548.0","9qycu3ld","","","","","","","",""
"1818.7399999999907","{""judgement"":1}","[0]","survey-likert","549","1136518","0.0-549.0","9qycu3ld","","","","","","","","0"
"1130.0550000001676","{""confidence"":0}","[0]","survey-likert","550","1137649","0.0-550.0","9qycu3ld","","","","","","","",""
"","","","call-function","551","1137650","0.0-551.0","9qycu3ld","","","","","","","",""
"null","","","html-keyboard-response","552","1139155","0.0-552.0","9qycu3ld","","<span style=""color:Black; font-size:50px;"">Agent A","null","","","","",""
"null","","","video-keyboard-response","553","1142229","0.0-553.0","9qycu3ld","","","null","","Agent A","scrambled","STIM_SET_5/713770.bmp_pp89_L1_V1.0_veridical_freeview_isoTrue_Hflip_fps144.mp4",""
"null","","","html-keyboard-response","554","1143732","0.0-554.0","9qycu3ld","","<span style=""color:Black; font-size:50px;"">Agent B","null","","","","",""
"null","","","video-keyboard-response","555","1146808","0.0-555.0","9qycu3ld","","","null","","Agent B","veridical","STIM_SET_2_144/713770.bmp_pp89_L1_V1.0_veridical_freeview_isoTrue_fps144.mp4",""
"","","","call-function","556","1146808","0.0-556.0","9qycu3ld","","","","","","","",""
"1978.6200000001118","{""judgement"":1}","[0]","survey-likert","557","1148788","0.0-557.0","9qycu3ld","","","","","","","","1"
"1282.8949999997858","{""confidence"":0}","[0]","survey-likert","558","1150072","0.0-558.0","9qycu3ld","","","","","","","",""
"","","","call-function","559","1150072","0.0-559.0","9qycu3ld","","","","","","","",""
"null","","","html-keyboard-response","560","1151578","0.0-560.0","9qycu3ld","","<span style=""color:Black; font-size:50px;"">Agent A","null","","","","",""
"null","","","video-keyboard-response","561","1154662","0.0-561.0","9qycu3ld","","","null","","Agent A","scrambled","STIM_SET_5/1159392.bmp_pp96_L2_V1.0_veridical_freeview_isoTrue_Hflip_fps144.mp4",""
"null","","","html-keyboard-response","562","1156168","0.0-562.0","9qycu3ld","","<span style=""color:Black; font-size:50px;"">Agent B","null","","","","",""
"null","","","video-keyboard-response","563","1159252","0.0-563.0","9qycu3ld","","","null","","Agent B","veridical","STIM_SET_2_144/1159392.bmp_pp96_L2_V1.0_veridical_freeview_isoTrue_fps144.mp4",""
"","","","call-function","564","1159252","0.0-564.0","9qycu3ld","","","","","","","",""
"2343.5449999999255","{""judgement"":1}","[0]","survey-likert","565","1161597","0.0-565.0","9qycu3ld","","","","","","","","1"
"2111.8300000000745","{""confidence"":2}","[0]","survey-likert","566","1163710","0.0-566.0","9qycu3ld","","","","","","","",""
"","","","call-function","567","1163711","0.0-567.0","9qycu3ld","","","","","","","",""
"null","","","html-keyboard-response","568","1165215","0.0-568.0","9qycu3ld","","<span style=""color:Black; font-size:50px;"">Agent A","null","","","","",""
"null","","","video-keyboard-response","569","1168313","0.0-569.0","9qycu3ld","","","null","","Agent A","scrambled","STIM_SET_5/1592038.bmp_pp79_L2_V1.0_veridical_freeview_isoTrue_Hflip_fps144.mp4",""
"null","","","html-keyboard-response","570","1169817","0.0-570.0","9qycu3ld","","<span style=""color:Black; font-size:50px;"">Agent B","null","","","","",""
"null","","","video-keyboard-response","571","1172912","0.0-571.0","9qycu3ld","","","null","","Agent B","veridical","STIM_SET_2_144/1592038.bmp_pp79_L2_V1.0_veridical_freeview_isoTrue_fps144.mp4",""
"","","","call-function","572","1172912","0.0-572.0","9qycu3ld","","","","","","","",""
"4479.415000000037","{""judgement"":1}","[0]","survey-likert","573","1177393","0.0-573.0","9qycu3ld","","","","","","","","1"
"3038.7099999999627","{""confidence"":0}","[0]","survey-likert","574","1180433","0.0-574.0","9qycu3ld","","","","","","","",""
"","","","call-function","575","1180433","0.0-575.0","9qycu3ld","","","","","","","",""
"null","","","html-keyboard-response","576","1181936","0.0-576.0","9qycu3ld","","<span style=""color:Black; font-size:50px;"">Agent A","null","","","","",""
"null","","","video-keyboard-response","577","1185035","0.0-577.0","9qycu3ld","","","null","","Agent A","veridical","STIM_SET_2_144/1159592.bmp_pp91_L3_V1.0_veridical_freeview_isoTrue_fps144.mp4",""
"null","","","html-keyboard-response","578","1186538","0.0-578.0","9qycu3ld","","<span style=""color:Black; font-size:50px;"">Agent B","null","","","","",""
"null","","","video-keyboard-response","579","1189630","0.0-579.0","9qycu3ld","","","null","","Agent B","scrambled","STIM_SET_5/1159592.bmp_pp91_L3_V1.0_veridical_freeview_isoTrue_Hflip_fps144.mp4",""
"","","","call-function","580","1189631","0.0-580.0","9qycu3ld","","","","","","","",""
"3247.0100000000093","{""judgement"":1}","[0]","survey-likert","581","1192880","0.0-581.0","9qycu3ld","","","","","","","","0"
"2726.655000000028","{""confidence"":0}","[0]","survey-likert","582","1195609","0.0-582.0","9qycu3ld","","","","","","","",""
"932.4250000000466","","","instructions","583","1196542","0.0-583.0","9qycu3ld","[{""page_index"":0,""viewing_time"":932.285000000149}]","","","","","","",""
"714.8950000000186","","","instructions","584","1197257","0.0-584.0","9qycu3ld","[{""page_index"":0,""viewing_time"":714.7949999999255}]","","","","","","",""
"9797.020000000019","{""post-1"":1}","[0]","survey-likert","585","1207056","0.0-585.0","9qycu3ld","","","","","","","",""
"5880.2949999999255","{""post-1"":1}","[0]","survey-likert","586","1212937","0.0-586.0","9qycu3ld","","","","","","","",""
"7742.1699999999255","{""post-2"":1}","[0]","survey-likert","587","1220681","0.0-587.0","9qycu3ld","","","","","","","",""
"4886.469999999972","{""post-2"":1}","[0]","survey-likert","588","1225568","0.0-588.0","9qycu3ld","","","","","","","",""
"8170.020000000019","{""post-3"":2}","[0]","survey-likert","589","1233739","0.0-589.0","9qycu3ld","","","","","","","",""
"6008.895000000019","{""post-3"":1}","[0]","survey-likert","590","1239750","0.0-590.0","9qycu3ld","","","","","","","",""
"5898.204999999842","{""post-4"":1}","[0]","survey-likert","591","1245649","0.0-591.0","9qycu3ld","","","","","","","",""
"5036.5800000000745","{""post-4"":1}","[0]","survey-likert","592","1250687","0.0-592.0","9qycu3ld","","","","","","","",""
"17958.51500000013","{""post-5"":0}","[0]","survey-likert","593","1268647","0.0-593.0","9qycu3ld","","","","","","","",""
"2742.929999999935","{""post-5"":1}","[0]","survey-likert","594","1271391","0.0-594.0","9qycu3ld","","","","","","","",""
"108988.10499999998","{""Q0"":""this was cool! I wonder if there is a L/R bias implicit in people's attentional bias OR in people's photography bias! Would be cool to do a study to check that (maybe by first comparing people's attention on photos flipped and not flipped, then by looking at if across photos there is a bias where people's attention tends to go, I guess this data might already exist)""}","","survey-text","595","1380384","0.0-595.0","9qycu3ld","","","","","","","",""
"11215.895000000019","{""Q0"":""just what seemed more natural to me!""}","","survey-text","596","1391604","0.0-596.0","9qycu3ld","","","","","","","",""
"20515.79500000016","{""Q0"":""it's a little annoying not seeing the picture they were looking at :)""}","","survey-text","597","1412123","0.0-597.0","9qycu3ld","","","","","","","",""
"977.0800000000745","","","instructions","598","1413100","0.0-598.0","9qycu3ld","[{""page_index"":0,""viewing_time"":976.9399999999441}]","","","","","","",""
"558686.27","{""Experimenter_end"":[""Printed ID# 9qycu3ld on consent form"",""Given subject SONA credit or payment"",""Given the subject debrief form""]}","[0]","survey-multi-select","599","1971790","0.0-599.0","9qycu3ld","","","","","","","",""
