"rt","responses","question_order","trial_type","trial_index","time_elapsed","internal_node_id","ID","view_history","stimulus","key_press","value","agent","condition","image","correct_answer"
"247397.20500000002","{""Experimenter"":[""Confirmed subject's identity (ID card)"",""Confirmed normal or corrected-to-normal vision"",""Obtained consent (signature and date)"",""Checked the test room lighting"",""Checked computer screen lighting"",""Checked distance from screen to chin rest (50cm)"",""Cleaned and adjusted chin rest"",""Counterbalanced the order of the tasks"",""Opened the experiment in Firefox"",""Made the experiment full screen"",""Encouraged subject to silence phone, put away distractors, etc.""]}","[0]","survey-multi-select","0","247405","0.0-0.0","9v82yq1m","","","","","","","",""
"137696.31999999998","","","instructions","1","385103","0.0-1.0","9v82yq1m","[{""page_index"":0,""viewing_time"":137695.68499999997}]","","","","","","",""
"14439.450000000012","","","instructions","2","399544","0.0-2.0","9v82yq1m","[{""page_index"":0,""viewing_time"":1252.554999999993},{""page_index"":1,""viewing_time"":4904.330000000016},{""page_index"":2,""viewing_time"":8282.445000000007}]","","","","","","",""
"72244.40000000002","","","instructions","3","471790","0.0-3.0","9v82yq1m","[{""page_index"":0,""viewing_time"":72244.26000000001}]","","","","","","",""
"null","","","video-keyboard-response","4","474864","0.0-4.0","9v82yq1m","","","null","","","","",""
"21156.255000000005","","","instructions","5","496021","0.0-5.0","9v82yq1m","[{""page_index"":0,""viewing_time"":3421.414999999979},{""page_index"":1,""viewing_time"":6340.680000000051},{""page_index"":2,""viewing_time"":1774.234999999986},{""page_index"":3,""viewing_time"":4659.705000000016},{""page_index"":4,""viewing_time"":4960.065000000002}]","","","","","","",""
"3682.1600000000326","","","instructions","6","499704","0.0-6.0","9v82yq1m","[{""page_index"":0,""viewing_time"":3682.054999999993}]","","","","","","",""
"","","","call-function","7","499705","0.0-7.0","9v82yq1m","","","","","","","",""
"null","","","html-keyboard-response","8","501210","0.0-8.0","9v82yq1m","","<span style=""color:Black; font-size:50px;"">Agent A","null","","","","",""
"null","","","video-keyboard-response","9","504030","0.0-9.0","9v82yq1m","","","null","","Agent A","veridical","FOR_REV_BLOBBY_STIM/1592807.bmp_pp68_L1_V1.0_veridical_freeview_isoFalse_fps144.mp4",""
"null","","","html-keyboard-response","10","505532","0.0-10.0","9v82yq1m","","<span style=""color:Black; font-size:50px;"">Agent B","null","","","","",""
"null","","","video-keyboard-response","11","508353","0.0-11.0","9v82yq1m","","","null","","Agent B","scrambled","FOR_REV_BLOBBY_STIM/1592807.bmp_pp68_L1_V1.0_veridical_freeview_isoFalse_fps144_reversed_REAL.mp4",""
"","","","call-function","12","508354","0.0-12.0","9v82yq1m","","","","","","","",""
"3597.679999999993","{""judgement"":0}","[0]","survey-likert","13","511952","0.0-13.0","9v82yq1m","","","","","","","","0"
"4888.924999999988","{""confidence"":2}","[0]","survey-likert","14","516843","0.0-14.0","9v82yq1m","","","","","","","",""
"","","","call-function","15","516843","0.0-15.0","9v82yq1m","","","","","","","",""
"null","","","html-keyboard-response","16","518346","0.0-16.0","9v82yq1m","","<span style=""color:Black; font-size:50px;"">Agent A","null","","","","",""
"null","","","video-keyboard-response","17","521142","0.0-17.0","9v82yq1m","","","null","","Agent A","veridical","FOR_REV_BLOBBY_STIM/713666.bmp_pp97_L3_V1.0_veridical_freeview_isoFalse_fps144.mp4",""
"null","","","html-keyboard-response","18","522647","0.0-18.0","9v82yq1m","","<span style=""color:Black; font-size:50px;"">Agent B","null","","","","",""
"null","","","video-keyboard-response","19","525485","0.0-19.0","9v82yq1m","","","null","","Agent B","scrambled","FOR_REV_BLOBBY_STIM/713666.bmp_pp97_L3_V1.0_veridical_freeview_isoFalse_fps144_reversed_REAL.mp4",""
"","","","call-function","20","525485","0.0-20.0","9v82yq1m","","","","","","","",""
"2524.6600000000326","{""judgement"":0}","[0]","survey-likert","21","528012","0.0-21.0","9v82yq1m","","","","","","","","0"
"2231.835000000079","{""confidence"":1}","[0]","survey-likert","22","530245","0.0-22.0","9v82yq1m","","","","","","","",""
"","","","call-function","23","530245","0.0-23.0","9v82yq1m","","","","","","","",""
"null","","","html-keyboard-response","24","531750","0.0-24.0","9v82yq1m","","<span style=""color:Black; font-size:50px;"">Agent A","null","","","","",""
"null","","","video-keyboard-response","25","534538","0.0-25.0","9v82yq1m","","","null","","Agent A","scrambled","FOR_REV_BLOBBY_STIM/1592499.bmp_pp96_L2_V1.0_veridical_freeview_isoFalse_fps144_reversed_REAL.mp4",""
"null","","","html-keyboard-response","26","536042","0.0-26.0","9v82yq1m","","<span style=""color:Black; font-size:50px;"">Agent B","null","","","","",""
"null","","","video-keyboard-response","27","538806","0.0-27.0","9v82yq1m","","","null","","Agent B","veridical","FOR_REV_BLOBBY_STIM/1592499.bmp_pp96_L2_V1.0_veridical_freeview_isoFalse_fps144.mp4",""
"","","","call-function","28","538806","0.0-28.0","9v82yq1m","","","","","","","",""
"4618.280000000028","{""judgement"":1}","[0]","survey-likert","29","543425","0.0-29.0","9v82yq1m","","","","","","","","1"
"2210.2399999999907","{""confidence"":1}","[0]","survey-likert","30","545637","0.0-30.0","9v82yq1m","","","","","","","",""
"","","","call-function","31","545637","0.0-31.0","9v82yq1m","","","","","","","",""
"null","","","html-keyboard-response","32","547139","0.0-32.0","9v82yq1m","","<span style=""color:Black; font-size:50px;"">Agent A","null","","","","",""
"null","","","video-keyboard-response","33","549865","0.0-33.0","9v82yq1m","","","null","","Agent A","veridical","FOR_REV_BLOBBY_STIM/1592817.bmp_pp55_L3_V1.0_veridical_freeview_isoFalse_fps144.mp4",""
"null","","","html-keyboard-response","34","551369","0.0-34.0","9v82yq1m","","<span style=""color:Black; font-size:50px;"">Agent B","null","","","","",""
"null","","","video-keyboard-response","35","554093","0.0-35.0","9v82yq1m","","","null","","Agent B","scrambled","FOR_REV_BLOBBY_STIM/1592817.bmp_pp55_L3_V1.0_veridical_freeview_isoFalse_fps144_reversed_REAL.mp4",""
"","","","call-function","36","554093","0.0-36.0","9v82yq1m","","","","","","","",""
"2069.420000000042","{""judgement"":0}","[0]","survey-likert","37","556163","0.0-37.0","9v82yq1m","","","","","","","","0"
"2438.4850000001024","{""confidence"":2}","[0]","survey-likert","38","558603","0.0-38.0","9v82yq1m","","","","","","","",""
"","","","call-function","39","558603","0.0-39.0","9v82yq1m","","","","","","","",""
"null","","","html-keyboard-response","40","560107","0.0-40.0","9v82yq1m","","<span style=""color:Black; font-size:50px;"">Agent A","null","","","","",""
"null","","","video-keyboard-response","41","562922","0.0-41.0","9v82yq1m","","","null","","Agent A","veridical","FOR_REV_BLOBBY_STIM/1159829.bmp_pp91_L3_V1.0_veridical_freeview_isoFalse_fps144.mp4",""
"null","","","html-keyboard-response","42","564428","0.0-42.0","9v82yq1m","","<span style=""color:Black; font-size:50px;"">Agent B","null","","","","",""
"null","","","video-keyboard-response","43","567211","0.0-43.0","9v82yq1m","","","null","","Agent B","scrambled","FOR_REV_BLOBBY_STIM/1159829.bmp_pp91_L3_V1.0_veridical_freeview_isoFalse_fps144_reversed_REAL.mp4",""
"","","","call-function","44","567212","0.0-44.0","9v82yq1m","","","","","","","",""
"2188.0999999999767","{""judgement"":0}","[0]","survey-likert","45","569401","0.0-45.0","9v82yq1m","","","","","","","","0"
"1987.9449999999488","{""confidence"":3}","[0]","survey-likert","46","571389","0.0-46.0","9v82yq1m","","","","","","","",""
"","","","call-function","47","571390","0.0-47.0","9v82yq1m","","","","","","","",""
"null","","","html-keyboard-response","48","572894","0.0-48.0","9v82yq1m","","<span style=""color:Black; font-size:50px;"">Agent A","null","","","","",""
"null","","","video-keyboard-response","49","575692","0.0-49.0","9v82yq1m","","","null","","Agent A","scrambled","FOR_REV_BLOBBY_STIM/1592362.bmp_pp95_L2_V1.0_veridical_freeview_isoFalse_fps144_reversed_REAL.mp4",""
"null","","","html-keyboard-response","50","577195","0.0-50.0","9v82yq1m","","<span style=""color:Black; font-size:50px;"">Agent B","null","","","","",""
"null","","","video-keyboard-response","51","580017","0.0-51.0","9v82yq1m","","","null","","Agent B","veridical","FOR_REV_BLOBBY_STIM/1592362.bmp_pp95_L2_V1.0_veridical_freeview_isoFalse_fps144.mp4",""
"","","","call-function","52","580018","0.0-52.0","9v82yq1m","","","","","","","",""
"2843.319999999949","{""judgement"":1}","[0]","survey-likert","53","582862","0.0-53.0","9v82yq1m","","","","","","","","1"
"1439.5","{""confidence"":1}","[0]","survey-likert","54","584302","0.0-54.0","9v82yq1m","","","","","","","",""
"","","","call-function","55","584303","0.0-55.0","9v82yq1m","","","","","","","",""
"null","","","html-keyboard-response","56","585807","0.0-56.0","9v82yq1m","","<span style=""color:Black; font-size:50px;"">Agent A","null","","","","",""
"null","","","video-keyboard-response","57","588620","0.0-57.0","9v82yq1m","","","null","","Agent A","scrambled","FOR_REV_BLOBBY_STIM/1159882.bmp_pp61_L2_V1.0_veridical_freeview_isoFalse_fps144_reversed_REAL.mp4",""
"null","","","html-keyboard-response","58","590123","0.0-58.0","9v82yq1m","","<span style=""color:Black; font-size:50px;"">Agent B","null","","","","",""
"null","","","video-keyboard-response","59","592979","0.0-59.0","9v82yq1m","","","null","","Agent B","veridical","FOR_REV_BLOBBY_STIM/1159882.bmp_pp61_L2_V1.0_veridical_freeview_isoFalse_fps144.mp4",""
"","","","call-function","60","592980","0.0-60.0","9v82yq1m","","","","","","","",""
"4546.045000000042","{""judgement"":1}","[0]","survey-likert","61","597528","0.0-61.0","9v82yq1m","","","","","","","","1"
"1402.890000000014","{""confidence"":1}","[0]","survey-likert","62","598932","0.0-62.0","9v82yq1m","","","","","","","",""
"","","","call-function","63","598933","0.0-63.0","9v82yq1m","","","","","","","",""
"null","","","html-keyboard-response","64","600434","0.0-64.0","9v82yq1m","","<span style=""color:Black; font-size:50px;"">Agent A","null","","","","",""
"null","","","video-keyboard-response","65","603211","0.0-65.0","9v82yq1m","","","null","","Agent A","veridical","FOR_REV_BLOBBY_STIM/713135.bmp_pp54_L2_V1.0_veridical_freeview_isoFalse_fps144.mp4",""
"null","","","html-keyboard-response","66","604717","0.0-66.0","9v82yq1m","","<span style=""color:Black; font-size:50px;"">Agent B","null","","","","",""
"null","","","video-keyboard-response","67","607489","0.0-67.0","9v82yq1m","","","null","","Agent B","scrambled","FOR_REV_BLOBBY_STIM/713135.bmp_pp54_L2_V1.0_veridical_freeview_isoFalse_fps144_reversed_REAL.mp4",""
"","","","call-function","68","607490","0.0-68.0","9v82yq1m","","","","","","","",""
"2404.515000000014","{""judgement"":0}","[0]","survey-likert","69","609896","0.0-69.0","9v82yq1m","","","","","","","","0"
"1551.9049999999115","{""confidence"":2}","[0]","survey-likert","70","611449","0.0-70.0","9v82yq1m","","","","","","","",""
"","","","call-function","71","611450","0.0-71.0","9v82yq1m","","","","","","","",""
"null","","","html-keyboard-response","72","612951","0.0-72.0","9v82yq1m","","<span style=""color:Black; font-size:50px;"">Agent A","null","","","","",""
"null","","","video-keyboard-response","73","615564","0.0-73.0","9v82yq1m","","","null","","Agent A","veridical","FOR_REV_BLOBBY_STIM/713779.bmp_pp152_L2_V1.0_veridical_freeview_isoFalse_fps144.mp4",""
"null","","","html-keyboard-response","74","617071","0.0-74.0","9v82yq1m","","<span style=""color:Black; font-size:50px;"">Agent B","null","","","","",""
"null","","","video-keyboard-response","75","619690","0.0-75.0","9v82yq1m","","","null","","Agent B","scrambled","FOR_REV_BLOBBY_STIM/713779.bmp_pp152_L2_V1.0_veridical_freeview_isoFalse_fps144_reversed_REAL.mp4",""
"","","","call-function","76","619690","0.0-76.0","9v82yq1m","","","","","","","",""
"3569.5500000000466","{""judgement"":0}","[0]","survey-likert","77","623261","0.0-77.0","9v82yq1m","","","","","","","","0"
"1757.7700000000186","{""confidence"":0}","[0]","survey-likert","78","625020","0.0-78.0","9v82yq1m","","","","","","","",""
"","","","call-function","79","625020","0.0-79.0","9v82yq1m","","","","","","","",""
"null","","","html-keyboard-response","80","626522","0.0-80.0","9v82yq1m","","<span style=""color:Black; font-size:50px;"">Agent A","null","","","","",""
"null","","","video-keyboard-response","81","629398","0.0-81.0","9v82yq1m","","","null","","Agent A","veridical","FOR_REV_BLOBBY_STIM/1159447.bmp_pp70_L2_V1.0_veridical_freeview_isoFalse_fps144.mp4",""
"null","","","html-keyboard-response","82","630900","0.0-82.0","9v82yq1m","","<span style=""color:Black; font-size:50px;"">Agent B","null","","","","",""
"null","","","video-keyboard-response","83","633779","0.0-83.0","9v82yq1m","","","null","","Agent B","scrambled","FOR_REV_BLOBBY_STIM/1159447.bmp_pp70_L2_V1.0_veridical_freeview_isoFalse_fps144_reversed_REAL.mp4",""
"","","","call-function","84","633781","0.0-84.0","9v82yq1m","","","","","","","",""
"2037.4499999999534","{""judgement"":0}","[0]","survey-likert","85","635819","0.0-85.0","9v82yq1m","","","","","","","","0"
"3033.094999999972","{""confidence"":3}","[0]","survey-likert","86","638853","0.0-86.0","9v82yq1m","","","","","","","",""
"3844.9599999999627","","","instructions","87","642698","0.0-87.0","9v82yq1m","[{""page_index"":0,""viewing_time"":1843.8199999999488},{""page_index"":1,""viewing_time"":992.9400000000605},{""page_index"":2,""viewing_time"":1008.0499999999302}]","","","","","","",""
"5885.6699999999255","","","instructions","88","648584","0.0-88.0","9v82yq1m","[{""page_index"":0,""viewing_time"":1643.4349999999395},{""page_index"":1,""viewing_time"":3241.9649999999674},{""page_index"":2,""viewing_time"":1000.1700000000419}]","","","","","","",""
"","","","call-function","89","648585","0.0-89.0","9v82yq1m","","","","","","","",""
"null","","","html-keyboard-response","90","650089","0.0-90.0","9v82yq1m","","<span style=""color:Black; font-size:50px;"">Agent A","null","","","","",""
"null","","","video-keyboard-response","91","652931","0.0-91.0","9v82yq1m","","","null","","Agent A","veridical","FOR_REV_BLOBBY_STIM/1591961.bmp_pp67_L2_V1.0_veridical_freeview_isoFalse_fps144.mp4",""
"null","","","html-keyboard-response","92","654437","0.0-92.0","9v82yq1m","","<span style=""color:Black; font-size:50px;"">Agent B","null","","","","",""
"null","","","video-keyboard-response","93","657300","0.0-93.0","9v82yq1m","","","null","","Agent B","scrambled","FOR_REV_BLOBBY_STIM/1591961.bmp_pp67_L2_V1.0_veridical_freeview_isoFalse_fps144_reversed_REAL.mp4",""
"","","","call-function","94","657301","0.0-94.0","9v82yq1m","","","","","","","",""
"3328.475000000093","{""judgement"":0}","[0]","survey-likert","95","660630","0.0-95.0","9v82yq1m","","","","","","","","0"
"4783.859999999986","{""confidence"":1}","[0]","survey-likert","96","665415","0.0-96.0","9v82yq1m","","","","","","","",""
"","","","call-function","97","665415","0.0-97.0","9v82yq1m","","","","","","","",""
"null","","","html-keyboard-response","98","666920","0.0-98.0","9v82yq1m","","<span style=""color:Black; font-size:50px;"">Agent A","null","","","","",""
"null","","","video-keyboard-response","99","669586","0.0-99.0","9v82yq1m","","","null","","Agent A","scrambled","FOR_REV_BLOBBY_STIM/1592133.bmp_pp75_L1_V1.0_veridical_freeview_isoFalse_fps144_reversed_REAL.mp4",""
"null","","","html-keyboard-response","100","671088","0.0-100.0","9v82yq1m","","<span style=""color:Black; font-size:50px;"">Agent B","null","","","","",""
"null","","","video-keyboard-response","101","673754","0.0-101.0","9v82yq1m","","","null","","Agent B","veridical","FOR_REV_BLOBBY_STIM/1592133.bmp_pp75_L1_V1.0_veridical_freeview_isoFalse_fps144.mp4",""
"","","","call-function","102","673754","0.0-102.0","9v82yq1m","","","","","","","",""
"2109.530000000028","{""judgement"":0}","[0]","survey-likert","103","675865","0.0-103.0","9v82yq1m","","","","","","","","1"
"1351.0050000000047","{""confidence"":1}","[0]","survey-likert","104","677217","0.0-104.0","9v82yq1m","","","","","","","",""
"","","","call-function","105","677217","0.0-105.0","9v82yq1m","","","","","","","",""
"null","","","html-keyboard-response","106","678721","0.0-106.0","9v82yq1m","","<span style=""color:Black; font-size:50px;"">Agent A","null","","","","",""
"null","","","video-keyboard-response","107","681492","0.0-107.0","9v82yq1m","","","null","","Agent A","veridical","FOR_REV_BLOBBY_STIM/1159768.bmp_pp89_L1_V1.0_veridical_freeview_isoFalse_fps144.mp4",""
"null","","","html-keyboard-response","108","682998","0.0-108.0","9v82yq1m","","<span style=""color:Black; font-size:50px;"">Agent B","null","","","","",""
"null","","","video-keyboard-response","109","685770","0.0-109.0","9v82yq1m","","","null","","Agent B","scrambled","FOR_REV_BLOBBY_STIM/1159768.bmp_pp89_L1_V1.0_veridical_freeview_isoFalse_fps144_reversed_REAL.mp4",""
"","","","call-function","110","685770","0.0-110.0","9v82yq1m","","","","","","","",""
"2401.5749999999534","{""judgement"":1}","[0]","survey-likert","111","688173","0.0-111.0","9v82yq1m","","","","","","","","0"
"1608.1650000000373","{""confidence"":1}","[0]","survey-likert","112","689782","0.0-112.0","9v82yq1m","","","","","","","",""
"","","","call-function","113","689782","0.0-113.0","9v82yq1m","","","","","","","",""
"null","","","html-keyboard-response","114","691283","0.0-114.0","9v82yq1m","","<span style=""color:Black; font-size:50px;"">Agent A","null","","","","",""
"null","","","video-keyboard-response","115","693812","0.0-115.0","9v82yq1m","","","null","","Agent A","scrambled","FOR_REV_BLOBBY_STIM/713513.bmp_pp62_L2_V1.0_veridical_freeview_isoFalse_fps144_reversed_REAL.mp4",""
"null","","","html-keyboard-response","116","695314","0.0-116.0","9v82yq1m","","<span style=""color:Black; font-size:50px;"">Agent B","null","","","","",""
"null","","","video-keyboard-response","117","697846","0.0-117.0","9v82yq1m","","","null","","Agent B","veridical","FOR_REV_BLOBBY_STIM/713513.bmp_pp62_L2_V1.0_veridical_freeview_isoFalse_fps144.mp4",""
"","","","call-function","118","697846","0.0-118.0","9v82yq1m","","","","","","","",""
"5074.290000000037","{""judgement"":0}","[0]","survey-likert","119","702922","0.0-119.0","9v82yq1m","","","","","","","","1"
"1510.5550000000512","{""confidence"":1}","[0]","survey-likert","120","704433","0.0-120.0","9v82yq1m","","","","","","","",""
"","","","call-function","121","704433","0.0-121.0","9v82yq1m","","","","","","","",""
"null","","","html-keyboard-response","122","705935","0.0-122.0","9v82yq1m","","<span style=""color:Black; font-size:50px;"">Agent A","null","","","","",""
"null","","","video-keyboard-response","123","708587","0.0-123.0","9v82yq1m","","","null","","Agent A","scrambled","FOR_REV_BLOBBY_STIM/713707.bmp_pp154_L1_V1.0_veridical_freeview_isoFalse_fps144_reversed_REAL.mp4",""
"null","","","html-keyboard-response","124","710094","0.0-124.0","9v82yq1m","","<span style=""color:Black; font-size:50px;"">Agent B","null","","","","",""
"null","","","video-keyboard-response","125","712752","0.0-125.0","9v82yq1m","","","null","","Agent B","veridical","FOR_REV_BLOBBY_STIM/713707.bmp_pp154_L1_V1.0_veridical_freeview_isoFalse_fps144.mp4",""
"","","","call-function","126","712753","0.0-126.0","9v82yq1m","","","","","","","",""
"2992.679999999935","{""judgement"":0}","[0]","survey-likert","127","715747","0.0-127.0","9v82yq1m","","","","","","","","1"
"1820.4299999999348","{""confidence"":1}","[0]","survey-likert","128","717570","0.0-128.0","9v82yq1m","","","","","","","",""
"","","","call-function","129","717570","0.0-129.0","9v82yq1m","","","","","","","",""
"null","","","html-keyboard-response","130","719072","0.0-130.0","9v82yq1m","","<span style=""color:Black; font-size:50px;"">Agent A","null","","","","",""
"null","","","video-keyboard-response","131","721798","0.0-131.0","9v82yq1m","","","null","","Agent A","veridical","FOR_REV_BLOBBY_STIM/1591954.bmp_pp62_L2_V1.0_veridical_freeview_isoFalse_fps144.mp4",""
"null","","","html-keyboard-response","132","723300","0.0-132.0","9v82yq1m","","<span style=""color:Black; font-size:50px;"">Agent B","null","","","","",""
"null","","","video-keyboard-response","133","726024","0.0-133.0","9v82yq1m","","","null","","Agent B","scrambled","FOR_REV_BLOBBY_STIM/1591954.bmp_pp62_L2_V1.0_veridical_freeview_isoFalse_fps144_reversed_REAL.mp4",""
"","","","call-function","134","726025","0.0-134.0","9v82yq1m","","","","","","","",""
"2295.7750000000233","{""judgement"":1}","[0]","survey-likert","135","728322","0.0-135.0","9v82yq1m","","","","","","","","0"
"3190.2600000000093","{""confidence"":1}","[0]","survey-likert","136","731513","0.0-136.0","9v82yq1m","","","","","","","",""
"","","","call-function","137","731514","0.0-137.0","9v82yq1m","","","","","","","",""
"null","","","html-keyboard-response","138","733016","0.0-138.0","9v82yq1m","","<span style=""color:Black; font-size:50px;"">Agent A","null","","","","",""
"null","","","video-keyboard-response","139","735692","0.0-139.0","9v82yq1m","","","null","","Agent A","veridical","FOR_REV_BLOBBY_STIM/1160168.bmp_pp53_L2_V1.0_veridical_freeview_isoFalse_fps144.mp4",""
"null","","","html-keyboard-response","140","737195","0.0-140.0","9v82yq1m","","<span style=""color:Black; font-size:50px;"">Agent B","null","","","","",""
"null","","","video-keyboard-response","141","739870","0.0-141.0","9v82yq1m","","","null","","Agent B","scrambled","FOR_REV_BLOBBY_STIM/1160168.bmp_pp53_L2_V1.0_veridical_freeview_isoFalse_fps144_reversed_REAL.mp4",""
"","","","call-function","142","739870","0.0-142.0","9v82yq1m","","","","","","","",""
"4989.310000000056","{""judgement"":1}","[0]","survey-likert","143","744861","0.0-143.0","9v82yq1m","","","","","","","","0"
"2107.6300000000047","{""confidence"":0}","[0]","survey-likert","144","746970","0.0-144.0","9v82yq1m","","","","","","","",""
"","","","call-function","145","746970","0.0-145.0","9v82yq1m","","","","","","","",""
"null","","","html-keyboard-response","146","748474","0.0-146.0","9v82yq1m","","<span style=""color:Black; font-size:50px;"">Agent A","null","","","","",""
"null","","","video-keyboard-response","147","751306","0.0-147.0","9v82yq1m","","","null","","Agent A","scrambled","FOR_REV_BLOBBY_STIM/497950.bmp_pp151_L1_V1.0_veridical_freeview_isoFalse_fps144_reversed_REAL.mp4",""
"null","","","html-keyboard-response","148","752808","0.0-148.0","9v82yq1m","","<span style=""color:Black; font-size:50px;"">Agent B","null","","","","",""
"null","","","video-keyboard-response","149","755674","0.0-149.0","9v82yq1m","","","null","","Agent B","veridical","FOR_REV_BLOBBY_STIM/497950.bmp_pp151_L1_V1.0_veridical_freeview_isoFalse_fps144.mp4",""
"","","","call-function","150","755675","0.0-150.0","9v82yq1m","","","","","","","",""
"2072.054999999935","{""judgement"":1}","[0]","survey-likert","151","757748","0.0-151.0","9v82yq1m","","","","","","","","1"
"1881.2999999999302","{""confidence"":2}","[0]","survey-likert","152","759631","0.0-152.0","9v82yq1m","","","","","","","",""
"","","","call-function","153","759631","0.0-153.0","9v82yq1m","","","","","","","",""
"null","","","html-keyboard-response","154","761133","0.0-154.0","9v82yq1m","","<span style=""color:Black; font-size:50px;"">Agent A","null","","","","",""
"null","","","video-keyboard-response","155","763679","0.0-155.0","9v82yq1m","","","null","","Agent A","scrambled","FOR_REV_BLOBBY_STIM/1159813.bmp_pp79_L2_V1.0_veridical_freeview_isoFalse_fps144_reversed_REAL.mp4",""
"null","","","html-keyboard-response","156","765183","0.0-156.0","9v82yq1m","","<span style=""color:Black; font-size:50px;"">Agent B","null","","","","",""
"null","","","video-keyboard-response","157","767733","0.0-157.0","9v82yq1m","","","null","","Agent B","veridical","FOR_REV_BLOBBY_STIM/1159813.bmp_pp79_L2_V1.0_veridical_freeview_isoFalse_fps144.mp4",""
"","","","call-function","158","767733","0.0-158.0","9v82yq1m","","","","","","","",""
"4329.4700000000885","{""judgement"":1}","[0]","survey-likert","159","772064","0.0-159.0","9v82yq1m","","","","","","","","1"
"2390.0899999999674","{""confidence"":0}","[0]","survey-likert","160","774455","0.0-160.0","9v82yq1m","","","","","","","",""
"","","","call-function","161","774455","0.0-161.0","9v82yq1m","","","","","","","",""
"null","","","html-keyboard-response","162","775960","0.0-162.0","9v82yq1m","","<span style=""color:Black; font-size:50px;"">Agent A","null","","","","",""
"null","","","video-keyboard-response","163","778713","0.0-163.0","9v82yq1m","","","null","","Agent A","scrambled","FOR_REV_BLOBBY_STIM/713749.bmp_pp88_L2_V1.0_veridical_freeview_isoFalse_fps144_reversed_REAL.mp4",""
"null","","","html-keyboard-response","164","780217","0.0-164.0","9v82yq1m","","<span style=""color:Black; font-size:50px;"">Agent B","null","","","","",""
"null","","","video-keyboard-response","165","782966","0.0-165.0","9v82yq1m","","","null","","Agent B","veridical","FOR_REV_BLOBBY_STIM/713749.bmp_pp88_L2_V1.0_veridical_freeview_isoFalse_fps144.mp4",""
"","","","call-function","166","782966","0.0-166.0","9v82yq1m","","","","","","","",""
"2415.0050000000047","{""judgement"":1}","[0]","survey-likert","167","785382","0.0-167.0","9v82yq1m","","","","","","","","1"
"2156.070000000065","{""confidence"":2}","[0]","survey-likert","168","787539","0.0-168.0","9v82yq1m","","","","","","","",""
"23143.554999999935","","","instructions","169","810684","0.0-169.0","9v82yq1m","[{""page_index"":0,""viewing_time"":1543.954999999958},{""page_index"":1,""viewing_time"":18730.43000000005},{""page_index"":2,""viewing_time"":2869.015000000014}]","","","","","","",""
"2546.780000000028","","","instructions","170","813231","0.0-170.0","9v82yq1m","[{""page_index"":0,""viewing_time"":921.5850000000792},{""page_index"":1,""viewing_time"":939.015000000014},{""page_index"":2,""viewing_time"":685.9749999999767}]","","","","","","",""
"","","","call-function","171","813231","0.0-171.0","9v82yq1m","","","","","","","",""
"null","","","html-keyboard-response","172","814732","0.0-172.0","9v82yq1m","","<span style=""color:Black; font-size:50px;"">Agent A","null","","","","",""
"null","","","video-keyboard-response","173","817293","0.0-173.0","9v82yq1m","","","null","","Agent A","scrambled","FOR_REV_BLOBBY_STIM/1592397.bmp_pp85_L3_V1.0_veridical_freeview_isoFalse_fps144_reversed_REAL.mp4",""
"null","","","html-keyboard-response","174","818797","0.0-174.0","9v82yq1m","","<span style=""color:Black; font-size:50px;"">Agent B","null","","","","",""
"null","","","video-keyboard-response","175","821402","0.0-175.0","9v82yq1m","","","null","","Agent B","veridical","FOR_REV_BLOBBY_STIM/1592397.bmp_pp85_L3_V1.0_veridical_freeview_isoFalse_fps144.mp4",""
"","","","call-function","176","821402","0.0-176.0","9v82yq1m","","","","","","","",""
"2021.3249999999534","{""judgement"":1}","[0]","survey-likert","177","823424","0.0-177.0","9v82yq1m","","","","","","","","1"
"1503.545000000042","{""confidence"":1}","[0]","survey-likert","178","824929","0.0-178.0","9v82yq1m","","","","","","","",""
"","","","call-function","179","824929","0.0-179.0","9v82yq1m","","","","","","","",""
"null","","","html-keyboard-response","180","826433","0.0-180.0","9v82yq1m","","<span style=""color:Black; font-size:50px;"">Agent A","null","","","","",""
"null","","","video-keyboard-response","181","829191","0.0-181.0","9v82yq1m","","","null","","Agent A","veridical","FOR_REV_BLOBBY_STIM/1592804.bmp_pp91_L3_V1.0_veridical_freeview_isoFalse_fps144.mp4",""
"null","","","html-keyboard-response","182","830693","0.0-182.0","9v82yq1m","","<span style=""color:Black; font-size:50px;"">Agent B","null","","","","",""
"null","","","video-keyboard-response","183","833450","0.0-183.0","9v82yq1m","","","null","","Agent B","scrambled","FOR_REV_BLOBBY_STIM/1592804.bmp_pp91_L3_V1.0_veridical_freeview_isoFalse_fps144_reversed_REAL.mp4",""
"","","","call-function","184","833450","0.0-184.0","9v82yq1m","","","","","","","",""
"2477.034999999916","{""judgement"":0}","[0]","survey-likert","185","835928","0.0-185.0","9v82yq1m","","","","","","","","0"
"1491.9000000000233","{""confidence"":2}","[0]","survey-likert","186","837421","0.0-186.0","9v82yq1m","","","","","","","",""
"","","","call-function","187","837422","0.0-187.0","9v82yq1m","","","","","","","",""
"null","","","html-keyboard-response","188","838923","0.0-188.0","9v82yq1m","","<span style=""color:Black; font-size:50px;"">Agent A","null","","","","",""
"null","","","video-keyboard-response","189","841722","0.0-189.0","9v82yq1m","","","null","","Agent A","veridical","FOR_REV_BLOBBY_STIM/1159855.bmp_pp99_L2_V1.0_veridical_freeview_isoFalse_fps144.mp4",""
"null","","","html-keyboard-response","190","843224","0.0-190.0","9v82yq1m","","<span style=""color:Black; font-size:50px;"">Agent B","null","","","","",""
"null","","","video-keyboard-response","191","846029","0.0-191.0","9v82yq1m","","","null","","Agent B","scrambled","FOR_REV_BLOBBY_STIM/1159855.bmp_pp99_L2_V1.0_veridical_freeview_isoFalse_fps144_reversed_REAL.mp4",""
"","","","call-function","192","846030","0.0-192.0","9v82yq1m","","","","","","","",""
"3310.7050000000745","{""judgement"":1}","[0]","survey-likert","193","849341","0.0-193.0","9v82yq1m","","","","","","","","0"
"5175.189999999944","{""confidence"":0}","[0]","survey-likert","194","854518","0.0-194.0","9v82yq1m","","","","","","","",""
"","","","call-function","195","854519","0.0-195.0","9v82yq1m","","","","","","","",""
"null","","","html-keyboard-response","196","856021","0.0-196.0","9v82yq1m","","<span style=""color:Black; font-size:50px;"">Agent A","null","","","","",""
"null","","","video-keyboard-response","197","858678","0.0-197.0","9v82yq1m","","","null","","Agent A","scrambled","FOR_REV_BLOBBY_STIM/713211.bmp_pp100_L3_V1.0_veridical_freeview_isoFalse_fps144_reversed_REAL.mp4",""
"null","","","html-keyboard-response","198","860180","0.0-198.0","9v82yq1m","","<span style=""color:Black; font-size:50px;"">Agent B","null","","","","",""
"null","","","video-keyboard-response","199","862841","0.0-199.0","9v82yq1m","","","null","","Agent B","veridical","FOR_REV_BLOBBY_STIM/713211.bmp_pp100_L3_V1.0_veridical_freeview_isoFalse_fps144.mp4",""
"","","","call-function","200","862842","0.0-200.0","9v82yq1m","","","","","","","",""
"6455.890000000014","{""judgement"":1}","[0]","survey-likert","201","869299","0.0-201.0","9v82yq1m","","","","","","","","1"
"2490.0599999999395","{""confidence"":0}","[0]","survey-likert","202","871791","0.0-202.0","9v82yq1m","","","","","","","",""
"","","","call-function","203","871792","0.0-203.0","9v82yq1m","","","","","","","",""
"null","","","html-keyboard-response","204","873293","0.0-204.0","9v82yq1m","","<span style=""color:Black; font-size:50px;"">Agent A","null","","","","",""
"null","","","video-keyboard-response","205","876154","0.0-205.0","9v82yq1m","","","null","","Agent A","veridical","FOR_REV_BLOBBY_STIM/1593035.bmp_pp94_L2_V1.0_veridical_freeview_isoFalse_fps144.mp4",""
"null","","","html-keyboard-response","206","877656","0.0-206.0","9v82yq1m","","<span style=""color:Black; font-size:50px;"">Agent B","null","","","","",""
"null","","","video-keyboard-response","207","880517","0.0-207.0","9v82yq1m","","","null","","Agent B","scrambled","FOR_REV_BLOBBY_STIM/1593035.bmp_pp94_L2_V1.0_veridical_freeview_isoFalse_fps144_reversed_REAL.mp4",""
"","","","call-function","208","880517","0.0-208.0","9v82yq1m","","","","","","","",""
"2364.594999999972","{""judgement"":0}","[0]","survey-likert","209","882883","0.0-209.0","9v82yq1m","","","","","","","","0"
"2147.6750000000466","{""confidence"":1}","[0]","survey-likert","210","885032","0.0-210.0","9v82yq1m","","","","","","","",""
"","","","call-function","211","885032","0.0-211.0","9v82yq1m","","","","","","","",""
"null","","","html-keyboard-response","212","886535","0.0-212.0","9v82yq1m","","<span style=""color:Black; font-size:50px;"">Agent A","null","","","","",""
"null","","","video-keyboard-response","213","889356","0.0-213.0","9v82yq1m","","","null","","Agent A","scrambled","FOR_REV_BLOBBY_STIM/1592286.bmp_pp52_L1_V1.0_veridical_freeview_isoFalse_fps144_reversed_REAL.mp4",""
"null","","","html-keyboard-response","214","890862","0.0-214.0","9v82yq1m","","<span style=""color:Black; font-size:50px;"">Agent B","null","","","","",""
"null","","","video-keyboard-response","215","893703","0.0-215.0","9v82yq1m","","","null","","Agent B","veridical","FOR_REV_BLOBBY_STIM/1592286.bmp_pp52_L1_V1.0_veridical_freeview_isoFalse_fps144.mp4",""
"","","","call-function","216","893704","0.0-216.0","9v82yq1m","","","","","","","",""
"2297.70000000007","{""judgement"":1}","[0]","survey-likert","217","896002","0.0-217.0","9v82yq1m","","","","","","","","1"
"2372.185000000056","{""confidence"":2}","[0]","survey-likert","218","898376","0.0-218.0","9v82yq1m","","","","","","","",""
"","","","call-function","219","898377","0.0-219.0","9v82yq1m","","","","","","","",""
"null","","","html-keyboard-response","220","899878","0.0-220.0","9v82yq1m","","<span style=""color:Black; font-size:50px;"">Agent A","null","","","","",""
"null","","","video-keyboard-response","221","902697","0.0-221.0","9v82yq1m","","","null","","Agent A","veridical","FOR_REV_BLOBBY_STIM/285751.bmp_pp55_L3_V1.0_veridical_freeview_isoFalse_fps144.mp4",""
"null","","","html-keyboard-response","222","904202","0.0-222.0","9v82yq1m","","<span style=""color:Black; font-size:50px;"">Agent B","null","","","","",""
"null","","","video-keyboard-response","223","907022","0.0-223.0","9v82yq1m","","","null","","Agent B","scrambled","FOR_REV_BLOBBY_STIM/285751.bmp_pp55_L3_V1.0_veridical_freeview_isoFalse_fps144_reversed_REAL.mp4",""
"","","","call-function","224","907023","0.0-224.0","9v82yq1m","","","","","","","",""
"4147.675000000047","{""judgement"":0}","[0]","survey-likert","225","911171","0.0-225.0","9v82yq1m","","","","","","","","0"
"1837.795000000042","{""confidence"":1}","[0]","survey-likert","226","913010","0.0-226.0","9v82yq1m","","","","","","","",""
"","","","call-function","227","913010","0.0-227.0","9v82yq1m","","","","","","","",""
"null","","","html-keyboard-response","228","914515","0.0-228.0","9v82yq1m","","<span style=""color:Black; font-size:50px;"">Agent A","null","","","","",""
"null","","","video-keyboard-response","229","917116","0.0-229.0","9v82yq1m","","","null","","Agent A","veridical","FOR_REV_BLOBBY_STIM/286001.bmp_pp54_L2_V1.0_veridical_freeview_isoFalse_fps144.mp4",""
"null","","","html-keyboard-response","230","918619","0.0-230.0","9v82yq1m","","<span style=""color:Black; font-size:50px;"">Agent B","null","","","","",""
"null","","","video-keyboard-response","231","921223","0.0-231.0","9v82yq1m","","","null","","Agent B","scrambled","FOR_REV_BLOBBY_STIM/286001.bmp_pp54_L2_V1.0_veridical_freeview_isoFalse_fps144_reversed_REAL.mp4",""
"","","","call-function","232","921223","0.0-232.0","9v82yq1m","","","","","","","",""
"1645.9249999999302","{""judgement"":0}","[0]","survey-likert","233","922870","0.0-233.0","9v82yq1m","","","","","","","","0"
"1926.530000000028","{""confidence"":2}","[0]","survey-likert","234","924798","0.0-234.0","9v82yq1m","","","","","","","",""
"","","","call-function","235","924798","0.0-235.0","9v82yq1m","","","","","","","",""
"null","","","html-keyboard-response","236","926300","0.0-236.0","9v82yq1m","","<span style=""color:Black; font-size:50px;"">Agent A","null","","","","",""
"null","","","video-keyboard-response","237","928840","0.0-237.0","9v82yq1m","","","null","","Agent A","veridical","FOR_REV_BLOBBY_STIM/713760.bmp_pp81_L1_V1.0_veridical_freeview_isoFalse_fps144.mp4",""
"null","","","html-keyboard-response","238","930344","0.0-238.0","9v82yq1m","","<span style=""color:Black; font-size:50px;"">Agent B","null","","","","",""
"null","","","video-keyboard-response","239","932908","0.0-239.0","9v82yq1m","","","null","","Agent B","scrambled","FOR_REV_BLOBBY_STIM/713760.bmp_pp81_L1_V1.0_veridical_freeview_isoFalse_fps144_reversed_REAL.mp4",""
"","","","call-function","240","932908","0.0-240.0","9v82yq1m","","","","","","","",""
"2183.954999999958","{""judgement"":0}","[0]","survey-likert","241","935093","0.0-241.0","9v82yq1m","","","","","","","","0"
"1594.9149999999208","{""confidence"":1}","[0]","survey-likert","242","936689","0.0-242.0","9v82yq1m","","","","","","","",""
"","","","call-function","243","936689","0.0-243.0","9v82yq1m","","","","","","","",""
"null","","","html-keyboard-response","244","938195","0.0-244.0","9v82yq1m","","<span style=""color:Black; font-size:50px;"">Agent A","null","","","","",""
"null","","","video-keyboard-response","245","940965","0.0-245.0","9v82yq1m","","","null","","Agent A","scrambled","FOR_REV_BLOBBY_STIM/1591994.bmp_pp69_L3_V1.0_veridical_freeview_isoFalse_fps144_reversed_REAL.mp4",""
"null","","","html-keyboard-response","246","942472","0.0-246.0","9v82yq1m","","<span style=""color:Black; font-size:50px;"">Agent B","null","","","","",""
"null","","","video-keyboard-response","247","945246","0.0-247.0","9v82yq1m","","","null","","Agent B","veridical","FOR_REV_BLOBBY_STIM/1591994.bmp_pp69_L3_V1.0_veridical_freeview_isoFalse_fps144.mp4",""
"","","","call-function","248","945246","0.0-248.0","9v82yq1m","","","","","","","",""
"2606.1350000000093","{""judgement"":0}","[0]","survey-likert","249","947853","0.0-249.0","9v82yq1m","","","","","","","","1"
"1816.4250000000466","{""confidence"":1}","[0]","survey-likert","250","949670","0.0-250.0","9v82yq1m","","","","","","","",""
"2427.8499999999767","","","instructions","251","952099","0.0-251.0","9v82yq1m","[{""page_index"":0,""viewing_time"":1035.7550000000047},{""page_index"":1,""viewing_time"":961.9450000000652},{""page_index"":2,""viewing_time"":430.00499999988824}]","","","","","","",""
"1909.7000000000698","","","instructions","252","954009","0.0-252.0","9v82yq1m","[{""page_index"":0,""viewing_time"":666.5500000000466},{""page_index"":1,""viewing_time"":740.0849999999627},{""page_index"":2,""viewing_time"":502.9650000000838}]","","","","","","",""
"","","","call-function","253","954009","0.0-253.0","9v82yq1m","","","","","","","",""
"null","","","html-keyboard-response","254","955513","0.0-254.0","9v82yq1m","","<span style=""color:Black; font-size:50px;"">Agent A","null","","","","",""
"null","","","video-keyboard-response","255","958189","0.0-255.0","9v82yq1m","","","null","","Agent A","scrambled","FOR_REV_BLOBBY_STIM/1592727.bmp_pp59_L3_V1.0_veridical_freeview_isoFalse_fps144_reversed_REAL.mp4",""
"null","","","html-keyboard-response","256","959692","0.0-256.0","9v82yq1m","","<span style=""color:Black; font-size:50px;"">Agent B","null","","","","",""
"null","","","video-keyboard-response","257","962391","0.0-257.0","9v82yq1m","","","null","","Agent B","veridical","FOR_REV_BLOBBY_STIM/1592727.bmp_pp59_L3_V1.0_veridical_freeview_isoFalse_fps144.mp4",""
"","","","call-function","258","962392","0.0-258.0","9v82yq1m","","","","","","","",""
"2064.534999999916","{""judgement"":1}","[0]","survey-likert","259","964457","0.0-259.0","9v82yq1m","","","","","","","","1"
"1760.984999999986","{""confidence"":1}","[0]","survey-likert","260","966220","0.0-260.0","9v82yq1m","","","","","","","",""
"","","","call-function","261","966221","0.0-261.0","9v82yq1m","","","","","","","",""
"null","","","html-keyboard-response","262","967723","0.0-262.0","9v82yq1m","","<span style=""color:Black; font-size:50px;"">Agent A","null","","","","",""
"null","","","video-keyboard-response","263","970534","0.0-263.0","9v82yq1m","","","null","","Agent A","veridical","FOR_REV_BLOBBY_STIM/712977.bmp_pp51_L1_V1.0_veridical_freeview_isoFalse_fps144.mp4",""
"null","","","html-keyboard-response","264","972036","0.0-264.0","9v82yq1m","","<span style=""color:Black; font-size:50px;"">Agent B","null","","","","",""
"null","","","video-keyboard-response","265","974852","0.0-265.0","9v82yq1m","","","null","","Agent B","scrambled","FOR_REV_BLOBBY_STIM/712977.bmp_pp51_L1_V1.0_veridical_freeview_isoFalse_fps144_reversed_REAL.mp4",""
"","","","call-function","266","974852","0.0-266.0","9v82yq1m","","","","","","","",""
"2107.140000000014","{""judgement"":0}","[0]","survey-likert","267","976960","0.0-267.0","9v82yq1m","","","","","","","","0"
"1430.9099999999162","{""confidence"":2}","[0]","survey-likert","268","978393","0.0-268.0","9v82yq1m","","","","","","","",""
"","","","call-function","269","978393","0.0-269.0","9v82yq1m","","","","","","","",""
"null","","","html-keyboard-response","270","979895","0.0-270.0","9v82yq1m","","<span style=""color:Black; font-size:50px;"">Agent A","null","","","","",""
"null","","","video-keyboard-response","271","982525","0.0-271.0","9v82yq1m","","","null","","Agent A","veridical","FOR_REV_BLOBBY_STIM/498149.bmp_pp99_L2_V1.0_veridical_freeview_isoFalse_fps144.mp4",""
"null","","","html-keyboard-response","272","984030","0.0-272.0","9v82yq1m","","<span style=""color:Black; font-size:50px;"">Agent B","null","","","","",""
"null","","","video-keyboard-response","273","986685","0.0-273.0","9v82yq1m","","","null","","Agent B","scrambled","FOR_REV_BLOBBY_STIM/498149.bmp_pp99_L2_V1.0_veridical_freeview_isoFalse_fps144_reversed_REAL.mp4",""
"","","","call-function","274","986686","0.0-274.0","9v82yq1m","","","","","","","",""
"3173","{""judgement"":0}","[0]","survey-likert","275","989860","0.0-275.0","9v82yq1m","","","","","","","","0"
"1961.1350000000093","{""confidence"":1}","[0]","survey-likert","276","991822","0.0-276.0","9v82yq1m","","","","","","","",""
"","","","call-function","277","991822","0.0-277.0","9v82yq1m","","","","","","","",""
"null","","","html-keyboard-response","278","993329","0.0-278.0","9v82yq1m","","<span style=""color:Black; font-size:50px;"">Agent A","null","","","","",""
"null","","","video-keyboard-response","279","996135","0.0-279.0","9v82yq1m","","","null","","Agent A","veridical","FOR_REV_BLOBBY_STIM/713620.bmp_pp65_L3_V1.0_veridical_freeview_isoFalse_fps144.mp4",""
"null","","","html-keyboard-response","280","997641","0.0-280.0","9v82yq1m","","<span style=""color:Black; font-size:50px;"">Agent B","null","","","","",""
"null","","","video-keyboard-response","281","1000441","0.0-281.0","9v82yq1m","","","null","","Agent B","scrambled","FOR_REV_BLOBBY_STIM/713620.bmp_pp65_L3_V1.0_veridical_freeview_isoFalse_fps144_reversed_REAL.mp4",""
"","","","call-function","282","1000441","0.0-282.0","9v82yq1m","","","","","","","",""
"2579.0849999999627","{""judgement"":0}","[0]","survey-likert","283","1003021","0.0-283.0","9v82yq1m","","","","","","","","0"
"1807.9749999999767","{""confidence"":1}","[0]","survey-likert","284","1004830","0.0-284.0","9v82yq1m","","","","","","","",""
"","","","call-function","285","1004831","0.0-285.0","9v82yq1m","","","","","","","",""
"null","","","html-keyboard-response","286","1006335","0.0-286.0","9v82yq1m","","<span style=""color:Black; font-size:50px;"">Agent A","null","","","","",""
"null","","","video-keyboard-response","287","1009127","0.0-287.0","9v82yq1m","","","null","","Agent A","scrambled","FOR_REV_BLOBBY_STIM/1159621.bmp_pp92_L3_V1.0_veridical_freeview_isoFalse_fps144_reversed_REAL.mp4",""
"null","","","html-keyboard-response","288","1010628","0.0-288.0","9v82yq1m","","<span style=""color:Black; font-size:50px;"">Agent B","null","","","","",""
"null","","","video-keyboard-response","289","1013423","0.0-289.0","9v82yq1m","","","null","","Agent B","veridical","FOR_REV_BLOBBY_STIM/1159621.bmp_pp92_L3_V1.0_veridical_freeview_isoFalse_fps144.mp4",""
"","","","call-function","290","1013423","0.0-290.0","9v82yq1m","","","","","","","",""
"2547.1900000000605","{""judgement"":1}","[0]","survey-likert","291","1015971","0.0-291.0","9v82yq1m","","","","","","","","1"
"2446.9349999999395","{""confidence"":2}","[0]","survey-likert","292","1018419","0.0-292.0","9v82yq1m","","","","","","","",""
"","","","call-function","293","1018420","0.0-293.0","9v82yq1m","","","","","","","",""
"null","","","html-keyboard-response","294","1019925","0.0-294.0","9v82yq1m","","<span style=""color:Black; font-size:50px;"">Agent A","null","","","","",""
"null","","","video-keyboard-response","295","1022606","0.0-295.0","9v82yq1m","","","null","","Agent A","scrambled","FOR_REV_BLOBBY_STIM/1592372.bmp_pp76_L1_V1.0_veridical_freeview_isoFalse_fps144_reversed_REAL.mp4",""
"null","","","html-keyboard-response","296","1024110","0.0-296.0","9v82yq1m","","<span style=""color:Black; font-size:50px;"">Agent B","null","","","","",""
"null","","","video-keyboard-response","297","1026843","0.0-297.0","9v82yq1m","","","null","","Agent B","veridical","FOR_REV_BLOBBY_STIM/1592372.bmp_pp76_L1_V1.0_veridical_freeview_isoFalse_fps144.mp4",""
"","","","call-function","298","1026844","0.0-298.0","9v82yq1m","","","","","","","",""
"2365.79999999993","{""judgement"":0}","[0]","survey-likert","299","1029210","0.0-299.0","9v82yq1m","","","","","","","","1"
"1657.329999999958","{""confidence"":1}","[0]","survey-likert","300","1030869","0.0-300.0","9v82yq1m","","","","","","","",""
"","","","call-function","301","1030869","0.0-301.0","9v82yq1m","","","","","","","",""
"null","","","html-keyboard-response","302","1032372","0.0-302.0","9v82yq1m","","<span style=""color:Black; font-size:50px;"">Agent A","null","","","","",""
"null","","","video-keyboard-response","303","1035092","0.0-303.0","9v82yq1m","","","null","","Agent A","veridical","FOR_REV_BLOBBY_STIM/498111.bmp_pp88_L2_V1.0_veridical_freeview_isoFalse_fps144.mp4",""
"null","","","html-keyboard-response","304","1036595","0.0-304.0","9v82yq1m","","<span style=""color:Black; font-size:50px;"">Agent B","null","","","","",""
"null","","","video-keyboard-response","305","1039334","0.0-305.0","9v82yq1m","","","null","","Agent B","scrambled","FOR_REV_BLOBBY_STIM/498111.bmp_pp88_L2_V1.0_veridical_freeview_isoFalse_fps144_reversed_REAL.mp4",""
"","","","call-function","306","1039334","0.0-306.0","9v82yq1m","","","","","","","",""
"2134.2050000000745","{""judgement"":1}","[0]","survey-likert","307","1041469","0.0-307.0","9v82yq1m","","","","","","","","0"
"1328.6149999999907","{""confidence"":2}","[0]","survey-likert","308","1042799","0.0-308.0","9v82yq1m","","","","","","","",""
"","","","call-function","309","1042799","0.0-309.0","9v82yq1m","","","","","","","",""
"null","","","html-keyboard-response","310","1044302","0.0-310.0","9v82yq1m","","<span style=""color:Black; font-size:50px;"">Agent A","null","","","","",""
"null","","","video-keyboard-response","311","1047123","0.0-311.0","9v82yq1m","","","null","","Agent A","scrambled","FOR_REV_BLOBBY_STIM/1592657.bmp_pp98_L1_V1.0_veridical_freeview_isoFalse_fps144_reversed_REAL.mp4",""
"null","","","html-keyboard-response","312","1048629","0.0-312.0","9v82yq1m","","<span style=""color:Black; font-size:50px;"">Agent B","null","","","","",""
"null","","","video-keyboard-response","313","1051476","0.0-313.0","9v82yq1m","","","null","","Agent B","veridical","FOR_REV_BLOBBY_STIM/1592657.bmp_pp98_L1_V1.0_veridical_freeview_isoFalse_fps144.mp4",""
"","","","call-function","314","1051476","0.0-314.0","9v82yq1m","","","","","","","",""
"1532.594999999972","{""judgement"":1}","[0]","survey-likert","315","1053009","0.0-315.0","9v82yq1m","","","","","","","","1"
"1407.2150000000838","{""confidence"":2}","[0]","survey-likert","316","1054418","0.0-316.0","9v82yq1m","","","","","","","",""
"","","","call-function","317","1054418","0.0-317.0","9v82yq1m","","","","","","","",""
"null","","","html-keyboard-response","318","1055922","0.0-318.0","9v82yq1m","","<span style=""color:Black; font-size:50px;"">Agent A","null","","","","",""
"null","","","video-keyboard-response","319","1058664","0.0-319.0","9v82yq1m","","","null","","Agent A","scrambled","FOR_REV_BLOBBY_STIM/1159446.bmp_pp60_L3_V1.0_veridical_freeview_isoFalse_fps144_reversed_REAL.mp4",""
"null","","","html-keyboard-response","320","1060167","0.0-320.0","9v82yq1m","","<span style=""color:Black; font-size:50px;"">Agent B","null","","","","",""
"null","","","video-keyboard-response","321","1062915","0.0-321.0","9v82yq1m","","","null","","Agent B","veridical","FOR_REV_BLOBBY_STIM/1159446.bmp_pp60_L3_V1.0_veridical_freeview_isoFalse_fps144.mp4",""
"","","","call-function","322","1062916","0.0-322.0","9v82yq1m","","","","","","","",""
"2219.0800000000745","{""judgement"":1}","[0]","survey-likert","323","1065136","0.0-323.0","9v82yq1m","","","","","","","","1"
"1356.219999999972","{""confidence"":2}","[0]","survey-likert","324","1066493","0.0-324.0","9v82yq1m","","","","","","","",""
"","","","call-function","325","1066494","0.0-325.0","9v82yq1m","","","","","","","",""
"null","","","html-keyboard-response","326","1067997","0.0-326.0","9v82yq1m","","<span style=""color:Black; font-size:50px;"">Agent A","null","","","","",""
"null","","","video-keyboard-response","327","1070820","0.0-327.0","9v82yq1m","","","null","","Agent A","scrambled","FOR_REV_BLOBBY_STIM/498175.bmp_pp154_L1_V1.0_veridical_freeview_isoFalse_fps144_reversed_REAL.mp4",""
"null","","","html-keyboard-response","328","1072326","0.0-328.0","9v82yq1m","","<span style=""color:Black; font-size:50px;"">Agent B","null","","","","",""
"null","","","video-keyboard-response","329","1075152","0.0-329.0","9v82yq1m","","","null","","Agent B","veridical","FOR_REV_BLOBBY_STIM/498175.bmp_pp154_L1_V1.0_veridical_freeview_isoFalse_fps144.mp4",""
"","","","call-function","330","1075153","0.0-330.0","9v82yq1m","","","","","","","",""
"2000.9799999999814","{""judgement"":1}","[0]","survey-likert","331","1077156","0.0-331.0","9v82yq1m","","","","","","","","1"
"2634.5999999998603","{""confidence"":2}","[0]","survey-likert","332","1079792","0.0-332.0","9v82yq1m","","","","","","","",""
"30819.909999999916","","","instructions","333","1110612","0.0-333.0","9v82yq1m","[{""page_index"":0,""viewing_time"":29309.25499999989},{""page_index"":1,""viewing_time"":855.5850000001956},{""page_index"":2,""viewing_time"":654.9149999998044}]","","","","","","",""
"2069.4849999998696","","","instructions","334","1112683","0.0-334.0","9v82yq1m","[{""page_index"":0,""viewing_time"":661.3549999999814},{""page_index"":1,""viewing_time"":824.1299999998882},{""page_index"":2,""viewing_time"":583.9000000001397}]","","","","","","",""
"","","","call-function","335","1112684","0.0-335.0","9v82yq1m","","","","","","","",""
"null","","","html-keyboard-response","336","1114186","0.0-336.0","9v82yq1m","","<span style=""color:Black; font-size:50px;"">Agent A","null","","","","",""
"null","","","video-keyboard-response","337","1116795","0.0-337.0","9v82yq1m","","","null","","Agent A","scrambled","FOR_REV_BLOBBY_STIM/61537.bmp_pp73_L3_V1.0_veridical_freeview_isoFalse_fps144_reversed_REAL.mp4",""
"null","","","html-keyboard-response","338","1118299","0.0-338.0","9v82yq1m","","<span style=""color:Black; font-size:50px;"">Agent B","null","","","","",""
"null","","","video-keyboard-response","339","1120907","0.0-339.0","9v82yq1m","","","null","","Agent B","veridical","FOR_REV_BLOBBY_STIM/61537.bmp_pp73_L3_V1.0_veridical_freeview_isoFalse_fps144.mp4",""
"","","","call-function","340","1120907","0.0-340.0","9v82yq1m","","","","","","","",""
"2298.719999999972","{""judgement"":1}","[0]","survey-likert","341","1123207","0.0-341.0","9v82yq1m","","","","","","","","1"
"2109.350000000093","{""confidence"":2}","[0]","survey-likert","342","1125318","0.0-342.0","9v82yq1m","","","","","","","",""
"","","","call-function","343","1125318","0.0-343.0","9v82yq1m","","","","","","","",""
"null","","","html-keyboard-response","344","1126822","0.0-344.0","9v82yq1m","","<span style=""color:Black; font-size:50px;"">Agent A","null","","","","",""
"null","","","video-keyboard-response","345","1129697","0.0-345.0","9v82yq1m","","","null","","Agent A","veridical","FOR_REV_BLOBBY_STIM/713089.bmp_pp60_L3_V1.0_veridical_freeview_isoFalse_fps144.mp4",""
"null","","","html-keyboard-response","346","1131199","0.0-346.0","9v82yq1m","","<span style=""color:Black; font-size:50px;"">Agent B","null","","","","",""
"null","","","video-keyboard-response","347","1134057","0.0-347.0","9v82yq1m","","","null","","Agent B","scrambled","FOR_REV_BLOBBY_STIM/713089.bmp_pp60_L3_V1.0_veridical_freeview_isoFalse_fps144_reversed_REAL.mp4",""
"","","","call-function","348","1134058","0.0-348.0","9v82yq1m","","","","","","","",""
"2304.8299999998417","{""judgement"":0}","[0]","survey-likert","349","1136363","0.0-349.0","9v82yq1m","","","","","","","","0"
"3113.064999999944","{""confidence"":3}","[0]","survey-likert","350","1139478","0.0-350.0","9v82yq1m","","","","","","","",""
"","","","call-function","351","1139478","0.0-351.0","9v82yq1m","","","","","","","",""
"null","","","html-keyboard-response","352","1140982","0.0-352.0","9v82yq1m","","<span style=""color:Black; font-size:50px;"">Agent A","null","","","","",""
"null","","","video-keyboard-response","353","1143765","0.0-353.0","9v82yq1m","","","null","","Agent A","veridical","FOR_REV_BLOBBY_STIM/498155.bmp_pp61_L2_V1.0_veridical_freeview_isoFalse_fps144.mp4",""
"null","","","html-keyboard-response","354","1145267","0.0-354.0","9v82yq1m","","<span style=""color:Black; font-size:50px;"">Agent B","null","","","","",""
"null","","","video-keyboard-response","355","1148044","0.0-355.0","9v82yq1m","","","null","","Agent B","scrambled","FOR_REV_BLOBBY_STIM/498155.bmp_pp61_L2_V1.0_veridical_freeview_isoFalse_fps144_reversed_REAL.mp4",""
"","","","call-function","356","1148044","0.0-356.0","9v82yq1m","","","","","","","",""
"2500.155000000028","{""judgement"":1}","[0]","survey-likert","357","1150545","0.0-357.0","9v82yq1m","","","","","","","","0"
"1391.5400000000373","{""confidence"":1}","[0]","survey-likert","358","1151938","0.0-358.0","9v82yq1m","","","","","","","",""
"","","","call-function","359","1151938","0.0-359.0","9v82yq1m","","","","","","","",""
"null","","","html-keyboard-response","360","1153440","0.0-360.0","9v82yq1m","","<span style=""color:Black; font-size:50px;"">Agent A","null","","","","",""
"null","","","video-keyboard-response","361","1156146","0.0-361.0","9v82yq1m","","","null","","Agent A","veridical","FOR_REV_BLOBBY_STIM/285994.bmp_pp92_L3_V1.0_veridical_freeview_isoFalse_fps144.mp4",""
"null","","","html-keyboard-response","362","1157648","0.0-362.0","9v82yq1m","","<span style=""color:Black; font-size:50px;"">Agent B","null","","","","",""
"null","","","video-keyboard-response","363","1160356","0.0-363.0","9v82yq1m","","","null","","Agent B","scrambled","FOR_REV_BLOBBY_STIM/285994.bmp_pp92_L3_V1.0_veridical_freeview_isoFalse_fps144_reversed_REAL.mp4",""
"","","","call-function","364","1160356","0.0-364.0","9v82yq1m","","","","","","","",""
"1537.6699999999255","{""judgement"":0}","[0]","survey-likert","365","1161895","0.0-365.0","9v82yq1m","","","","","","","","0"
"1425.6750000000466","{""confidence"":0}","[0]","survey-likert","366","1163321","0.0-366.0","9v82yq1m","","","","","","","",""
"","","","call-function","367","1163322","0.0-367.0","9v82yq1m","","","","","","","",""
"null","","","html-keyboard-response","368","1164827","0.0-368.0","9v82yq1m","","<span style=""color:Black; font-size:50px;"">Agent A","null","","","","",""
"null","","","video-keyboard-response","369","1167641","0.0-369.0","9v82yq1m","","","null","","Agent A","veridical","FOR_REV_BLOBBY_STIM/713681.bmp_pp86_L2_V1.0_veridical_freeview_isoFalse_fps144.mp4",""
"null","","","html-keyboard-response","370","1169144","0.0-370.0","9v82yq1m","","<span style=""color:Black; font-size:50px;"">Agent B","null","","","","",""
"null","","","video-keyboard-response","371","1171959","0.0-371.0","9v82yq1m","","","null","","Agent B","scrambled","FOR_REV_BLOBBY_STIM/713681.bmp_pp86_L2_V1.0_veridical_freeview_isoFalse_fps144_reversed_REAL.mp4",""
"","","","call-function","372","1171959","0.0-372.0","9v82yq1m","","","","","","","",""
"1932.089999999851","{""judgement"":0}","[0]","survey-likert","373","1173892","0.0-373.0","9v82yq1m","","","","","","","","0"
"2023.1699999999255","{""confidence"":1}","[0]","survey-likert","374","1175917","0.0-374.0","9v82yq1m","","","","","","","",""
"","","","call-function","375","1175917","0.0-375.0","9v82yq1m","","","","","","","",""
"null","","","html-keyboard-response","376","1177419","0.0-376.0","9v82yq1m","","<span style=""color:Black; font-size:50px;"">Agent A","null","","","","",""
"null","","","video-keyboard-response","377","1179946","0.0-377.0","9v82yq1m","","","null","","Agent A","veridical","FOR_REV_BLOBBY_STIM/1591876.bmp_pp63_L1_V1.0_veridical_freeview_isoFalse_fps144.mp4",""
"null","","","html-keyboard-response","378","1181452","0.0-378.0","9v82yq1m","","<span style=""color:Black; font-size:50px;"">Agent B","null","","","","",""
"null","","","video-keyboard-response","379","1183980","0.0-379.0","9v82yq1m","","","null","","Agent B","scrambled","FOR_REV_BLOBBY_STIM/1591876.bmp_pp63_L1_V1.0_veridical_freeview_isoFalse_fps144_reversed_REAL.mp4",""
"","","","call-function","380","1183980","0.0-380.0","9v82yq1m","","","","","","","",""
"1583.155000000028","{""judgement"":0}","[0]","survey-likert","381","1185564","0.0-381.0","9v82yq1m","","","","","","","","0"
"1447.2099999999627","{""confidence"":1}","[0]","survey-likert","382","1187013","0.0-382.0","9v82yq1m","","","","","","","",""
"","","","call-function","383","1187013","0.0-383.0","9v82yq1m","","","","","","","",""
"null","","","html-keyboard-response","384","1188514","0.0-384.0","9v82yq1m","","<span style=""color:Black; font-size:50px;"">Agent A","null","","","","",""
"null","","","video-keyboard-response","385","1191360","0.0-385.0","9v82yq1m","","","null","","Agent A","veridical","FOR_REV_BLOBBY_STIM/713593.bmp_pp64_L1_V1.0_veridical_freeview_isoFalse_fps144.mp4",""
"null","","","html-keyboard-response","386","1192862","0.0-386.0","9v82yq1m","","<span style=""color:Black; font-size:50px;"">Agent B","null","","","","",""
"null","","","video-keyboard-response","387","1195681","0.0-387.0","9v82yq1m","","","null","","Agent B","scrambled","FOR_REV_BLOBBY_STIM/713593.bmp_pp64_L1_V1.0_veridical_freeview_isoFalse_fps144_reversed_REAL.mp4",""
"","","","call-function","388","1195681","0.0-388.0","9v82yq1m","","","","","","","",""
"1902.375","{""judgement"":0}","[0]","survey-likert","389","1197584","0.0-389.0","9v82yq1m","","","","","","","","0"
"1498.3349999999627","{""confidence"":2}","[0]","survey-likert","390","1199084","0.0-390.0","9v82yq1m","","","","","","","",""
"","","","call-function","391","1199084","0.0-391.0","9v82yq1m","","","","","","","",""
"null","","","html-keyboard-response","392","1200589","0.0-392.0","9v82yq1m","","<span style=""color:Black; font-size:50px;"">Agent A","null","","","","",""
"null","","","video-keyboard-response","393","1203423","0.0-393.0","9v82yq1m","","","null","","Agent A","veridical","FOR_REV_BLOBBY_STIM/1160127.bmp_pp90_L2_V1.0_veridical_freeview_isoFalse_fps144.mp4",""
"null","","","html-keyboard-response","394","1204925","0.0-394.0","9v82yq1m","","<span style=""color:Black; font-size:50px;"">Agent B","null","","","","",""
"null","","","video-keyboard-response","395","1207788","0.0-395.0","9v82yq1m","","","null","","Agent B","scrambled","FOR_REV_BLOBBY_STIM/1160127.bmp_pp90_L2_V1.0_veridical_freeview_isoFalse_fps144_reversed_REAL.mp4",""
"","","","call-function","396","1207788","0.0-396.0","9v82yq1m","","","","","","","",""
"3235.155000000028","{""judgement"":0}","[0]","survey-likert","397","1211025","0.0-397.0","9v82yq1m","","","","","","","","0"
"1596.7399999999907","{""confidence"":0}","[0]","survey-likert","398","1212622","0.0-398.0","9v82yq1m","","","","","","","",""
"","","","call-function","399","1212623","0.0-399.0","9v82yq1m","","","","","","","",""
"null","","","html-keyboard-response","400","1214125","0.0-400.0","9v82yq1m","","<span style=""color:Black; font-size:50px;"">Agent A","null","","","","",""
"null","","","video-keyboard-response","401","1216992","0.0-401.0","9v82yq1m","","","null","","Agent A","veridical","FOR_REV_BLOBBY_STIM/713017.bmp_pp152_L2_V1.0_veridical_freeview_isoFalse_fps144.mp4",""
"null","","","html-keyboard-response","402","1218495","0.0-402.0","9v82yq1m","","<span style=""color:Black; font-size:50px;"">Agent B","null","","","","",""
"null","","","video-keyboard-response","403","1221361","0.0-403.0","9v82yq1m","","","null","","Agent B","scrambled","FOR_REV_BLOBBY_STIM/713017.bmp_pp152_L2_V1.0_veridical_freeview_isoFalse_fps144_reversed_REAL.mp4",""
"","","","call-function","404","1221362","0.0-404.0","9v82yq1m","","","","","","","",""
"1493.6750000000466","{""judgement"":0}","[0]","survey-likert","405","1222856","0.0-405.0","9v82yq1m","","","","","","","","0"
"1798.1000000000931","{""confidence"":1}","[0]","survey-likert","406","1224655","0.0-406.0","9v82yq1m","","","","","","","",""
"","","","call-function","407","1224656","0.0-407.0","9v82yq1m","","","","","","","",""
"null","","","html-keyboard-response","408","1226158","0.0-408.0","9v82yq1m","","<span style=""color:Black; font-size:50px;"">Agent A","null","","","","",""
"null","","","video-keyboard-response","409","1229003","0.0-409.0","9v82yq1m","","","null","","Agent A","scrambled","FOR_REV_BLOBBY_STIM/713371.bmp_pp68_L1_V1.0_veridical_freeview_isoFalse_fps144_reversed_REAL.mp4",""
"null","","","html-keyboard-response","410","1230506","0.0-410.0","9v82yq1m","","<span style=""color:Black; font-size:50px;"">Agent B","null","","","","",""
"null","","","video-keyboard-response","411","1233348","0.0-411.0","9v82yq1m","","","null","","Agent B","veridical","FOR_REV_BLOBBY_STIM/713371.bmp_pp68_L1_V1.0_veridical_freeview_isoFalse_fps144.mp4",""
"","","","call-function","412","1233350","0.0-412.0","9v82yq1m","","","","","","","",""
"2069.4850000001024","{""judgement"":1}","[0]","survey-likert","413","1235421","0.0-413.0","9v82yq1m","","","","","","","","1"
"1279.3999999999069","{""confidence"":2}","[0]","survey-likert","414","1236702","0.0-414.0","9v82yq1m","","","","","","","",""
"34393.58499999996","","","instructions","415","1271097","0.0-415.0","9v82yq1m","[{""page_index"":0,""viewing_time"":1696.0100000000093},{""page_index"":1,""viewing_time"":31184.949999999953},{""page_index"":2,""viewing_time"":1512.469999999972}]","","","","","","",""
"2610.5800000000745","","","instructions","416","1273708","0.0-416.0","9v82yq1m","[{""page_index"":0,""viewing_time"":1067.5600000000559},{""page_index"":1,""viewing_time"":841.9749999998603},{""page_index"":2,""viewing_time"":700.940000000177}]","","","","","","",""
"","","","call-function","417","1273709","0.0-417.0","9v82yq1m","","","","","","","",""
"null","","","html-keyboard-response","418","1275211","0.0-418.0","9v82yq1m","","<span style=""color:Black; font-size:50px;"">Agent A","null","","","","",""
"null","","","video-keyboard-response","419","1278022","0.0-419.0","9v82yq1m","","","null","","Agent A","veridical","FOR_REV_BLOBBY_STIM/1159675.bmp_pp77_L3_V1.0_veridical_freeview_isoFalse_fps144.mp4",""
"null","","","html-keyboard-response","420","1279524","0.0-420.0","9v82yq1m","","<span style=""color:Black; font-size:50px;"">Agent B","null","","","","",""
"null","","","video-keyboard-response","421","1282336","0.0-421.0","9v82yq1m","","","null","","Agent B","scrambled","FOR_REV_BLOBBY_STIM/1159675.bmp_pp77_L3_V1.0_veridical_freeview_isoFalse_fps144_reversed_REAL.mp4",""
"","","","call-function","422","1282336","0.0-422.0","9v82yq1m","","","","","","","",""
"1641.6999999999534","{""judgement"":0}","[0]","survey-likert","423","1283979","0.0-423.0","9v82yq1m","","","","","","","","0"
"2760.1450000000186","{""confidence"":3}","[0]","survey-likert","424","1286741","0.0-424.0","9v82yq1m","","","","","","","",""
"","","","call-function","425","1286741","0.0-425.0","9v82yq1m","","","","","","","",""
"null","","","html-keyboard-response","426","1288242","0.0-426.0","9v82yq1m","","<span style=""color:Black; font-size:50px;"">Agent A","null","","","","",""
"null","","","video-keyboard-response","427","1290824","0.0-427.0","9v82yq1m","","","null","","Agent A","scrambled","FOR_REV_BLOBBY_STIM/1593146.bmp_pp93_L1_V1.0_veridical_freeview_isoFalse_fps144_reversed_REAL.mp4",""
"null","","","html-keyboard-response","428","1292329","0.0-428.0","9v82yq1m","","<span style=""color:Black; font-size:50px;"">Agent B","null","","","","",""
"null","","","video-keyboard-response","429","1294911","0.0-429.0","9v82yq1m","","","null","","Agent B","veridical","FOR_REV_BLOBBY_STIM/1593146.bmp_pp93_L1_V1.0_veridical_freeview_isoFalse_fps144.mp4",""
"","","","call-function","430","1294912","0.0-430.0","9v82yq1m","","","","","","","",""
"2043.875","{""judgement"":1}","[0]","survey-likert","431","1296957","0.0-431.0","9v82yq1m","","","","","","","","1"
"1434.0750000001863","{""confidence"":2}","[0]","survey-likert","432","1298392","0.0-432.0","9v82yq1m","","","","","","","",""
"","","","call-function","433","1298392","0.0-433.0","9v82yq1m","","","","","","","",""
"null","","","html-keyboard-response","434","1299898","0.0-434.0","9v82yq1m","","<span style=""color:Black; font-size:50px;"">Agent A","null","","","","",""
"null","","","video-keyboard-response","435","1302717","0.0-435.0","9v82yq1m","","","null","","Agent A","veridical","FOR_REV_BLOBBY_STIM/1159440.bmp_pp98_L1_V1.0_veridical_freeview_isoFalse_fps144.mp4",""
"null","","","html-keyboard-response","436","1304223","0.0-436.0","9v82yq1m","","<span style=""color:Black; font-size:50px;"">Agent B","null","","","","",""
"null","","","video-keyboard-response","437","1307042","0.0-437.0","9v82yq1m","","","null","","Agent B","scrambled","FOR_REV_BLOBBY_STIM/1159440.bmp_pp98_L1_V1.0_veridical_freeview_isoFalse_fps144_reversed_REAL.mp4",""
"","","","call-function","438","1307042","0.0-438.0","9v82yq1m","","","","","","","",""
"1907.339999999851","{""judgement"":0}","[0]","survey-likert","439","1308950","0.0-439.0","9v82yq1m","","","","","","","","0"
"1380.1350000000093","{""confidence"":1}","[0]","survey-likert","440","1310332","0.0-440.0","9v82yq1m","","","","","","","",""
"","","","call-function","441","1310332","0.0-441.0","9v82yq1m","","","","","","","",""
"null","","","html-keyboard-response","442","1311833","0.0-442.0","9v82yq1m","","<span style=""color:Black; font-size:50px;"">Agent A","null","","","","",""
"null","","","video-keyboard-response","443","1314644","0.0-443.0","9v82yq1m","","","null","","Agent A","veridical","FOR_REV_BLOBBY_STIM/1592351.bmp_pp51_L1_V1.0_veridical_freeview_isoFalse_fps144.mp4",""
"null","","","html-keyboard-response","444","1316146","0.0-444.0","9v82yq1m","","<span style=""color:Black; font-size:50px;"">Agent B","null","","","","",""
"null","","","video-keyboard-response","445","1318959","0.0-445.0","9v82yq1m","","","null","","Agent B","scrambled","FOR_REV_BLOBBY_STIM/1592351.bmp_pp51_L1_V1.0_veridical_freeview_isoFalse_fps144_reversed_REAL.mp4",""
"","","","call-function","446","1318959","0.0-446.0","9v82yq1m","","","","","","","",""
"1558.0849999999627","{""judgement"":0}","[0]","survey-likert","447","1320518","0.0-447.0","9v82yq1m","","","","","","","","0"
"1243.5200000000186","{""confidence"":2}","[0]","survey-likert","448","1321763","0.0-448.0","9v82yq1m","","","","","","","",""
"","","","call-function","449","1321763","0.0-449.0","9v82yq1m","","","","","","","",""
"null","","","html-keyboard-response","450","1323266","0.0-450.0","9v82yq1m","","<span style=""color:Black; font-size:50px;"">Agent A","null","","","","",""
"null","","","video-keyboard-response","451","1325986","0.0-451.0","9v82yq1m","","","null","","Agent A","scrambled","FOR_REV_BLOBBY_STIM/1592934.bmp_pp63_L1_V1.0_veridical_freeview_isoFalse_fps144_reversed_REAL.mp4",""
"null","","","html-keyboard-response","452","1327488","0.0-452.0","9v82yq1m","","<span style=""color:Black; font-size:50px;"">Agent B","null","","","","",""
"null","","","video-keyboard-response","453","1330207","0.0-453.0","9v82yq1m","","","null","","Agent B","veridical","FOR_REV_BLOBBY_STIM/1592934.bmp_pp63_L1_V1.0_veridical_freeview_isoFalse_fps144.mp4",""
"","","","call-function","454","1330208","0.0-454.0","9v82yq1m","","","","","","","",""
"2640.4599999999627","{""judgement"":1}","[0]","survey-likert","455","1332849","0.0-455.0","9v82yq1m","","","","","","","","1"
"1938.035000000149","{""confidence"":1}","[0]","survey-likert","456","1334788","0.0-456.0","9v82yq1m","","","","","","","",""
"","","","call-function","457","1334789","0.0-457.0","9v82yq1m","","","","","","","",""
"null","","","html-keyboard-response","458","1336292","0.0-458.0","9v82yq1m","","<span style=""color:Black; font-size:50px;"">Agent A","null","","","","",""
"null","","","video-keyboard-response","459","1339070","0.0-459.0","9v82yq1m","","","null","","Agent A","veridical","FOR_REV_BLOBBY_STIM/1593041.bmp_pp58_L1_V1.0_veridical_freeview_isoFalse_fps144.mp4",""
"null","","","html-keyboard-response","460","1340574","0.0-460.0","9v82yq1m","","<span style=""color:Black; font-size:50px;"">Agent B","null","","","","",""
"null","","","video-keyboard-response","461","1343329","0.0-461.0","9v82yq1m","","","null","","Agent B","scrambled","FOR_REV_BLOBBY_STIM/1593041.bmp_pp58_L1_V1.0_veridical_freeview_isoFalse_fps144_reversed_REAL.mp4",""
"","","","call-function","462","1343330","0.0-462.0","9v82yq1m","","","","","","","",""
"2483.6999999999534","{""judgement"":0}","[0]","survey-likert","463","1345814","0.0-463.0","9v82yq1m","","","","","","","","0"
"1789.2350000001024","{""confidence"":0}","[0]","survey-likert","464","1347605","0.0-464.0","9v82yq1m","","","","","","","",""
"","","","call-function","465","1347605","0.0-465.0","9v82yq1m","","","","","","","",""
"null","","","html-keyboard-response","466","1349106","0.0-466.0","9v82yq1m","","<span style=""color:Black; font-size:50px;"">Agent A","null","","","","",""
"null","","","video-keyboard-response","467","1351952","0.0-467.0","9v82yq1m","","","null","","Agent A","veridical","FOR_REV_BLOBBY_STIM/1159572.bmp_pp71_L1_V1.0_veridical_freeview_isoFalse_fps144.mp4",""
"null","","","html-keyboard-response","468","1353455","0.0-468.0","9v82yq1m","","<span style=""color:Black; font-size:50px;"">Agent B","null","","","","",""
"null","","","video-keyboard-response","469","1356303","0.0-469.0","9v82yq1m","","","null","","Agent B","scrambled","FOR_REV_BLOBBY_STIM/1159572.bmp_pp71_L1_V1.0_veridical_freeview_isoFalse_fps144_reversed_REAL.mp4",""
"","","","call-function","470","1356304","0.0-470.0","9v82yq1m","","","","","","","",""
"1859.4950000001118","{""judgement"":0}","[0]","survey-likert","471","1358164","0.0-471.0","9v82yq1m","","","","","","","","0"
"1689.5049999998882","{""confidence"":1}","[0]","survey-likert","472","1359855","0.0-472.0","9v82yq1m","","","","","","","",""
"","","","call-function","473","1359855","0.0-473.0","9v82yq1m","","","","","","","",""
"null","","","html-keyboard-response","474","1361360","0.0-474.0","9v82yq1m","","<span style=""color:Black; font-size:50px;"">Agent A","null","","","","",""
"null","","","video-keyboard-response","475","1364083","0.0-475.0","9v82yq1m","","","null","","Agent A","scrambled","FOR_REV_BLOBBY_STIM/285933.bmp_pp81_L1_V1.0_veridical_freeview_isoFalse_fps144_reversed_REAL.mp4",""
"null","","","html-keyboard-response","476","1365586","0.0-476.0","9v82yq1m","","<span style=""color:Black; font-size:50px;"">Agent B","null","","","","",""
"null","","","video-keyboard-response","477","1368334","0.0-477.0","9v82yq1m","","","null","","Agent B","veridical","FOR_REV_BLOBBY_STIM/285933.bmp_pp81_L1_V1.0_veridical_freeview_isoFalse_fps144.mp4",""
"","","","call-function","478","1368334","0.0-478.0","9v82yq1m","","","","","","","",""
"1987.5449999999255","{""judgement"":1}","[0]","survey-likert","479","1370323","0.0-479.0","9v82yq1m","","","","","","","","1"
"1749.8700000001118","{""confidence"":0}","[0]","survey-likert","480","1372075","0.0-480.0","9v82yq1m","","","","","","","",""
"","","","call-function","481","1372076","0.0-481.0","9v82yq1m","","","","","","","",""
"null","","","html-keyboard-response","482","1373582","0.0-482.0","9v82yq1m","","<span style=""color:Black; font-size:50px;"">Agent A","null","","","","",""
"null","","","video-keyboard-response","483","1376296","0.0-483.0","9v82yq1m","","","null","","Agent A","veridical","FOR_REV_BLOBBY_STIM/498170.bmp_pp153_L3_V1.0_veridical_freeview_isoFalse_fps144.mp4",""
"null","","","html-keyboard-response","484","1377799","0.0-484.0","9v82yq1m","","<span style=""color:Black; font-size:50px;"">Agent B","null","","","","",""
"null","","","video-keyboard-response","485","1380517","0.0-485.0","9v82yq1m","","","null","","Agent B","scrambled","FOR_REV_BLOBBY_STIM/498170.bmp_pp153_L3_V1.0_veridical_freeview_isoFalse_fps144_reversed_REAL.mp4",""
"","","","call-function","486","1380518","0.0-486.0","9v82yq1m","","","","","","","",""
"2502.9599999999627","{""judgement"":1}","[0]","survey-likert","487","1383022","0.0-487.0","9v82yq1m","","","","","","","","0"
"4786.014999999898","{""confidence"":1}","[0]","survey-likert","488","1387809","0.0-488.0","9v82yq1m","","","","","","","",""
"","","","call-function","489","1387810","0.0-489.0","9v82yq1m","","","","","","","",""
"null","","","html-keyboard-response","490","1389316","0.0-490.0","9v82yq1m","","<span style=""color:Black; font-size:50px;"">Agent A","null","","","","",""
"null","","","video-keyboard-response","491","1392186","0.0-491.0","9v82yq1m","","","null","","Agent A","scrambled","FOR_REV_BLOBBY_STIM/285905.bmp_pp57_L1_V1.0_veridical_freeview_isoFalse_fps144_reversed_REAL.mp4",""
"null","","","html-keyboard-response","492","1393687","0.0-492.0","9v82yq1m","","<span style=""color:Black; font-size:50px;"">Agent B","null","","","","",""
"null","","","video-keyboard-response","493","1396556","0.0-493.0","9v82yq1m","","","null","","Agent B","veridical","FOR_REV_BLOBBY_STIM/285905.bmp_pp57_L1_V1.0_veridical_freeview_isoFalse_fps144.mp4",""
"","","","call-function","494","1396556","0.0-494.0","9v82yq1m","","","","","","","",""
"2080.6650000000373","{""judgement"":1}","[0]","survey-likert","495","1398638","0.0-495.0","9v82yq1m","","","","","","","","1"
"2100.4799999999814","{""confidence"":2}","[0]","survey-likert","496","1400739","0.0-496.0","9v82yq1m","","","","","","","",""
"2766.094999999972","","","instructions","497","1403506","0.0-497.0","9v82yq1m","[{""page_index"":0,""viewing_time"":1525.1049999999814},{""page_index"":1,""viewing_time"":828.9199999999255},{""page_index"":2,""viewing_time"":411.9200000001583}]","","","","","","",""
"1363.594999999972","","","instructions","498","1404870","0.0-498.0","9v82yq1m","[{""page_index"":0,""viewing_time"":433.65500000002794},{""page_index"":1,""viewing_time"":487.8149999999441},{""page_index"":2,""viewing_time"":441.91500000003725}]","","","","","","",""
"","","","call-function","499","1404871","0.0-499.0","9v82yq1m","","","","","","","",""
"null","","","html-keyboard-response","500","1406374","0.0-500.0","9v82yq1m","","<span style=""color:Black; font-size:50px;"">Agent A","null","","","","",""
"null","","","video-keyboard-response","501","1407981","0.0-501.0","9v82yq1m","","","null","","Agent A","veridical","FOR_REV_BLOBBY_STIM/713684.bmp_pp85_L3_V1.0_veridical_freeview_isoFalse_fps144.mp4",""
"null","","","html-keyboard-response","502","1409482","0.0-502.0","9v82yq1m","","<span style=""color:Black; font-size:50px;"">Agent B","null","","","","",""
"null","","","video-keyboard-response","503","1411085","0.0-503.0","9v82yq1m","","","null","","Agent B","scrambled","FOR_REV_BLOBBY_STIM/713684.bmp_pp85_L3_V1.0_veridical_freeview_isoFalse_fps144_reversed_REAL.mp4",""
"","","","call-function","504","1411085","0.0-504.0","9v82yq1m","","","","","","","",""
"2910.494999999879","{""judgement"":0}","[0]","survey-likert","505","1413997","0.0-505.0","9v82yq1m","","","","","","","","0"
"1186.285000000149","{""confidence"":0}","[0]","survey-likert","506","1415184","0.0-506.0","9v82yq1m","","","","","","","",""
"","","","call-function","507","1415184","0.0-507.0","9v82yq1m","","","","","","","",""
"null","","","html-keyboard-response","508","1416691","0.0-508.0","9v82yq1m","","<span style=""color:Black; font-size:50px;"">Agent A","null","","","","",""
"null","","","video-keyboard-response","509","1419502","0.0-509.0","9v82yq1m","","","null","","Agent A","scrambled","FOR_REV_BLOBBY_STIM/1159784.bmp_pp73_L3_V1.0_veridical_freeview_isoFalse_fps144_reversed_REAL.mp4",""
"null","","","html-keyboard-response","510","1421006","0.0-510.0","9v82yq1m","","<span style=""color:Black; font-size:50px;"">Agent B","null","","","","",""
"null","","","video-keyboard-response","511","1423820","0.0-511.0","9v82yq1m","","","null","","Agent B","veridical","FOR_REV_BLOBBY_STIM/1159784.bmp_pp73_L3_V1.0_veridical_freeview_isoFalse_fps144.mp4",""
"","","","call-function","512","1423820","0.0-512.0","9v82yq1m","","","","","","","",""
"3529.774999999907","{""judgement"":1}","[0]","survey-likert","513","1427351","0.0-513.0","9v82yq1m","","","","","","","","1"
"1478.4350000000559","{""confidence"":0}","[0]","survey-likert","514","1428830","0.0-514.0","9v82yq1m","","","","","","","",""
"","","","call-function","515","1428831","0.0-515.0","9v82yq1m","","","","","","","",""
"null","","","html-keyboard-response","516","1430336","0.0-516.0","9v82yq1m","","<span style=""color:Black; font-size:50px;"">Agent A","null","","","","",""
"null","","","video-keyboard-response","517","1433194","0.0-517.0","9v82yq1m","","","null","","Agent A","scrambled","FOR_REV_BLOBBY_STIM/498253.bmp_pp67_L2_V1.0_veridical_freeview_isoFalse_fps144_reversed_REAL.mp4",""
"null","","","html-keyboard-response","518","1434697","0.0-518.0","9v82yq1m","","<span style=""color:Black; font-size:50px;"">Agent B","null","","","","",""
"null","","","video-keyboard-response","519","1437557","0.0-519.0","9v82yq1m","","","null","","Agent B","veridical","FOR_REV_BLOBBY_STIM/498253.bmp_pp67_L2_V1.0_veridical_freeview_isoFalse_fps144.mp4",""
"","","","call-function","520","1437557","0.0-520.0","9v82yq1m","","","","","","","",""
"2124.4449999998324","{""judgement"":1}","[0]","survey-likert","521","1439683","0.0-521.0","9v82yq1m","","","","","","","","1"
"1937.8999999999069","{""confidence"":2}","[0]","survey-likert","522","1441622","0.0-522.0","9v82yq1m","","","","","","","",""
"","","","call-function","523","1441622","0.0-523.0","9v82yq1m","","","","","","","",""
"null","","","html-keyboard-response","524","1443125","0.0-524.0","9v82yq1m","","<span style=""color:Black; font-size:50px;"">Agent A","null","","","","",""
"null","","","video-keyboard-response","525","1445897","0.0-525.0","9v82yq1m","","","null","","Agent A","veridical","FOR_REV_BLOBBY_STIM/1592890.bmp_pp82_L2_V1.0_veridical_freeview_isoFalse_fps144.mp4",""
"null","","","html-keyboard-response","526","1447400","0.0-526.0","9v82yq1m","","<span style=""color:Black; font-size:50px;"">Agent B","null","","","","",""
"null","","","video-keyboard-response","527","1450170","0.0-527.0","9v82yq1m","","","null","","Agent B","scrambled","FOR_REV_BLOBBY_STIM/1592890.bmp_pp82_L2_V1.0_veridical_freeview_isoFalse_fps144_reversed_REAL.mp4",""
"","","","call-function","528","1450170","0.0-528.0","9v82yq1m","","","","","","","",""
"4688.47499999986","{""judgement"":1}","[0]","survey-likert","529","1454860","0.0-529.0","9v82yq1m","","","","","","","","0"
"1563.1399999998976","{""confidence"":2}","[0]","survey-likert","530","1456424","0.0-530.0","9v82yq1m","","","","","","","",""
"","","","call-function","531","1456424","0.0-531.0","9v82yq1m","","","","","","","",""
"null","","","html-keyboard-response","532","1457931","0.0-532.0","9v82yq1m","","<span style=""color:Black; font-size:50px;"">Agent A","null","","","","",""
"null","","","video-keyboard-response","533","1460663","0.0-533.0","9v82yq1m","","","null","","Agent A","veridical","FOR_REV_BLOBBY_STIM/1592619.bmp_pp56_L3_V1.0_veridical_freeview_isoFalse_fps144.mp4",""
"null","","","html-keyboard-response","534","1462167","0.0-534.0","9v82yq1m","","<span style=""color:Black; font-size:50px;"">Agent B","null","","","","",""
"null","","","video-keyboard-response","535","1464896","0.0-535.0","9v82yq1m","","","null","","Agent B","scrambled","FOR_REV_BLOBBY_STIM/1592619.bmp_pp56_L3_V1.0_veridical_freeview_isoFalse_fps144_reversed_REAL.mp4",""
"","","","call-function","536","1464897","0.0-536.0","9v82yq1m","","","","","","","",""
"2366.5","{""judgement"":0}","[0]","survey-likert","537","1467265","0.0-537.0","9v82yq1m","","","","","","","","0"
"1660.3950000000186","{""confidence"":0}","[0]","survey-likert","538","1468927","0.0-538.0","9v82yq1m","","","","","","","",""
"","","","call-function","539","1468928","0.0-539.0","9v82yq1m","","","","","","","",""
"null","","","html-keyboard-response","540","1470431","0.0-540.0","9v82yq1m","","<span style=""color:Black; font-size:50px;"">Agent A","null","","","","",""
"null","","","video-keyboard-response","541","1473166","0.0-541.0","9v82yq1m","","","null","","Agent A","scrambled","FOR_REV_BLOBBY_STIM/1592581.bmp_pp100_L3_V1.0_veridical_freeview_isoFalse_fps144_reversed_REAL.mp4",""
"null","","","html-keyboard-response","542","1474673","0.0-542.0","9v82yq1m","","<span style=""color:Black; font-size:50px;"">Agent B","null","","","","",""
"null","","","video-keyboard-response","543","1477407","0.0-543.0","9v82yq1m","","","null","","Agent B","veridical","FOR_REV_BLOBBY_STIM/1592581.bmp_pp100_L3_V1.0_veridical_freeview_isoFalse_fps144.mp4",""
"","","","call-function","544","1477408","0.0-544.0","9v82yq1m","","","","","","","",""
"2009.880000000121","{""judgement"":1}","[0]","survey-likert","545","1479419","0.0-545.0","9v82yq1m","","","","","","","","1"
"2352.945000000065","{""confidence"":2}","[0]","survey-likert","546","1481773","0.0-546.0","9v82yq1m","","","","","","","",""
"","","","call-function","547","1481774","0.0-547.0","9v82yq1m","","","","","","","",""
"null","","","html-keyboard-response","548","1483275","0.0-548.0","9v82yq1m","","<span style=""color:Black; font-size:50px;"">Agent A","null","","","","",""
"null","","","video-keyboard-response","549","1486059","0.0-549.0","9v82yq1m","","","null","","Agent A","veridical","FOR_REV_BLOBBY_STIM/1159777.bmp_pp77_L3_V1.0_veridical_freeview_isoFalse_fps144.mp4",""
"null","","","html-keyboard-response","550","1487565","0.0-550.0","9v82yq1m","","<span style=""color:Black; font-size:50px;"">Agent B","null","","","","",""
"null","","","video-keyboard-response","551","1490346","0.0-551.0","9v82yq1m","","","null","","Agent B","scrambled","FOR_REV_BLOBBY_STIM/1159777.bmp_pp77_L3_V1.0_veridical_freeview_isoFalse_fps144_reversed_REAL.mp4",""
"","","","call-function","552","1490347","0.0-552.0","9v82yq1m","","","","","","","",""
"2527.910000000149","{""judgement"":0}","[0]","survey-likert","553","1492876","0.0-553.0","9v82yq1m","","","","","","","","0"
"2137.905000000028","{""confidence"":2}","[0]","survey-likert","554","1495015","0.0-554.0","9v82yq1m","","","","","","","",""
"","","","call-function","555","1495016","0.0-555.0","9v82yq1m","","","","","","","",""
"null","","","html-keyboard-response","556","1496520","0.0-556.0","9v82yq1m","","<span style=""color:Black; font-size:50px;"">Agent A","null","","","","",""
"null","","","video-keyboard-response","557","1499067","0.0-557.0","9v82yq1m","","","null","","Agent A","veridical","FOR_REV_BLOBBY_STIM/713796.bmp_pp84_L3_V1.0_veridical_freeview_isoFalse_fps144.mp4",""
"null","","","html-keyboard-response","558","1500574","0.0-558.0","9v82yq1m","","<span style=""color:Black; font-size:50px;"">Agent B","null","","","","",""
"null","","","video-keyboard-response","559","1503122","0.0-559.0","9v82yq1m","","","null","","Agent B","scrambled","FOR_REV_BLOBBY_STIM/713796.bmp_pp84_L3_V1.0_veridical_freeview_isoFalse_fps144_reversed_REAL.mp4",""
"","","","call-function","560","1503122","0.0-560.0","9v82yq1m","","","","","","","",""
"1845.6649999998044","{""judgement"":0}","[0]","survey-likert","561","1504969","0.0-561.0","9v82yq1m","","","","","","","","0"
"1802.2600000000093","{""confidence"":0}","[0]","survey-likert","562","1506772","0.0-562.0","9v82yq1m","","","","","","","",""
"","","","call-function","563","1506773","0.0-563.0","9v82yq1m","","","","","","","",""
"null","","","html-keyboard-response","564","1508275","0.0-564.0","9v82yq1m","","<span style=""color:Black; font-size:50px;"">Agent A","null","","","","",""
"null","","","video-keyboard-response","565","1511117","0.0-565.0","9v82yq1m","","","null","","Agent A","veridical","FOR_REV_BLOBBY_STIM/713403.bmp_pp80_L3_V1.0_veridical_freeview_isoFalse_fps144.mp4",""
"null","","","html-keyboard-response","566","1512622","0.0-566.0","9v82yq1m","","<span style=""color:Black; font-size:50px;"">Agent B","null","","","","",""
"null","","","video-keyboard-response","567","1515465","0.0-567.0","9v82yq1m","","","null","","Agent B","scrambled","FOR_REV_BLOBBY_STIM/713403.bmp_pp80_L3_V1.0_veridical_freeview_isoFalse_fps144_reversed_REAL.mp4",""
"","","","call-function","568","1515465","0.0-568.0","9v82yq1m","","","","","","","",""
"2551.4150000000373","{""judgement"":0}","[0]","survey-likert","569","1518017","0.0-569.0","9v82yq1m","","","","","","","","0"
"2122.3599999998696","{""confidence"":0}","[0]","survey-likert","570","1520141","0.0-570.0","9v82yq1m","","","","","","","",""
"","","","call-function","571","1520141","0.0-571.0","9v82yq1m","","","","","","","",""
"null","","","html-keyboard-response","572","1521643","0.0-572.0","9v82yq1m","","<span style=""color:Black; font-size:50px;"">Agent A","null","","","","",""
"null","","","video-keyboard-response","573","1524202","0.0-573.0","9v82yq1m","","","null","","Agent A","veridical","FOR_REV_BLOBBY_STIM/1159515.bmp_pp84_L3_V1.0_veridical_freeview_isoFalse_fps144.mp4",""
"null","","","html-keyboard-response","574","1525705","0.0-574.0","9v82yq1m","","<span style=""color:Black; font-size:50px;"">Agent B","null","","","","",""
"null","","","video-keyboard-response","575","1528258","0.0-575.0","9v82yq1m","","","null","","Agent B","scrambled","FOR_REV_BLOBBY_STIM/1159515.bmp_pp84_L3_V1.0_veridical_freeview_isoFalse_fps144_reversed_REAL.mp4",""
"","","","call-function","576","1528259","0.0-576.0","9v82yq1m","","","","","","","",""
"3514.8950000000186","{""judgement"":1}","[0]","survey-likert","577","1531775","0.0-577.0","9v82yq1m","","","","","","","","0"
"1501.0600000000559","{""confidence"":2}","[0]","survey-likert","578","1533277","0.0-578.0","9v82yq1m","","","","","","","",""
"2286.3300000000745","","","instructions","579","1535564","0.0-579.0","9v82yq1m","[{""page_index"":0,""viewing_time"":2286.1100000001024}]","","","","","","",""
"2141.3549999999814","","","instructions","580","1537706","0.0-580.0","9v82yq1m","[{""page_index"":0,""viewing_time"":2141.25}]","","","","","","",""
"10973.854999999981","{""post-1"":1}","[0]","survey-likert","581","1548681","0.0-581.0","9v82yq1m","","","","","","","",""
"9730.995000000112","{""post-1"":1}","[0]","survey-likert","582","1558414","0.0-582.0","9v82yq1m","","","","","","","",""
"8813.51000000001","{""post-2"":0}","[0]","survey-likert","583","1567230","0.0-583.0","9v82yq1m","","","","","","","",""
"8164.820000000065","{""post-2"":0}","[0]","survey-likert","584","1575396","0.0-584.0","9v82yq1m","","","","","","","",""
"6817.739999999991","{""post-3"":1}","[0]","survey-likert","585","1582215","0.0-585.0","9v82yq1m","","","","","","","",""
"8997.030000000028","{""post-3"":1}","[0]","survey-likert","586","1591213","0.0-586.0","9v82yq1m","","","","","","","",""
"7001.39000000013","{""post-4"":0}","[0]","survey-likert","587","1598216","0.0-587.0","9v82yq1m","","","","","","","",""
"6342.510000000009","{""post-4"":0}","[0]","survey-likert","588","1604560","0.0-588.0","9v82yq1m","","","","","","","",""
"5466.869999999879","{""post-5"":1}","[0]","survey-likert","589","1610028","0.0-589.0","9v82yq1m","","","","","","","",""
"6247.395000000019","{""post-5"":1}","[0]","survey-likert","590","1616277","0.0-590.0","9v82yq1m","","","","","","","",""
"64958.16500000004","{""Q0"":""It simulated a game that you were trying to beat.I felt that the videos moved quickly, but that was likely by design. ""}","","survey-text","591","1681241","0.0-591.0","9v82yq1m","","","","","","","",""
"70457.20999999996","{""Q0"":""I know that babies identify faces in utero, so humans are drawn to faces normally, I would select a human cognition often based on how soon/quickly the faces were viewed in the hotspots""}","","survey-text","592","1751702","0.0-592.0","9v82yq1m","","","","","","","",""
"35754.534999999916","{""Q0"":""Some of the hot spot patterns looked like direct inverses, like agent B was just agent a backwards. ""}","","survey-text","593","1787460","0.0-593.0","9v82yq1m","","","","","","","",""
"4148.949999999953","","","instructions","594","1791610","0.0-594.0","9v82yq1m","[{""page_index"":0,""viewing_time"":4148.804999999935}]","","","","","","",""
"3012591.21","{""Experimenter_end"":[""Printed ID# 9v82yq1m on consent form"",""Given subject SONA credit or payment"",""Given the subject debrief form""]}","[0]","survey-multi-select","595","4804209","0.0-595.0","9v82yq1m","","","","","","","",""
