"rt","responses","question_order","trial_type","trial_index","time_elapsed","internal_node_id","ID","view_history","stimulus","key_press","value","agent","condition","image","correct_answer"
"7884.135","{""Experimenter"":[""Confirmed subject's identity"",""Confirmed normal or corrected-to-normal vision"",""Obtained consent (signature and date)"",""Checked the test room lighting"",""Checked computer screen lighting"",""Checked distance from screen to chin rest (50cm)"",""Cleaned and adjusted chin rest"",""Counterbalanced the order of the tasks"",""Opened the experiment in Firefox"",""Made the experiment full screen"",""Encouraged subject to silence phone, put away distractors, etc.""]}","[0]","survey-multi-select","0","7893","0.0-0.0","9wfg8atd","","","","","","","",""
"10580.53","","","instructions","1","18475","0.0-1.0","9wfg8atd","[{""page_index"":0,""viewing_time"":10579.980000000001}]","","","","","","",""
"7827.755000000001","","","instructions","2","26304","0.0-2.0","9wfg8atd","[{""page_index"":0,""viewing_time"":4289.805},{""page_index"":1,""viewing_time"":1902.8950000000004},{""page_index"":2,""viewing_time"":1634.9350000000013}]","","","","","","",""
"3181.994999999999","","","instructions","3","29487","0.0-3.0","9wfg8atd","[{""page_index"":0,""viewing_time"":3181.8899999999994}]","","","","","","",""
"null","","","video-keyboard-response","4","32560","0.0-4.0","9wfg8atd","","","null","","","","",""
"47623.369999999995","","","instructions","5","80184","0.0-5.0","9wfg8atd","[{""page_index"":0,""viewing_time"":41027.295},{""page_index"":1,""viewing_time"":3779.029999999999},{""page_index"":2,""viewing_time"":2816.9349999999977}]","","","","","","",""
"2113.6500000000087","","","instructions","6","82298","0.0-6.0","9wfg8atd","[{""page_index"":0,""viewing_time"":2113.550000000003}]","","","","","","",""
"3113.7050000000017","","","instructions","7","85412","0.0-7.0","9wfg8atd","[{""page_index"":0,""viewing_time"":3113.49500000001}]","","","","","","",""
"null","","","video-keyboard-response","8","88488","0.0-8.0","9wfg8atd","","","null","","","","",""
"12154.015","","","instructions","9","100642","0.0-9.0","9wfg8atd","[{""page_index"":0,""viewing_time"":1321.0399999999936},{""page_index"":1,""viewing_time"":2792.965000000011},{""page_index"":2,""viewing_time"":8039.875}]","","","","","","",""
"2120.6699999999983","","","instructions","10","102763","0.0-10.0","9wfg8atd","[{""page_index"":0,""viewing_time"":2120.5550000000076}]","","","","","","",""
"","","","call-function","11","102764","0.0-11.0","9wfg8atd","","","","","","","",""
"null","","","html-keyboard-response","12","104271","0.0-12.0","9wfg8atd","","<span style=""color:Black; font-size:50px;"">Agent A","null","","","","",""
"null","","","video-keyboard-response","13","107338","0.0-13.0","9wfg8atd","","","null","","Agent A","veridical","STIM_SET_2_144/1592201.bmp_pp97_L3_V1.0_veridical_freeview_isoTrue_fps144.mp4",""
"null","","","html-keyboard-response","14","108845","0.0-14.0","9wfg8atd","","<span style=""color:Black; font-size:50px;"">Agent B","null","","","","",""
"null","","","video-keyboard-response","15","111914","0.0-15.0","9wfg8atd","","","null","","Agent B","scrambled","STIM_SET_5/1592201.bmp_pp97_L3_V1.0_veridical_freeview_isoTrue_Hflip_fps144.mp4",""
"","","","call-function","16","111914","0.0-16.0","9wfg8atd","","","","","","","",""
"2827.7750000000087","{""judgement"":0}","[0]","survey-likert","17","114743","0.0-17.0","9wfg8atd","","","","","","","","0"
"1078.929999999993","{""confidence"":0}","[0]","survey-likert","18","115823","0.0-18.0","9wfg8atd","","","","","","","",""
"","","","call-function","19","115824","0.0-19.0","9wfg8atd","","","","","","","",""
"null","","","html-keyboard-response","20","117327","0.0-20.0","9wfg8atd","","<span style=""color:Black; font-size:50px;"">Agent A","null","","","","",""
"null","","","video-keyboard-response","21","120407","0.0-21.0","9wfg8atd","","","null","","Agent A","scrambled","STIM_SET_5/1160247.bmp_pp54_L2_V1.0_veridical_freeview_isoTrue_Hflip_fps144.mp4",""
"null","","","html-keyboard-response","22","121913","0.0-22.0","9wfg8atd","","<span style=""color:Black; font-size:50px;"">Agent B","null","","","","",""
"null","","","video-keyboard-response","23","125001","0.0-23.0","9wfg8atd","","","null","","Agent B","veridical","STIM_SET_2_144/1160247.bmp_pp54_L2_V1.0_veridical_freeview_isoTrue_fps144.mp4",""
"","","","call-function","24","125002","0.0-24.0","9wfg8atd","","","","","","","",""
"1896.4400000000023","{""judgement"":1}","[0]","survey-likert","25","126899","0.0-25.0","9wfg8atd","","","","","","","","1"
"2161.87999999999","{""confidence"":1}","[0]","survey-likert","26","129062","0.0-26.0","9wfg8atd","","","","","","","",""
"","","","call-function","27","129062","0.0-27.0","9wfg8atd","","","","","","","",""
"null","","","html-keyboard-response","28","130565","0.0-28.0","9wfg8atd","","<span style=""color:Black; font-size:50px;"">Agent A","null","","","","",""
"null","","","video-keyboard-response","29","133645","0.0-29.0","9wfg8atd","","","null","","Agent A","scrambled","STIM_SET_5/713689.bmp_pp153_L3_V1.0_veridical_freeview_isoTrue_Hflip_fps144.mp4",""
"null","","","html-keyboard-response","30","135146","0.0-30.0","9wfg8atd","","<span style=""color:Black; font-size:50px;"">Agent B","null","","","","",""
"null","","","video-keyboard-response","31","138226","0.0-31.0","9wfg8atd","","","null","","Agent B","veridical","STIM_SET_2_144/713689.bmp_pp153_L3_V1.0_veridical_freeview_isoTrue_fps144.mp4",""
"","","","call-function","32","138227","0.0-32.0","9wfg8atd","","","","","","","",""
"1885.2149999999965","{""judgement"":0}","[0]","survey-likert","33","140114","0.0-33.0","9wfg8atd","","","","","","","","1"
"2253.8099999999977","{""confidence"":1}","[0]","survey-likert","34","142369","0.0-34.0","9wfg8atd","","","","","","","",""
"","","","call-function","35","142370","0.0-35.0","9wfg8atd","","","","","","","",""
"null","","","html-keyboard-response","36","143874","0.0-36.0","9wfg8atd","","<span style=""color:Black; font-size:50px;"">Agent A","null","","","","",""
"null","","","video-keyboard-response","37","146951","0.0-37.0","9wfg8atd","","","null","","Agent A","scrambled","STIM_SET_5/713633.bmp_pp58_L1_V1.0_veridical_freeview_isoTrue_Hflip_fps144.mp4",""
"null","","","html-keyboard-response","38","148456","0.0-38.0","9wfg8atd","","<span style=""color:Black; font-size:50px;"">Agent B","null","","","","",""
"null","","","video-keyboard-response","39","151532","0.0-39.0","9wfg8atd","","","null","","Agent B","veridical","STIM_SET_2_144/713633.bmp_pp58_L1_V1.0_veridical_freeview_isoTrue_fps144.mp4",""
"","","","call-function","40","151533","0.0-40.0","9wfg8atd","","","","","","","",""
"1743.6199999999953","{""judgement"":0}","[0]","survey-likert","41","153277","0.0-41.0","9wfg8atd","","","","","","","","1"
"2137.5449999999837","{""confidence"":1}","[0]","survey-likert","42","155417","0.0-42.0","9wfg8atd","","","","","","","",""
"","","","call-function","43","155418","0.0-43.0","9wfg8atd","","","","","","","",""
"null","","","html-keyboard-response","44","156922","0.0-44.0","9wfg8atd","","<span style=""color:Black; font-size:50px;"">Agent A","null","","","","",""
"null","","","video-keyboard-response","45","160000","0.0-45.0","9wfg8atd","","","null","","Agent A","veridical","STIM_SET_2_144/1159874.bmp_pp96_L2_V1.0_veridical_freeview_isoTrue_fps144.mp4",""
"null","","","html-keyboard-response","46","161505","0.0-46.0","9wfg8atd","","<span style=""color:Black; font-size:50px;"">Agent B","null","","","","",""
"null","","","video-keyboard-response","47","164579","0.0-47.0","9wfg8atd","","","null","","Agent B","scrambled","STIM_SET_5/1159874.bmp_pp96_L2_V1.0_veridical_freeview_isoTrue_Hflip_fps144.mp4",""
"","","","call-function","48","164579","0.0-48.0","9wfg8atd","","","","","","","",""
"1711.304999999993","{""judgement"":0}","[0]","survey-likert","49","166291","0.0-49.0","9wfg8atd","","","","","","","","0"
"34998.79999999999","{""confidence"":1}","[0]","survey-likert","50","201291","0.0-50.0","9wfg8atd","","","","","","","",""
"","","","call-function","51","201291","0.0-51.0","9wfg8atd","","","","","","","",""
"null","","","html-keyboard-response","52","202793","0.0-52.0","9wfg8atd","","<span style=""color:Black; font-size:50px;"">Agent A","null","","","","",""
"null","","","video-keyboard-response","53","205884","0.0-53.0","9wfg8atd","","","null","","Agent A","scrambled","STIM_SET_5/498258.bmp_pp51_L1_V1.0_veridical_freeview_isoTrue_Hflip_fps144.mp4",""
"null","","","html-keyboard-response","54","207387","0.0-54.0","9wfg8atd","","<span style=""color:Black; font-size:50px;"">Agent B","null","","","","",""
"null","","","video-keyboard-response","55","210456","0.0-55.0","9wfg8atd","","","null","","Agent B","veridical","STIM_SET_2_144/498258.bmp_pp51_L1_V1.0_veridical_freeview_isoTrue_fps144.mp4",""
"","","","call-function","56","210457","0.0-56.0","9wfg8atd","","","","","","","",""
"2209.24000000002","{""judgement"":1}","[0]","survey-likert","57","212667","0.0-57.0","9wfg8atd","","","","","","","","1"
"3889.4250000000175","{""confidence"":0}","[0]","survey-likert","58","216557","0.0-58.0","9wfg8atd","","","","","","","",""
"","","","call-function","59","216557","0.0-59.0","9wfg8atd","","","","","","","",""
"null","","","html-keyboard-response","60","218063","0.0-60.0","9wfg8atd","","<span style=""color:Black; font-size:50px;"">Agent A","null","","","","",""
"null","","","video-keyboard-response","61","221133","0.0-61.0","9wfg8atd","","","null","","Agent A","veridical","STIM_SET_2_144/1159973.bmp_pp98_L1_V1.0_veridical_freeview_isoTrue_fps144.mp4",""
"null","","","html-keyboard-response","62","222639","0.0-62.0","9wfg8atd","","<span style=""color:Black; font-size:50px;"">Agent B","null","","","","",""
"null","","","video-keyboard-response","63","225709","0.0-63.0","9wfg8atd","","","null","","Agent B","scrambled","STIM_SET_5/1159973.bmp_pp98_L1_V1.0_veridical_freeview_isoTrue_Hflip_fps144.mp4",""
"","","","call-function","64","225709","0.0-64.0","9wfg8atd","","","","","","","",""
"1525.4250000000175","{""judgement"":1}","[0]","survey-likert","65","227235","0.0-65.0","9wfg8atd","","","","","","","","0"
"3003.329999999987","{""confidence"":2}","[0]","survey-likert","66","230240","0.0-66.0","9wfg8atd","","","","","","","",""
"","","","call-function","67","230240","0.0-67.0","9wfg8atd","","","","","","","",""
"null","","","html-keyboard-response","68","231743","0.0-68.0","9wfg8atd","","<span style=""color:Black; font-size:50px;"">Agent A","null","","","","",""
"null","","","video-keyboard-response","69","234811","0.0-69.0","9wfg8atd","","","null","","Agent A","veridical","STIM_SET_2_144/150277.bmp_pp65_L3_V1.0_veridical_freeview_isoTrue_fps144.mp4",""
"null","","","html-keyboard-response","70","236311","0.0-70.0","9wfg8atd","","<span style=""color:Black; font-size:50px;"">Agent B","null","","","","",""
"null","","","video-keyboard-response","71","239394","0.0-71.0","9wfg8atd","","","null","","Agent B","scrambled","STIM_SET_5/150277.bmp_pp65_L3_V1.0_veridical_freeview_isoTrue_Hflip_fps144.mp4",""
"","","","call-function","72","239394","0.0-72.0","9wfg8atd","","","","","","","",""
"2064.8399999999965","{""judgement"":1}","[0]","survey-likert","73","241460","0.0-73.0","9wfg8atd","","","","","","","","0"
"2276.774999999994","{""confidence"":2}","[0]","survey-likert","74","243738","0.0-74.0","9wfg8atd","","","","","","","",""
"","","","call-function","75","243739","0.0-75.0","9wfg8atd","","","","","","","",""
"null","","","html-keyboard-response","76","245239","0.0-76.0","9wfg8atd","","<span style=""color:Black; font-size:50px;"">Agent A","null","","","","",""
"null","","","video-keyboard-response","77","248327","0.0-77.0","9wfg8atd","","","null","","Agent A","veridical","STIM_SET_2_144/285959.bmp_pp93_L1_V1.0_veridical_freeview_isoTrue_fps144.mp4",""
"null","","","html-keyboard-response","78","249831","0.0-78.0","9wfg8atd","","<span style=""color:Black; font-size:50px;"">Agent B","null","","","","",""
"null","","","video-keyboard-response","79","252926","0.0-79.0","9wfg8atd","","","null","","Agent B","scrambled","STIM_SET_5/285959.bmp_pp93_L1_V1.0_veridical_freeview_isoTrue_Hflip_fps144.mp4",""
"","","","call-function","80","252927","0.0-80.0","9wfg8atd","","","","","","","",""
"2171.595000000001","{""judgement"":1}","[0]","survey-likert","81","255100","0.0-81.0","9wfg8atd","","","","","","","","0"
"1415.25","{""confidence"":1}","[0]","survey-likert","82","256517","0.0-82.0","9wfg8atd","","","","","","","",""
"","","","call-function","83","256517","0.0-83.0","9wfg8atd","","","","","","","",""
"null","","","html-keyboard-response","84","258021","0.0-84.0","9wfg8atd","","<span style=""color:Black; font-size:50px;"">Agent A","null","","","","",""
"null","","","video-keyboard-response","85","261083","0.0-85.0","9wfg8atd","","","null","","Agent A","veridical","STIM_SET_2_144/1592044.bmp_pp94_L2_V1.0_veridical_freeview_isoTrue_fps144.mp4",""
"null","","","html-keyboard-response","86","262590","0.0-86.0","9wfg8atd","","<span style=""color:Black; font-size:50px;"">Agent B","null","","","","",""
"null","","","video-keyboard-response","87","265651","0.0-87.0","9wfg8atd","","","null","","Agent B","scrambled","STIM_SET_5/1592044.bmp_pp94_L2_V1.0_veridical_freeview_isoTrue_Hflip_fps144.mp4",""
"","","","call-function","88","265652","0.0-88.0","9wfg8atd","","","","","","","",""
"1814.7699999999604","{""judgement"":0}","[0]","survey-likert","89","267467","0.0-89.0","9wfg8atd","","","","","","","","0"
"1745.3300000000163","{""confidence"":1}","[0]","survey-likert","90","269214","0.0-90.0","9wfg8atd","","","","","","","",""
"20816.044999999984","","","instructions","91","290031","0.0-91.0","9wfg8atd","[{""page_index"":0,""viewing_time"":1099.8499999999767},{""page_index"":1,""viewing_time"":731.015000000014},{""page_index"":2,""viewing_time"":18984.969999999972}]","","","","","","",""
"5097.455000000016","","","instructions","92","295129","0.0-92.0","9wfg8atd","[{""page_index"":0,""viewing_time"":1788.5650000000023},{""page_index"":1,""viewing_time"":1847.9749999999767},{""page_index"":2,""viewing_time"":1460.7700000000186}]","","","","","","",""
"","","","call-function","93","295129","0.0-93.0","9wfg8atd","","","","","","","",""
"null","","","html-keyboard-response","94","296630","0.0-94.0","9wfg8atd","","<span style=""color:Black; font-size:50px;"">Agent A","null","","","","",""
"null","","","video-keyboard-response","95","299693","0.0-95.0","9wfg8atd","","","null","","Agent A","scrambled","STIM_SET_5/713652.bmp_pp89_L1_V1_veridical_freeview_isoTrue_Hflip_fps144.mp4",""
"null","","","html-keyboard-response","96","301194","0.0-96.0","9wfg8atd","","<span style=""color:Black; font-size:50px;"">Agent B","null","","","","",""
"null","","","video-keyboard-response","97","304253","0.0-97.0","9wfg8atd","","","null","","Agent B","veridical","STIM_SET_2_144/713652.bmp_pp89_L1_V1_veridical_freeview_isoTrue_fps144.mp4",""
"","","","call-function","98","304253","0.0-98.0","9wfg8atd","","","","","","","",""
"1280.975000000035","{""judgement"":1}","[0]","survey-likert","99","305535","0.0-99.0","9wfg8atd","","","","","","","","1"
"1192.609999999986","{""confidence"":2}","[0]","survey-likert","100","306729","0.0-100.0","9wfg8atd","","","","","","","",""
"","","","call-function","101","306729","0.0-101.0","9wfg8atd","","","","","","","",""
"null","","","html-keyboard-response","102","308232","0.0-102.0","9wfg8atd","","<span style=""color:Black; font-size:50px;"">Agent A","null","","","","",""
"null","","","video-keyboard-response","103","311317","0.0-103.0","9wfg8atd","","","null","","Agent A","scrambled","STIM_SET_5/1160189.bmp_pp64_L1_V1.0_veridical_freeview_isoTrue_Hflip_fps144.mp4",""
"null","","","html-keyboard-response","104","312822","0.0-104.0","9wfg8atd","","<span style=""color:Black; font-size:50px;"">Agent B","null","","","","",""
"null","","","video-keyboard-response","105","315906","0.0-105.0","9wfg8atd","","","null","","Agent B","veridical","STIM_SET_2_144/1160189.bmp_pp64_L1_V1.0_veridical_freeview_isoTrue_fps144.mp4",""
"","","","call-function","106","315907","0.0-106.0","9wfg8atd","","","","","","","",""
"1616.7449999999953","{""judgement"":0}","[0]","survey-likert","107","317524","0.0-107.0","9wfg8atd","","","","","","","","1"
"1660.054999999993","{""confidence"":0}","[0]","survey-likert","108","319185","0.0-108.0","9wfg8atd","","","","","","","",""
"","","","call-function","109","319186","0.0-109.0","9wfg8atd","","","","","","","",""
"null","","","html-keyboard-response","110","320690","0.0-110.0","9wfg8atd","","<span style=""color:Black; font-size:50px;"">Agent A","null","","","","",""
"null","","","video-keyboard-response","111","323770","0.0-111.0","9wfg8atd","","","null","","Agent A","scrambled","STIM_SET_5/713829.bmp_pp60_L3_V1.0_veridical_freeview_isoTrue_Hflip_fps144.mp4",""
"null","","","html-keyboard-response","112","325277","0.0-112.0","9wfg8atd","","<span style=""color:Black; font-size:50px;"">Agent B","null","","","","",""
"null","","","video-keyboard-response","113","328336","0.0-113.0","9wfg8atd","","","null","","Agent B","veridical","STIM_SET_2_144/713829.bmp_pp60_L3_V1.0_veridical_freeview_isoTrue_fps144.mp4",""
"","","","call-function","114","328336","0.0-114.0","9wfg8atd","","","","","","","",""
"1642.125","{""judgement"":1}","[0]","survey-likert","115","329979","0.0-115.0","9wfg8atd","","","","","","","","1"
"1217.9550000000163","{""confidence"":1}","[0]","survey-likert","116","331198","0.0-116.0","9wfg8atd","","","","","","","",""
"","","","call-function","117","331199","0.0-117.0","9wfg8atd","","","","","","","",""
"null","","","html-keyboard-response","118","332701","0.0-118.0","9wfg8atd","","<span style=""color:Black; font-size:50px;"">Agent A","null","","","","",""
"null","","","video-keyboard-response","119","335774","0.0-119.0","9wfg8atd","","","null","","Agent A","scrambled","STIM_SET_5/1592568.bmp_pp71_L1_V1.0_veridical_freeview_isoTrue_Hflip_fps144.mp4",""
"null","","","html-keyboard-response","120","337277","0.0-120.0","9wfg8atd","","<span style=""color:Black; font-size:50px;"">Agent B","null","","","","",""
"null","","","video-keyboard-response","121","340365","0.0-121.0","9wfg8atd","","","null","","Agent B","veridical","STIM_SET_2_144/1592568.bmp_pp71_L1_V1.0_veridical_freeview_isoTrue_fps144.mp4",""
"","","","call-function","122","340367","0.0-122.0","9wfg8atd","","","","","","","",""
"1675.8399999999674","{""judgement"":0}","[0]","survey-likert","123","342044","0.0-123.0","9wfg8atd","","","","","","","","1"
"1570.304999999993","{""confidence"":0}","[0]","survey-likert","124","343616","0.0-124.0","9wfg8atd","","","","","","","",""
"","","","call-function","125","343616","0.0-125.0","9wfg8atd","","","","","","","",""
"null","","","html-keyboard-response","126","345117","0.0-126.0","9wfg8atd","","<span style=""color:Black; font-size:50px;"">Agent A","null","","","","",""
"null","","","video-keyboard-response","127","348187","0.0-127.0","9wfg8atd","","","null","","Agent A","scrambled","STIM_SET_5/1592350.bmp_pp55_L3_V1.0_veridical_freeview_isoTrue_Hflip_fps144.mp4",""
"null","","","html-keyboard-response","128","349689","0.0-128.0","9wfg8atd","","<span style=""color:Black; font-size:50px;"">Agent B","null","","","","",""
"null","","","video-keyboard-response","129","352759","0.0-129.0","9wfg8atd","","","null","","Agent B","veridical","STIM_SET_2_144/1592350.bmp_pp55_L3_V1.0_veridical_freeview_isoTrue_fps144.mp4",""
"","","","call-function","130","352760","0.0-130.0","9wfg8atd","","","","","","","",""
"3393.045000000042","{""judgement"":0}","[0]","survey-likert","131","356154","0.0-131.0","9wfg8atd","","","","","","","","1"
"1244.5900000000256","{""confidence"":0}","[0]","survey-likert","132","357400","0.0-132.0","9wfg8atd","","","","","","","",""
"","","","call-function","133","357401","0.0-133.0","9wfg8atd","","","","","","","",""
"null","","","html-keyboard-response","134","358905","0.0-134.0","9wfg8atd","","<span style=""color:Black; font-size:50px;"">Agent A","null","","","","",""
"null","","","video-keyboard-response","135","361979","0.0-135.0","9wfg8atd","","","null","","Agent A","veridical","STIM_SET_2_144/1592038.bmp_pp79_L2_V1.0_veridical_freeview_isoTrue_fps144.mp4",""
"null","","","html-keyboard-response","136","363482","0.0-136.0","9wfg8atd","","<span style=""color:Black; font-size:50px;"">Agent B","null","","","","",""
"null","","","video-keyboard-response","137","366557","0.0-137.0","9wfg8atd","","","null","","Agent B","scrambled","STIM_SET_5/1592038.bmp_pp79_L2_V1.0_veridical_freeview_isoTrue_Hflip_fps144.mp4",""
"","","","call-function","138","366557","0.0-138.0","9wfg8atd","","","","","","","",""
"1775.1999999999534","{""judgement"":0}","[0]","survey-likert","139","368334","0.0-139.0","9wfg8atd","","","","","","","","0"
"1457.6900000000023","{""confidence"":0}","[0]","survey-likert","140","369792","0.0-140.0","9wfg8atd","","","","","","","",""
"","","","call-function","141","369793","0.0-141.0","9wfg8atd","","","","","","","",""
"null","","","html-keyboard-response","142","371294","0.0-142.0","9wfg8atd","","<span style=""color:Black; font-size:50px;"">Agent A","null","","","","",""
"null","","","video-keyboard-response","143","374371","0.0-143.0","9wfg8atd","","","null","","Agent A","veridical","STIM_SET_2_144/1592047.bmp_pp51_L1_V1.0_veridical_freeview_isoTrue_fps144.mp4",""
"null","","","html-keyboard-response","144","375874","0.0-144.0","9wfg8atd","","<span style=""color:Black; font-size:50px;"">Agent B","null","","","","",""
"null","","","video-keyboard-response","145","378953","0.0-145.0","9wfg8atd","","","null","","Agent B","scrambled","STIM_SET_5/1592047.bmp_pp51_L1_V1.0_veridical_freeview_isoTrue_Hflip_fps144.mp4",""
"","","","call-function","146","378954","0.0-146.0","9wfg8atd","","","","","","","",""
"1562.8399999999674","{""judgement"":0}","[0]","survey-likert","147","380518","0.0-147.0","9wfg8atd","","","","","","","","0"
"1352.625","{""confidence"":0}","[0]","survey-likert","148","381871","0.0-148.0","9wfg8atd","","","","","","","",""
"","","","call-function","149","381872","0.0-149.0","9wfg8atd","","","","","","","",""
"null","","","html-keyboard-response","150","383376","0.0-150.0","9wfg8atd","","<span style=""color:Black; font-size:50px;"">Agent A","null","","","","",""
"null","","","video-keyboard-response","151","386452","0.0-151.0","9wfg8atd","","","null","","Agent A","veridical","STIM_SET_2_144/1159860.bmp_pp152_L2_V1.0_veridical_freeview_isoTrue_fps144.mp4",""
"null","","","html-keyboard-response","152","387956","0.0-152.0","9wfg8atd","","<span style=""color:Black; font-size:50px;"">Agent B","null","","","","",""
"null","","","video-keyboard-response","153","391030","0.0-153.0","9wfg8atd","","","null","","Agent B","scrambled","STIM_SET_5/1159860.bmp_pp152_L2_V1.0_veridical_freeview_isoTrue_Hflip_fps144.mp4",""
"","","","call-function","154","391031","0.0-154.0","9wfg8atd","","","","","","","",""
"1138.1500000000233","{""judgement"":0}","[0]","survey-likert","155","392170","0.0-155.0","9wfg8atd","","","","","","","","0"
"1059.789999999979","{""confidence"":0}","[0]","survey-likert","156","393230","0.0-156.0","9wfg8atd","","","","","","","",""
"","","","call-function","157","393231","0.0-157.0","9wfg8atd","","","","","","","",""
"null","","","html-keyboard-response","158","394732","0.0-158.0","9wfg8atd","","<span style=""color:Black; font-size:50px;"">Agent A","null","","","","",""
"null","","","video-keyboard-response","159","397805","0.0-159.0","9wfg8atd","","","null","","Agent A","scrambled","STIM_SET_5/1159325.bmp_pp67_L2_V1.0_veridical_freeview_isoTrue_Hflip_fps144.mp4",""
"null","","","html-keyboard-response","160","399312","0.0-160.0","9wfg8atd","","<span style=""color:Black; font-size:50px;"">Agent B","null","","","","",""
"null","","","video-keyboard-response","161","402385","0.0-161.0","9wfg8atd","","","null","","Agent B","veridical","STIM_SET_2_144/1159325.bmp_pp67_L2_V1.0_veridical_freeview_isoTrue_fps144.mp4",""
"","","","call-function","162","402385","0.0-162.0","9wfg8atd","","","","","","","",""
"1362.484999999986","{""judgement"":0}","[0]","survey-likert","163","403749","0.0-163.0","9wfg8atd","","","","","","","","1"
"1944.6800000000512","{""confidence"":0}","[0]","survey-likert","164","405695","0.0-164.0","9wfg8atd","","","","","","","",""
"","","","call-function","165","405695","0.0-165.0","9wfg8atd","","","","","","","",""
"null","","","html-keyboard-response","166","407201","0.0-166.0","9wfg8atd","","<span style=""color:Black; font-size:50px;"">Agent A","null","","","","",""
"null","","","video-keyboard-response","167","410279","0.0-167.0","9wfg8atd","","","null","","Agent A","scrambled","STIM_SET_5/498326.bmp_pp57_L1_V1.0_veridical_freeview_isoTrue_Hflip_fps144.mp4",""
"null","","","html-keyboard-response","168","411781","0.0-168.0","9wfg8atd","","<span style=""color:Black; font-size:50px;"">Agent B","null","","","","",""
"null","","","video-keyboard-response","169","414846","0.0-169.0","9wfg8atd","","","null","","Agent B","veridical","STIM_SET_2_144/498326.bmp_pp57_L1_V1.0_veridical_freeview_isoTrue_fps144.mp4",""
"","","","call-function","170","414847","0.0-170.0","9wfg8atd","","","","","","","",""
"1583.3250000000116","{""judgement"":0}","[0]","survey-likert","171","416431","0.0-171.0","9wfg8atd","","","","","","","","1"
"1547.1900000000023","{""confidence"":0}","[0]","survey-likert","172","417979","0.0-172.0","9wfg8atd","","","","","","","",""
"2221.9599999999627","","","instructions","173","420202","0.0-173.0","9wfg8atd","[{""page_index"":0,""viewing_time"":1208.1449999999604},{""page_index"":1,""viewing_time"":575.9550000000163},{""page_index"":2,""viewing_time"":437.66500000003725}]","","","","","","",""
"923.7149999999674","","","instructions","174","421126","0.0-174.0","9wfg8atd","[{""page_index"":0,""viewing_time"":235.61999999999534},{""page_index"":1,""viewing_time"":388},{""page_index"":2,""viewing_time"":299.99499999999534}]","","","","","","",""
"","","","call-function","175","421126","0.0-175.0","9wfg8atd","","","","","","","",""
"null","","","html-keyboard-response","176","422631","0.0-176.0","9wfg8atd","","<span style=""color:Black; font-size:50px;"">Agent A","null","","","","",""
"null","","","video-keyboard-response","177","425700","0.0-177.0","9wfg8atd","","","null","","Agent A","scrambled","STIM_SET_5/498261.bmp_pp84_L3_V1.0_veridical_freeview_isoTrue_Hflip_fps144.mp4",""
"null","","","html-keyboard-response","178","427206","0.0-178.0","9wfg8atd","","<span style=""color:Black; font-size:50px;"">Agent B","null","","","","",""
"null","","","video-keyboard-response","179","430275","0.0-179.0","9wfg8atd","","","null","","Agent B","veridical","STIM_SET_2_144/498261.bmp_pp84_L3_V1.0_veridical_freeview_isoTrue_fps144.mp4",""
"","","","call-function","180","430276","0.0-180.0","9wfg8atd","","","","","","","",""
"1834.3850000000093","{""judgement"":0}","[0]","survey-likert","181","432112","0.0-181.0","9wfg8atd","","","","","","","","1"
"1177.9799999999814","{""confidence"":0}","[0]","survey-likert","182","433291","0.0-182.0","9wfg8atd","","","","","","","",""
"","","","call-function","183","433291","0.0-183.0","9wfg8atd","","","","","","","",""
"null","","","html-keyboard-response","184","434796","0.0-184.0","9wfg8atd","","<span style=""color:Black; font-size:50px;"">Agent A","null","","","","",""
"null","","","video-keyboard-response","185","437857","0.0-185.0","9wfg8atd","","","null","","Agent A","scrambled","STIM_SET_5/713328.bmp_pp86_L2_V1.0_veridical_freeview_isoTrue_Hflip_fps144.mp4",""
"null","","","html-keyboard-response","186","439359","0.0-186.0","9wfg8atd","","<span style=""color:Black; font-size:50px;"">Agent B","null","","","","",""
"null","","","video-keyboard-response","187","442421","0.0-187.0","9wfg8atd","","","null","","Agent B","veridical","STIM_SET_2_144/713328.bmp_pp86_L2_V1.0_veridical_freeview_isoTrue_fps144.mp4",""
"","","","call-function","188","442422","0.0-188.0","9wfg8atd","","","","","","","",""
"1395.295000000042","{""judgement"":0}","[0]","survey-likert","189","443819","0.0-189.0","9wfg8atd","","","","","","","","1"
"1066.2299999999814","{""confidence"":0}","[0]","survey-likert","190","444886","0.0-190.0","9wfg8atd","","","","","","","",""
"","","","call-function","191","444887","0.0-191.0","9wfg8atd","","","","","","","",""
"null","","","html-keyboard-response","192","446391","0.0-192.0","9wfg8atd","","<span style=""color:Black; font-size:50px;"">Agent A","null","","","","",""
"null","","","video-keyboard-response","193","449462","0.0-193.0","9wfg8atd","","","null","","Agent A","scrambled","STIM_SET_5/1592025.bmp_pp68_L1_V1.0_veridical_freeview_isoTrue_Hflip_fps144.mp4",""
"null","","","html-keyboard-response","194","450969","0.0-194.0","9wfg8atd","","<span style=""color:Black; font-size:50px;"">Agent B","null","","","","",""
"null","","","video-keyboard-response","195","454036","0.0-195.0","9wfg8atd","","","null","","Agent B","veridical","STIM_SET_2_144/1592025.bmp_pp68_L1_V1.0_veridical_freeview_isoTrue_fps144.mp4",""
"","","","call-function","196","454036","0.0-196.0","9wfg8atd","","","","","","","",""
"1460.195000000007","{""judgement"":0}","[0]","survey-likert","197","455498","0.0-197.0","9wfg8atd","","","","","","","","1"
"1116.7649999999558","{""confidence"":0}","[0]","survey-likert","198","456616","0.0-198.0","9wfg8atd","","","","","","","",""
"","","","call-function","199","456616","0.0-199.0","9wfg8atd","","","","","","","",""
"null","","","html-keyboard-response","200","458122","0.0-200.0","9wfg8atd","","<span style=""color:Black; font-size:50px;"">Agent A","null","","","","",""
"null","","","video-keyboard-response","201","461183","0.0-201.0","9wfg8atd","","","null","","Agent A","veridical","STIM_SET_2_144/107955.bmp_pp90_L2_V1.0_veridical_freeview_isoTrue_fps144.mp4",""
"null","","","html-keyboard-response","202","462684","0.0-202.0","9wfg8atd","","<span style=""color:Black; font-size:50px;"">Agent B","null","","","","",""
"null","","","video-keyboard-response","203","465759","0.0-203.0","9wfg8atd","","","null","","Agent B","scrambled","STIM_SET_5/107955.bmp_pp90_L2_V1.0_veridical_freeview_isoTrue_Hflip_fps144.mp4",""
"","","","call-function","204","465759","0.0-204.0","9wfg8atd","","","","","","","",""
"1776.6849999999977","{""judgement"":0}","[0]","survey-likert","205","467537","0.0-205.0","9wfg8atd","","","","","","","","0"
"1093.2300000000396","{""confidence"":0}","[0]","survey-likert","206","468631","0.0-206.0","9wfg8atd","","","","","","","",""
"","","","call-function","207","468633","0.0-207.0","9wfg8atd","","","","","","","",""
"null","","","html-keyboard-response","208","470135","0.0-208.0","9wfg8atd","","<span style=""color:Black; font-size:50px;"">Agent A","null","","","","",""
"null","","","video-keyboard-response","209","473232","0.0-209.0","9wfg8atd","","","null","","Agent A","scrambled","STIM_SET_5/498025.bmp_pp81_L1_V1.0_veridical_freeview_isoTrue_Hflip_fps144.mp4",""
"null","","","html-keyboard-response","210","474735","0.0-210.0","9wfg8atd","","<span style=""color:Black; font-size:50px;"">Agent B","null","","","","",""
"null","","","video-keyboard-response","211","477831","0.0-211.0","9wfg8atd","","","null","","Agent B","veridical","STIM_SET_2_144/498025.bmp_pp81_L1_V1.0_veridical_freeview_isoTrue_fps144.mp4",""
"","","","call-function","212","477832","0.0-212.0","9wfg8atd","","","","","","","",""
"1362.1350000000093","{""judgement"":0}","[0]","survey-likert","213","479195","0.0-213.0","9wfg8atd","","","","","","","","1"
"1261.8549999999814","{""confidence"":0}","[0]","survey-likert","214","480458","0.0-214.0","9wfg8atd","","","","","","","",""
"","","","call-function","215","480458","0.0-215.0","9wfg8atd","","","","","","","",""
"null","","","html-keyboard-response","216","481959","0.0-216.0","9wfg8atd","","<span style=""color:Black; font-size:50px;"">Agent A","null","","","","",""
"null","","","video-keyboard-response","217","485044","0.0-217.0","9wfg8atd","","","null","","Agent A","veridical","STIM_SET_2_144/1592298.bmp_pp56_L3_V1.0_veridical_freeview_isoTrue_fps144.mp4",""
"null","","","html-keyboard-response","218","486550","0.0-218.0","9wfg8atd","","<span style=""color:Black; font-size:50px;"">Agent B","null","","","","",""
"null","","","video-keyboard-response","219","489633","0.0-219.0","9wfg8atd","","","null","","Agent B","scrambled","STIM_SET_5/1592298.bmp_pp56_L3_V1.0_veridical_freeview_isoTrue_Hflip_fps144.mp4",""
"","","","call-function","220","489633","0.0-220.0","9wfg8atd","","","","","","","",""
"1560.945000000007","{""judgement"":0}","[0]","survey-likert","221","491195","0.0-221.0","9wfg8atd","","","","","","","","0"
"1231.804999999993","{""confidence"":0}","[0]","survey-likert","222","492428","0.0-222.0","9wfg8atd","","","","","","","",""
"","","","call-function","223","492429","0.0-223.0","9wfg8atd","","","","","","","",""
"null","","","html-keyboard-response","224","493931","0.0-224.0","9wfg8atd","","<span style=""color:Black; font-size:50px;"">Agent A","null","","","","",""
"null","","","video-keyboard-response","225","497011","0.0-225.0","9wfg8atd","","","null","","Agent A","veridical","STIM_SET_2_144/1592150.bmp_pp77_L3_V1.0_veridical_freeview_isoTrue_fps144.mp4",""
"null","","","html-keyboard-response","226","498515","0.0-226.0","9wfg8atd","","<span style=""color:Black; font-size:50px;"">Agent B","null","","","","",""
"null","","","video-keyboard-response","227","501592","0.0-227.0","9wfg8atd","","","null","","Agent B","scrambled","STIM_SET_5/1592150.bmp_pp77_L3_V1.0_veridical_freeview_isoTrue_Hflip_fps144.mp4",""
"","","","call-function","228","501593","0.0-228.0","9wfg8atd","","","","","","","",""
"1825.4799999999814","{""judgement"":1}","[0]","survey-likert","229","503419","0.0-229.0","9wfg8atd","","","","","","","","0"
"1811.6900000000023","{""confidence"":0}","[0]","survey-likert","230","505232","0.0-230.0","9wfg8atd","","","","","","","",""
"","","","call-function","231","505232","0.0-231.0","9wfg8atd","","","","","","","",""
"null","","","html-keyboard-response","232","506738","0.0-232.0","9wfg8atd","","<span style=""color:Black; font-size:50px;"">Agent A","null","","","","",""
"null","","","video-keyboard-response","233","509809","0.0-233.0","9wfg8atd","","","null","","Agent A","veridical","STIM_SET_2_144/1159329.bmp_pp61_L2_V1.0_veridical_freeview_isoTrue_fps144.mp4",""
"null","","","html-keyboard-response","234","511312","0.0-234.0","9wfg8atd","","<span style=""color:Black; font-size:50px;"">Agent B","null","","","","",""
"null","","","video-keyboard-response","235","514380","0.0-235.0","9wfg8atd","","","null","","Agent B","scrambled","STIM_SET_5/1159329.bmp_pp61_L2_V1.0_veridical_freeview_isoTrue_Hflip_fps144.mp4",""
"","","","call-function","236","514380","0.0-236.0","9wfg8atd","","","","","","","",""
"1686.899999999965","{""judgement"":0}","[0]","survey-likert","237","516068","0.0-237.0","9wfg8atd","","","","","","","","0"
"1611.0650000000023","{""confidence"":0}","[0]","survey-likert","238","517680","0.0-238.0","9wfg8atd","","","","","","","",""
"","","","call-function","239","517680","0.0-239.0","9wfg8atd","","","","","","","",""
"null","","","html-keyboard-response","240","519185","0.0-240.0","9wfg8atd","","<span style=""color:Black; font-size:50px;"">Agent A","null","","","","",""
"null","","","video-keyboard-response","241","522246","0.0-241.0","9wfg8atd","","","null","","Agent A","scrambled","STIM_SET_5/285932.bmp_pp64_L1_V1.0_veridical_freeview_isoTrue_Hflip_fps144.mp4",""
"null","","","html-keyboard-response","242","523749","0.0-242.0","9wfg8atd","","<span style=""color:Black; font-size:50px;"">Agent B","null","","","","",""
"null","","","video-keyboard-response","243","526816","0.0-243.0","9wfg8atd","","","null","","Agent B","veridical","STIM_SET_2_144/285932.bmp_pp64_L1_V1.0_veridical_freeview_isoTrue_fps144.mp4",""
"","","","call-function","244","526817","0.0-244.0","9wfg8atd","","","","","","","",""
"1671.0399999999208","{""judgement"":1}","[0]","survey-likert","245","528489","0.0-245.0","9wfg8atd","","","","","","","","1"
"1969.2149999999674","{""confidence"":0}","[0]","survey-likert","246","530459","0.0-246.0","9wfg8atd","","","","","","","",""
"","","","call-function","247","530461","0.0-247.0","9wfg8atd","","","","","","","",""
"null","","","html-keyboard-response","248","531962","0.0-248.0","9wfg8atd","","<span style=""color:Black; font-size:50px;"">Agent A","null","","","","",""
"null","","","video-keyboard-response","249","535027","0.0-249.0","9wfg8atd","","","null","","Agent A","scrambled","STIM_SET_5/285715.bmp_pp67_L2_V1.0_veridical_freeview_isoTrue_Hflip_fps144.mp4",""
"null","","","html-keyboard-response","250","536534","0.0-250.0","9wfg8atd","","<span style=""color:Black; font-size:50px;"">Agent B","null","","","","",""
"null","","","video-keyboard-response","251","539597","0.0-251.0","9wfg8atd","","","null","","Agent B","veridical","STIM_SET_2_144/285715.bmp_pp67_L2_V1.0_veridical_freeview_isoTrue_fps144.mp4",""
"","","","call-function","252","539598","0.0-252.0","9wfg8atd","","","","","","","",""
"1627.5699999999488","{""judgement"":0}","[0]","survey-likert","253","541226","0.0-253.0","9wfg8atd","","","","","","","","1"
"1044.5400000000373","{""confidence"":0}","[0]","survey-likert","254","542272","0.0-254.0","9wfg8atd","","","","","","","",""
"1822.8850000000093","","","instructions","255","544095","0.0-255.0","9wfg8atd","[{""page_index"":0,""viewing_time"":997.1350000000093},{""page_index"":1,""viewing_time"":564.5400000000373},{""page_index"":2,""viewing_time"":261.02499999990687}]","","","","","","",""
"883.4300000000512","","","instructions","256","544979","0.0-256.0","9wfg8atd","[{""page_index"":0,""viewing_time"":361.2750000000233},{""page_index"":1,""viewing_time"":194.32500000006985},{""page_index"":2,""viewing_time"":327.7249999999767}]","","","","","","",""
"","","","call-function","257","544980","0.0-257.0","9wfg8atd","","","","","","","",""
"null","","","html-keyboard-response","258","546484","0.0-258.0","9wfg8atd","","<span style=""color:Black; font-size:50px;"">Agent A","null","","","","",""
"null","","","video-keyboard-response","259","549546","0.0-259.0","9wfg8atd","","","null","","Agent A","scrambled","STIM_SET_5/1592129.bmp_pp153_L3_V1.0_veridical_freeview_isoTrue_Hflip_fps144.mp4",""
"null","","","html-keyboard-response","260","551050","0.0-260.0","9wfg8atd","","<span style=""color:Black; font-size:50px;"">Agent B","null","","","","",""
"null","","","video-keyboard-response","261","554109","0.0-261.0","9wfg8atd","","","null","","Agent B","veridical","STIM_SET_2_144/1592129.bmp_pp153_L3_V1.0_veridical_freeview_isoTrue_fps144.mp4",""
"","","","call-function","262","554110","0.0-262.0","9wfg8atd","","","","","","","",""
"1733.0899999999674","{""judgement"":1}","[0]","survey-likert","263","555844","0.0-263.0","9wfg8atd","","","","","","","","1"
"1575.1450000000186","{""confidence"":0}","[0]","survey-likert","264","557420","0.0-264.0","9wfg8atd","","","","","","","",""
"","","","call-function","265","557420","0.0-265.0","9wfg8atd","","","","","","","",""
"null","","","html-keyboard-response","266","558921","0.0-266.0","9wfg8atd","","<span style=""color:Black; font-size:50px;"">Agent A","null","","","","",""
"null","","","video-keyboard-response","267","562005","0.0-267.0","9wfg8atd","","","null","","Agent A","scrambled","STIM_SET_5/1592305.bmp_pp65_L3_V1.0_veridical_freeview_isoTrue_Hflip_fps144.mp4",""
"null","","","html-keyboard-response","268","563508","0.0-268.0","9wfg8atd","","<span style=""color:Black; font-size:50px;"">Agent B","null","","","","",""
"null","","","video-keyboard-response","269","566595","0.0-269.0","9wfg8atd","","","null","","Agent B","veridical","STIM_SET_2_144/1592305.bmp_pp65_L3_V1.0_veridical_freeview_isoTrue_fps144.mp4",""
"","","","call-function","270","566595","0.0-270.0","9wfg8atd","","","","","","","",""
"2543.295000000042","{""judgement"":1}","[0]","survey-likert","271","569140","0.0-271.0","9wfg8atd","","","","","","","","1"
"1577.9399999999441","{""confidence"":0}","[0]","survey-likert","272","570719","0.0-272.0","9wfg8atd","","","","","","","",""
"","","","call-function","273","570719","0.0-273.0","9wfg8atd","","","","","","","",""
"null","","","html-keyboard-response","274","572221","0.0-274.0","9wfg8atd","","<span style=""color:Black; font-size:50px;"">Agent A","null","","","","",""
"null","","","video-keyboard-response","275","575305","0.0-275.0","9wfg8atd","","","null","","Agent A","veridical","STIM_SET_2_144/1159508.bmp_pp151_L1_V1.0_veridical_freeview_isoTrue_fps144.mp4",""
"null","","","html-keyboard-response","276","576807","0.0-276.0","9wfg8atd","","<span style=""color:Black; font-size:50px;"">Agent B","null","","","","",""
"null","","","video-keyboard-response","277","579888","0.0-277.0","9wfg8atd","","","null","","Agent B","scrambled","STIM_SET_5/1159508.bmp_pp151_L1_V1.0_veridical_freeview_isoTrue_Hflip_fps144.mp4",""
"","","","call-function","278","579888","0.0-278.0","9wfg8atd","","","","","","","",""
"1813.6500000000233","{""judgement"":0}","[0]","survey-likert","279","581703","0.0-279.0","9wfg8atd","","","","","","","","0"
"4132.515000000014","{""confidence"":0}","[0]","survey-likert","280","585837","0.0-280.0","9wfg8atd","","","","","","","",""
"","","","call-function","281","585837","0.0-281.0","9wfg8atd","","","","","","","",""
"null","","","html-keyboard-response","282","587341","0.0-282.0","9wfg8atd","","<span style=""color:Black; font-size:50px;"">Agent A","null","","","","",""
"null","","","video-keyboard-response","283","590429","0.0-283.0","9wfg8atd","","","null","","Agent A","scrambled","STIM_SET_5/107909.bmp_pp95_L2_V1.0_veridical_freeview_isoTrue_Hflip_fps144.mp4",""
"null","","","html-keyboard-response","284","591932","0.0-284.0","9wfg8atd","","<span style=""color:Black; font-size:50px;"">Agent B","null","","","","",""
"null","","","video-keyboard-response","285","595024","0.0-285.0","9wfg8atd","","","null","","Agent B","veridical","STIM_SET_2_144/107909.bmp_pp95_L2_V1.0_veridical_freeview_isoTrue_fps144.mp4",""
"","","","call-function","286","595024","0.0-286.0","9wfg8atd","","","","","","","",""
"1312.0999999999767","{""judgement"":0}","[0]","survey-likert","287","596337","0.0-287.0","9wfg8atd","","","","","","","","1"
"1272.2900000000373","{""confidence"":0}","[0]","survey-likert","288","597610","0.0-288.0","9wfg8atd","","","","","","","",""
"","","","call-function","289","597611","0.0-289.0","9wfg8atd","","","","","","","",""
"null","","","html-keyboard-response","290","599112","0.0-290.0","9wfg8atd","","<span style=""color:Black; font-size:50px;"">Agent A","null","","","","",""
"null","","","video-keyboard-response","291","602172","0.0-291.0","9wfg8atd","","","null","","Agent A","scrambled","STIM_SET_5/1592314.bmp_pp100_L3_V1.0_veridical_freeview_isoTrue_Hflip_fps144.mp4",""
"null","","","html-keyboard-response","292","603674","0.0-292.0","9wfg8atd","","<span style=""color:Black; font-size:50px;"">Agent B","null","","","","",""
"null","","","video-keyboard-response","293","606739","0.0-293.0","9wfg8atd","","","null","","Agent B","veridical","STIM_SET_2_144/1592314.bmp_pp100_L3_V1.0_veridical_freeview_isoTrue_fps144.mp4",""
"","","","call-function","294","606740","0.0-294.0","9wfg8atd","","","","","","","",""
"2129.1049999999814","{""judgement"":1}","[0]","survey-likert","295","608870","0.0-295.0","9wfg8atd","","","","","","","","1"
"1870.4000000000233","{""confidence"":0}","[0]","survey-likert","296","610741","0.0-296.0","9wfg8atd","","","","","","","",""
"","","","call-function","297","610742","0.0-297.0","9wfg8atd","","","","","","","",""
"null","","","html-keyboard-response","298","612246","0.0-298.0","9wfg8atd","","<span style=""color:Black; font-size:50px;"">Agent A","null","","","","",""
"null","","","video-keyboard-response","299","615313","0.0-299.0","9wfg8atd","","","null","","Agent A","veridical","STIM_SET_2_144/1159956.bmp_pp59_L3_V1.0_veridical_freeview_isoTrue_fps144.mp4",""
"null","","","html-keyboard-response","300","616819","0.0-300.0","9wfg8atd","","<span style=""color:Black; font-size:50px;"">Agent B","null","","","","",""
"null","","","video-keyboard-response","301","619887","0.0-301.0","9wfg8atd","","","null","","Agent B","scrambled","STIM_SET_5/1159956.bmp_pp59_L3_V1.0_veridical_freeview_isoTrue_Hflip_fps144.mp4",""
"","","","call-function","302","619888","0.0-302.0","9wfg8atd","","","","","","","",""
"1857.4899999999907","{""judgement"":0}","[0]","survey-likert","303","621747","0.0-303.0","9wfg8atd","","","","","","","","0"
"1303.6500000000233","{""confidence"":0}","[0]","survey-likert","304","623052","0.0-304.0","9wfg8atd","","","","","","","",""
"","","","call-function","305","623052","0.0-305.0","9wfg8atd","","","","","","","",""
"null","","","html-keyboard-response","306","624557","0.0-306.0","9wfg8atd","","<span style=""color:Black; font-size:50px;"">Agent A","null","","","","",""
"null","","","video-keyboard-response","307","627634","0.0-307.0","9wfg8atd","","","null","","Agent A","veridical","STIM_SET_2_144/498372.bmp_pp95_L2_V1_veridical_freeview_isoTrue_fps144.mp4",""
"null","","","html-keyboard-response","308","629141","0.0-308.0","9wfg8atd","","<span style=""color:Black; font-size:50px;"">Agent B","null","","","","",""
"null","","","video-keyboard-response","309","632217","0.0-309.0","9wfg8atd","","","null","","Agent B","scrambled","STIM_SET_5/498372.bmp_pp95_L2_V1_veridical_freeview_isoTrue_Hflip_fps144.mp4",""
"","","","call-function","310","632218","0.0-310.0","9wfg8atd","","","","","","","",""
"1908.8150000000605","{""judgement"":0}","[0]","survey-likert","311","634128","0.0-311.0","9wfg8atd","","","","","","","","0"
"1584.0149999998976","{""confidence"":0}","[0]","survey-likert","312","635713","0.0-312.0","9wfg8atd","","","","","","","",""
"","","","call-function","313","635714","0.0-313.0","9wfg8atd","","","","","","","",""
"null","","","html-keyboard-response","314","637217","0.0-314.0","9wfg8atd","","<span style=""color:Black; font-size:50px;"">Agent A","null","","","","",""
"null","","","video-keyboard-response","315","640276","0.0-315.0","9wfg8atd","","","null","","Agent A","scrambled","STIM_SET_5/498398.bmp_pp81_L1_V1.0_veridical_freeview_isoTrue_Hflip_fps144.mp4",""
"null","","","html-keyboard-response","316","641780","0.0-316.0","9wfg8atd","","<span style=""color:Black; font-size:50px;"">Agent B","null","","","","",""
"null","","","video-keyboard-response","317","644842","0.0-317.0","9wfg8atd","","","null","","Agent B","veridical","STIM_SET_2_144/498398.bmp_pp81_L1_V1.0_veridical_freeview_isoTrue_fps144.mp4",""
"","","","call-function","318","644842","0.0-318.0","9wfg8atd","","","","","","","",""
"1694.4150000000373","{""judgement"":0}","[0]","survey-likert","319","646537","0.0-319.0","9wfg8atd","","","","","","","","1"
"1944.5899999999674","{""confidence"":0}","[0]","survey-likert","320","648483","0.0-320.0","9wfg8atd","","","","","","","",""
"","","","call-function","321","648484","0.0-321.0","9wfg8atd","","","","","","","",""
"null","","","html-keyboard-response","322","649985","0.0-322.0","9wfg8atd","","<span style=""color:Black; font-size:50px;"">Agent A","null","","","","",""
"null","","","video-keyboard-response","323","653072","0.0-323.0","9wfg8atd","","","null","","Agent A","veridical","STIM_SET_2_144/1592747.bmp_pp53_L2_V1.0_veridical_freeview_isoTrue_fps144.mp4",""
"null","","","html-keyboard-response","324","654576","0.0-324.0","9wfg8atd","","<span style=""color:Black; font-size:50px;"">Agent B","null","","","","",""
"null","","","video-keyboard-response","325","657661","0.0-325.0","9wfg8atd","","","null","","Agent B","scrambled","STIM_SET_5/1592747.bmp_pp53_L2_V1.0_veridical_freeview_isoTrue_Hflip_fps144.mp4",""
"","","","call-function","326","657662","0.0-326.0","9wfg8atd","","","","","","","",""
"1716.0699999999488","{""judgement"":1}","[0]","survey-likert","327","659379","0.0-327.0","9wfg8atd","","","","","","","","0"
"1577.6149999999907","{""confidence"":0}","[0]","survey-likert","328","660958","0.0-328.0","9wfg8atd","","","","","","","",""
"","","","call-function","329","660958","0.0-329.0","9wfg8atd","","","","","","","",""
"null","","","html-keyboard-response","330","662461","0.0-330.0","9wfg8atd","","<span style=""color:Black; font-size:50px;"">Agent A","null","","","","",""
"null","","","video-keyboard-response","331","665547","0.0-331.0","9wfg8atd","","","null","","Agent A","veridical","STIM_SET_2_144/498396.bmp_pp99_L2_V1.0_veridical_freeview_isoTrue_fps144.mp4",""
"null","","","html-keyboard-response","332","667049","0.0-332.0","9wfg8atd","","<span style=""color:Black; font-size:50px;"">Agent B","null","","","","",""
"null","","","video-keyboard-response","333","670132","0.0-333.0","9wfg8atd","","","null","","Agent B","scrambled","STIM_SET_5/498396.bmp_pp99_L2_V1.0_veridical_freeview_isoTrue_Hflip_fps144.mp4",""
"","","","call-function","334","670132","0.0-334.0","9wfg8atd","","","","","","","",""
"2164.929999999935","{""judgement"":0}","[0]","survey-likert","335","672298","0.0-335.0","9wfg8atd","","","","","","","","0"
"2976.6650000000373","{""confidence"":0}","[0]","survey-likert","336","675276","0.0-336.0","9wfg8atd","","","","","","","",""
"2971.435000000056","","","instructions","337","678248","0.0-337.0","9wfg8atd","[{""page_index"":0,""viewing_time"":2282.045000000042},{""page_index"":1,""viewing_time"":443.8850000000093},{""page_index"":2,""viewing_time"":245.34499999997206}]","","","","","","",""
"733.9749999999767","","","instructions","338","678982","0.0-338.0","9wfg8atd","[{""page_index"":0,""viewing_time"":175.39500000001863},{""page_index"":1,""viewing_time"":194.99499999999534},{""page_index"":2,""viewing_time"":363.48499999998603}]","","","","","","",""
"","","","call-function","339","678983","0.0-339.0","9wfg8atd","","","","","","","",""
"null","","","html-keyboard-response","340","680485","0.0-340.0","9wfg8atd","","<span style=""color:Black; font-size:50px;"">Agent A","null","","","","",""
"null","","","video-keyboard-response","341","683573","0.0-341.0","9wfg8atd","","","null","","Agent A","veridical","STIM_SET_2_144/713788.bmp_pp52_L1_V1.0_veridical_freeview_isoTrue_fps144.mp4",""
"null","","","html-keyboard-response","342","685076","0.0-342.0","9wfg8atd","","<span style=""color:Black; font-size:50px;"">Agent B","null","","","","",""
"null","","","video-keyboard-response","343","688161","0.0-343.0","9wfg8atd","","","null","","Agent B","scrambled","STIM_SET_5/713788.bmp_pp52_L1_V1.0_veridical_freeview_isoTrue_Hflip_fps144.mp4",""
"","","","call-function","344","688161","0.0-344.0","9wfg8atd","","","","","","","",""
"2928.7850000000326","{""judgement"":0}","[0]","survey-likert","345","691091","0.0-345.0","9wfg8atd","","","","","","","","0"
"1477.134999999893","{""confidence"":1}","[0]","survey-likert","346","692569","0.0-346.0","9wfg8atd","","","","","","","",""
"","","","call-function","347","692570","0.0-347.0","9wfg8atd","","","","","","","",""
"null","","","html-keyboard-response","348","694072","0.0-348.0","9wfg8atd","","<span style=""color:Black; font-size:50px;"">Agent A","null","","","","",""
"null","","","video-keyboard-response","349","697133","0.0-349.0","9wfg8atd","","","null","","Agent A","scrambled","STIM_SET_5/1591920.bmp_pp97_L3_V1_veridical_freeview_isoTrue_Hflip_fps144.mp4",""
"null","","","html-keyboard-response","350","698639","0.0-350.0","9wfg8atd","","<span style=""color:Black; font-size:50px;"">Agent B","null","","","","",""
"null","","","video-keyboard-response","351","701702","0.0-351.0","9wfg8atd","","","null","","Agent B","veridical","STIM_SET_2_144/1591920.bmp_pp97_L3_V1_veridical_freeview_isoTrue_fps144.mp4",""
"","","","call-function","352","701702","0.0-352.0","9wfg8atd","","","","","","","",""
"2496.265000000014","{""judgement"":1}","[0]","survey-likert","353","704200","0.0-353.0","9wfg8atd","","","","","","","","1"
"1388.969999999972","{""confidence"":0}","[0]","survey-likert","354","705591","0.0-354.0","9wfg8atd","","","","","","","",""
"","","","call-function","355","705592","0.0-355.0","9wfg8atd","","","","","","","",""
"null","","","html-keyboard-response","356","707094","0.0-356.0","9wfg8atd","","<span style=""color:Black; font-size:50px;"">Agent A","null","","","","",""
"null","","","video-keyboard-response","357","710157","0.0-357.0","9wfg8atd","","","null","","Agent A","veridical","STIM_SET_2_144/1592017.bmp_pp154_L1_V1.0_veridical_freeview_isoTrue_fps144.mp4",""
"null","","","html-keyboard-response","358","711659","0.0-358.0","9wfg8atd","","<span style=""color:Black; font-size:50px;"">Agent B","null","","","","",""
"null","","","video-keyboard-response","359","714723","0.0-359.0","9wfg8atd","","","null","","Agent B","scrambled","STIM_SET_5/1592017.bmp_pp154_L1_V1.0_veridical_freeview_isoTrue_Hflip_fps144.mp4",""
"","","","call-function","360","714724","0.0-360.0","9wfg8atd","","","","","","","",""
"1744.3700000001118","{""judgement"":0}","[0]","survey-likert","361","716470","0.0-361.0","9wfg8atd","","","","","","","","0"
"1842.7399999999907","{""confidence"":0}","[0]","survey-likert","362","718314","0.0-362.0","9wfg8atd","","","","","","","",""
"","","","call-function","363","718314","0.0-363.0","9wfg8atd","","","","","","","",""
"null","","","html-keyboard-response","364","719815","0.0-364.0","9wfg8atd","","<span style=""color:Black; font-size:50px;"">Agent A","null","","","","",""
"null","","","video-keyboard-response","365","722893","0.0-365.0","9wfg8atd","","","null","","Agent A","veridical","STIM_SET_2_144/713770.bmp_pp89_L1_V1.0_veridical_freeview_isoTrue_fps144.mp4",""
"null","","","html-keyboard-response","366","724398","0.0-366.0","9wfg8atd","","<span style=""color:Black; font-size:50px;"">Agent B","null","","","","",""
"null","","","video-keyboard-response","367","727469","0.0-367.0","9wfg8atd","","","null","","Agent B","scrambled","STIM_SET_5/713770.bmp_pp89_L1_V1.0_veridical_freeview_isoTrue_Hflip_fps144.mp4",""
"","","","call-function","368","727470","0.0-368.0","9wfg8atd","","","","","","","",""
"2408.284999999916","{""judgement"":0}","[0]","survey-likert","369","729880","0.0-369.0","9wfg8atd","","","","","","","","0"
"1528.9250000000466","{""confidence"":0}","[0]","survey-likert","370","731410","0.0-370.0","9wfg8atd","","","","","","","",""
"","","","call-function","371","731410","0.0-371.0","9wfg8atd","","","","","","","",""
"null","","","html-keyboard-response","372","732914","0.0-372.0","9wfg8atd","","<span style=""color:Black; font-size:50px;"">Agent A","null","","","","",""
"null","","","video-keyboard-response","373","736000","0.0-373.0","9wfg8atd","","","null","","Agent A","veridical","STIM_SET_2_144/1592530.bmp_pp75_L1_V1.0_veridical_freeview_isoTrue_fps144.mp4",""
"null","","","html-keyboard-response","374","737501","0.0-374.0","9wfg8atd","","<span style=""color:Black; font-size:50px;"">Agent B","null","","","","",""
"null","","","video-keyboard-response","375","740584","0.0-375.0","9wfg8atd","","","null","","Agent B","scrambled","STIM_SET_5/1592530.bmp_pp75_L1_V1.0_veridical_freeview_isoTrue_Hflip_fps144.mp4",""
"","","","call-function","376","740585","0.0-376.0","9wfg8atd","","","","","","","",""
"3217.590000000084","{""judgement"":0}","[0]","survey-likert","377","743803","0.0-377.0","9wfg8atd","","","","","","","","0"
"1605.280000000028","{""confidence"":0}","[0]","survey-likert","378","745410","0.0-378.0","9wfg8atd","","","","","","","",""
"","","","call-function","379","745410","0.0-379.0","9wfg8atd","","","","","","","",""
"null","","","html-keyboard-response","380","746911","0.0-380.0","9wfg8atd","","<span style=""color:Black; font-size:50px;"">Agent A","null","","","","",""
"null","","","video-keyboard-response","381","749987","0.0-381.0","9wfg8atd","","","null","","Agent A","veridical","STIM_SET_2_144/1592951.bmp_pp80_L3_V1.0_veridical_freeview_isoTrue_fps144.mp4",""
"null","","","html-keyboard-response","382","751489","0.0-382.0","9wfg8atd","","<span style=""color:Black; font-size:50px;"">Agent B","null","","","","",""
"null","","","video-keyboard-response","383","754565","0.0-383.0","9wfg8atd","","","null","","Agent B","scrambled","STIM_SET_5/1592951.bmp_pp80_L3_V1.0_veridical_freeview_isoTrue_Hflip_fps144.mp4",""
"","","","call-function","384","754566","0.0-384.0","9wfg8atd","","","","","","","",""
"2037.6149999999907","{""judgement"":1}","[0]","survey-likert","385","756604","0.0-385.0","9wfg8atd","","","","","","","","0"
"1540.045000000042","{""confidence"":0}","[0]","survey-likert","386","758146","0.0-386.0","9wfg8atd","","","","","","","",""
"","","","call-function","387","758146","0.0-387.0","9wfg8atd","","","","","","","",""
"null","","","html-keyboard-response","388","759649","0.0-388.0","9wfg8atd","","<span style=""color:Black; font-size:50px;"">Agent A","null","","","","",""
"null","","","video-keyboard-response","389","762730","0.0-389.0","9wfg8atd","","","null","","Agent A","scrambled","STIM_SET_5/150463.bmp_pp55_L3_V1.0_veridical_freeview_isoTrue_Hflip_fps144.mp4",""
"null","","","html-keyboard-response","390","764234","0.0-390.0","9wfg8atd","","<span style=""color:Black; font-size:50px;"">Agent B","null","","","","",""
"null","","","video-keyboard-response","391","767316","0.0-391.0","9wfg8atd","","","null","","Agent B","veridical","STIM_SET_2_144/150463.bmp_pp55_L3_V1.0_veridical_freeview_isoTrue_fps144.mp4",""
"","","","call-function","392","767317","0.0-392.0","9wfg8atd","","","","","","","",""
"2469.6650000000373","{""judgement"":1}","[0]","survey-likert","393","769787","0.0-393.0","9wfg8atd","","","","","","","","1"
"1519.5749999999534","{""confidence"":0}","[0]","survey-likert","394","771308","0.0-394.0","9wfg8atd","","","","","","","",""
"","","","call-function","395","771309","0.0-395.0","9wfg8atd","","","","","","","",""
"null","","","html-keyboard-response","396","772813","0.0-396.0","9wfg8atd","","<span style=""color:Black; font-size:50px;"">Agent A","null","","","","",""
"null","","","video-keyboard-response","397","775879","0.0-397.0","9wfg8atd","","","null","","Agent A","veridical","STIM_SET_2_144/1159819.bmp_pp151_L1_V1.0_veridical_freeview_isoTrue_fps144.mp4",""
"null","","","html-keyboard-response","398","777384","0.0-398.0","9wfg8atd","","<span style=""color:Black; font-size:50px;"">Agent B","null","","","","",""
"null","","","video-keyboard-response","399","780454","0.0-399.0","9wfg8atd","","","null","","Agent B","scrambled","STIM_SET_5/1159819.bmp_pp151_L1_V1.0_veridical_freeview_isoTrue_Hflip_fps144.mp4",""
"","","","call-function","400","780455","0.0-400.0","9wfg8atd","","","","","","","",""
"1740.7050000000745","{""judgement"":0}","[0]","survey-likert","401","782197","0.0-401.0","9wfg8atd","","","","","","","","0"
"1136.765000000014","{""confidence"":0}","[0]","survey-likert","402","783335","0.0-402.0","9wfg8atd","","","","","","","",""
"","","","call-function","403","783335","0.0-403.0","9wfg8atd","","","","","","","",""
"null","","","html-keyboard-response","404","784836","0.0-404.0","9wfg8atd","","<span style=""color:Black; font-size:50px;"">Agent A","null","","","","",""
"null","","","video-keyboard-response","405","787896","0.0-405.0","9wfg8atd","","","null","","Agent A","veridical","STIM_SET_2_144/285684.bmp_pp80_L3_V1.0_veridical_freeview_isoTrue_fps144.mp4",""
"null","","","html-keyboard-response","406","789398","0.0-406.0","9wfg8atd","","<span style=""color:Black; font-size:50px;"">Agent B","null","","","","",""
"null","","","video-keyboard-response","407","792459","0.0-407.0","9wfg8atd","","","null","","Agent B","scrambled","STIM_SET_5/285684.bmp_pp80_L3_V1.0_veridical_freeview_isoTrue_Hflip_fps144.mp4",""
"","","","call-function","408","792460","0.0-408.0","9wfg8atd","","","","","","","",""
"1795.109999999986","{""judgement"":0}","[0]","survey-likert","409","794256","0.0-409.0","9wfg8atd","","","","","","","","0"
"1596.6999999999534","{""confidence"":0}","[0]","survey-likert","410","795854","0.0-410.0","9wfg8atd","","","","","","","",""
"","","","call-function","411","795855","0.0-411.0","9wfg8atd","","","","","","","",""
"null","","","html-keyboard-response","412","797358","0.0-412.0","9wfg8atd","","<span style=""color:Black; font-size:50px;"">Agent A","null","","","","",""
"null","","","video-keyboard-response","413","800435","0.0-413.0","9wfg8atd","","","null","","Agent A","scrambled","STIM_SET_5/1592168.bmp_pp71_L1_V1.0_veridical_freeview_isoTrue_Hflip_fps144.mp4",""
"null","","","html-keyboard-response","414","801938","0.0-414.0","9wfg8atd","","<span style=""color:Black; font-size:50px;"">Agent B","null","","","","",""
"null","","","video-keyboard-response","415","805012","0.0-415.0","9wfg8atd","","","null","","Agent B","veridical","STIM_SET_2_144/1592168.bmp_pp71_L1_V1.0_veridical_freeview_isoTrue_fps144.mp4",""
"","","","call-function","416","805013","0.0-416.0","9wfg8atd","","","","","","","",""
"1899.829999999958","{""judgement"":0}","[0]","survey-likert","417","806914","0.0-417.0","9wfg8atd","","","","","","","","1"
"1507.9599999999627","{""confidence"":0}","[0]","survey-likert","418","808423","0.0-418.0","9wfg8atd","","","","","","","",""
"1837.844999999972","","","instructions","419","810261","0.0-419.0","9wfg8atd","[{""page_index"":0,""viewing_time"":1065.9150000000373},{""page_index"":1,""viewing_time"":555.6149999999907},{""page_index"":2,""viewing_time"":216.15000000002328}]","","","","","","",""
"731.0900000000838","","","instructions","420","810993","0.0-420.0","9wfg8atd","[{""page_index"":0,""viewing_time"":210.46000000007916},{""page_index"":1,""viewing_time"":167.01500000001397},{""page_index"":2,""viewing_time"":353.5100000000093}]","","","","","","",""
"","","","call-function","421","810993","0.0-421.0","9wfg8atd","","","","","","","",""
"null","","","html-keyboard-response","422","812499","0.0-422.0","9wfg8atd","","<span style=""color:Black; font-size:50px;"">Agent A","null","","","","",""
"null","","","video-keyboard-response","423","815590","0.0-423.0","9wfg8atd","","","null","","Agent A","veridical","STIM_SET_2_144/713742.bmp_pp91_L3_V1.0_veridical_freeview_isoTrue_fps144.mp4",""
"null","","","html-keyboard-response","424","817092","0.0-424.0","9wfg8atd","","<span style=""color:Black; font-size:50px;"">Agent B","null","","","","",""
"null","","","video-keyboard-response","425","820185","0.0-425.0","9wfg8atd","","","null","","Agent B","scrambled","STIM_SET_5/713742.bmp_pp91_L3_V1.0_veridical_freeview_isoTrue_Hflip_fps144.mp4",""
"","","","call-function","426","820186","0.0-426.0","9wfg8atd","","","","","","","",""
"3356.7449999999953","{""judgement"":1}","[0]","survey-likert","427","823544","0.0-427.0","9wfg8atd","","","","","","","","0"
"2168.375","{""confidence"":0}","[0]","survey-likert","428","825713","0.0-428.0","9wfg8atd","","","","","","","",""
"","","","call-function","429","825713","0.0-429.0","9wfg8atd","","","","","","","",""
"null","","","html-keyboard-response","430","827217","0.0-430.0","9wfg8atd","","<span style=""color:Black; font-size:50px;"">Agent A","null","","","","",""
"null","","","video-keyboard-response","431","830299","0.0-431.0","9wfg8atd","","","null","","Agent A","scrambled","STIM_SET_5/1160204.bmp_pp54_L2_V1.0_veridical_freeview_isoTrue_Hflip_fps144.mp4",""
"null","","","html-keyboard-response","432","831801","0.0-432.0","9wfg8atd","","<span style=""color:Black; font-size:50px;"">Agent B","null","","","","",""
"null","","","video-keyboard-response","433","834885","0.0-433.0","9wfg8atd","","","null","","Agent B","veridical","STIM_SET_2_144/1160204.bmp_pp54_L2_V1.0_veridical_freeview_isoTrue_fps144.mp4",""
"","","","call-function","434","834886","0.0-434.0","9wfg8atd","","","","","","","",""
"3038.609999999986","{""judgement"":0}","[0]","survey-likert","435","837925","0.0-435.0","9wfg8atd","","","","","","","","1"
"2019.2900000000373","{""confidence"":0}","[0]","survey-likert","436","839945","0.0-436.0","9wfg8atd","","","","","","","",""
"","","","call-function","437","839946","0.0-437.0","9wfg8atd","","","","","","","",""
"null","","","html-keyboard-response","438","841450","0.0-438.0","9wfg8atd","","<span style=""color:Black; font-size:50px;"">Agent A","null","","","","",""
"null","","","video-keyboard-response","439","844527","0.0-439.0","9wfg8atd","","","null","","Agent A","scrambled","STIM_SET_5/286034.bmp_pp69_L3_V1.0_veridical_freeview_isoTrue_Hflip_fps144.mp4",""
"null","","","html-keyboard-response","440","846029","0.0-440.0","9wfg8atd","","<span style=""color:Black; font-size:50px;"">Agent B","null","","","","",""
"null","","","video-keyboard-response","441","849105","0.0-441.0","9wfg8atd","","","null","","Agent B","veridical","STIM_SET_2_144/286034.bmp_pp69_L3_V1.0_veridical_freeview_isoTrue_fps144.mp4",""
"","","","call-function","442","849105","0.0-442.0","9wfg8atd","","","","","","","",""
"1507.9850000001024","{""judgement"":0}","[0]","survey-likert","443","850615","0.0-443.0","9wfg8atd","","","","","","","","1"
"1589.5899999999674","{""confidence"":0}","[0]","survey-likert","444","852205","0.0-444.0","9wfg8atd","","","","","","","",""
"","","","call-function","445","852206","0.0-445.0","9wfg8atd","","","","","","","",""
"null","","","html-keyboard-response","446","853712","0.0-446.0","9wfg8atd","","<span style=""color:Black; font-size:50px;"">Agent A","null","","","","",""
"null","","","video-keyboard-response","447","856789","0.0-447.0","9wfg8atd","","","null","","Agent A","veridical","STIM_SET_2_144/1159592.bmp_pp91_L3_V1.0_veridical_freeview_isoTrue_fps144.mp4",""
"null","","","html-keyboard-response","448","858296","0.0-448.0","9wfg8atd","","<span style=""color:Black; font-size:50px;"">Agent B","null","","","","",""
"null","","","video-keyboard-response","449","861371","0.0-449.0","9wfg8atd","","","null","","Agent B","scrambled","STIM_SET_5/1159592.bmp_pp91_L3_V1.0_veridical_freeview_isoTrue_Hflip_fps144.mp4",""
"","","","call-function","450","861372","0.0-450.0","9wfg8atd","","","","","","","",""
"2767.7900000000373","{""judgement"":0}","[0]","survey-likert","451","864141","0.0-451.0","9wfg8atd","","","","","","","","0"
"1669.5750000000698","{""confidence"":0}","[0]","survey-likert","452","865811","0.0-452.0","9wfg8atd","","","","","","","",""
"","","","call-function","453","865812","0.0-453.0","9wfg8atd","","","","","","","",""
"null","","","html-keyboard-response","454","867314","0.0-454.0","9wfg8atd","","<span style=""color:Black; font-size:50px;"">Agent A","null","","","","",""
"null","","","video-keyboard-response","455","870384","0.0-455.0","9wfg8atd","","","null","","Agent A","veridical","STIM_SET_2_144/713920.bmp_pp76_L1_V1.0_veridical_freeview_isoTrue_fps144.mp4",""
"null","","","html-keyboard-response","456","871888","0.0-456.0","9wfg8atd","","<span style=""color:Black; font-size:50px;"">Agent B","null","","","","",""
"null","","","video-keyboard-response","457","874957","0.0-457.0","9wfg8atd","","","null","","Agent B","scrambled","STIM_SET_5/713920.bmp_pp76_L1_V1.0_veridical_freeview_isoTrue_Hflip_fps144.mp4",""
"","","","call-function","458","874958","0.0-458.0","9wfg8atd","","","","","","","",""
"2824.1350000000093","{""judgement"":0}","[0]","survey-likert","459","877784","0.0-459.0","9wfg8atd","","","","","","","","0"
"1401.9450000000652","{""confidence"":0}","[0]","survey-likert","460","879187","0.0-460.0","9wfg8atd","","","","","","","",""
"","","","call-function","461","879188","0.0-461.0","9wfg8atd","","","","","","","",""
"null","","","html-keyboard-response","462","880691","0.0-462.0","9wfg8atd","","<span style=""color:Black; font-size:50px;"">Agent A","null","","","","",""
"null","","","video-keyboard-response","463","883767","0.0-463.0","9wfg8atd","","","null","","Agent A","veridical","STIM_SET_2_144/61513.bmp_pp75_L1_V1.0_veridical_freeview_isoTrue_fps144.mp4",""
"null","","","html-keyboard-response","464","885269","0.0-464.0","9wfg8atd","","<span style=""color:Black; font-size:50px;"">Agent B","null","","","","",""
"null","","","video-keyboard-response","465","888338","0.0-465.0","9wfg8atd","","","null","","Agent B","scrambled","STIM_SET_5/61513.bmp_pp75_L1_V1.0_veridical_freeview_isoTrue_Hflip_fps144.mp4",""
"","","","call-function","466","888339","0.0-466.0","9wfg8atd","","","","","","","",""
"1953.9000000000233","{""judgement"":0}","[0]","survey-likert","467","890294","0.0-467.0","9wfg8atd","","","","","","","","0"
"1386.9800000000978","{""confidence"":0}","[0]","survey-likert","468","891682","0.0-468.0","9wfg8atd","","","","","","","",""
"","","","call-function","469","891683","0.0-469.0","9wfg8atd","","","","","","","",""
"null","","","html-keyboard-response","470","893188","0.0-470.0","9wfg8atd","","<span style=""color:Black; font-size:50px;"">Agent A","null","","","","",""
"null","","","video-keyboard-response","471","896264","0.0-471.0","9wfg8atd","","","null","","Agent A","veridical","STIM_SET_2_144/713381.bmp_pp82_L2_V1.0_veridical_freeview_isoTrue_fps144.mp4",""
"null","","","html-keyboard-response","472","897766","0.0-472.0","9wfg8atd","","<span style=""color:Black; font-size:50px;"">Agent B","null","","","","",""
"null","","","video-keyboard-response","473","900839","0.0-473.0","9wfg8atd","","","null","","Agent B","scrambled","STIM_SET_5/713381.bmp_pp82_L2_V1.0_veridical_freeview_isoTrue_Hflip_fps144.mp4",""
"","","","call-function","474","900840","0.0-474.0","9wfg8atd","","","","","","","",""
"1578.6850000000559","{""judgement"":0}","[0]","survey-likert","475","902419","0.0-475.0","9wfg8atd","","","","","","","","0"
"1852.9799999999814","{""confidence"":0}","[0]","survey-likert","476","904274","0.0-476.0","9wfg8atd","","","","","","","",""
"","","","call-function","477","904274","0.0-477.0","9wfg8atd","","","","","","","",""
"null","","","html-keyboard-response","478","905776","0.0-478.0","9wfg8atd","","<span style=""color:Black; font-size:50px;"">Agent A","null","","","","",""
"null","","","video-keyboard-response","479","908859","0.0-479.0","9wfg8atd","","","null","","Agent A","veridical","STIM_SET_2_144/713274.bmp_pp73_L3_V1.0_veridical_freeview_isoTrue_fps144.mp4",""
"null","","","html-keyboard-response","480","910363","0.0-480.0","9wfg8atd","","<span style=""color:Black; font-size:50px;"">Agent B","null","","","","",""
"null","","","video-keyboard-response","481","913446","0.0-481.0","9wfg8atd","","","null","","Agent B","scrambled","STIM_SET_5/713274.bmp_pp73_L3_V1.0_veridical_freeview_isoTrue_Hflip_fps144.mp4",""
"","","","call-function","482","913447","0.0-482.0","9wfg8atd","","","","","","","",""
"1973.530000000028","{""judgement"":0}","[0]","survey-likert","483","915421","0.0-483.0","9wfg8atd","","","","","","","","0"
"1419.9249999999302","{""confidence"":0}","[0]","survey-likert","484","916842","0.0-484.0","9wfg8atd","","","","","","","",""
"","","","call-function","485","916843","0.0-485.0","9wfg8atd","","","","","","","",""
"null","","","html-keyboard-response","486","918344","0.0-486.0","9wfg8atd","","<span style=""color:Black; font-size:50px;"">Agent A","null","","","","",""
"null","","","video-keyboard-response","487","921421","0.0-487.0","9wfg8atd","","","null","","Agent A","veridical","STIM_SET_2_144/1159427.bmp_pp98_L1_V1.0_veridical_freeview_isoTrue_fps144.mp4",""
"null","","","html-keyboard-response","488","922925","0.0-488.0","9wfg8atd","","<span style=""color:Black; font-size:50px;"">Agent B","null","","","","",""
"null","","","video-keyboard-response","489","926001","0.0-489.0","9wfg8atd","","","null","","Agent B","scrambled","STIM_SET_5/1159427.bmp_pp98_L1_V1.0_veridical_freeview_isoTrue_Hflip_fps144.mp4",""
"","","","call-function","490","926001","0.0-490.0","9wfg8atd","","","","","","","",""
"1646.329999999958","{""judgement"":1}","[0]","survey-likert","491","927649","0.0-491.0","9wfg8atd","","","","","","","","0"
"1583.844999999972","{""confidence"":0}","[0]","survey-likert","492","929234","0.0-492.0","9wfg8atd","","","","","","","",""
"","","","call-function","493","929234","0.0-493.0","9wfg8atd","","","","","","","",""
"null","","","html-keyboard-response","494","930736","0.0-494.0","9wfg8atd","","<span style=""color:Black; font-size:50px;"">Agent A","null","","","","",""
"null","","","video-keyboard-response","495","933827","0.0-495.0","9wfg8atd","","","null","","Agent A","veridical","STIM_SET_2_144/713790.bmp_pp100_L3_V1_veridical_freeview_isoTrue_fps144.mp4",""
"null","","","html-keyboard-response","496","935329","0.0-496.0","9wfg8atd","","<span style=""color:Black; font-size:50px;"">Agent B","null","","","","",""
"null","","","video-keyboard-response","497","938421","0.0-497.0","9wfg8atd","","","null","","Agent B","scrambled","STIM_SET_5/713790.bmp_pp100_L3_V1_veridical_freeview_isoTrue_Hflip_fps144.mp4",""
"","","","call-function","498","938421","0.0-498.0","9wfg8atd","","","","","","","",""
"1690.6600000000326","{""judgement"":0}","[0]","survey-likert","499","940113","0.0-499.0","9wfg8atd","","","","","","","","0"
"1913.9299999999348","{""confidence"":0}","[0]","survey-likert","500","942028","0.0-500.0","9wfg8atd","","","","","","","",""
"2022.7100000000792","","","instructions","501","944051","0.0-501.0","9wfg8atd","[{""page_index"":0,""viewing_time"":1188.75},{""page_index"":1,""viewing_time"":544.140000000014},{""page_index"":2,""viewing_time"":289.6700000000419}]","","","","","","",""
"823.640000000014","","","instructions","502","944875","0.0-502.0","9wfg8atd","[{""page_index"":0,""viewing_time"":227.65999999991618},{""page_index"":1,""viewing_time"":199.05000000004657},{""page_index"":2,""viewing_time"":396.73499999998603}]","","","","","","",""
"","","","call-function","503","944876","0.0-503.0","9wfg8atd","","","","","","","",""
"null","","","html-keyboard-response","504","946382","0.0-504.0","9wfg8atd","","<span style=""color:Black; font-size:50px;"">Agent A","null","","","","",""
"null","","","video-keyboard-response","505","949444","0.0-505.0","9wfg8atd","","","null","","Agent A","veridical","STIM_SET_2_144/1592567.bmp_pp70_L2_V1.0_veridical_freeview_isoTrue_fps144.mp4",""
"null","","","html-keyboard-response","506","950946","0.0-506.0","9wfg8atd","","<span style=""color:Black; font-size:50px;"">Agent B","null","","","","",""
"null","","","video-keyboard-response","507","954007","0.0-507.0","9wfg8atd","","","null","","Agent B","scrambled","STIM_SET_5/1592567.bmp_pp70_L2_V1.0_veridical_freeview_isoTrue_Hflip_fps144.mp4",""
"","","","call-function","508","954007","0.0-508.0","9wfg8atd","","","","","","","",""
"1666.6350000000093","{""judgement"":0}","[0]","survey-likert","509","955675","0.0-509.0","9wfg8atd","","","","","","","","0"
"2830.8150000000605","{""confidence"":0}","[0]","survey-likert","510","958507","0.0-510.0","9wfg8atd","","","","","","","",""
"","","","call-function","511","958507","0.0-511.0","9wfg8atd","","","","","","","",""
"null","","","html-keyboard-response","512","960014","0.0-512.0","9wfg8atd","","<span style=""color:Black; font-size:50px;"">Agent A","null","","","","",""
"null","","","video-keyboard-response","513","963098","0.0-513.0","9wfg8atd","","","null","","Agent A","scrambled","STIM_SET_5/285946.bmp_pp79_L2_V1.0_veridical_freeview_isoTrue_Hflip_fps144.mp4",""
"null","","","html-keyboard-response","514","964604","0.0-514.0","9wfg8atd","","<span style=""color:Black; font-size:50px;"">Agent B","null","","","","",""
"null","","","video-keyboard-response","515","967686","0.0-515.0","9wfg8atd","","","null","","Agent B","veridical","STIM_SET_2_144/285946.bmp_pp79_L2_V1.0_veridical_freeview_isoTrue_fps144.mp4",""
"","","","call-function","516","967687","0.0-516.0","9wfg8atd","","","","","","","",""
"1732.0950000000885","{""judgement"":0}","[0]","survey-likert","517","969420","0.0-517.0","9wfg8atd","","","","","","","","1"
"1919.859999999986","{""confidence"":0}","[0]","survey-likert","518","971341","0.0-518.0","9wfg8atd","","","","","","","",""
"","","","call-function","519","971342","0.0-519.0","9wfg8atd","","","","","","","",""
"null","","","html-keyboard-response","520","972845","0.0-520.0","9wfg8atd","","<span style=""color:Black; font-size:50px;"">Agent A","null","","","","",""
"null","","","video-keyboard-response","521","975929","0.0-521.0","9wfg8atd","","","null","","Agent A","scrambled","STIM_SET_5/1592289.bmp_pp92_L3_V1.0_veridical_freeview_isoTrue_Hflip_fps144.mp4",""
"null","","","html-keyboard-response","522","977433","0.0-522.0","9wfg8atd","","<span style=""color:Black; font-size:50px;"">Agent B","null","","","","",""
"null","","","video-keyboard-response","523","980502","0.0-523.0","9wfg8atd","","","null","","Agent B","veridical","STIM_SET_2_144/1592289.bmp_pp92_L3_V1.0_veridical_freeview_isoTrue_fps144.mp4",""
"","","","call-function","524","980503","0.0-524.0","9wfg8atd","","","","","","","",""
"1949.3499999999767","{""judgement"":1}","[0]","survey-likert","525","982454","0.0-525.0","9wfg8atd","","","","","","","","1"
"1540.545000000042","{""confidence"":0}","[0]","survey-likert","526","983997","0.0-526.0","9wfg8atd","","","","","","","",""
"","","","call-function","527","983998","0.0-527.0","9wfg8atd","","","","","","","",""
"null","","","html-keyboard-response","528","985503","0.0-528.0","9wfg8atd","","<span style=""color:Black; font-size:50px;"">Agent A","null","","","","",""
"null","","","video-keyboard-response","529","988578","0.0-529.0","9wfg8atd","","","null","","Agent A","veridical","STIM_SET_2_144/1591781.bmp_pp63_L1_V1.0_veridical_freeview_isoTrue_fps144.mp4",""
"null","","","html-keyboard-response","530","990079","0.0-530.0","9wfg8atd","","<span style=""color:Black; font-size:50px;"">Agent B","null","","","","",""
"null","","","video-keyboard-response","531","993154","0.0-531.0","9wfg8atd","","","null","","Agent B","scrambled","STIM_SET_5/1591781.bmp_pp63_L1_V1.0_veridical_freeview_isoTrue_Hflip_fps144.mp4",""
"","","","call-function","532","993155","0.0-532.0","9wfg8atd","","","","","","","",""
"2419.2449999999953","{""judgement"":0}","[0]","survey-likert","533","995575","0.0-533.0","9wfg8atd","","","","","","","","0"
"2008.5550000000512","{""confidence"":0}","[0]","survey-likert","534","997585","0.0-534.0","9wfg8atd","","","","","","","",""
"","","","call-function","535","997586","0.0-535.0","9wfg8atd","","","","","","","",""
"null","","","html-keyboard-response","536","999088","0.0-536.0","9wfg8atd","","<span style=""color:Black; font-size:50px;"">Agent A","null","","","","",""
"null","","","video-keyboard-response","537","1002150","0.0-537.0","9wfg8atd","","","null","","Agent A","veridical","STIM_SET_2_144/1592857.bmp_pp52_L1_V1_veridical_freeview_isoTrue_fps144.mp4",""
"null","","","html-keyboard-response","538","1003652","0.0-538.0","9wfg8atd","","<span style=""color:Black; font-size:50px;"">Agent B","null","","","","",""
"null","","","video-keyboard-response","539","1006725","0.0-539.0","9wfg8atd","","","null","","Agent B","scrambled","STIM_SET_5/1592857.bmp_pp52_L1_V1_veridical_freeview_isoTrue_Hflip_fps144.mp4",""
"","","","call-function","540","1006725","0.0-540.0","9wfg8atd","","","","","","","",""
"1557.7900000000373","{""judgement"":1}","[0]","survey-likert","541","1008284","0.0-541.0","9wfg8atd","","","","","","","","0"
"1596.8649999999907","{""confidence"":0}","[0]","survey-likert","542","1009882","0.0-542.0","9wfg8atd","","","","","","","",""
"","","","call-function","543","1009883","0.0-543.0","9wfg8atd","","","","","","","",""
"null","","","html-keyboard-response","544","1011386","0.0-544.0","9wfg8atd","","<span style=""color:Black; font-size:50px;"">Agent A","null","","","","",""
"null","","","video-keyboard-response","545","1014468","0.0-545.0","9wfg8atd","","","null","","Agent A","scrambled","STIM_SET_5/1592921.bmp_pp69_L3_V1.0_veridical_freeview_isoTrue_Hflip_fps144.mp4",""
"null","","","html-keyboard-response","546","1015972","0.0-546.0","9wfg8atd","","<span style=""color:Black; font-size:50px;"">Agent B","null","","","","",""
"null","","","video-keyboard-response","547","1019052","0.0-547.0","9wfg8atd","","","null","","Agent B","veridical","STIM_SET_2_144/1592921.bmp_pp69_L3_V1.0_veridical_freeview_isoTrue_fps144.mp4",""
"","","","call-function","548","1019052","0.0-548.0","9wfg8atd","","","","","","","",""
"1579.170000000042","{""judgement"":0}","[0]","survey-likert","549","1020632","0.0-549.0","9wfg8atd","","","","","","","","1"
"1738.0599999999395","{""confidence"":0}","[0]","survey-likert","550","1022372","0.0-550.0","9wfg8atd","","","","","","","",""
"","","","call-function","551","1022372","0.0-551.0","9wfg8atd","","","","","","","",""
"null","","","html-keyboard-response","552","1023877","0.0-552.0","9wfg8atd","","<span style=""color:Black; font-size:50px;"">Agent A","null","","","","",""
"null","","","video-keyboard-response","553","1026953","0.0-553.0","9wfg8atd","","","null","","Agent A","scrambled","STIM_SET_5/1160049.bmp_pp53_L2_V1.0_veridical_freeview_isoTrue_Hflip_fps144.mp4",""
"null","","","html-keyboard-response","554","1028457","0.0-554.0","9wfg8atd","","<span style=""color:Black; font-size:50px;"">Agent B","null","","","","",""
"null","","","video-keyboard-response","555","1031530","0.0-555.0","9wfg8atd","","","null","","Agent B","veridical","STIM_SET_2_144/1160049.bmp_pp53_L2_V1.0_veridical_freeview_isoTrue_fps144.mp4",""
"","","","call-function","556","1031531","0.0-556.0","9wfg8atd","","","","","","","",""
"2123.430000000051","{""judgement"":0}","[0]","survey-likert","557","1033655","0.0-557.0","9wfg8atd","","","","","","","","1"
"2140.515000000014","{""confidence"":0}","[0]","survey-likert","558","1035797","0.0-558.0","9wfg8atd","","","","","","","",""
"","","","call-function","559","1035797","0.0-559.0","9wfg8atd","","","","","","","",""
"null","","","html-keyboard-response","560","1037301","0.0-560.0","9wfg8atd","","<span style=""color:Black; font-size:50px;"">Agent A","null","","","","",""
"null","","","video-keyboard-response","561","1040375","0.0-561.0","9wfg8atd","","","null","","Agent A","veridical","STIM_SET_2_144/1591975.bmp_pp88_L2_V1.0_veridical_freeview_isoTrue_fps144.mp4",""
"null","","","html-keyboard-response","562","1041878","0.0-562.0","9wfg8atd","","<span style=""color:Black; font-size:50px;"">Agent B","null","","","","",""
"null","","","video-keyboard-response","563","1044952","0.0-563.0","9wfg8atd","","","null","","Agent B","scrambled","STIM_SET_5/1591975.bmp_pp88_L2_V1.0_veridical_freeview_isoTrue_Hflip_fps144.mp4",""
"","","","call-function","564","1044952","0.0-564.0","9wfg8atd","","","","","","","",""
"2149.3499999999767","{""judgement"":1}","[0]","survey-likert","565","1047103","0.0-565.0","9wfg8atd","","","","","","","","0"
"1657.7600000001257","{""confidence"":0}","[0]","survey-likert","566","1048763","0.0-566.0","9wfg8atd","","","","","","","",""
"","","","call-function","567","1048764","0.0-567.0","9wfg8atd","","","","","","","",""
"null","","","html-keyboard-response","568","1050269","0.0-568.0","9wfg8atd","","<span style=""color:Black; font-size:50px;"">Agent A","null","","","","",""
"null","","","video-keyboard-response","569","1053329","0.0-569.0","9wfg8atd","","","null","","Agent A","scrambled","STIM_SET_5/1159392.bmp_pp96_L2_V1.0_veridical_freeview_isoTrue_Hflip_fps144.mp4",""
"null","","","html-keyboard-response","570","1054831","0.0-570.0","9wfg8atd","","<span style=""color:Black; font-size:50px;"">Agent B","null","","","","",""
"null","","","video-keyboard-response","571","1057896","0.0-571.0","9wfg8atd","","","null","","Agent B","veridical","STIM_SET_2_144/1159392.bmp_pp96_L2_V1.0_veridical_freeview_isoTrue_fps144.mp4",""
"","","","call-function","572","1057897","0.0-572.0","9wfg8atd","","","","","","","",""
"3877.7650000001304","{""judgement"":0}","[0]","survey-likert","573","1061776","0.0-573.0","9wfg8atd","","","","","","","","1"
"1657.9199999999255","{""confidence"":0}","[0]","survey-likert","574","1063435","0.0-574.0","9wfg8atd","","","","","","","",""
"","","","call-function","575","1063436","0.0-575.0","9wfg8atd","","","","","","","",""
"null","","","html-keyboard-response","576","1064939","0.0-576.0","9wfg8atd","","<span style=""color:Black; font-size:50px;"">Agent A","null","","","","",""
"null","","","video-keyboard-response","577","1068015","0.0-577.0","9wfg8atd","","","null","","Agent A","scrambled","STIM_SET_5/713858.bmp_pp57_L1_V1.0_veridical_freeview_isoTrue_Hflip_fps144.mp4",""
"null","","","html-keyboard-response","578","1069518","0.0-578.0","9wfg8atd","","<span style=""color:Black; font-size:50px;"">Agent B","null","","","","",""
"null","","","video-keyboard-response","579","1072591","0.0-579.0","9wfg8atd","","","null","","Agent B","veridical","STIM_SET_2_144/713858.bmp_pp57_L1_V1.0_veridical_freeview_isoTrue_fps144.mp4",""
"","","","call-function","580","1072592","0.0-580.0","9wfg8atd","","","","","","","",""
"1893.3549999999814","{""judgement"":0}","[0]","survey-likert","581","1074486","0.0-581.0","9wfg8atd","","","","","","","","1"
"1296.0399999998044","{""confidence"":0}","[0]","survey-likert","582","1075783","0.0-582.0","9wfg8atd","","","","","","","",""
"1284.655000000028","","","instructions","583","1077069","0.0-583.0","9wfg8atd","[{""page_index"":0,""viewing_time"":1284.5200000000186}]","","","","","","",""
"1009.3899999998976","","","instructions","584","1078079","0.0-584.0","9wfg8atd","[{""page_index"":0,""viewing_time"":1009.2899999998044}]","","","","","","",""
"7262.714999999851","{""post-1"":3}","[0]","survey-likert","585","1085342","0.0-585.0","9wfg8atd","","","","","","","",""
"2586.625","{""post-1"":3}","[0]","survey-likert","586","1087930","0.0-586.0","9wfg8atd","","","","","","","",""
"2974.4850000001024","{""post-2"":3}","[0]","survey-likert","587","1090906","0.0-587.0","9wfg8atd","","","","","","","",""
"2090.75","{""post-2"":3}","[0]","survey-likert","588","1092998","0.0-588.0","9wfg8atd","","","","","","","",""
"4247.915000000037","{""post-3"":2}","[0]","survey-likert","589","1097247","0.0-589.0","9wfg8atd","","","","","","","",""
"1494.9549999998417","{""post-3"":2}","[0]","survey-likert","590","1098743","0.0-590.0","9wfg8atd","","","","","","","",""
"5495.410000000149","{""post-4"":2}","[0]","survey-likert","591","1104240","0.0-591.0","9wfg8atd","","","","","","","",""
"1347.2700000000186","{""post-4"":2}","[0]","survey-likert","592","1105589","0.0-592.0","9wfg8atd","","","","","","","",""
"5193.479999999981","{""post-5"":0}","[0]","survey-likert","593","1110784","0.0-593.0","9wfg8atd","","","","","","","",""
"1129.9250000000466","{""post-5"":0}","[0]","survey-likert","594","1111916","0.0-594.0","9wfg8atd","","","","","","","",""
"62723.2350000001","{""Q0"":""I felt that the second agent was mirror of the first agent. This made it difficult to determine which one was more human.""}","","survey-text","595","1174645","0.0-595.0","9wfg8atd","","","","","","","",""
"19221.00500000012","{""Q0"":""Most of the videos felt human.""}","","survey-text","596","1193869","0.0-596.0","9wfg8atd","","","","","","","",""
"33649.3600000001","{""Q0"":""It was difficult to determine which agent was non-human because the videos were mirrored.""}","","survey-text","597","1227522","0.0-597.0","9wfg8atd","","","","","","","",""
"960.7749999999069","","","instructions","598","1228483","0.0-598.0","9wfg8atd","[{""page_index"":0,""viewing_time"":960.6449999997858}]","","","","","","",""
"65730.18000000017","{""Experimenter_end"":[""Printed ID# 9wfg8atd on consent form"",""Given subject SONA credit or payment""]}","[0]","survey-multi-select","599","1294217","0.0-599.0","9wfg8atd","","","","","","","",""
