"rt","responses","question_order","trial_type","trial_index","time_elapsed","internal_node_id","ID","view_history","stimulus","key_press","value","agent","condition","image","correct_answer"
"13694.17","{""Experimenter"":[""Confirmed subject's identity"",""Confirmed normal or corrected-to-normal vision"",""Obtained consent (signature and date)"",""Checked the test room lighting"",""Checked computer screen lighting"",""Checked distance from screen to chin rest (50cm)"",""Cleaned and adjusted chin rest"",""Counterbalanced the order of the tasks"",""Opened the experiment in Firefox"",""Made the experiment full screen"",""Encouraged subject to silence phone, put away distractors, etc.""]}","[0]","survey-multi-select","0","13708","0.0-0.0","affmy50w","","","","","","","",""
"22649.980000000003","","","instructions","1","36361","0.0-1.0","affmy50w","[{""page_index"":0,""viewing_time"":22649.355000000003}]","","","","","","",""
"9349.745000000003","","","instructions","2","45713","0.0-2.0","affmy50w","[{""page_index"":0,""viewing_time"":5251.635000000002},{""page_index"":1,""viewing_time"":1405.9449999999997},{""page_index"":2,""viewing_time"":2692.029999999999}]","","","","","","",""
"2312.209999999999","","","instructions","3","48027","0.0-3.0","affmy50w","[{""page_index"":0,""viewing_time"":2312.0799999999945}]","","","","","","",""
"null","","","video-keyboard-response","4","51109","0.0-4.0","affmy50w","","","null","","","","",""
"8841.050000000003","","","instructions","5","59951","0.0-5.0","affmy50w","[{""page_index"":0,""viewing_time"":3381.875},{""page_index"":1,""viewing_time"":1748},{""page_index"":2,""viewing_time"":3711.0599999999977}]","","","","","","",""
"2674.739999999998","","","instructions","6","62627","0.0-6.0","affmy50w","[{""page_index"":0,""viewing_time"":2674.635000000002}]","","","","","","",""
"1176.824999999997","","","instructions","7","63805","0.0-7.0","affmy50w","[{""page_index"":0,""viewing_time"":1176.5800000000017}]","","","","","","",""
"null","","","video-keyboard-response","8","66884","0.0-8.0","affmy50w","","","null","","","","",""
"7705.514999999999","","","instructions","9","74590","0.0-9.0","affmy50w","[{""page_index"":0,""viewing_time"":1635.854999999996},{""page_index"":1,""viewing_time"":1911.5050000000047},{""page_index"":2,""viewing_time"":4158.005000000005}]","","","","","","",""
"2889.925000000003","","","instructions","10","77481","0.0-10.0","affmy50w","[{""page_index"":0,""viewing_time"":2889.790000000008}]","","","","","","",""
"","","","call-function","11","77483","0.0-11.0","affmy50w","","","","","","","",""
"null","","","html-keyboard-response","12","78986","0.0-12.0","affmy50w","","<span style=""color:Black; font-size:50px;"">Agent A","null","","","","",""
"null","","","video-keyboard-response","13","81824","0.0-13.0","affmy50w","","","null","","Agent A","scrambled","FOR_REV_MAP_BLOBBY_STIM/498261.bmp_pp84_L3_V1.0_veridical_freeview_isoTrue_fps144_reversed_REAL.mp4",""
"null","","","html-keyboard-response","14","83327","0.0-14.0","affmy50w","","<span style=""color:Black; font-size:50px;"">Agent B","null","","","","",""
"null","","","video-keyboard-response","15","86298","0.0-15.0","affmy50w","","","null","","Agent B","veridical","FOR_REV_MAP_BLOBBY_STIM/498261.bmp_pp84_L3_V1.0_veridical_freeview_isoTrue_fps144.mp4",""
"","","","call-function","16","86300","0.0-16.0","affmy50w","","","","","","","",""
"3213.675000000003","{""judgement"":1}","[0]","survey-likert","17","89515","0.0-17.0","affmy50w","","","","","","","","1"
"1335.6549999999988","{""confidence"":3}","[0]","survey-likert","18","90853","0.0-18.0","affmy50w","","","","","","","",""
"","","","call-function","19","90854","0.0-19.0","affmy50w","","","","","","","",""
"null","","","html-keyboard-response","20","92356","0.0-20.0","affmy50w","","<span style=""color:Black; font-size:50px;"">Agent A","null","","","","",""
"null","","","video-keyboard-response","21","95210","0.0-21.0","affmy50w","","","null","","Agent A","scrambled","FOR_REV_MAP_BLOBBY_STIM/1159427.bmp_pp98_L1_V1.0_veridical_freeview_isoTrue_fps144_reversed_REAL.mp4",""
"null","","","html-keyboard-response","22","96713","0.0-22.0","affmy50w","","<span style=""color:Black; font-size:50px;"">Agent B","null","","","","",""
"null","","","video-keyboard-response","23","99504","0.0-23.0","affmy50w","","","null","","Agent B","veridical","FOR_REV_MAP_BLOBBY_STIM/1159427.bmp_pp98_L1_V1.0_veridical_freeview_isoTrue_fps144.mp4",""
"","","","call-function","24","99506","0.0-24.0","affmy50w","","","","","","","",""
"2959.734999999986","{""judgement"":1}","[0]","survey-likert","25","102484","0.0-25.0","affmy50w","","","","","","","","1"
"2140.270000000004","{""confidence"":3}","[0]","survey-likert","26","104627","0.0-26.0","affmy50w","","","","","","","",""
"","","","call-function","27","104628","0.0-27.0","affmy50w","","","","","","","",""
"null","","","html-keyboard-response","28","106132","0.0-28.0","affmy50w","","<span style=""color:Black; font-size:50px;"">Agent A","null","","","","",""
"null","","","video-keyboard-response","29","108957","0.0-29.0","affmy50w","","","null","","Agent A","scrambled","FOR_REV_MAP_BLOBBY_STIM/1592044.bmp_pp94_L2_V1.0_veridical_freeview_isoTrue_fps144_reversed_REAL.mp4",""
"null","","","html-keyboard-response","30","110463","0.0-30.0","affmy50w","","<span style=""color:Black; font-size:50px;"">Agent B","null","","","","",""
"null","","","video-keyboard-response","31","113257","0.0-31.0","affmy50w","","","null","","Agent B","veridical","FOR_REV_MAP_BLOBBY_STIM/1592044.bmp_pp94_L2_V1.0_veridical_freeview_isoTrue_fps144.mp4",""
"","","","call-function","32","113258","0.0-32.0","affmy50w","","","","","","","",""
"2543.5099999999948","{""judgement"":0}","[0]","survey-likert","33","115804","0.0-33.0","affmy50w","","","","","","","","1"
"1189.320000000007","{""confidence"":0}","[0]","survey-likert","34","116996","0.0-34.0","affmy50w","","","","","","","",""
"","","","call-function","35","116997","0.0-35.0","affmy50w","","","","","","","",""
"null","","","html-keyboard-response","36","118497","0.0-36.0","affmy50w","","<span style=""color:Black; font-size:50px;"">Agent A","null","","","","",""
"null","","","video-keyboard-response","37","121247","0.0-37.0","affmy50w","","","null","","Agent A","scrambled","FOR_REV_MAP_BLOBBY_STIM/1159325.bmp_pp67_L2_V1.0_veridical_freeview_isoTrue_fps144_reversed_REAL.mp4",""
"null","","","html-keyboard-response","38","122751","0.0-38.0","affmy50w","","<span style=""color:Black; font-size:50px;"">Agent B","null","","","","",""
"null","","","video-keyboard-response","39","125593","0.0-39.0","affmy50w","","","null","","Agent B","veridical","FOR_REV_MAP_BLOBBY_STIM/1159325.bmp_pp67_L2_V1.0_veridical_freeview_isoTrue_fps144.mp4",""
"","","","call-function","40","125594","0.0-40.0","affmy50w","","","","","","","",""
"1940.7899999999936","{""judgement"":1}","[0]","survey-likert","41","127536","0.0-41.0","affmy50w","","","","","","","","1"
"1848.5450000000128","{""confidence"":2}","[0]","survey-likert","42","129387","0.0-42.0","affmy50w","","","","","","","",""
"","","","call-function","43","129388","0.0-43.0","affmy50w","","","","","","","",""
"null","","","html-keyboard-response","44","130892","0.0-44.0","affmy50w","","<span style=""color:Black; font-size:50px;"">Agent A","null","","","","",""
"null","","","video-keyboard-response","45","133812","0.0-45.0","affmy50w","","","null","","Agent A","scrambled","FOR_REV_MAP_BLOBBY_STIM/498025.bmp_pp81_L1_V1.0_veridical_freeview_isoTrue_fps144_reversed_REAL.mp4",""
"null","","","html-keyboard-response","46","135331","0.0-46.0","affmy50w","","<span style=""color:Black; font-size:50px;"">Agent B","null","","","","",""
"null","","","video-keyboard-response","47","138308","0.0-47.0","affmy50w","","","null","","Agent B","veridical","FOR_REV_MAP_BLOBBY_STIM/498025.bmp_pp81_L1_V1.0_veridical_freeview_isoTrue_fps144.mp4",""
"","","","call-function","48","138309","0.0-48.0","affmy50w","","","","","","","",""
"3677.334999999992","{""judgement"":0}","[0]","survey-likert","49","141987","0.0-49.0","affmy50w","","","","","","","","1"
"1514.6750000000175","{""confidence"":1}","[0]","survey-likert","50","143504","0.0-50.0","affmy50w","","","","","","","",""
"","","","call-function","51","143505","0.0-51.0","affmy50w","","","","","","","",""
"null","","","html-keyboard-response","52","145010","0.0-52.0","affmy50w","","<span style=""color:Black; font-size:50px;"">Agent A","null","","","","",""
"null","","","video-keyboard-response","53","147791","0.0-53.0","affmy50w","","","null","","Agent A","scrambled","FOR_REV_MAP_BLOBBY_STIM/713790.bmp_pp100_L3_V1.0_veridical_freeview_isoTrue_fps144_reversed_REAL.mp4",""
"null","","","html-keyboard-response","54","149297","0.0-54.0","affmy50w","","<span style=""color:Black; font-size:50px;"">Agent B","null","","","","",""
"null","","","video-keyboard-response","55","152094","0.0-55.0","affmy50w","","","null","","Agent B","veridical","FOR_REV_MAP_BLOBBY_STIM/713790.bmp_pp100_L3_V1.0_veridical_freeview_isoTrue_fps144.mp4",""
"","","","call-function","56","152096","0.0-56.0","affmy50w","","","","","","","",""
"1234.0849999999919","{""judgement"":0}","[0]","survey-likert","57","153331","0.0-57.0","affmy50w","","","","","","","","1"
"1135.3649999999907","{""confidence"":2}","[0]","survey-likert","58","154469","0.0-58.0","affmy50w","","","","","","","",""
"","","","call-function","59","154471","0.0-59.0","affmy50w","","","","","","","",""
"null","","","html-keyboard-response","60","155973","0.0-60.0","affmy50w","","<span style=""color:Black; font-size:50px;"">Agent A","null","","","","",""
"null","","","video-keyboard-response","61","158745","0.0-61.0","affmy50w","","","null","","Agent A","scrambled","FOR_REV_MAP_BLOBBY_STIM/1160049.bmp_pp53_L2_V1.0_veridical_freeview_isoTrue_fps144_reversed_REAL.mp4",""
"null","","","html-keyboard-response","62","160249","0.0-62.0","affmy50w","","<span style=""color:Black; font-size:50px;"">Agent B","null","","","","",""
"null","","","video-keyboard-response","63","163024","0.0-63.0","affmy50w","","","null","","Agent B","veridical","FOR_REV_MAP_BLOBBY_STIM/1160049.bmp_pp53_L2_V1.0_veridical_freeview_isoTrue_fps144.mp4",""
"","","","call-function","64","163026","0.0-64.0","affmy50w","","","","","","","",""
"1380.0050000000047","{""judgement"":1}","[0]","survey-likert","65","164406","0.0-65.0","affmy50w","","","","","","","","1"
"1748.2750000000233","{""confidence"":2}","[0]","survey-likert","66","166157","0.0-66.0","affmy50w","","","","","","","",""
"","","","call-function","67","166158","0.0-67.0","affmy50w","","","","","","","",""
"null","","","html-keyboard-response","68","167663","0.0-68.0","affmy50w","","<span style=""color:Black; font-size:50px;"">Agent A","null","","","","",""
"null","","","video-keyboard-response","69","170479","0.0-69.0","affmy50w","","","null","","Agent A","veridical","FOR_REV_MAP_BLOBBY_STIM/498372.bmp_pp95_L2_V1.0_veridical_freeview_isoTrue_fps144.mp4",""
"null","","","html-keyboard-response","70","171983","0.0-70.0","affmy50w","","<span style=""color:Black; font-size:50px;"">Agent B","null","","","","",""
"null","","","video-keyboard-response","71","174810","0.0-71.0","affmy50w","","","null","","Agent B","scrambled","FOR_REV_MAP_BLOBBY_STIM/498372.bmp_pp95_L2_V1.0_veridical_freeview_isoTrue_fps144_reversed_REAL.mp4",""
"","","","call-function","72","174811","0.0-72.0","affmy50w","","","","","","","",""
"3498.4550000000163","{""judgement"":0}","[0]","survey-likert","73","178312","0.0-73.0","affmy50w","","","","","","","","0"
"1445.1700000000128","{""confidence"":1}","[0]","survey-likert","74","179759","0.0-74.0","affmy50w","","","","","","","",""
"","","","call-function","75","179760","0.0-75.0","affmy50w","","","","","","","",""
"null","","","html-keyboard-response","76","181265","0.0-76.0","affmy50w","","<span style=""color:Black; font-size:50px;"">Agent A","null","","","","",""
"null","","","video-keyboard-response","77","184072","0.0-77.0","affmy50w","","","null","","Agent A","scrambled","FOR_REV_MAP_BLOBBY_STIM/1159860.bmp_pp152_L2_V1.0_veridical_freeview_isoTrue_fps144_reversed_REAL.mp4",""
"null","","","html-keyboard-response","78","185578","0.0-78.0","affmy50w","","<span style=""color:Black; font-size:50px;"">Agent B","null","","","","",""
"null","","","video-keyboard-response","79","188367","0.0-79.0","affmy50w","","","null","","Agent B","veridical","FOR_REV_MAP_BLOBBY_STIM/1159860.bmp_pp152_L2_V1.0_veridical_freeview_isoTrue_fps144.mp4",""
"","","","call-function","80","188368","0.0-80.0","affmy50w","","","","","","","",""
"1360.7900000000081","{""judgement"":0}","[0]","survey-likert","81","189729","0.0-81.0","affmy50w","","","","","","","","1"
"1628.375","{""confidence"":3}","[0]","survey-likert","82","191360","0.0-82.0","affmy50w","","","","","","","",""
"","","","call-function","83","191361","0.0-83.0","affmy50w","","","","","","","",""
"null","","","html-keyboard-response","84","192863","0.0-84.0","affmy50w","","<span style=""color:Black; font-size:50px;"">Agent A","null","","","","",""
"null","","","video-keyboard-response","85","195566","0.0-85.0","affmy50w","","","null","","Agent A","scrambled","FOR_REV_MAP_BLOBBY_STIM/713788.bmp_pp52_L1_V1.0_veridical_freeview_isoTrue_fps144_reversed_REAL.mp4",""
"null","","","html-keyboard-response","86","197069","0.0-86.0","affmy50w","","<span style=""color:Black; font-size:50px;"">Agent B","null","","","","",""
"null","","","video-keyboard-response","87","199802","0.0-87.0","affmy50w","","","null","","Agent B","veridical","FOR_REV_MAP_BLOBBY_STIM/713788.bmp_pp52_L1_V1.0_veridical_freeview_isoTrue_fps144.mp4",""
"","","","call-function","88","199804","0.0-88.0","affmy50w","","","","","","","",""
"1630.0100000000093","{""judgement"":0}","[0]","survey-likert","89","201448","0.0-89.0","affmy50w","","","","","","","","1"
"956.5900000000256","{""confidence"":0}","[0]","survey-likert","90","202407","0.0-90.0","affmy50w","","","","","","","",""
"25075.23999999999","","","instructions","91","227484","0.0-91.0","affmy50w","[{""page_index"":0,""viewing_time"":1155.875},{""page_index"":1,""viewing_time"":744.1949999999779},{""page_index"":2,""viewing_time"":23174.860000000015}]","","","","","","",""
"1721.4949999999953","","","instructions","92","229207","0.0-92.0","affmy50w","[{""page_index"":0,""viewing_time"":763.3249999999825},{""page_index"":1,""viewing_time"":483.9100000000035},{""page_index"":2,""viewing_time"":474.0450000000128}]","","","","","","",""
"","","","call-function","93","229208","0.0-93.0","affmy50w","","","","","","","",""
"null","","","html-keyboard-response","94","230711","0.0-94.0","affmy50w","","<span style=""color:Black; font-size:50px;"">Agent A","null","","","","",""
"null","","","video-keyboard-response","95","233537","0.0-95.0","affmy50w","","","null","","Agent A","veridical","FOR_REV_MAP_BLOBBY_STIM/1160204.bmp_pp54_L2_V1.0_veridical_freeview_isoTrue_fps144.mp4",""
"null","","","html-keyboard-response","96","235045","0.0-96.0","affmy50w","","<span style=""color:Black; font-size:50px;"">Agent B","null","","","","",""
"null","","","video-keyboard-response","97","237873","0.0-97.0","affmy50w","","","null","","Agent B","scrambled","FOR_REV_MAP_BLOBBY_STIM/1160204.bmp_pp54_L2_V1.0_veridical_freeview_isoTrue_fps144_reversed_REAL.mp4",""
"","","","call-function","98","237875","0.0-98.0","affmy50w","","","","","","","",""
"1242.4649999999965","{""judgement"":0}","[0]","survey-likert","99","239118","0.0-99.0","affmy50w","","","","","","","","0"
"1591.6100000000151","{""confidence"":3}","[0]","survey-likert","100","240712","0.0-100.0","affmy50w","","","","","","","",""
"","","","call-function","101","240713","0.0-101.0","affmy50w","","","","","","","",""
"null","","","html-keyboard-response","102","242215","0.0-102.0","affmy50w","","<span style=""color:Black; font-size:50px;"">Agent A","null","","","","",""
"null","","","video-keyboard-response","103","244989","0.0-103.0","affmy50w","","","null","","Agent A","veridical","FOR_REV_MAP_BLOBBY_STIM/1592747.bmp_pp53_L2_V1.0_veridical_freeview_isoTrue_fps144.mp4",""
"null","","","html-keyboard-response","104","246495","0.0-104.0","affmy50w","","<span style=""color:Black; font-size:50px;"">Agent B","null","","","","",""
"null","","","video-keyboard-response","105","249455","0.0-105.0","affmy50w","","","null","","Agent B","scrambled","FOR_REV_MAP_BLOBBY_STIM/1592747.bmp_pp53_L2_V1.0_veridical_freeview_isoTrue_fps144_reversed_REAL.mp4",""
"","","","call-function","106","249456","0.0-106.0","affmy50w","","","","","","","",""
"1650.7000000000116","{""judgement"":0}","[0]","survey-likert","107","251108","0.0-107.0","affmy50w","","","","","","","","0"
"1412.6849999999977","{""confidence"":2}","[0]","survey-likert","108","252522","0.0-108.0","affmy50w","","","","","","","",""
"","","","call-function","109","252523","0.0-109.0","affmy50w","","","","","","","",""
"null","","","html-keyboard-response","110","254026","0.0-110.0","affmy50w","","<span style=""color:Black; font-size:50px;"">Agent A","null","","","","",""
"null","","","video-keyboard-response","111","256824","0.0-111.0","affmy50w","","","null","","Agent A","scrambled","FOR_REV_MAP_BLOBBY_STIM/1592289.bmp_pp92_L3_V1.0_veridical_freeview_isoTrue_fps144_reversed_REAL.mp4",""
"null","","","html-keyboard-response","112","258330","0.0-112.0","affmy50w","","<span style=""color:Black; font-size:50px;"">Agent B","null","","","","",""
"null","","","video-keyboard-response","113","261140","0.0-113.0","affmy50w","","","null","","Agent B","veridical","FOR_REV_MAP_BLOBBY_STIM/1592289.bmp_pp92_L3_V1.0_veridical_freeview_isoTrue_fps144.mp4",""
"","","","call-function","114","261141","0.0-114.0","affmy50w","","","","","","","",""
"1834.2450000000244","{""judgement"":1}","[0]","survey-likert","115","262976","0.0-115.0","affmy50w","","","","","","","","1"
"3255.429999999993","{""confidence"":3}","[0]","survey-likert","116","266234","0.0-116.0","affmy50w","","","","","","","",""
"","","","call-function","117","266235","0.0-117.0","affmy50w","","","","","","","",""
"null","","","html-keyboard-response","118","267738","0.0-118.0","affmy50w","","<span style=""color:Black; font-size:50px;"">Agent A","null","","","","",""
"null","","","video-keyboard-response","119","270559","0.0-119.0","affmy50w","","","null","","Agent A","scrambled","FOR_REV_MAP_BLOBBY_STIM/713689.bmp_pp153_L3_V1.0_veridical_freeview_isoTrue_fps144_reversed_REAL.mp4",""
"null","","","html-keyboard-response","120","272063","0.0-120.0","affmy50w","","<span style=""color:Black; font-size:50px;"">Agent B","null","","","","",""
"null","","","video-keyboard-response","121","274879","0.0-121.0","affmy50w","","","null","","Agent B","veridical","FOR_REV_MAP_BLOBBY_STIM/713689.bmp_pp153_L3_V1.0_veridical_freeview_isoTrue_fps144.mp4",""
"","","","call-function","122","274880","0.0-122.0","affmy50w","","","","","","","",""
"2542.4400000000023","{""judgement"":1}","[0]","survey-likert","123","277424","0.0-123.0","affmy50w","","","","","","","","1"
"1372.6549999999697","{""confidence"":1}","[0]","survey-likert","124","278799","0.0-124.0","affmy50w","","","","","","","",""
"","","","call-function","125","278800","0.0-125.0","affmy50w","","","","","","","",""
"null","","","html-keyboard-response","126","280303","0.0-126.0","affmy50w","","<span style=""color:Black; font-size:50px;"">Agent A","null","","","","",""
"null","","","video-keyboard-response","127","283140","0.0-127.0","affmy50w","","","null","","Agent A","scrambled","FOR_REV_MAP_BLOBBY_STIM/1592025.bmp_pp68_L1_V1.0_veridical_freeview_isoTrue_fps144_reversed_REAL.mp4",""
"null","","","html-keyboard-response","128","284644","0.0-128.0","affmy50w","","<span style=""color:Black; font-size:50px;"">Agent B","null","","","","",""
"null","","","video-keyboard-response","129","287491","0.0-129.0","affmy50w","","","null","","Agent B","veridical","FOR_REV_MAP_BLOBBY_STIM/1592025.bmp_pp68_L1_V1.0_veridical_freeview_isoTrue_fps144.mp4",""
"","","","call-function","130","287493","0.0-130.0","affmy50w","","","","","","","",""
"1299.0950000000303","{""judgement"":1}","[0]","survey-likert","131","288795","0.0-131.0","affmy50w","","","","","","","","1"
"1032.1450000000186","{""confidence"":3}","[0]","survey-likert","132","289830","0.0-132.0","affmy50w","","","","","","","",""
"","","","call-function","133","289831","0.0-133.0","affmy50w","","","","","","","",""
"null","","","html-keyboard-response","134","291338","0.0-134.0","affmy50w","","<span style=""color:Black; font-size:50px;"">Agent A","null","","","","",""
"null","","","video-keyboard-response","135","294160","0.0-135.0","affmy50w","","","null","","Agent A","veridical","FOR_REV_MAP_BLOBBY_STIM/107955.bmp_pp90_L2_V1.0_veridical_freeview_isoTrue_fps144.mp4",""
"null","","","html-keyboard-response","136","295694","0.0-136.0","affmy50w","","<span style=""color:Black; font-size:50px;"">Agent B","null","","","","",""
"null","","","video-keyboard-response","137","298526","0.0-137.0","affmy50w","","","null","","Agent B","scrambled","FOR_REV_MAP_BLOBBY_STIM/107955.bmp_pp90_L2_V1.0_veridical_freeview_isoTrue_fps144_reversed_REAL.mp4",""
"","","","call-function","138","298528","0.0-138.0","affmy50w","","","","","","","",""
"1646.899999999965","{""judgement"":0}","[0]","survey-likert","139","300176","0.0-139.0","affmy50w","","","","","","","","0"
"1996.7399999999907","{""confidence"":2}","[0]","survey-likert","140","302176","0.0-140.0","affmy50w","","","","","","","",""
"","","","call-function","141","302177","0.0-141.0","affmy50w","","","","","","","",""
"null","","","html-keyboard-response","142","303678","0.0-142.0","affmy50w","","<span style=""color:Black; font-size:50px;"">Agent A","null","","","","",""
"null","","","video-keyboard-response","143","306431","0.0-143.0","affmy50w","","","null","","Agent A","scrambled","FOR_REV_MAP_BLOBBY_STIM/1592168.bmp_pp71_L1_V1.0_veridical_freeview_isoTrue_fps144_reversed_REAL.mp4",""
"null","","","html-keyboard-response","144","307934","0.0-144.0","affmy50w","","<span style=""color:Black; font-size:50px;"">Agent B","null","","","","",""
"null","","","video-keyboard-response","145","310703","0.0-145.0","affmy50w","","","null","","Agent B","veridical","FOR_REV_MAP_BLOBBY_STIM/1592168.bmp_pp71_L1_V1.0_veridical_freeview_isoTrue_fps144.mp4",""
"","","","call-function","146","310704","0.0-146.0","affmy50w","","","","","","","",""
"1841.8649999999907","{""judgement"":0}","[0]","survey-likert","147","312547","0.0-147.0","affmy50w","","","","","","","","1"
"2043.820000000007","{""confidence"":1}","[0]","survey-likert","148","314594","0.0-148.0","affmy50w","","","","","","","",""
"","","","call-function","149","314595","0.0-149.0","affmy50w","","","","","","","",""
"null","","","html-keyboard-response","150","316099","0.0-150.0","affmy50w","","<span style=""color:Black; font-size:50px;"">Agent A","null","","","","",""
"null","","","video-keyboard-response","151","318927","0.0-151.0","affmy50w","","","null","","Agent A","scrambled","FOR_REV_MAP_BLOBBY_STIM/713920.bmp_pp76_L1_V1.0_veridical_freeview_isoTrue_fps144_reversed_REAL.mp4",""
"null","","","html-keyboard-response","152","320431","0.0-152.0","affmy50w","","<span style=""color:Black; font-size:50px;"">Agent B","null","","","","",""
"null","","","video-keyboard-response","153","323263","0.0-153.0","affmy50w","","","null","","Agent B","veridical","FOR_REV_MAP_BLOBBY_STIM/713920.bmp_pp76_L1_V1.0_veridical_freeview_isoTrue_fps144.mp4",""
"","","","call-function","154","323264","0.0-154.0","affmy50w","","","","","","","",""
"1174.890000000014","{""judgement"":0}","[0]","survey-likert","155","324440","0.0-155.0","affmy50w","","","","","","","","1"
"1400.4099999999744","{""confidence"":1}","[0]","survey-likert","156","325842","0.0-156.0","affmy50w","","","","","","","",""
"","","","call-function","157","325844","0.0-157.0","affmy50w","","","","","","","",""
"null","","","html-keyboard-response","158","327349","0.0-158.0","affmy50w","","<span style=""color:Black; font-size:50px;"">Agent A","null","","","","",""
"null","","","video-keyboard-response","159","330094","0.0-159.0","affmy50w","","","null","","Agent A","veridical","FOR_REV_MAP_BLOBBY_STIM/1159592.bmp_pp91_L3_V1.0_veridical_freeview_isoTrue_fps144.mp4",""
"null","","","html-keyboard-response","160","331597","0.0-160.0","affmy50w","","<span style=""color:Black; font-size:50px;"">Agent B","null","","","","",""
"null","","","video-keyboard-response","161","334340","0.0-161.0","affmy50w","","","null","","Agent B","scrambled","FOR_REV_MAP_BLOBBY_STIM/1159592.bmp_pp91_L3_V1.0_veridical_freeview_isoTrue_fps144_reversed_REAL.mp4",""
"","","","call-function","162","334341","0.0-162.0","affmy50w","","","","","","","",""
"2474.625","{""judgement"":0}","[0]","survey-likert","163","336817","0.0-163.0","affmy50w","","","","","","","","0"
"1331.280000000028","{""confidence"":1}","[0]","survey-likert","164","338150","0.0-164.0","affmy50w","","","","","","","",""
"","","","call-function","165","338151","0.0-165.0","affmy50w","","","","","","","",""
"null","","","html-keyboard-response","166","339654","0.0-166.0","affmy50w","","<span style=""color:Black; font-size:50px;"">Agent A","null","","","","",""
"null","","","video-keyboard-response","167","341556","0.0-167.0","affmy50w","","","null","","Agent A","veridical","FOR_REV_MAP_BLOBBY_STIM/285946.bmp_pp79_L2_V1.0_veridical_freeview_isoTrue_fps144.mp4",""
"null","","","html-keyboard-response","168","343061","0.0-168.0","affmy50w","","<span style=""color:Black; font-size:50px;"">Agent B","null","","","","",""
"null","","","video-keyboard-response","169","344959","0.0-169.0","affmy50w","","","null","","Agent B","scrambled","FOR_REV_MAP_BLOBBY_STIM/285946.bmp_pp79_L2_V1.0_veridical_freeview_isoTrue_fps144_reversed_REAL.mp4",""
"","","","call-function","170","344961","0.0-170.0","affmy50w","","","","","","","",""
"1900.234999999986","{""judgement"":0}","[0]","survey-likert","171","346862","0.0-171.0","affmy50w","","","","","","","","0"
"2060.7000000000116","{""confidence"":0}","[0]","survey-likert","172","348925","0.0-172.0","affmy50w","","","","","","","",""
"18970.51000000001","","","instructions","173","367897","0.0-173.0","affmy50w","[{""page_index"":0,""viewing_time"":18059.95000000001},{""page_index"":1,""viewing_time"":551.8099999999977},{""page_index"":2,""viewing_time"":358.5200000000186}]","","","","","","",""
"1766.1149999999907","","","instructions","174","369664","0.0-174.0","affmy50w","[{""page_index"":0,""viewing_time"":434.23500000004424},{""page_index"":1,""viewing_time"":845.6449999999604},{""page_index"":2,""viewing_time"":486.1149999999907}]","","","","","","",""
"","","","call-function","175","369666","0.0-175.0","affmy50w","","","","","","","",""
"null","","","html-keyboard-response","176","371231","0.0-176.0","affmy50w","","<span style=""color:Black; font-size:50px;"">Agent A","null","","","","",""
"null","","","video-keyboard-response","177","373994","0.0-177.0","affmy50w","","","null","","Agent A","scrambled","FOR_REV_MAP_BLOBBY_STIM/1592298.bmp_pp56_L3_V1.0_veridical_freeview_isoTrue_fps144_reversed_REAL.mp4",""
"null","","","html-keyboard-response","178","375498","0.0-178.0","affmy50w","","<span style=""color:Black; font-size:50px;"">Agent B","null","","","","",""
"null","","","video-keyboard-response","179","378260","0.0-179.0","affmy50w","","","null","","Agent B","veridical","FOR_REV_MAP_BLOBBY_STIM/1592298.bmp_pp56_L3_V1.0_veridical_freeview_isoTrue_fps144.mp4",""
"","","","call-function","180","378262","0.0-180.0","affmy50w","","","","","","","",""
"2167.2849999999744","{""judgement"":0}","[0]","survey-likert","181","380430","0.0-181.0","affmy50w","","","","","","","","1"
"2130.8699999999953","{""confidence"":2}","[0]","survey-likert","182","382563","0.0-182.0","affmy50w","","","","","","","",""
"","","","call-function","183","382565","0.0-183.0","affmy50w","","","","","","","",""
"null","","","html-keyboard-response","184","384069","0.0-184.0","affmy50w","","<span style=""color:Black; font-size:50px;"">Agent A","null","","","","",""
"null","","","video-keyboard-response","185","386833","0.0-185.0","affmy50w","","","null","","Agent A","scrambled","FOR_REV_MAP_BLOBBY_STIM/1592017.bmp_pp154_L1_V1.0_veridical_freeview_isoTrue_fps144_reversed_REAL.mp4",""
"null","","","html-keyboard-response","186","388340","0.0-186.0","affmy50w","","<span style=""color:Black; font-size:50px;"">Agent B","null","","","","",""
"null","","","video-keyboard-response","187","391116","0.0-187.0","affmy50w","","","null","","Agent B","veridical","FOR_REV_MAP_BLOBBY_STIM/1592017.bmp_pp154_L1_V1.0_veridical_freeview_isoTrue_fps144.mp4",""
"","","","call-function","188","391117","0.0-188.0","affmy50w","","","","","","","",""
"1126.1350000000093","{""judgement"":1}","[0]","survey-likert","189","392245","0.0-189.0","affmy50w","","","","","","","","1"
"1266.609999999986","{""confidence"":3}","[0]","survey-likert","190","393513","0.0-190.0","affmy50w","","","","","","","",""
"","","","call-function","191","393514","0.0-191.0","affmy50w","","","","","","","",""
"null","","","html-keyboard-response","192","395018","0.0-192.0","affmy50w","","<span style=""color:Black; font-size:50px;"">Agent A","null","","","","",""
"null","","","video-keyboard-response","193","397844","0.0-193.0","affmy50w","","","null","","Agent A","veridical","FOR_REV_MAP_BLOBBY_STIM/713770.bmp_pp89_L1_V1.0_veridical_freeview_isoTrue_fps144.mp4",""
"null","","","html-keyboard-response","194","399413","0.0-194.0","affmy50w","","<span style=""color:Black; font-size:50px;"">Agent B","null","","","","",""
"null","","","video-keyboard-response","195","402235","0.0-195.0","affmy50w","","","null","","Agent B","scrambled","FOR_REV_MAP_BLOBBY_STIM/713770.bmp_pp89_L1_V1.0_veridical_freeview_isoTrue_fps144_reversed_REAL.mp4",""
"","","","call-function","196","402236","0.0-196.0","affmy50w","","","","","","","",""
"1495.8499999999767","{""judgement"":0}","[0]","survey-likert","197","403733","0.0-197.0","affmy50w","","","","","","","","0"
"1458.9899999999907","{""confidence"":1}","[0]","survey-likert","198","405194","0.0-198.0","affmy50w","","","","","","","",""
"","","","call-function","199","405195","0.0-199.0","affmy50w","","","","","","","",""
"null","","","html-keyboard-response","200","406697","0.0-200.0","affmy50w","","<span style=""color:Black; font-size:50px;"">Agent A","null","","","","",""
"null","","","video-keyboard-response","201","409497","0.0-201.0","affmy50w","","","null","","Agent A","scrambled","FOR_REV_MAP_BLOBBY_STIM/1592567.bmp_pp70_L2_V1.0_veridical_freeview_isoTrue_fps144_reversed_REAL.mp4",""
"null","","","html-keyboard-response","202","411002","0.0-202.0","affmy50w","","<span style=""color:Black; font-size:50px;"">Agent B","null","","","","",""
"null","","","video-keyboard-response","203","413799","0.0-203.0","affmy50w","","","null","","Agent B","veridical","FOR_REV_MAP_BLOBBY_STIM/1592567.bmp_pp70_L2_V1.0_veridical_freeview_isoTrue_fps144.mp4",""
"","","","call-function","204","413800","0.0-204.0","affmy50w","","","","","","","",""
"1225.039999999979","{""judgement"":1}","[0]","survey-likert","205","415026","0.0-205.0","affmy50w","","","","","","","","1"
"1581.5100000000093","{""confidence"":2}","[0]","survey-likert","206","416610","0.0-206.0","affmy50w","","","","","","","",""
"","","","call-function","207","416611","0.0-207.0","affmy50w","","","","","","","",""
"null","","","html-keyboard-response","208","418117","0.0-208.0","affmy50w","","<span style=""color:Black; font-size:50px;"">Agent A","null","","","","",""
"null","","","video-keyboard-response","209","420963","0.0-209.0","affmy50w","","","null","","Agent A","scrambled","FOR_REV_MAP_BLOBBY_STIM/150277.bmp_pp65_L3_V1.0_veridical_freeview_isoTrue_fps144_reversed_REAL.mp4",""
"null","","","html-keyboard-response","210","422485","0.0-210.0","affmy50w","","<span style=""color:Black; font-size:50px;"">Agent B","null","","","","",""
"null","","","video-keyboard-response","211","425300","0.0-211.0","affmy50w","","","null","","Agent B","veridical","FOR_REV_MAP_BLOBBY_STIM/150277.bmp_pp65_L3_V1.0_veridical_freeview_isoTrue_fps144.mp4",""
"","","","call-function","212","425302","0.0-212.0","affmy50w","","","","","","","",""
"2061.704999999958","{""judgement"":1}","[0]","survey-likert","213","427366","0.0-213.0","affmy50w","","","","","","","","1"
"1700.6350000000093","{""confidence"":2}","[0]","survey-likert","214","429069","0.0-214.0","affmy50w","","","","","","","",""
"","","","call-function","215","429070","0.0-215.0","affmy50w","","","","","","","",""
"null","","","html-keyboard-response","216","430576","0.0-216.0","affmy50w","","<span style=""color:Black; font-size:50px;"">Agent A","null","","","","",""
"null","","","video-keyboard-response","217","433445","0.0-217.0","affmy50w","","","null","","Agent A","veridical","FOR_REV_MAP_BLOBBY_STIM/1160189.bmp_pp64_L1_V1.0_veridical_freeview_isoTrue_fps144.mp4",""
"null","","","html-keyboard-response","218","434949","0.0-218.0","affmy50w","","<span style=""color:Black; font-size:50px;"">Agent B","null","","","","",""
"null","","","video-keyboard-response","219","437808","0.0-219.0","affmy50w","","","null","","Agent B","scrambled","FOR_REV_MAP_BLOBBY_STIM/1160189.bmp_pp64_L1_V1.0_veridical_freeview_isoTrue_fps144_reversed_REAL.mp4",""
"","","","call-function","220","437810","0.0-220.0","affmy50w","","","","","","","",""
"1172.210000000021","{""judgement"":0}","[0]","survey-likert","221","438984","0.0-221.0","affmy50w","","","","","","","","0"
"1566.1149999999907","{""confidence"":3}","[0]","survey-likert","222","440552","0.0-222.0","affmy50w","","","","","","","",""
"","","","call-function","223","440554","0.0-223.0","affmy50w","","","","","","","",""
"null","","","html-keyboard-response","224","442059","0.0-224.0","affmy50w","","<span style=""color:Black; font-size:50px;"">Agent A","null","","","","",""
"null","","","video-keyboard-response","225","444889","0.0-225.0","affmy50w","","","null","","Agent A","scrambled","FOR_REV_MAP_BLOBBY_STIM/713829.bmp_pp60_L3_V1.0_veridical_freeview_isoTrue_fps144_reversed_REAL.mp4",""
"null","","","html-keyboard-response","226","446392","0.0-226.0","affmy50w","","<span style=""color:Black; font-size:50px;"">Agent B","null","","","","",""
"null","","","video-keyboard-response","227","449239","0.0-227.0","affmy50w","","","null","","Agent B","veridical","FOR_REV_MAP_BLOBBY_STIM/713829.bmp_pp60_L3_V1.0_veridical_freeview_isoTrue_fps144.mp4",""
"","","","call-function","228","449241","0.0-228.0","affmy50w","","","","","","","",""
"2727.4500000000116","{""judgement"":1}","[0]","survey-likert","229","451969","0.0-229.0","affmy50w","","","","","","","","1"
"1371.530000000028","{""confidence"":3}","[0]","survey-likert","230","453343","0.0-230.0","affmy50w","","","","","","","",""
"","","","call-function","231","453344","0.0-231.0","affmy50w","","","","","","","",""
"null","","","html-keyboard-response","232","454848","0.0-232.0","affmy50w","","<span style=""color:Black; font-size:50px;"">Agent A","null","","","","",""
"null","","","video-keyboard-response","233","457616","0.0-233.0","affmy50w","","","null","","Agent A","scrambled","FOR_REV_MAP_BLOBBY_STIM/1160247.bmp_pp54_L2_V1.0_veridical_freeview_isoTrue_fps144_reversed_REAL.mp4",""
"null","","","html-keyboard-response","234","459120","0.0-234.0","affmy50w","","<span style=""color:Black; font-size:50px;"">Agent B","null","","","","",""
"null","","","video-keyboard-response","235","461896","0.0-235.0","affmy50w","","","null","","Agent B","veridical","FOR_REV_MAP_BLOBBY_STIM/1160247.bmp_pp54_L2_V1.0_veridical_freeview_isoTrue_fps144.mp4",""
"","","","call-function","236","461897","0.0-236.0","affmy50w","","","","","","","",""
"1189.3699999999953","{""judgement"":1}","[0]","survey-likert","237","463088","0.0-237.0","affmy50w","","","","","","","","1"
"2136.774999999965","{""confidence"":1}","[0]","survey-likert","238","465227","0.0-238.0","affmy50w","","","","","","","",""
"","","","call-function","239","465228","0.0-239.0","affmy50w","","","","","","","",""
"null","","","html-keyboard-response","240","466730","0.0-240.0","affmy50w","","<span style=""color:Black; font-size:50px;"">Agent A","null","","","","",""
"null","","","video-keyboard-response","241","469514","0.0-241.0","affmy50w","","","null","","Agent A","scrambled","FOR_REV_MAP_BLOBBY_STIM/1159329.bmp_pp61_L2_V1.0_veridical_freeview_isoTrue_fps144_reversed_REAL.mp4",""
"null","","","html-keyboard-response","242","471018","0.0-242.0","affmy50w","","<span style=""color:Black; font-size:50px;"">Agent B","null","","","","",""
"null","","","video-keyboard-response","243","473800","0.0-243.0","affmy50w","","","null","","Agent B","veridical","FOR_REV_MAP_BLOBBY_STIM/1159329.bmp_pp61_L2_V1.0_veridical_freeview_isoTrue_fps144.mp4",""
"","","","call-function","244","473801","0.0-244.0","affmy50w","","","","","","","",""
"1152.7949999999837","{""judgement"":0}","[0]","survey-likert","245","474955","0.0-245.0","affmy50w","","","","","","","","1"
"1123.030000000028","{""confidence"":2}","[0]","survey-likert","246","476080","0.0-246.0","affmy50w","","","","","","","",""
"","","","call-function","247","476082","0.0-247.0","affmy50w","","","","","","","",""
"null","","","html-keyboard-response","248","477584","0.0-248.0","affmy50w","","<span style=""color:Black; font-size:50px;"">Agent A","null","","","","",""
"null","","","video-keyboard-response","249","480397","0.0-249.0","affmy50w","","","null","","Agent A","scrambled","FOR_REV_MAP_BLOBBY_STIM/1592305.bmp_pp65_L3_V1.0_veridical_freeview_isoTrue_fps144_reversed_REAL.mp4",""
"null","","","html-keyboard-response","250","481901","0.0-250.0","affmy50w","","<span style=""color:Black; font-size:50px;"">Agent B","null","","","","",""
"null","","","video-keyboard-response","251","484714","0.0-251.0","affmy50w","","","null","","Agent B","veridical","FOR_REV_MAP_BLOBBY_STIM/1592305.bmp_pp65_L3_V1.0_veridical_freeview_isoTrue_fps144.mp4",""
"","","","call-function","252","484715","0.0-252.0","affmy50w","","","","","","","",""
"5802.209999999963","{""judgement"":1}","[0]","survey-likert","253","490518","0.0-253.0","affmy50w","","","","","","","","1"
"1339.030000000028","{""confidence"":0}","[0]","survey-likert","254","491860","0.0-254.0","affmy50w","","","","","","","",""
"9855.430000000051","","","instructions","255","501717","0.0-255.0","affmy50w","[{""page_index"":0,""viewing_time"":8915.430000000051},{""page_index"":1,""viewing_time"":453.929999999993},{""page_index"":2,""viewing_time"":485.83499999996275}]","","","","","","",""
"1244.7750000000233","","","instructions","256","502964","0.0-256.0","affmy50w","[{""page_index"":0,""viewing_time"":360.5250000000233},{""page_index"":1,""viewing_time"":449.0100000000093},{""page_index"":2,""viewing_time"":435.0199999999604}]","","","","","","",""
"","","","call-function","257","502965","0.0-257.0","affmy50w","","","","","","","",""
"null","","","html-keyboard-response","258","504469","0.0-258.0","affmy50w","","<span style=""color:Black; font-size:50px;"">Agent A","null","","","","",""
"null","","","video-keyboard-response","259","507311","0.0-259.0","affmy50w","","","null","","Agent A","veridical","FOR_REV_MAP_BLOBBY_STIM/498326.bmp_pp57_L1_V1.0_veridical_freeview_isoTrue_fps144.mp4",""
"null","","","html-keyboard-response","260","508818","0.0-260.0","affmy50w","","<span style=""color:Black; font-size:50px;"">Agent B","null","","","","",""
"null","","","video-keyboard-response","261","511662","0.0-261.0","affmy50w","","","null","","Agent B","scrambled","FOR_REV_MAP_BLOBBY_STIM/498326.bmp_pp57_L1_V1.0_veridical_freeview_isoTrue_fps144_reversed_REAL.mp4",""
"","","","call-function","262","511663","0.0-262.0","affmy50w","","","","","","","",""
"1079.4949999999953","{""judgement"":0}","[0]","survey-likert","263","512744","0.0-263.0","affmy50w","","","","","","","","0"
"2148.3549999999814","{""confidence"":3}","[0]","survey-likert","264","514895","0.0-264.0","affmy50w","","","","","","","",""
"","","","call-function","265","514896","0.0-265.0","affmy50w","","","","","","","",""
"null","","","html-keyboard-response","266","516397","0.0-266.0","affmy50w","","<span style=""color:Black; font-size:50px;"">Agent A","null","","","","",""
"null","","","video-keyboard-response","267","519242","0.0-267.0","affmy50w","","","null","","Agent A","scrambled","FOR_REV_MAP_BLOBBY_STIM/1592921.bmp_pp69_L3_V1.0_veridical_freeview_isoTrue_fps144_reversed_REAL.mp4",""
"null","","","html-keyboard-response","268","520746","0.0-268.0","affmy50w","","<span style=""color:Black; font-size:50px;"">Agent B","null","","","","",""
"null","","","video-keyboard-response","269","523589","0.0-269.0","affmy50w","","","null","","Agent B","veridical","FOR_REV_MAP_BLOBBY_STIM/1592921.bmp_pp69_L3_V1.0_veridical_freeview_isoTrue_fps144.mp4",""
"","","","call-function","270","523590","0.0-270.0","affmy50w","","","","","","","",""
"1415.6800000000512","{""judgement"":0}","[0]","survey-likert","271","525007","0.0-271.0","affmy50w","","","","","","","","1"
"1796.8199999999488","{""confidence"":1}","[0]","survey-likert","272","526806","0.0-272.0","affmy50w","","","","","","","",""
"","","","call-function","273","526808","0.0-273.0","affmy50w","","","","","","","",""
"null","","","html-keyboard-response","274","528309","0.0-274.0","affmy50w","","<span style=""color:Black; font-size:50px;"">Agent A","null","","","","",""
"null","","","video-keyboard-response","275","531159","0.0-275.0","affmy50w","","","null","","Agent A","veridical","FOR_REV_MAP_BLOBBY_STIM/713742.bmp_pp91_L3_V1.0_veridical_freeview_isoTrue_fps144.mp4",""
"null","","","html-keyboard-response","276","532661","0.0-276.0","affmy50w","","<span style=""color:Black; font-size:50px;"">Agent B","null","","","","",""
"null","","","video-keyboard-response","277","535505","0.0-277.0","affmy50w","","","null","","Agent B","scrambled","FOR_REV_MAP_BLOBBY_STIM/713742.bmp_pp91_L3_V1.0_veridical_freeview_isoTrue_fps144_reversed_REAL.mp4",""
"","","","call-function","278","535506","0.0-278.0","affmy50w","","","","","","","",""
"1046.3400000000838","{""judgement"":0}","[0]","survey-likert","279","536554","0.0-279.0","affmy50w","","","","","","","","0"
"1696.8600000001024","{""confidence"":2}","[0]","survey-likert","280","538253","0.0-280.0","affmy50w","","","","","","","",""
"","","","call-function","281","538254","0.0-281.0","affmy50w","","","","","","","",""
"null","","","html-keyboard-response","282","539756","0.0-282.0","affmy50w","","<span style=""color:Black; font-size:50px;"">Agent A","null","","","","",""
"null","","","video-keyboard-response","283","542547","0.0-283.0","affmy50w","","","null","","Agent A","scrambled","FOR_REV_MAP_BLOBBY_STIM/285932.bmp_pp64_L1_V1.0_veridical_freeview_isoTrue_fps144_reversed_REAL.mp4",""
"null","","","html-keyboard-response","284","544053","0.0-284.0","affmy50w","","<span style=""color:Black; font-size:50px;"">Agent B","null","","","","",""
"null","","","video-keyboard-response","285","546845","0.0-285.0","affmy50w","","","null","","Agent B","veridical","FOR_REV_MAP_BLOBBY_STIM/285932.bmp_pp64_L1_V1.0_veridical_freeview_isoTrue_fps144.mp4",""
"","","","call-function","286","546846","0.0-286.0","affmy50w","","","","","","","",""
"1735.015000000014","{""judgement"":1}","[0]","survey-likert","287","548582","0.0-287.0","affmy50w","","","","","","","","1"
"2655.8950000000186","{""confidence"":0}","[0]","survey-likert","288","551240","0.0-288.0","affmy50w","","","","","","","",""
"","","","call-function","289","551242","0.0-289.0","affmy50w","","","","","","","",""
"null","","","html-keyboard-response","290","552747","0.0-290.0","affmy50w","","<span style=""color:Black; font-size:50px;"">Agent A","null","","","","",""
"null","","","video-keyboard-response","291","555585","0.0-291.0","affmy50w","","","null","","Agent A","scrambled","FOR_REV_MAP_BLOBBY_STIM/1159508.bmp_pp151_L1_V1.0_veridical_freeview_isoTrue_fps144_reversed_REAL.mp4",""
"null","","","html-keyboard-response","292","557091","0.0-292.0","affmy50w","","<span style=""color:Black; font-size:50px;"">Agent B","null","","","","",""
"null","","","video-keyboard-response","293","559941","0.0-293.0","affmy50w","","","null","","Agent B","veridical","FOR_REV_MAP_BLOBBY_STIM/1159508.bmp_pp151_L1_V1.0_veridical_freeview_isoTrue_fps144.mp4",""
"","","","call-function","294","559943","0.0-294.0","affmy50w","","","","","","","",""
"1386.2249999999767","{""judgement"":1}","[0]","survey-likert","295","561330","0.0-295.0","affmy50w","","","","","","","","1"
"1115.5299999999115","{""confidence"":2}","[0]","survey-likert","296","562448","0.0-296.0","affmy50w","","","","","","","",""
"","","","call-function","297","562451","0.0-297.0","affmy50w","","","","","","","",""
"null","","","html-keyboard-response","298","563954","0.0-298.0","affmy50w","","<span style=""color:Black; font-size:50px;"">Agent A","null","","","","",""
"null","","","video-keyboard-response","299","566781","0.0-299.0","affmy50w","","","null","","Agent A","veridical","FOR_REV_MAP_BLOBBY_STIM/1591920.bmp_pp97_L3_V1.0_veridical_freeview_isoTrue_fps144.mp4",""
"null","","","html-keyboard-response","300","568288","0.0-300.0","affmy50w","","<span style=""color:Black; font-size:50px;"">Agent B","null","","","","",""
"null","","","video-keyboard-response","301","571098","0.0-301.0","affmy50w","","","null","","Agent B","scrambled","FOR_REV_MAP_BLOBBY_STIM/1591920.bmp_pp97_L3_V1.0_veridical_freeview_isoTrue_fps144_reversed_REAL.mp4",""
"","","","call-function","302","571099","0.0-302.0","affmy50w","","","","","","","",""
"843.6900000000605","{""judgement"":0}","[0]","survey-likert","303","571944","0.0-303.0","affmy50w","","","","","","","","0"
"1430.9649999999674","{""confidence"":2}","[0]","survey-likert","304","573377","0.0-304.0","affmy50w","","","","","","","",""
"","","","call-function","305","573379","0.0-305.0","affmy50w","","","","","","","",""
"null","","","html-keyboard-response","306","574885","0.0-306.0","affmy50w","","<span style=""color:Black; font-size:50px;"">Agent A","null","","","","",""
"null","","","video-keyboard-response","307","577626","0.0-307.0","affmy50w","","","null","","Agent A","scrambled","FOR_REV_MAP_BLOBBY_STIM/1159819.bmp_pp151_L1_V1.0_veridical_freeview_isoTrue_fps144_reversed_REAL.mp4",""
"null","","","html-keyboard-response","308","579129","0.0-308.0","affmy50w","","<span style=""color:Black; font-size:50px;"">Agent B","null","","","","",""
"null","","","video-keyboard-response","309","581885","0.0-309.0","affmy50w","","","null","","Agent B","veridical","FOR_REV_MAP_BLOBBY_STIM/1159819.bmp_pp151_L1_V1.0_veridical_freeview_isoTrue_fps144.mp4",""
"","","","call-function","310","581887","0.0-310.0","affmy50w","","","","","","","",""
"2105.1750000000466","{""judgement"":0}","[0]","survey-likert","311","583993","0.0-311.0","affmy50w","","","","","","","","1"
"2148.8450000000885","{""confidence"":2}","[0]","survey-likert","312","586144","0.0-312.0","affmy50w","","","","","","","",""
"","","","call-function","313","586145","0.0-313.0","affmy50w","","","","","","","",""
"null","","","html-keyboard-response","314","587651","0.0-314.0","affmy50w","","<span style=""color:Black; font-size:50px;"">Agent A","null","","","","",""
"null","","","video-keyboard-response","315","590469","0.0-315.0","affmy50w","","","null","","Agent A","scrambled","FOR_REV_MAP_BLOBBY_STIM/713652.bmp_pp89_L1_V1.0_veridical_freeview_isoTrue_fps144_reversed_REAL.mp4",""
"null","","","html-keyboard-response","316","591973","0.0-316.0","affmy50w","","<span style=""color:Black; font-size:50px;"">Agent B","null","","","","",""
"null","","","video-keyboard-response","317","594790","0.0-317.0","affmy50w","","","null","","Agent B","veridical","FOR_REV_MAP_BLOBBY_STIM/713652.bmp_pp89_L1_V1.0_veridical_freeview_isoTrue_fps144.mp4",""
"","","","call-function","318","594791","0.0-318.0","affmy50w","","","","","","","",""
"1614.5749999999534","{""judgement"":1}","[0]","survey-likert","319","596407","0.0-319.0","affmy50w","","","","","","","","1"
"1399.5699999999488","{""confidence"":2}","[0]","survey-likert","320","597808","0.0-320.0","affmy50w","","","","","","","",""
"","","","call-function","321","597809","0.0-321.0","affmy50w","","","","","","","",""
"null","","","html-keyboard-response","322","599312","0.0-322.0","affmy50w","","<span style=""color:Black; font-size:50px;"">Agent A","null","","","","",""
"null","","","video-keyboard-response","323","602123","0.0-323.0","affmy50w","","","null","","Agent A","veridical","FOR_REV_MAP_BLOBBY_STIM/713274.bmp_pp73_L3_V1.0_veridical_freeview_isoTrue_fps144.mp4",""
"null","","","html-keyboard-response","324","603631","0.0-324.0","affmy50w","","<span style=""color:Black; font-size:50px;"">Agent B","null","","","","",""
"null","","","video-keyboard-response","325","606445","0.0-325.0","affmy50w","","","null","","Agent B","scrambled","FOR_REV_MAP_BLOBBY_STIM/713274.bmp_pp73_L3_V1.0_veridical_freeview_isoTrue_fps144_reversed_REAL.mp4",""
"","","","call-function","326","606446","0.0-326.0","affmy50w","","","","","","","",""
"1279.954999999958","{""judgement"":0}","[0]","survey-likert","327","607727","0.0-327.0","affmy50w","","","","","","","","0"
"1008.8099999999395","{""confidence"":1}","[0]","survey-likert","328","608739","0.0-328.0","affmy50w","","","","","","","",""
"","","","call-function","329","608740","0.0-329.0","affmy50w","","","","","","","",""
"null","","","html-keyboard-response","330","610245","0.0-330.0","affmy50w","","<span style=""color:Black; font-size:50px;"">Agent A","null","","","","",""
"null","","","video-keyboard-response","331","613072","0.0-331.0","affmy50w","","","null","","Agent A","scrambled","FOR_REV_MAP_BLOBBY_STIM/1592314.bmp_pp100_L3_V1.0_veridical_freeview_isoTrue_fps144_reversed_REAL.mp4",""
"null","","","html-keyboard-response","332","614576","0.0-332.0","affmy50w","","<span style=""color:Black; font-size:50px;"">Agent B","null","","","","",""
"null","","","video-keyboard-response","333","617397","0.0-333.0","affmy50w","","","null","","Agent B","veridical","FOR_REV_MAP_BLOBBY_STIM/1592314.bmp_pp100_L3_V1.0_veridical_freeview_isoTrue_fps144.mp4",""
"","","","call-function","334","617398","0.0-334.0","affmy50w","","","","","","","",""
"2730.3099999999395","{""judgement"":0}","[0]","survey-likert","335","620129","0.0-335.0","affmy50w","","","","","","","","1"
"1918.2150000000838","{""confidence"":0}","[0]","survey-likert","336","622050","0.0-336.0","affmy50w","","","","","","","",""
"23627.875","","","instructions","337","645679","0.0-337.0","affmy50w","[{""page_index"":0,""viewing_time"":22739.23999999999},{""page_index"":1,""viewing_time"":543.9899999999907},{""page_index"":2,""viewing_time"":344.41500000003725}]","","","","","","",""
"1270.405000000028","","","instructions","338","646951","0.0-338.0","affmy50w","[{""page_index"":0,""viewing_time"":352.1799999999348},{""page_index"":1,""viewing_time"":434.80000000004657},{""page_index"":2,""viewing_time"":483.20999999996275}]","","","","","","",""
"","","","call-function","339","646952","0.0-339.0","affmy50w","","","","","","","",""
"null","","","html-keyboard-response","340","648455","0.0-340.0","affmy50w","","<span style=""color:Black; font-size:50px;"">Agent A","null","","","","",""
"null","","","video-keyboard-response","341","651256","0.0-341.0","affmy50w","","","null","","Agent A","scrambled","FOR_REV_MAP_BLOBBY_STIM/1592530.bmp_pp75_L1_V1.0_veridical_freeview_isoTrue_fps144_reversed_REAL.mp4",""
"null","","","html-keyboard-response","342","652763","0.0-342.0","affmy50w","","<span style=""color:Black; font-size:50px;"">Agent B","null","","","","",""
"null","","","video-keyboard-response","343","655568","0.0-343.0","affmy50w","","","null","","Agent B","veridical","FOR_REV_MAP_BLOBBY_STIM/1592530.bmp_pp75_L1_V1.0_veridical_freeview_isoTrue_fps144.mp4",""
"","","","call-function","344","655569","0.0-344.0","affmy50w","","","","","","","",""
"3175.7949999999255","{""judgement"":0}","[0]","survey-likert","345","658746","0.0-345.0","affmy50w","","","","","","","","1"
"1206.8250000000698","{""confidence"":0}","[0]","survey-likert","346","659955","0.0-346.0","affmy50w","","","","","","","",""
"","","","call-function","347","659956","0.0-347.0","affmy50w","","","","","","","",""
"null","","","html-keyboard-response","348","661462","0.0-348.0","affmy50w","","<span style=""color:Black; font-size:50px;"">Agent A","null","","","","",""
"null","","","video-keyboard-response","349","663892","0.0-349.0","affmy50w","","","null","","Agent A","veridical","FOR_REV_MAP_BLOBBY_STIM/1592951.bmp_pp80_L3_V1.0_veridical_freeview_isoTrue_fps144.mp4",""
"null","","","html-keyboard-response","350","665398","0.0-350.0","affmy50w","","<span style=""color:Black; font-size:50px;"">Agent B","null","","","","",""
"null","","","video-keyboard-response","351","667876","0.0-351.0","affmy50w","","","null","","Agent B","scrambled","FOR_REV_MAP_BLOBBY_STIM/1592951.bmp_pp80_L3_V1.0_veridical_freeview_isoTrue_fps144_reversed_REAL.mp4",""
"","","","call-function","352","667878","0.0-352.0","affmy50w","","","","","","","",""
"1161.609999999986","{""judgement"":1}","[0]","survey-likert","353","669040","0.0-353.0","affmy50w","","","","","","","","0"
"1025.5350000000326","{""confidence"":1}","[0]","survey-likert","354","670068","0.0-354.0","affmy50w","","","","","","","",""
"","","","call-function","355","670069","0.0-355.0","affmy50w","","","","","","","",""
"null","","","html-keyboard-response","356","671574","0.0-356.0","affmy50w","","<span style=""color:Black; font-size:50px;"">Agent A","null","","","","",""
"null","","","video-keyboard-response","357","674384","0.0-357.0","affmy50w","","","null","","Agent A","scrambled","FOR_REV_MAP_BLOBBY_STIM/107909.bmp_pp95_L2_V1.0_veridical_freeview_isoTrue_fps144_reversed_REAL.mp4",""
"null","","","html-keyboard-response","358","675888","0.0-358.0","affmy50w","","<span style=""color:Black; font-size:50px;"">Agent B","null","","","","",""
"null","","","video-keyboard-response","359","678698","0.0-359.0","affmy50w","","","null","","Agent B","veridical","FOR_REV_MAP_BLOBBY_STIM/107909.bmp_pp95_L2_V1.0_veridical_freeview_isoTrue_fps144.mp4",""
"","","","call-function","360","678700","0.0-360.0","affmy50w","","","","","","","",""
"1383","{""judgement"":1}","[0]","survey-likert","361","680084","0.0-361.0","affmy50w","","","","","","","","1"
"2775.590000000084","{""confidence"":1}","[0]","survey-likert","362","682861","0.0-362.0","affmy50w","","","","","","","",""
"","","","call-function","363","682863","0.0-363.0","affmy50w","","","","","","","",""
"null","","","html-keyboard-response","364","684368","0.0-364.0","affmy50w","","<span style=""color:Black; font-size:50px;"">Agent A","null","","","","",""
"null","","","video-keyboard-response","365","687236","0.0-365.0","affmy50w","","","null","","Agent A","veridical","FOR_REV_MAP_BLOBBY_STIM/1592201.bmp_pp97_L3_V1.0_veridical_freeview_isoTrue_fps144.mp4",""
"null","","","html-keyboard-response","366","688739","0.0-366.0","affmy50w","","<span style=""color:Black; font-size:50px;"">Agent B","null","","","","",""
"null","","","video-keyboard-response","367","691602","0.0-367.0","affmy50w","","","null","","Agent B","scrambled","FOR_REV_MAP_BLOBBY_STIM/1592201.bmp_pp97_L3_V1.0_veridical_freeview_isoTrue_fps144_reversed_REAL.mp4",""
"","","","call-function","368","691604","0.0-368.0","affmy50w","","","","","","","",""
"1774.859999999986","{""judgement"":0}","[0]","survey-likert","369","693380","0.0-369.0","affmy50w","","","","","","","","0"
"1700.890000000014","{""confidence"":1}","[0]","survey-likert","370","695083","0.0-370.0","affmy50w","","","","","","","",""
"","","","call-function","371","695085","0.0-371.0","affmy50w","","","","","","","",""
"null","","","html-keyboard-response","372","696590","0.0-372.0","affmy50w","","<span style=""color:Black; font-size:50px;"">Agent A","null","","","","",""
"null","","","video-keyboard-response","373","698696","0.0-373.0","affmy50w","","","null","","Agent A","veridical","FOR_REV_MAP_BLOBBY_STIM/1159973.bmp_pp98_L1_V1.0_veridical_freeview_isoTrue_fps144.mp4",""
"null","","","html-keyboard-response","374","700203","0.0-374.0","affmy50w","","<span style=""color:Black; font-size:50px;"">Agent B","null","","","","",""
"null","","","video-keyboard-response","375","702315","0.0-375.0","affmy50w","","","null","","Agent B","scrambled","FOR_REV_MAP_BLOBBY_STIM/1159973.bmp_pp98_L1_V1.0_veridical_freeview_isoTrue_fps144_reversed_REAL.mp4",""
"","","","call-function","376","702317","0.0-376.0","affmy50w","","","","","","","",""
"8404.670000000042","{""judgement"":1}","[0]","survey-likert","377","710725","0.0-377.0","affmy50w","","","","","","","","0"
"1929.1600000000326","{""confidence"":0}","[0]","survey-likert","378","712658","0.0-378.0","affmy50w","","","","","","","",""
"","","","call-function","379","712660","0.0-379.0","affmy50w","","","","","","","",""
"null","","","html-keyboard-response","380","714161","0.0-380.0","affmy50w","","<span style=""color:Black; font-size:50px;"">Agent A","null","","","","",""
"null","","","video-keyboard-response","381","716896","0.0-381.0","affmy50w","","","null","","Agent A","scrambled","FOR_REV_MAP_BLOBBY_STIM/1591975.bmp_pp88_L2_V1.0_veridical_freeview_isoTrue_fps144_reversed_REAL.mp4",""
"null","","","html-keyboard-response","382","718401","0.0-382.0","affmy50w","","<span style=""color:Black; font-size:50px;"">Agent B","null","","","","",""
"null","","","video-keyboard-response","383","721133","0.0-383.0","affmy50w","","","null","","Agent B","veridical","FOR_REV_MAP_BLOBBY_STIM/1591975.bmp_pp88_L2_V1.0_veridical_freeview_isoTrue_fps144.mp4",""
"","","","call-function","384","721135","0.0-384.0","affmy50w","","","","","","","",""
"1333.920000000042","{""judgement"":0}","[0]","survey-likert","385","722470","0.0-385.0","affmy50w","","","","","","","","1"
"1399.9049999999115","{""confidence"":2}","[0]","survey-likert","386","723872","0.0-386.0","affmy50w","","","","","","","",""
"","","","call-function","387","723874","0.0-387.0","affmy50w","","","","","","","",""
"null","","","html-keyboard-response","388","725376","0.0-388.0","affmy50w","","<span style=""color:Black; font-size:50px;"">Agent A","null","","","","",""
"null","","","video-keyboard-response","389","728067","0.0-389.0","affmy50w","","","null","","Agent A","veridical","FOR_REV_MAP_BLOBBY_STIM/713858.bmp_pp57_L1_V1.0_veridical_freeview_isoTrue_fps144.mp4",""
"null","","","html-keyboard-response","390","729574","0.0-390.0","affmy50w","","<span style=""color:Black; font-size:50px;"">Agent B","null","","","","",""
"null","","","video-keyboard-response","391","732282","0.0-391.0","affmy50w","","","null","","Agent B","scrambled","FOR_REV_MAP_BLOBBY_STIM/713858.bmp_pp57_L1_V1.0_veridical_freeview_isoTrue_fps144_reversed_REAL.mp4",""
"","","","call-function","392","732283","0.0-392.0","affmy50w","","","","","","","",""
"1367.3550000000978","{""judgement"":1}","[0]","survey-likert","393","733652","0.0-393.0","affmy50w","","","","","","","","0"
"1694.280000000028","{""confidence"":1}","[0]","survey-likert","394","735348","0.0-394.0","affmy50w","","","","","","","",""
"","","","call-function","395","735350","0.0-395.0","affmy50w","","","","","","","",""
"null","","","html-keyboard-response","396","736854","0.0-396.0","affmy50w","","<span style=""color:Black; font-size:50px;"">Agent A","null","","","","",""
"null","","","video-keyboard-response","397","739640","0.0-397.0","affmy50w","","","null","","Agent A","scrambled","FOR_REV_MAP_BLOBBY_STIM/285684.bmp_pp80_L3_V1.0_veridical_freeview_isoTrue_fps144_reversed_REAL.mp4",""
"null","","","html-keyboard-response","398","741147","0.0-398.0","affmy50w","","<span style=""color:Black; font-size:50px;"">Agent B","null","","","","",""
"null","","","video-keyboard-response","399","743933","0.0-399.0","affmy50w","","","null","","Agent B","veridical","FOR_REV_MAP_BLOBBY_STIM/285684.bmp_pp80_L3_V1.0_veridical_freeview_isoTrue_fps144.mp4",""
"","","","call-function","400","743935","0.0-400.0","affmy50w","","","","","","","",""
"1123.0449999999255","{""judgement"":0}","[0]","survey-likert","401","745059","0.0-401.0","affmy50w","","","","","","","","1"
"968.0650000000605","{""confidence"":2}","[0]","survey-likert","402","746029","0.0-402.0","affmy50w","","","","","","","",""
"","","","call-function","403","746031","0.0-403.0","affmy50w","","","","","","","",""
"null","","","html-keyboard-response","404","747536","0.0-404.0","affmy50w","","<span style=""color:Black; font-size:50px;"">Agent A","null","","","","",""
"null","","","video-keyboard-response","405","750390","0.0-405.0","affmy50w","","","null","","Agent A","scrambled","FOR_REV_MAP_BLOBBY_STIM/498396.bmp_pp99_L2_V1.0_veridical_freeview_isoTrue_fps144_reversed_REAL.mp4",""
"null","","","html-keyboard-response","406","751893","0.0-406.0","affmy50w","","<span style=""color:Black; font-size:50px;"">Agent B","null","","","","",""
"null","","","video-keyboard-response","407","754752","0.0-407.0","affmy50w","","","null","","Agent B","veridical","FOR_REV_MAP_BLOBBY_STIM/498396.bmp_pp99_L2_V1.0_veridical_freeview_isoTrue_fps144.mp4",""
"","","","call-function","408","754753","0.0-408.0","affmy50w","","","","","","","",""
"2176.3399999999674","{""judgement"":1}","[0]","survey-likert","409","756931","0.0-409.0","affmy50w","","","","","","","","1"
"1635.8999999999069","{""confidence"":1}","[0]","survey-likert","410","758569","0.0-410.0","affmy50w","","","","","","","",""
"","","","call-function","411","758570","0.0-411.0","affmy50w","","","","","","","",""
"null","","","html-keyboard-response","412","760075","0.0-412.0","affmy50w","","<span style=""color:Black; font-size:50px;"">Agent A","null","","","","",""
"null","","","video-keyboard-response","413","762882","0.0-413.0","affmy50w","","","null","","Agent A","scrambled","FOR_REV_MAP_BLOBBY_STIM/1591781.bmp_pp63_L1_V1.0_veridical_freeview_isoTrue_fps144_reversed_REAL.mp4",""
"null","","","html-keyboard-response","414","764386","0.0-414.0","affmy50w","","<span style=""color:Black; font-size:50px;"">Agent B","null","","","","",""
"null","","","video-keyboard-response","415","767231","0.0-415.0","affmy50w","","","null","","Agent B","veridical","FOR_REV_MAP_BLOBBY_STIM/1591781.bmp_pp63_L1_V1.0_veridical_freeview_isoTrue_fps144.mp4",""
"","","","call-function","416","767234","0.0-416.0","affmy50w","","","","","","","",""
"1711.8499999999767","{""judgement"":0}","[0]","survey-likert","417","768947","0.0-417.0","affmy50w","","","","","","","","1"
"1245.4000000000233","{""confidence"":2}","[0]","survey-likert","418","770195","0.0-418.0","affmy50w","","","","","","","",""
"1708.0050000000047","","","instructions","419","771904","0.0-419.0","affmy50w","[{""page_index"":0,""viewing_time"":1008.4900000001071},{""page_index"":1,""viewing_time"":456.0449999999255},{""page_index"":2,""viewing_time"":243.20000000006985}]","","","","","","",""
"954.1900000000605","","","instructions","420","772860","0.0-420.0","affmy50w","[{""page_index"":0,""viewing_time"":167.09999999997672},{""page_index"":1,""viewing_time"":391.1149999999907},{""page_index"":2,""viewing_time"":395.8550000000978}]","","","","","","",""
"","","","call-function","421","772861","0.0-421.0","affmy50w","","","","","","","",""
"null","","","html-keyboard-response","422","774363","0.0-422.0","affmy50w","","<span style=""color:Black; font-size:50px;"">Agent A","null","","","","",""
"null","","","video-keyboard-response","423","777139","0.0-423.0","affmy50w","","","null","","Agent A","scrambled","FOR_REV_MAP_BLOBBY_STIM/713328.bmp_pp86_L2_V1.0_veridical_freeview_isoTrue_fps144_reversed_REAL.mp4",""
"null","","","html-keyboard-response","424","778646","0.0-424.0","affmy50w","","<span style=""color:Black; font-size:50px;"">Agent B","null","","","","",""
"null","","","video-keyboard-response","425","781402","0.0-425.0","affmy50w","","","null","","Agent B","veridical","FOR_REV_MAP_BLOBBY_STIM/713328.bmp_pp86_L2_V1.0_veridical_freeview_isoTrue_fps144.mp4",""
"","","","call-function","426","781404","0.0-426.0","affmy50w","","","","","","","",""
"1280.4100000000326","{""judgement"":1}","[0]","survey-likert","427","782685","0.0-427.0","affmy50w","","","","","","","","1"
"2851.805000000051","{""confidence"":3}","[0]","survey-likert","428","785539","0.0-428.0","affmy50w","","","","","","","",""
"","","","call-function","429","785541","0.0-429.0","affmy50w","","","","","","","",""
"null","","","html-keyboard-response","430","787043","0.0-430.0","affmy50w","","<span style=""color:Black; font-size:50px;"">Agent A","null","","","","",""
"null","","","video-keyboard-response","431","789839","0.0-431.0","affmy50w","","","null","","Agent A","veridical","FOR_REV_MAP_BLOBBY_STIM/1592150.bmp_pp77_L3_V1.0_veridical_freeview_isoTrue_fps144.mp4",""
"null","","","html-keyboard-response","432","791345","0.0-432.0","affmy50w","","<span style=""color:Black; font-size:50px;"">Agent B","null","","","","",""
"null","","","video-keyboard-response","433","794141","0.0-433.0","affmy50w","","","null","","Agent B","scrambled","FOR_REV_MAP_BLOBBY_STIM/1592150.bmp_pp77_L3_V1.0_veridical_freeview_isoTrue_fps144_reversed_REAL.mp4",""
"","","","call-function","434","794142","0.0-434.0","affmy50w","","","","","","","",""
"1967.7900000000373","{""judgement"":0}","[0]","survey-likert","435","796111","0.0-435.0","affmy50w","","","","","","","","0"
"1581.390000000014","{""confidence"":2}","[0]","survey-likert","436","797694","0.0-436.0","affmy50w","","","","","","","",""
"","","","call-function","437","797696","0.0-437.0","affmy50w","","","","","","","",""
"null","","","html-keyboard-response","438","799197","0.0-438.0","affmy50w","","<span style=""color:Black; font-size:50px;"">Agent A","null","","","","",""
"null","","","video-keyboard-response","439","801945","0.0-439.0","affmy50w","","","null","","Agent A","veridical","FOR_REV_MAP_BLOBBY_STIM/285959.bmp_pp93_L1_V1.0_veridical_freeview_isoTrue_fps144.mp4",""
"null","","","html-keyboard-response","440","803457","0.0-440.0","affmy50w","","<span style=""color:Black; font-size:50px;"">Agent B","null","","","","",""
"null","","","video-keyboard-response","441","806210","0.0-441.0","affmy50w","","","null","","Agent B","scrambled","FOR_REV_MAP_BLOBBY_STIM/285959.bmp_pp93_L1_V1.0_veridical_freeview_isoTrue_fps144_reversed_REAL.mp4",""
"","","","call-function","442","806212","0.0-442.0","affmy50w","","","","","","","",""
"1394.6149999999907","{""judgement"":1}","[0]","survey-likert","443","807609","0.0-443.0","affmy50w","","","","","","","","0"
"2633.3150000000605","{""confidence"":2}","[0]","survey-likert","444","810245","0.0-444.0","affmy50w","","","","","","","",""
"","","","call-function","445","810246","0.0-445.0","affmy50w","","","","","","","",""
"null","","","html-keyboard-response","446","811750","0.0-446.0","affmy50w","","<span style=""color:Black; font-size:50px;"">Agent A","null","","","","",""
"null","","","video-keyboard-response","447","814575","0.0-447.0","affmy50w","","","null","","Agent A","veridical","FOR_REV_MAP_BLOBBY_STIM/1159392.bmp_pp96_L2_V1.0_veridical_freeview_isoTrue_fps144.mp4",""
"null","","","html-keyboard-response","448","816078","0.0-448.0","affmy50w","","<span style=""color:Black; font-size:50px;"">Agent B","null","","","","",""
"null","","","video-keyboard-response","449","818877","0.0-449.0","affmy50w","","","null","","Agent B","scrambled","FOR_REV_MAP_BLOBBY_STIM/1159392.bmp_pp96_L2_V1.0_veridical_freeview_isoTrue_fps144_reversed_REAL.mp4",""
"","","","call-function","450","818878","0.0-450.0","affmy50w","","","","","","","",""
"1608.2900000000373","{""judgement"":0}","[0]","survey-likert","451","820488","0.0-451.0","affmy50w","","","","","","","","0"
"1406.8349999999627","{""confidence"":3}","[0]","survey-likert","452","821897","0.0-452.0","affmy50w","","","","","","","",""
"","","","call-function","453","821898","0.0-453.0","affmy50w","","","","","","","",""
"null","","","html-keyboard-response","454","823403","0.0-454.0","affmy50w","","<span style=""color:Black; font-size:50px;"">Agent A","null","","","","",""
"null","","","video-keyboard-response","455","826015","0.0-455.0","affmy50w","","","null","","Agent A","scrambled","FOR_REV_MAP_BLOBBY_STIM/1159874.bmp_pp96_L2_V1.0_veridical_freeview_isoTrue_fps144_reversed_REAL.mp4",""
"null","","","html-keyboard-response","456","827521","0.0-456.0","affmy50w","","<span style=""color:Black; font-size:50px;"">Agent B","null","","","","",""
"null","","","video-keyboard-response","457","830144","0.0-457.0","affmy50w","","","null","","Agent B","veridical","FOR_REV_MAP_BLOBBY_STIM/1159874.bmp_pp96_L2_V1.0_veridical_freeview_isoTrue_fps144.mp4",""
"","","","call-function","458","830146","0.0-458.0","affmy50w","","","","","","","",""
"1679.9299999999348","{""judgement"":0}","[0]","survey-likert","459","831827","0.0-459.0","affmy50w","","","","","","","","1"
"1204.5849999999627","{""confidence"":2}","[0]","survey-likert","460","833033","0.0-460.0","affmy50w","","","","","","","",""
"","","","call-function","461","833035","0.0-461.0","affmy50w","","","","","","","",""
"null","","","html-keyboard-response","462","834539","0.0-462.0","affmy50w","","<span style=""color:Black; font-size:50px;"">Agent A","null","","","","",""
"null","","","video-keyboard-response","463","837360","0.0-463.0","affmy50w","","","null","","Agent A","scrambled","FOR_REV_MAP_BLOBBY_STIM/498258.bmp_pp51_L1_V1.0_veridical_freeview_isoTrue_fps144_reversed_REAL.mp4",""
"null","","","html-keyboard-response","464","838865","0.0-464.0","affmy50w","","<span style=""color:Black; font-size:50px;"">Agent B","null","","","","",""
"null","","","video-keyboard-response","465","841680","0.0-465.0","affmy50w","","","null","","Agent B","veridical","FOR_REV_MAP_BLOBBY_STIM/498258.bmp_pp51_L1_V1.0_veridical_freeview_isoTrue_fps144.mp4",""
"","","","call-function","466","841682","0.0-466.0","affmy50w","","","","","","","",""
"2427.5050000000047","{""judgement"":0}","[0]","survey-likert","467","844110","0.0-467.0","affmy50w","","","","","","","","1"
"1224.4099999999162","{""confidence"":0}","[0]","survey-likert","468","845337","0.0-468.0","affmy50w","","","","","","","",""
"","","","call-function","469","845338","0.0-469.0","affmy50w","","","","","","","",""
"null","","","html-keyboard-response","470","846841","0.0-470.0","affmy50w","","<span style=""color:Black; font-size:50px;"">Agent A","null","","","","",""
"null","","","video-keyboard-response","471","849621","0.0-471.0","affmy50w","","","null","","Agent A","veridical","FOR_REV_MAP_BLOBBY_STIM/1592129.bmp_pp153_L3_V1.0_veridical_freeview_isoTrue_fps144.mp4",""
"null","","","html-keyboard-response","472","851126","0.0-472.0","affmy50w","","<span style=""color:Black; font-size:50px;"">Agent B","null","","","","",""
"null","","","video-keyboard-response","473","853901","0.0-473.0","affmy50w","","","null","","Agent B","scrambled","FOR_REV_MAP_BLOBBY_STIM/1592129.bmp_pp153_L3_V1.0_veridical_freeview_isoTrue_fps144_reversed_REAL.mp4",""
"","","","call-function","474","853903","0.0-474.0","affmy50w","","","","","","","",""
"1591.234999999986","{""judgement"":0}","[0]","survey-likert","475","855495","0.0-475.0","affmy50w","","","","","","","","0"
"1908.0499999999302","{""confidence"":3}","[0]","survey-likert","476","857405","0.0-476.0","affmy50w","","","","","","","",""
"","","","call-function","477","857407","0.0-477.0","affmy50w","","","","","","","",""
"null","","","html-keyboard-response","478","858913","0.0-478.0","affmy50w","","<span style=""color:Black; font-size:50px;"">Agent A","null","","","","",""
"null","","","video-keyboard-response","479","861598","0.0-479.0","affmy50w","","","null","","Agent A","scrambled","FOR_REV_MAP_BLOBBY_STIM/61513.bmp_pp75_L1_V1.0_veridical_freeview_isoTrue_fps144_reversed_REAL.mp4",""
"null","","","html-keyboard-response","480","863105","0.0-480.0","affmy50w","","<span style=""color:Black; font-size:50px;"">Agent B","null","","","","",""
"null","","","video-keyboard-response","481","865791","0.0-481.0","affmy50w","","","null","","Agent B","veridical","FOR_REV_MAP_BLOBBY_STIM/61513.bmp_pp75_L1_V1.0_veridical_freeview_isoTrue_fps144.mp4",""
"","","","call-function","482","865792","0.0-482.0","affmy50w","","","","","","","",""
"1694.5500000000466","{""judgement"":0}","[0]","survey-likert","483","867488","0.0-483.0","affmy50w","","","","","","","","1"
"1679.9949999999953","{""confidence"":0}","[0]","survey-likert","484","869170","0.0-484.0","affmy50w","","","","","","","",""
"","","","call-function","485","869172","0.0-485.0","affmy50w","","","","","","","",""
"null","","","html-keyboard-response","486","870676","0.0-486.0","affmy50w","","<span style=""color:Black; font-size:50px;"">Agent A","null","","","","",""
"null","","","video-keyboard-response","487","873259","0.0-487.0","affmy50w","","","null","","Agent A","scrambled","FOR_REV_MAP_BLOBBY_STIM/498398.bmp_pp81_L1_V1.0_veridical_freeview_isoTrue_fps144_reversed_REAL.mp4",""
"null","","","html-keyboard-response","488","874762","0.0-488.0","affmy50w","","<span style=""color:Black; font-size:50px;"">Agent B","null","","","","",""
"null","","","video-keyboard-response","489","877333","0.0-489.0","affmy50w","","","null","","Agent B","veridical","FOR_REV_MAP_BLOBBY_STIM/498398.bmp_pp81_L1_V1.0_veridical_freeview_isoTrue_fps144.mp4",""
"","","","call-function","490","877335","0.0-490.0","affmy50w","","","","","","","",""
"1476.6450000000186","{""judgement"":0}","[0]","survey-likert","491","878812","0.0-491.0","affmy50w","","","","","","","","1"
"2326.8349999999627","{""confidence"":3}","[0]","survey-likert","492","881142","0.0-492.0","affmy50w","","","","","","","",""
"","","","call-function","493","881143","0.0-493.0","affmy50w","","","","","","","",""
"null","","","html-keyboard-response","494","882646","0.0-494.0","affmy50w","","<span style=""color:Black; font-size:50px;"">Agent A","null","","","","",""
"null","","","video-keyboard-response","495","885237","0.0-495.0","affmy50w","","","null","","Agent A","scrambled","FOR_REV_MAP_BLOBBY_STIM/713633.bmp_pp58_L1_V1.0_veridical_freeview_isoTrue_fps144_reversed_REAL.mp4",""
"null","","","html-keyboard-response","496","886742","0.0-496.0","affmy50w","","<span style=""color:Black; font-size:50px;"">Agent B","null","","","","",""
"null","","","video-keyboard-response","497","889339","0.0-497.0","affmy50w","","","null","","Agent B","veridical","FOR_REV_MAP_BLOBBY_STIM/713633.bmp_pp58_L1_V1.0_veridical_freeview_isoTrue_fps144.mp4",""
"","","","call-function","498","889340","0.0-498.0","affmy50w","","","","","","","",""
"5060.234999999986","{""judgement"":0}","[0]","survey-likert","499","894402","0.0-499.0","affmy50w","","","","","","","","1"
"956.7449999999953","{""confidence"":0}","[0]","survey-likert","500","895360","0.0-500.0","affmy50w","","","","","","","",""
"18975.665000000037","","","instructions","501","914337","0.0-501.0","affmy50w","[{""page_index"":0,""viewing_time"":16124.540000000037},{""page_index"":1,""viewing_time"":1917.0999999999767},{""page_index"":2,""viewing_time"":933.8649999999907}]","","","","","","",""
"1711.5349999999162","","","instructions","502","916051","0.0-502.0","affmy50w","[{""page_index"":0,""viewing_time"":568.1499999999069},{""page_index"":1,""viewing_time"":450.06500000006054},{""page_index"":2,""viewing_time"":693.1999999999534}]","","","","","","",""
"","","","call-function","503","916052","0.0-503.0","affmy50w","","","","","","","",""
"null","","","html-keyboard-response","504","917559","0.0-504.0","affmy50w","","<span style=""color:Black; font-size:50px;"">Agent A","null","","","","",""
"null","","","video-keyboard-response","505","920363","0.0-505.0","affmy50w","","","null","","Agent A","scrambled","FOR_REV_MAP_BLOBBY_STIM/286034.bmp_pp69_L3_V1.0_veridical_freeview_isoTrue_fps144_reversed_REAL.mp4",""
"null","","","html-keyboard-response","506","921867","0.0-506.0","affmy50w","","<span style=""color:Black; font-size:50px;"">Agent B","null","","","","",""
"null","","","video-keyboard-response","507","924674","0.0-507.0","affmy50w","","","null","","Agent B","veridical","FOR_REV_MAP_BLOBBY_STIM/286034.bmp_pp69_L3_V1.0_veridical_freeview_isoTrue_fps144.mp4",""
"","","","call-function","508","924676","0.0-508.0","affmy50w","","","","","","","",""
"1838.5400000000373","{""judgement"":1}","[0]","survey-likert","509","926515","0.0-509.0","affmy50w","","","","","","","","1"
"882.2049999999581","{""confidence"":2}","[0]","survey-likert","510","927400","0.0-510.0","affmy50w","","","","","","","",""
"","","","call-function","511","927402","0.0-511.0","affmy50w","","","","","","","",""
"null","","","html-keyboard-response","512","928908","0.0-512.0","affmy50w","","<span style=""color:Black; font-size:50px;"">Agent A","null","","","","",""
"null","","","video-keyboard-response","513","931660","0.0-513.0","affmy50w","","","null","","Agent A","scrambled","FOR_REV_MAP_BLOBBY_STIM/285715.bmp_pp67_L2_V1.0_veridical_freeview_isoTrue_fps144_reversed_REAL.mp4",""
"null","","","html-keyboard-response","514","933164","0.0-514.0","affmy50w","","<span style=""color:Black; font-size:50px;"">Agent B","null","","","","",""
"null","","","video-keyboard-response","515","935892","0.0-515.0","affmy50w","","","null","","Agent B","veridical","FOR_REV_MAP_BLOBBY_STIM/285715.bmp_pp67_L2_V1.0_veridical_freeview_isoTrue_fps144.mp4",""
"","","","call-function","516","935893","0.0-516.0","affmy50w","","","","","","","",""
"1568.9349999999395","{""judgement"":1}","[0]","survey-likert","517","937464","0.0-517.0","affmy50w","","","","","","","","1"
"1982.1049999999814","{""confidence"":3}","[0]","survey-likert","518","939449","0.0-518.0","affmy50w","","","","","","","",""
"","","","call-function","519","939451","0.0-519.0","affmy50w","","","","","","","",""
"null","","","html-keyboard-response","520","940956","0.0-520.0","affmy50w","","<span style=""color:Black; font-size:50px;"">Agent A","null","","","","",""
"null","","","video-keyboard-response","521","943669","0.0-521.0","affmy50w","","","null","","Agent A","veridical","FOR_REV_MAP_BLOBBY_STIM/1592350.bmp_pp55_L3_V1.0_veridical_freeview_isoTrue_fps144.mp4",""
"null","","","html-keyboard-response","522","945172","0.0-522.0","affmy50w","","<span style=""color:Black; font-size:50px;"">Agent B","null","","","","",""
"null","","","video-keyboard-response","523","947864","0.0-523.0","affmy50w","","","null","","Agent B","scrambled","FOR_REV_MAP_BLOBBY_STIM/1592350.bmp_pp55_L3_V1.0_veridical_freeview_isoTrue_fps144_reversed_REAL.mp4",""
"","","","call-function","524","947866","0.0-524.0","affmy50w","","","","","","","",""
"1792.6300000000047","{""judgement"":1}","[0]","survey-likert","525","949660","0.0-525.0","affmy50w","","","","","","","","0"
"1924.5699999999488","{""confidence"":3}","[0]","survey-likert","526","951587","0.0-526.0","affmy50w","","","","","","","",""
"","","","call-function","527","951588","0.0-527.0","affmy50w","","","","","","","",""
"null","","","html-keyboard-response","528","953094","0.0-528.0","affmy50w","","<span style=""color:Black; font-size:50px;"">Agent A","null","","","","",""
"null","","","video-keyboard-response","529","955856","0.0-529.0","affmy50w","","","null","","Agent A","scrambled","FOR_REV_MAP_BLOBBY_STIM/1592047.bmp_pp51_L1_V1.0_veridical_freeview_isoTrue_fps144_reversed_REAL.mp4",""
"null","","","html-keyboard-response","530","957359","0.0-530.0","affmy50w","","<span style=""color:Black; font-size:50px;"">Agent B","null","","","","",""
"null","","","video-keyboard-response","531","960136","0.0-531.0","affmy50w","","","null","","Agent B","veridical","FOR_REV_MAP_BLOBBY_STIM/1592047.bmp_pp51_L1_V1.0_veridical_freeview_isoTrue_fps144.mp4",""
"","","","call-function","532","960138","0.0-532.0","affmy50w","","","","","","","",""
"1104.7449999999953","{""judgement"":0}","[0]","survey-likert","533","961244","0.0-533.0","affmy50w","","","","","","","","1"
"1935.5749999999534","{""confidence"":3}","[0]","survey-likert","534","963181","0.0-534.0","affmy50w","","","","","","","",""
"","","","call-function","535","963183","0.0-535.0","affmy50w","","","","","","","",""
"null","","","html-keyboard-response","536","964685","0.0-536.0","affmy50w","","<span style=""color:Black; font-size:50px;"">Agent A","null","","","","",""
"null","","","video-keyboard-response","537","967626","0.0-537.0","affmy50w","","","null","","Agent A","veridical","FOR_REV_MAP_BLOBBY_STIM/1592568.bmp_pp71_L1_V1.0_veridical_freeview_isoTrue_fps144.mp4",""
"null","","","html-keyboard-response","538","969129","0.0-538.0","affmy50w","","<span style=""color:Black; font-size:50px;"">Agent B","null","","","","",""
"null","","","video-keyboard-response","539","972075","0.0-539.0","affmy50w","","","null","","Agent B","scrambled","FOR_REV_MAP_BLOBBY_STIM/1592568.bmp_pp71_L1_V1.0_veridical_freeview_isoTrue_fps144_reversed_REAL.mp4",""
"","","","call-function","540","972076","0.0-540.0","affmy50w","","","","","","","",""
"1755.5549999999348","{""judgement"":0}","[0]","survey-likert","541","973833","0.0-541.0","affmy50w","","","","","","","","0"
"1766.9650000000838","{""confidence"":3}","[0]","survey-likert","542","975602","0.0-542.0","affmy50w","","","","","","","",""
"","","","call-function","543","975603","0.0-543.0","affmy50w","","","","","","","",""
"null","","","html-keyboard-response","544","977105","0.0-544.0","affmy50w","","<span style=""color:Black; font-size:50px;"">Agent A","null","","","","",""
"null","","","video-keyboard-response","545","979958","0.0-545.0","affmy50w","","","null","","Agent A","veridical","FOR_REV_MAP_BLOBBY_STIM/1592857.bmp_pp52_L1_V1.0_veridical_freeview_isoTrue_fps144.mp4",""
"null","","","html-keyboard-response","546","981461","0.0-546.0","affmy50w","","<span style=""color:Black; font-size:50px;"">Agent B","null","","","","",""
"null","","","video-keyboard-response","547","984312","0.0-547.0","affmy50w","","","null","","Agent B","scrambled","FOR_REV_MAP_BLOBBY_STIM/1592857.bmp_pp52_L1_V1.0_veridical_freeview_isoTrue_fps144_reversed_REAL.mp4",""
"","","","call-function","548","984313","0.0-548.0","affmy50w","","","","","","","",""
"1458.969999999972","{""judgement"":1}","[0]","survey-likert","549","985773","0.0-549.0","affmy50w","","","","","","","","0"
"2278.1149999999907","{""confidence"":1}","[0]","survey-likert","550","988054","0.0-550.0","affmy50w","","","","","","","",""
"","","","call-function","551","988055","0.0-551.0","affmy50w","","","","","","","",""
"null","","","html-keyboard-response","552","989558","0.0-552.0","affmy50w","","<span style=""color:Black; font-size:50px;"">Agent A","null","","","","",""
"null","","","video-keyboard-response","553","992342","0.0-553.0","affmy50w","","","null","","Agent A","scrambled","FOR_REV_MAP_BLOBBY_STIM/150463.bmp_pp55_L3_V1.0_veridical_freeview_isoTrue_fps144_reversed_REAL.mp4",""
"null","","","html-keyboard-response","554","993846","0.0-554.0","affmy50w","","<span style=""color:Black; font-size:50px;"">Agent B","null","","","","",""
"null","","","video-keyboard-response","555","996635","0.0-555.0","affmy50w","","","null","","Agent B","veridical","FOR_REV_MAP_BLOBBY_STIM/150463.bmp_pp55_L3_V1.0_veridical_freeview_isoTrue_fps144.mp4",""
"","","","call-function","556","996636","0.0-556.0","affmy50w","","","","","","","",""
"1213.4399999999441","{""judgement"":1}","[0]","survey-likert","557","997851","0.0-557.0","affmy50w","","","","","","","","1"
"1926.1500000000233","{""confidence"":3}","[0]","survey-likert","558","999780","0.0-558.0","affmy50w","","","","","","","",""
"","","","call-function","559","999781","0.0-559.0","affmy50w","","","","","","","",""
"null","","","html-keyboard-response","560","1001288","0.0-560.0","affmy50w","","<span style=""color:Black; font-size:50px;"">Agent A","null","","","","",""
"null","","","video-keyboard-response","561","1003991","0.0-561.0","affmy50w","","","null","","Agent A","veridical","FOR_REV_MAP_BLOBBY_STIM/1592038.bmp_pp79_L2_V1.0_veridical_freeview_isoTrue_fps144.mp4",""
"null","","","html-keyboard-response","562","1005494","0.0-562.0","affmy50w","","<span style=""color:Black; font-size:50px;"">Agent B","null","","","","",""
"null","","","video-keyboard-response","563","1008176","0.0-563.0","affmy50w","","","null","","Agent B","scrambled","FOR_REV_MAP_BLOBBY_STIM/1592038.bmp_pp79_L2_V1.0_veridical_freeview_isoTrue_fps144_reversed_REAL.mp4",""
"","","","call-function","564","1008178","0.0-564.0","affmy50w","","","","","","","",""
"2242.375","{""judgement"":0}","[0]","survey-likert","565","1010422","0.0-565.0","affmy50w","","","","","","","","0"
"1593.3099999999395","{""confidence"":3}","[0]","survey-likert","566","1012017","0.0-566.0","affmy50w","","","","","","","",""
"","","","call-function","567","1012018","0.0-567.0","affmy50w","","","","","","","",""
"null","","","html-keyboard-response","568","1013523","0.0-568.0","affmy50w","","<span style=""color:Black; font-size:50px;"">Agent A","null","","","","",""
"null","","","video-keyboard-response","569","1016347","0.0-569.0","affmy50w","","","null","","Agent A","veridical","FOR_REV_MAP_BLOBBY_STIM/713381.bmp_pp82_L2_V1.0_veridical_freeview_isoTrue_fps144.mp4",""
"null","","","html-keyboard-response","570","1017850","0.0-570.0","affmy50w","","<span style=""color:Black; font-size:50px;"">Agent B","null","","","","",""
"null","","","video-keyboard-response","571","1020672","0.0-571.0","affmy50w","","","null","","Agent B","scrambled","FOR_REV_MAP_BLOBBY_STIM/713381.bmp_pp82_L2_V1.0_veridical_freeview_isoTrue_fps144_reversed_REAL.mp4",""
"","","","call-function","572","1020673","0.0-572.0","affmy50w","","","","","","","",""
"1658.9949999999953","{""judgement"":0}","[0]","survey-likert","573","1022333","0.0-573.0","affmy50w","","","","","","","","0"
"1234.3100000000559","{""confidence"":3}","[0]","survey-likert","574","1023570","0.0-574.0","affmy50w","","","","","","","",""
"","","","call-function","575","1023571","0.0-575.0","affmy50w","","","","","","","",""
"null","","","html-keyboard-response","576","1025078","0.0-576.0","affmy50w","","<span style=""color:Black; font-size:50px;"">Agent A","null","","","","",""
"null","","","video-keyboard-response","577","1027856","0.0-577.0","affmy50w","","","null","","Agent A","veridical","FOR_REV_MAP_BLOBBY_STIM/1159956.bmp_pp59_L3_V1.0_veridical_freeview_isoTrue_fps144.mp4",""
"null","","","html-keyboard-response","578","1029362","0.0-578.0","affmy50w","","<span style=""color:Black; font-size:50px;"">Agent B","null","","","","",""
"null","","","video-keyboard-response","579","1032109","0.0-579.0","affmy50w","","","null","","Agent B","scrambled","FOR_REV_MAP_BLOBBY_STIM/1159956.bmp_pp59_L3_V1.0_veridical_freeview_isoTrue_fps144_reversed_REAL.mp4",""
"","","","call-function","580","1032111","0.0-580.0","affmy50w","","","","","","","",""
"1950.6750000000466","{""judgement"":1}","[0]","survey-likert","581","1034064","0.0-581.0","affmy50w","","","","","","","","0"
"2104.070000000065","{""confidence"":1}","[0]","survey-likert","582","1036171","0.0-582.0","affmy50w","","","","","","","",""
"1558.4299999999348","","","instructions","583","1037732","0.0-583.0","affmy50w","[{""page_index"":0,""viewing_time"":1558.2750000000233}]","","","","","","",""
"2181.8800000000047","","","instructions","584","1039916","0.0-584.0","affmy50w","[{""page_index"":0,""viewing_time"":2181.7550000000047}]","","","","","","",""
"5854.679999999935","{""post-1"":1}","[0]","survey-likert","585","1045774","0.0-585.0","affmy50w","","","","","","","",""
"3697.9199999999255","{""post-1"":0}","[0]","survey-likert","586","1049475","0.0-586.0","affmy50w","","","","","","","",""
"11675.070000000065","{""post-2"":2}","[0]","survey-likert","587","1061153","0.0-587.0","affmy50w","","","","","","","",""
"4389.225000000093","{""post-2"":0}","[0]","survey-likert","588","1065544","0.0-588.0","affmy50w","","","","","","","",""
"5538.73499999987","{""post-3"":2}","[0]","survey-likert","589","1071085","0.0-589.0","affmy50w","","","","","","","",""
"4652.629999999888","{""post-3"":0}","[0]","survey-likert","590","1075740","0.0-590.0","affmy50w","","","","","","","",""
"6402.879999999888","{""post-4"":1}","[0]","survey-likert","591","1082145","0.0-591.0","affmy50w","","","","","","","",""
"1832.1650000000373","{""post-4"":0}","[0]","survey-likert","592","1083979","0.0-592.0","affmy50w","","","","","","","",""
"9001.350000000093","{""post-5"":1}","[0]","survey-likert","593","1092983","0.0-593.0","affmy50w","","","","","","","",""
"4210.75","{""post-5"":3}","[0]","survey-likert","594","1097196","0.0-594.0","affmy50w","","","","","","","",""
"187702.20500000007","{""Q0"":""It was tough to judge where attention was directed in videos were the attention jumped to various elements of the black background seemingly at random. When there was a more fluid motion evident in the attention patterns, it was easier to deduce using my own assumptions about how humans process/read/seek information which image sequence matched a real human. I majorly relied on the following patterns to figure out if a human's attention was shown through the sequences: centrality of the attention at the beginning of the sequence, elements of the image that seemed to draw more attention in a row of the sequence, tracking through the image from left to right or from up to down. ""}","","survey-text","595","1284906","0.0-595.0","affmy50w","","","","","","","",""
"276851.82999999984","{""Q0"":""When the attention began in the center of the image and then moved out further towards the bounds of the image, I believed this to be more consistent with human behavior as they study the foreground of an image before the background, even if I could not see the image myself. I looked for that centrality first, exploration second pattern to judge if a sequence was human or not most frequently. I also looked for any lags in attention in certain areas of an image, where there seemed like there must have been something of interest in that spot that drew the human's attention. I would then guess that this happened earlier in the sequence rather than later and judged the agent sequences in that way. I would also look at the direction of the attention, guessing that a human (assuming that they use an alphabet similar to English and thus read from left to right) would look through an image from left to right as they scanned through. Similarly, I guessed that a human would track an element of an image downward rather than upward, so I would judge an agent's attention sequence as more human if it seemed to travel from the top of the image (or area of the image) downward. ""}","","survey-text","596","1561766","0.0-596.0","affmy50w","","","","","","","",""
"112508.82999999984","{""Q0"":""It was difficult to judge sequences that had a lot of movement at seemingly random as a human scanned through an image. If the attention tracking jumped areas of the image very quickly and with little to no pattern, I could not discern which agent was a human. Without an image in the background, these attention jumps felt random. ""}","","survey-text","597","1674281","0.0-597.0","affmy50w","","","","","","","",""
"898.3600000001024","","","instructions","598","1675182","0.0-598.0","affmy50w","[{""page_index"":0,""viewing_time"":898.2050000000745}]","","","","","","",""
"165913.125","{""Experimenter_end"":[""Printed ID# affmy50w on consent form"",""Given subject SONA credit or payment"",""Given the subject debrief form""]}","[0]","survey-multi-select","599","1841100","0.0-599.0","affmy50w","","","","","","","",""
