"rt","responses","question_order","trial_type","trial_index","time_elapsed","internal_node_id","ID","view_history","stimulus","key_press","value","agent","condition","image","correct_answer"
"1244801.02","{""Experimenter"":[""Confirmed subject's identity (ID card)"",""Confirmed normal or corrected-to-normal vision"",""Obtained consent (signature and date)"",""Checked the test room lighting"",""Checked computer screen lighting"",""Checked distance from screen to chin rest (50cm)"",""Cleaned and adjusted chin rest"",""Counterbalanced the order of the tasks"",""Opened the experiment in Firefox"",""Made the experiment full screen"",""Encouraged subject to silence phone, put away distractors, etc.""]}","[0]","survey-multi-select","0","1244812","0.0-0.0","arkbs5zx","","","","","","","",""
"1332.6100000001024","","","instructions","1","1246146","0.0-1.0","arkbs5zx","[{""page_index"":0,""viewing_time"":1332.405000000028}]","","","","","","",""
"8274.929999999935","","","instructions","2","1254421","0.0-2.0","arkbs5zx","[{""page_index"":0,""viewing_time"":1415.7900000000373},{""page_index"":1,""viewing_time"":4612.97499999986},{""page_index"":2,""viewing_time"":2246.0450000001583}]","","","","","","",""
"1669.4000000001397","","","instructions","3","1256091","0.0-3.0","arkbs5zx","[{""page_index"":0,""viewing_time"":1669.2950000001583}]","","","","","","",""
"null","","","video-keyboard-response","4","1259163","0.0-4.0","arkbs5zx","","","null","","","","",""
"10450.005000000121","","","instructions","5","1269613","0.0-5.0","arkbs5zx","[{""page_index"":0,""viewing_time"":2121.8900000001304},{""page_index"":1,""viewing_time"":1300.3899999998976},{""page_index"":2,""viewing_time"":605.5500000000466},{""page_index"":3,""viewing_time"":3844.530000000028},{""page_index"":4,""viewing_time"":2577.5100000000093}]","","","","","","",""
"2986.064999999944","","","instructions","6","1272600","0.0-6.0","arkbs5zx","[{""page_index"":0,""viewing_time"":2985.9150000000373}]","","","","","","",""
"","","","call-function","7","1272600","0.0-7.0","arkbs5zx","","","","","","","",""
"null","","","html-keyboard-response","8","1274107","0.0-8.0","arkbs5zx","","<span style=""color:Black; font-size:50px;"">Agent A","null","","","","",""
"null","","","video-keyboard-response","9","1276990","0.0-9.0","arkbs5zx","","","null","","Agent A","scrambled","FOR_REV_BLOBBY_STIM/1593035.bmp_pp94_L2_V1.0_veridical_freeview_isoFalse_fps144_reversed_REAL.mp4",""
"null","","","html-keyboard-response","10","1278491","0.0-10.0","arkbs5zx","","<span style=""color:Black; font-size:50px;"">Agent B","null","","","","",""
"null","","","video-keyboard-response","11","1281370","0.0-11.0","arkbs5zx","","","null","","Agent B","veridical","FOR_REV_BLOBBY_STIM/1593035.bmp_pp94_L2_V1.0_veridical_freeview_isoFalse_fps144.mp4",""
"","","","call-function","12","1281370","0.0-12.0","arkbs5zx","","","","","","","",""
"1145.530000000028","{""judgement"":0}","[0]","survey-likert","13","1282517","0.0-13.0","arkbs5zx","","","","","","","","1"
"1601.4499999999534","{""confidence"":3}","[0]","survey-likert","14","1284120","0.0-14.0","arkbs5zx","","","","","","","",""
"","","","call-function","15","1284120","0.0-15.0","arkbs5zx","","","","","","","",""
"null","","","html-keyboard-response","16","1285623","0.0-16.0","arkbs5zx","","<span style=""color:Black; font-size:50px;"">Agent A","null","","","","",""
"null","","","video-keyboard-response","17","1288393","0.0-17.0","arkbs5zx","","","null","","Agent A","veridical","FOR_REV_BLOBBY_STIM/285933.bmp_pp81_L1_V1.0_veridical_freeview_isoFalse_fps144.mp4",""
"null","","","html-keyboard-response","18","1289899","0.0-18.0","arkbs5zx","","<span style=""color:Black; font-size:50px;"">Agent B","null","","","","",""
"null","","","video-keyboard-response","19","1292654","0.0-19.0","arkbs5zx","","","null","","Agent B","scrambled","FOR_REV_BLOBBY_STIM/285933.bmp_pp81_L1_V1.0_veridical_freeview_isoFalse_fps144_reversed_REAL.mp4",""
"","","","call-function","20","1292655","0.0-20.0","arkbs5zx","","","","","","","",""
"1568.9650000000838","{""judgement"":1}","[0]","survey-likert","21","1294224","0.0-21.0","arkbs5zx","","","","","","","","0"
"1611.8249999999534","{""confidence"":1}","[0]","survey-likert","22","1295837","0.0-22.0","arkbs5zx","","","","","","","",""
"","","","call-function","23","1295838","0.0-23.0","arkbs5zx","","","","","","","",""
"null","","","html-keyboard-response","24","1297339","0.0-24.0","arkbs5zx","","<span style=""color:Black; font-size:50px;"">Agent A","null","","","","",""
"null","","","video-keyboard-response","25","1300176","0.0-25.0","arkbs5zx","","","null","","Agent A","scrambled","FOR_REV_BLOBBY_STIM/1591961.bmp_pp67_L2_V1.0_veridical_freeview_isoFalse_fps144_reversed_REAL.mp4",""
"null","","","html-keyboard-response","26","1301680","0.0-26.0","arkbs5zx","","<span style=""color:Black; font-size:50px;"">Agent B","null","","","","",""
"null","","","video-keyboard-response","27","1304509","0.0-27.0","arkbs5zx","","","null","","Agent B","veridical","FOR_REV_BLOBBY_STIM/1591961.bmp_pp67_L2_V1.0_veridical_freeview_isoFalse_fps144.mp4",""
"","","","call-function","28","1304511","0.0-28.0","arkbs5zx","","","","","","","",""
"1466.9650000000838","{""judgement"":1}","[0]","survey-likert","29","1305979","0.0-29.0","arkbs5zx","","","","","","","","1"
"1025.880000000121","{""confidence"":2}","[0]","survey-likert","30","1307006","0.0-30.0","arkbs5zx","","","","","","","",""
"","","","call-function","31","1307006","0.0-31.0","arkbs5zx","","","","","","","",""
"null","","","html-keyboard-response","32","1308510","0.0-32.0","arkbs5zx","","<span style=""color:Black; font-size:50px;"">Agent A","null","","","","",""
"null","","","video-keyboard-response","33","1311308","0.0-33.0","arkbs5zx","","","null","","Agent A","scrambled","FOR_REV_BLOBBY_STIM/713681.bmp_pp86_L2_V1.0_veridical_freeview_isoFalse_fps144_reversed_REAL.mp4",""
"null","","","html-keyboard-response","34","1312811","0.0-34.0","arkbs5zx","","<span style=""color:Black; font-size:50px;"">Agent B","null","","","","",""
"null","","","video-keyboard-response","35","1315636","0.0-35.0","arkbs5zx","","","null","","Agent B","veridical","FOR_REV_BLOBBY_STIM/713681.bmp_pp86_L2_V1.0_veridical_freeview_isoFalse_fps144.mp4",""
"","","","call-function","36","1315636","0.0-36.0","arkbs5zx","","","","","","","",""
"1284.0400000000373","{""judgement"":1}","[0]","survey-likert","37","1316921","0.0-37.0","arkbs5zx","","","","","","","","1"
"1595.3549999999814","{""confidence"":3}","[0]","survey-likert","38","1318517","0.0-38.0","arkbs5zx","","","","","","","",""
"","","","call-function","39","1318518","0.0-39.0","arkbs5zx","","","","","","","",""
"null","","","html-keyboard-response","40","1320022","0.0-40.0","arkbs5zx","","<span style=""color:Black; font-size:50px;"">Agent A","null","","","","",""
"null","","","video-keyboard-response","41","1322753","0.0-41.0","arkbs5zx","","","null","","Agent A","scrambled","FOR_REV_BLOBBY_STIM/1592372.bmp_pp76_L1_V1.0_veridical_freeview_isoFalse_fps144_reversed_REAL.mp4",""
"null","","","html-keyboard-response","42","1324257","0.0-42.0","arkbs5zx","","<span style=""color:Black; font-size:50px;"">Agent B","null","","","","",""
"null","","","video-keyboard-response","43","1326976","0.0-43.0","arkbs5zx","","","null","","Agent B","veridical","FOR_REV_BLOBBY_STIM/1592372.bmp_pp76_L1_V1.0_veridical_freeview_isoFalse_fps144.mp4",""
"","","","call-function","44","1326976","0.0-44.0","arkbs5zx","","","","","","","",""
"1343.3400000000838","{""judgement"":0}","[0]","survey-likert","45","1328320","0.0-45.0","arkbs5zx","","","","","","","","1"
"1701.5349999999162","{""confidence"":0}","[0]","survey-likert","46","1330023","0.0-46.0","arkbs5zx","","","","","","","",""
"","","","call-function","47","1330023","0.0-47.0","arkbs5zx","","","","","","","",""
"null","","","html-keyboard-response","48","1331526","0.0-48.0","arkbs5zx","","<span style=""color:Black; font-size:50px;"">Agent A","null","","","","",""
"null","","","video-keyboard-response","49","1334233","0.0-49.0","arkbs5zx","","","null","","Agent A","veridical","FOR_REV_BLOBBY_STIM/713211.bmp_pp100_L3_V1.0_veridical_freeview_isoFalse_fps144.mp4",""
"null","","","html-keyboard-response","50","1335739","0.0-50.0","arkbs5zx","","<span style=""color:Black; font-size:50px;"">Agent B","null","","","","",""
"null","","","video-keyboard-response","51","1338426","0.0-51.0","arkbs5zx","","","null","","Agent B","scrambled","FOR_REV_BLOBBY_STIM/713211.bmp_pp100_L3_V1.0_veridical_freeview_isoFalse_fps144_reversed_REAL.mp4",""
"","","","call-function","52","1338427","0.0-52.0","arkbs5zx","","","","","","","",""
"1434.5150000001304","{""judgement"":0}","[0]","survey-likert","53","1339862","0.0-53.0","arkbs5zx","","","","","","","","0"
"970.8850000000093","{""confidence"":3}","[0]","survey-likert","54","1340834","0.0-54.0","arkbs5zx","","","","","","","",""
"","","","call-function","55","1340834","0.0-55.0","arkbs5zx","","","","","","","",""
"null","","","html-keyboard-response","56","1342337","0.0-56.0","arkbs5zx","","<span style=""color:Black; font-size:50px;"">Agent A","null","","","","",""
"null","","","video-keyboard-response","57","1345141","0.0-57.0","arkbs5zx","","","null","","Agent A","scrambled","FOR_REV_BLOBBY_STIM/1592499.bmp_pp96_L2_V1.0_veridical_freeview_isoFalse_fps144_reversed_REAL.mp4",""
"null","","","html-keyboard-response","58","1346646","0.0-58.0","arkbs5zx","","<span style=""color:Black; font-size:50px;"">Agent B","null","","","","",""
"null","","","video-keyboard-response","59","1349440","0.0-59.0","arkbs5zx","","","null","","Agent B","veridical","FOR_REV_BLOBBY_STIM/1592499.bmp_pp96_L2_V1.0_veridical_freeview_isoFalse_fps144.mp4",""
"","","","call-function","60","1349441","0.0-60.0","arkbs5zx","","","","","","","",""
"1712.1650000000373","{""judgement"":0}","[0]","survey-likert","61","1351154","0.0-61.0","arkbs5zx","","","","","","","","1"
"1016.3449999999721","{""confidence"":1}","[0]","survey-likert","62","1352171","0.0-62.0","arkbs5zx","","","","","","","",""
"","","","call-function","63","1352171","0.0-63.0","arkbs5zx","","","","","","","",""
"null","","","html-keyboard-response","64","1353674","0.0-64.0","arkbs5zx","","<span style=""color:Black; font-size:50px;"">Agent A","null","","","","",""
"null","","","video-keyboard-response","65","1356596","0.0-65.0","arkbs5zx","","","null","","Agent A","veridical","FOR_REV_BLOBBY_STIM/285905.bmp_pp57_L1_V1.0_veridical_freeview_isoFalse_fps144.mp4",""
"null","","","html-keyboard-response","66","1358098","0.0-66.0","arkbs5zx","","<span style=""color:Black; font-size:50px;"">Agent B","null","","","","",""
"null","","","video-keyboard-response","67","1361074","0.0-67.0","arkbs5zx","","","null","","Agent B","scrambled","FOR_REV_BLOBBY_STIM/285905.bmp_pp57_L1_V1.0_veridical_freeview_isoFalse_fps144_reversed_REAL.mp4",""
"","","","call-function","68","1361074","0.0-68.0","arkbs5zx","","","","","","","",""
"1327.9300000001676","{""judgement"":0}","[0]","survey-likert","69","1362403","0.0-69.0","arkbs5zx","","","","","","","","0"
"1368.75","{""confidence"":3}","[0]","survey-likert","70","1363772","0.0-70.0","arkbs5zx","","","","","","","",""
"","","","call-function","71","1363773","0.0-71.0","arkbs5zx","","","","","","","",""
"null","","","html-keyboard-response","72","1365275","0.0-72.0","arkbs5zx","","<span style=""color:Black; font-size:50px;"">Agent A","null","","","","",""
"null","","","video-keyboard-response","73","1368147","0.0-73.0","arkbs5zx","","","null","","Agent A","veridical","FOR_REV_BLOBBY_STIM/1159447.bmp_pp70_L2_V1.0_veridical_freeview_isoFalse_fps144.mp4",""
"null","","","html-keyboard-response","74","1369648","0.0-74.0","arkbs5zx","","<span style=""color:Black; font-size:50px;"">Agent B","null","","","","",""
"null","","","video-keyboard-response","75","1372507","0.0-75.0","arkbs5zx","","","null","","Agent B","scrambled","FOR_REV_BLOBBY_STIM/1159447.bmp_pp70_L2_V1.0_veridical_freeview_isoFalse_fps144_reversed_REAL.mp4",""
"","","","call-function","76","1372507","0.0-76.0","arkbs5zx","","","","","","","",""
"1409.1499999999069","{""judgement"":0}","[0]","survey-likert","77","1373917","0.0-77.0","arkbs5zx","","","","","","","","0"
"1408.244999999879","{""confidence"":3}","[0]","survey-likert","78","1375326","0.0-78.0","arkbs5zx","","","","","","","",""
"","","","call-function","79","1375326","0.0-79.0","arkbs5zx","","","","","","","",""
"null","","","html-keyboard-response","80","1376833","0.0-80.0","arkbs5zx","","<span style=""color:Black; font-size:50px;"">Agent A","null","","","","",""
"null","","","video-keyboard-response","81","1379627","0.0-81.0","arkbs5zx","","","null","","Agent A","scrambled","FOR_REV_BLOBBY_STIM/1159768.bmp_pp89_L1_V1.0_veridical_freeview_isoFalse_fps144_reversed_REAL.mp4",""
"null","","","html-keyboard-response","82","1381131","0.0-82.0","arkbs5zx","","<span style=""color:Black; font-size:50px;"">Agent B","null","","","","",""
"null","","","video-keyboard-response","83","1383941","0.0-83.0","arkbs5zx","","","null","","Agent B","veridical","FOR_REV_BLOBBY_STIM/1159768.bmp_pp89_L1_V1.0_veridical_freeview_isoFalse_fps144.mp4",""
"","","","call-function","84","1383941","0.0-84.0","arkbs5zx","","","","","","","",""
"3553.119999999879","{""judgement"":1}","[0]","survey-likert","85","1387495","0.0-85.0","arkbs5zx","","","","","","","","1"
"1439.0349999999162","{""confidence"":0}","[0]","survey-likert","86","1388935","0.0-86.0","arkbs5zx","","","","","","","",""
"1918.2150000000838","","","instructions","87","1390854","0.0-87.0","arkbs5zx","[{""page_index"":0,""viewing_time"":919.815000000177},{""page_index"":1,""viewing_time"":624.0749999999534},{""page_index"":2,""viewing_time"":374.1199999998789}]","","","","","","",""
"1264.3950000000186","","","instructions","88","1392118","0.0-88.0","arkbs5zx","[{""page_index"":0,""viewing_time"":330.30000000004657},{""page_index"":1,""viewing_time"":430.9149999998044},{""page_index"":2,""viewing_time"":503.0800000000745}]","","","","","","",""
"","","","call-function","89","1392119","0.0-89.0","arkbs5zx","","","","","","","",""
"null","","","html-keyboard-response","90","1393621","0.0-90.0","arkbs5zx","","<span style=""color:Black; font-size:50px;"">Agent A","null","","","","",""
"null","","","video-keyboard-response","91","1396481","0.0-91.0","arkbs5zx","","","null","","Agent A","scrambled","FOR_REV_BLOBBY_STIM/1592657.bmp_pp98_L1_V1.0_veridical_freeview_isoFalse_fps144_reversed_REAL.mp4",""
"null","","","html-keyboard-response","92","1397984","0.0-92.0","arkbs5zx","","<span style=""color:Black; font-size:50px;"">Agent B","null","","","","",""
"null","","","video-keyboard-response","93","1400823","0.0-93.0","arkbs5zx","","","null","","Agent B","veridical","FOR_REV_BLOBBY_STIM/1592657.bmp_pp98_L1_V1.0_veridical_freeview_isoFalse_fps144.mp4",""
"","","","call-function","94","1400823","0.0-94.0","arkbs5zx","","","","","","","",""
"1287.9450000000652","{""judgement"":1}","[0]","survey-likert","95","1402113","0.0-95.0","arkbs5zx","","","","","","","","1"
"1213.155000000028","{""confidence"":3}","[0]","survey-likert","96","1403328","0.0-96.0","arkbs5zx","","","","","","","",""
"","","","call-function","97","1403329","0.0-97.0","arkbs5zx","","","","","","","",""
"null","","","html-keyboard-response","98","1404833","0.0-98.0","arkbs5zx","","<span style=""color:Black; font-size:50px;"">Agent A","null","","","","",""
"null","","","video-keyboard-response","99","1407621","0.0-99.0","arkbs5zx","","","null","","Agent A","scrambled","FOR_REV_BLOBBY_STIM/1159621.bmp_pp92_L3_V1.0_veridical_freeview_isoFalse_fps144_reversed_REAL.mp4",""
"null","","","html-keyboard-response","100","1409126","0.0-100.0","arkbs5zx","","<span style=""color:Black; font-size:50px;"">Agent B","null","","","","",""
"null","","","video-keyboard-response","101","1411907","0.0-101.0","arkbs5zx","","","null","","Agent B","veridical","FOR_REV_BLOBBY_STIM/1159621.bmp_pp92_L3_V1.0_veridical_freeview_isoFalse_fps144.mp4",""
"","","","call-function","102","1411908","0.0-102.0","arkbs5zx","","","","","","","",""
"1366.6150000002235","{""judgement"":1}","[0]","survey-likert","103","1413275","0.0-103.0","arkbs5zx","","","","","","","","1"
"943.5500000000466","{""confidence"":1}","[0]","survey-likert","104","1414220","0.0-104.0","arkbs5zx","","","","","","","",""
"","","","call-function","105","1414221","0.0-105.0","arkbs5zx","","","","","","","",""
"null","","","html-keyboard-response","106","1415724","0.0-106.0","arkbs5zx","","<span style=""color:Black; font-size:50px;"">Agent A","null","","","","",""
"null","","","video-keyboard-response","107","1418541","0.0-107.0","arkbs5zx","","","null","","Agent A","veridical","FOR_REV_BLOBBY_STIM/1591994.bmp_pp69_L3_V1.0_veridical_freeview_isoFalse_fps144.mp4",""
"null","","","html-keyboard-response","108","1420043","0.0-108.0","arkbs5zx","","<span style=""color:Black; font-size:50px;"">Agent B","null","","","","",""
"null","","","video-keyboard-response","109","1422846","0.0-109.0","arkbs5zx","","","null","","Agent B","scrambled","FOR_REV_BLOBBY_STIM/1591994.bmp_pp69_L3_V1.0_veridical_freeview_isoFalse_fps144_reversed_REAL.mp4",""
"","","","call-function","110","1422846","0.0-110.0","arkbs5zx","","","","","","","",""
"1250.1149999999907","{""judgement"":0}","[0]","survey-likert","111","1424097","0.0-111.0","arkbs5zx","","","","","","","","0"
"1002.2150000000838","{""confidence"":2}","[0]","survey-likert","112","1425101","0.0-112.0","arkbs5zx","","","","","","","",""
"","","","call-function","113","1425101","0.0-113.0","arkbs5zx","","","","","","","",""
"null","","","html-keyboard-response","114","1426603","0.0-114.0","arkbs5zx","","<span style=""color:Black; font-size:50px;"">Agent A","null","","","","",""
"null","","","video-keyboard-response","115","1429344","0.0-115.0","arkbs5zx","","","null","","Agent A","veridical","FOR_REV_BLOBBY_STIM/1592934.bmp_pp63_L1_V1.0_veridical_freeview_isoFalse_fps144.mp4",""
"null","","","html-keyboard-response","116","1430848","0.0-116.0","arkbs5zx","","<span style=""color:Black; font-size:50px;"">Agent B","null","","","","",""
"null","","","video-keyboard-response","117","1433567","0.0-117.0","arkbs5zx","","","null","","Agent B","scrambled","FOR_REV_BLOBBY_STIM/1592934.bmp_pp63_L1_V1.0_veridical_freeview_isoFalse_fps144_reversed_REAL.mp4",""
"","","","call-function","118","1433568","0.0-118.0","arkbs5zx","","","","","","","",""
"935.565000000177","{""judgement"":1}","[0]","survey-likert","119","1434504","0.0-119.0","arkbs5zx","","","","","","","","0"
"1138.9650000000838","{""confidence"":2}","[0]","survey-likert","120","1435644","0.0-120.0","arkbs5zx","","","","","","","",""
"","","","call-function","121","1435645","0.0-121.0","arkbs5zx","","","","","","","",""
"null","","","html-keyboard-response","122","1437147","0.0-122.0","arkbs5zx","","<span style=""color:Black; font-size:50px;"">Agent A","null","","","","",""
"null","","","video-keyboard-response","123","1439992","0.0-123.0","arkbs5zx","","","null","","Agent A","scrambled","FOR_REV_BLOBBY_STIM/712977.bmp_pp51_L1_V1.0_veridical_freeview_isoFalse_fps144_reversed_REAL.mp4",""
"null","","","html-keyboard-response","124","1441492","0.0-124.0","arkbs5zx","","<span style=""color:Black; font-size:50px;"">Agent B","null","","","","",""
"null","","","video-keyboard-response","125","1444331","0.0-125.0","arkbs5zx","","","null","","Agent B","veridical","FOR_REV_BLOBBY_STIM/712977.bmp_pp51_L1_V1.0_veridical_freeview_isoFalse_fps144.mp4",""
"","","","call-function","126","1444331","0.0-126.0","arkbs5zx","","","","","","","",""
"1463.1350000000093","{""judgement"":1}","[0]","survey-likert","127","1445795","0.0-127.0","arkbs5zx","","","","","","","","1"
"1966","{""confidence"":2}","[0]","survey-likert","128","1447763","0.0-128.0","arkbs5zx","","","","","","","",""
"","","","call-function","129","1447763","0.0-129.0","arkbs5zx","","","","","","","",""
"null","","","html-keyboard-response","130","1449264","0.0-130.0","arkbs5zx","","<span style=""color:Black; font-size:50px;"">Agent A","null","","","","",""
"null","","","video-keyboard-response","131","1451904","0.0-131.0","arkbs5zx","","","null","","Agent A","veridical","FOR_REV_BLOBBY_STIM/61537.bmp_pp73_L3_V1.0_veridical_freeview_isoFalse_fps144.mp4",""
"null","","","html-keyboard-response","132","1453409","0.0-132.0","arkbs5zx","","<span style=""color:Black; font-size:50px;"">Agent B","null","","","","",""
"null","","","video-keyboard-response","133","1456039","0.0-133.0","arkbs5zx","","","null","","Agent B","scrambled","FOR_REV_BLOBBY_STIM/61537.bmp_pp73_L3_V1.0_veridical_freeview_isoFalse_fps144_reversed_REAL.mp4",""
"","","","call-function","134","1456039","0.0-134.0","arkbs5zx","","","","","","","",""
"1513.8599999998696","{""judgement"":0}","[0]","survey-likert","135","1457554","0.0-135.0","arkbs5zx","","","","","","","","0"
"1318.6750000000466","{""confidence"":1}","[0]","survey-likert","136","1458874","0.0-136.0","arkbs5zx","","","","","","","",""
"","","","call-function","137","1458874","0.0-137.0","arkbs5zx","","","","","","","",""
"null","","","html-keyboard-response","138","1460377","0.0-138.0","arkbs5zx","","<span style=""color:Black; font-size:50px;"">Agent A","null","","","","",""
"null","","","video-keyboard-response","139","1463252","0.0-139.0","arkbs5zx","","","null","","Agent A","veridical","FOR_REV_BLOBBY_STIM/1160127.bmp_pp90_L2_V1.0_veridical_freeview_isoFalse_fps144.mp4",""
"null","","","html-keyboard-response","140","1464758","0.0-140.0","arkbs5zx","","<span style=""color:Black; font-size:50px;"">Agent B","null","","","","",""
"null","","","video-keyboard-response","141","1467616","0.0-141.0","arkbs5zx","","","null","","Agent B","scrambled","FOR_REV_BLOBBY_STIM/1160127.bmp_pp90_L2_V1.0_veridical_freeview_isoFalse_fps144_reversed_REAL.mp4",""
"","","","call-function","142","1467617","0.0-142.0","arkbs5zx","","","","","","","",""
"1240.6749999998137","{""judgement"":0}","[0]","survey-likert","143","1468858","0.0-143.0","arkbs5zx","","","","","","","","0"
"983.9799999999814","{""confidence"":0}","[0]","survey-likert","144","1469843","0.0-144.0","arkbs5zx","","","","","","","",""
"","","","call-function","145","1469843","0.0-145.0","arkbs5zx","","","","","","","",""
"null","","","html-keyboard-response","146","1471349","0.0-146.0","arkbs5zx","","<span style=""color:Black; font-size:50px;"">Agent A","null","","","","",""
"null","","","video-keyboard-response","147","1474142","0.0-147.0","arkbs5zx","","","null","","Agent A","veridical","FOR_REV_BLOBBY_STIM/1592890.bmp_pp82_L2_V1.0_veridical_freeview_isoFalse_fps144.mp4",""
"null","","","html-keyboard-response","148","1475646","0.0-148.0","arkbs5zx","","<span style=""color:Black; font-size:50px;"">Agent B","null","","","","",""
"null","","","video-keyboard-response","149","1478443","0.0-149.0","arkbs5zx","","","null","","Agent B","scrambled","FOR_REV_BLOBBY_STIM/1592890.bmp_pp82_L2_V1.0_veridical_freeview_isoFalse_fps144_reversed_REAL.mp4",""
"","","","call-function","150","1478443","0.0-150.0","arkbs5zx","","","","","","","",""
"1224.2450000001118","{""judgement"":0}","[0]","survey-likert","151","1479669","0.0-151.0","arkbs5zx","","","","","","","","0"
"1937.5600000000559","{""confidence"":3}","[0]","survey-likert","152","1481608","0.0-152.0","arkbs5zx","","","","","","","",""
"","","","call-function","153","1481608","0.0-153.0","arkbs5zx","","","","","","","",""
"null","","","html-keyboard-response","154","1483109","0.0-154.0","arkbs5zx","","<span style=""color:Black; font-size:50px;"">Agent A","null","","","","",""
"null","","","video-keyboard-response","155","1485807","0.0-155.0","arkbs5zx","","","null","","Agent A","veridical","FOR_REV_BLOBBY_STIM/1160168.bmp_pp53_L2_V1.0_veridical_freeview_isoFalse_fps144.mp4",""
"null","","","html-keyboard-response","156","1487309","0.0-156.0","arkbs5zx","","<span style=""color:Black; font-size:50px;"">Agent B","null","","","","",""
"null","","","video-keyboard-response","157","1490010","0.0-157.0","arkbs5zx","","","null","","Agent B","scrambled","FOR_REV_BLOBBY_STIM/1160168.bmp_pp53_L2_V1.0_veridical_freeview_isoFalse_fps144_reversed_REAL.mp4",""
"","","","call-function","158","1490011","0.0-158.0","arkbs5zx","","","","","","","",""
"1442.8850000000093","{""judgement"":0}","[0]","survey-likert","159","1491454","0.0-159.0","arkbs5zx","","","","","","","","0"
"1562.0550000001676","{""confidence"":3}","[0]","survey-likert","160","1493017","0.0-160.0","arkbs5zx","","","","","","","",""
"","","","call-function","161","1493018","0.0-161.0","arkbs5zx","","","","","","","",""
"null","","","html-keyboard-response","162","1494523","0.0-162.0","arkbs5zx","","<span style=""color:Black; font-size:50px;"">Agent A","null","","","","",""
"null","","","video-keyboard-response","163","1497093","0.0-163.0","arkbs5zx","","","null","","Agent A","veridical","FOR_REV_BLOBBY_STIM/713796.bmp_pp84_L3_V1.0_veridical_freeview_isoFalse_fps144.mp4",""
"null","","","html-keyboard-response","164","1498596","0.0-164.0","arkbs5zx","","<span style=""color:Black; font-size:50px;"">Agent B","null","","","","",""
"null","","","video-keyboard-response","165","1501140","0.0-165.0","arkbs5zx","","","null","","Agent B","scrambled","FOR_REV_BLOBBY_STIM/713796.bmp_pp84_L3_V1.0_veridical_freeview_isoFalse_fps144_reversed_REAL.mp4",""
"","","","call-function","166","1501141","0.0-166.0","arkbs5zx","","","","","","","",""
"1460.9750000000931","{""judgement"":0}","[0]","survey-likert","167","1502604","0.0-167.0","arkbs5zx","","","","","","","","0"
"1535.5049999998882","{""confidence"":3}","[0]","survey-likert","168","1504141","0.0-168.0","arkbs5zx","","","","","","","",""
"1434.964999999851","","","instructions","169","1505576","0.0-169.0","arkbs5zx","[{""page_index"":0,""viewing_time"":848.6299999998882},{""page_index"":1,""viewing_time"":401.80500000016764},{""page_index"":2,""viewing_time"":184.3649999999907}]","","","","","","",""
"952.4199999999255","","","instructions","170","1506530","0.0-170.0","arkbs5zx","[{""page_index"":0,""viewing_time"":210.59499999997206},{""page_index"":1,""viewing_time"":376.67500000004657},{""page_index"":2,""viewing_time"":365.05000000004657}]","","","","","","",""
"","","","call-function","171","1506531","0.0-171.0","arkbs5zx","","","","","","","",""
"null","","","html-keyboard-response","172","1508033","0.0-172.0","arkbs5zx","","<span style=""color:Black; font-size:50px;"">Agent A","null","","","","",""
"null","","","video-keyboard-response","173","1510749","0.0-173.0","arkbs5zx","","","null","","Agent A","scrambled","FOR_REV_BLOBBY_STIM/1592817.bmp_pp55_L3_V1.0_veridical_freeview_isoFalse_fps144_reversed_REAL.mp4",""
"null","","","html-keyboard-response","174","1512251","0.0-174.0","arkbs5zx","","<span style=""color:Black; font-size:50px;"">Agent B","null","","","","",""
"null","","","video-keyboard-response","175","1514974","0.0-175.0","arkbs5zx","","","null","","Agent B","veridical","FOR_REV_BLOBBY_STIM/1592817.bmp_pp55_L3_V1.0_veridical_freeview_isoFalse_fps144.mp4",""
"","","","call-function","176","1514975","0.0-176.0","arkbs5zx","","","","","","","",""
"1286.994999999879","{""judgement"":1}","[0]","survey-likert","177","1516262","0.0-177.0","arkbs5zx","","","","","","","","1"
"1211.7900000000373","{""confidence"":0}","[0]","survey-likert","178","1517476","0.0-178.0","arkbs5zx","","","","","","","",""
"","","","call-function","179","1517476","0.0-179.0","arkbs5zx","","","","","","","",""
"null","","","html-keyboard-response","180","1518979","0.0-180.0","arkbs5zx","","<span style=""color:Black; font-size:50px;"">Agent A","null","","","","",""
"null","","","video-keyboard-response","181","1521807","0.0-181.0","arkbs5zx","","","null","","Agent A","veridical","FOR_REV_BLOBBY_STIM/713371.bmp_pp68_L1_V1.0_veridical_freeview_isoFalse_fps144.mp4",""
"null","","","html-keyboard-response","182","1523312","0.0-182.0","arkbs5zx","","<span style=""color:Black; font-size:50px;"">Agent B","null","","","","",""
"null","","","video-keyboard-response","183","1526149","0.0-183.0","arkbs5zx","","","null","","Agent B","scrambled","FOR_REV_BLOBBY_STIM/713371.bmp_pp68_L1_V1.0_veridical_freeview_isoFalse_fps144_reversed_REAL.mp4",""
"","","","call-function","184","1526150","0.0-184.0","arkbs5zx","","","","","","","",""
"1095.844999999972","{""judgement"":0}","[0]","survey-likert","185","1527246","0.0-185.0","arkbs5zx","","","","","","","","0"
"1786.7700000000186","{""confidence"":3}","[0]","survey-likert","186","1529034","0.0-186.0","arkbs5zx","","","","","","","",""
"","","","call-function","187","1529035","0.0-187.0","arkbs5zx","","","","","","","",""
"null","","","html-keyboard-response","188","1530535","0.0-188.0","arkbs5zx","","<span style=""color:Black; font-size:50px;"">Agent A","null","","","","",""
"null","","","video-keyboard-response","189","1533369","0.0-189.0","arkbs5zx","","","null","","Agent A","scrambled","FOR_REV_BLOBBY_STIM/1592351.bmp_pp51_L1_V1.0_veridical_freeview_isoFalse_fps144_reversed_REAL.mp4",""
"null","","","html-keyboard-response","190","1534872","0.0-190.0","arkbs5zx","","<span style=""color:Black; font-size:50px;"">Agent B","null","","","","",""
"null","","","video-keyboard-response","191","1537691","0.0-191.0","arkbs5zx","","","null","","Agent B","veridical","FOR_REV_BLOBBY_STIM/1592351.bmp_pp51_L1_V1.0_veridical_freeview_isoFalse_fps144.mp4",""
"","","","call-function","192","1537691","0.0-192.0","arkbs5zx","","","","","","","",""
"2584.1049999999814","{""judgement"":1}","[0]","survey-likert","193","1540276","0.0-193.0","arkbs5zx","","","","","","","","1"
"1182.2249999998603","{""confidence"":3}","[0]","survey-likert","194","1541460","0.0-194.0","arkbs5zx","","","","","","","",""
"","","","call-function","195","1541460","0.0-195.0","arkbs5zx","","","","","","","",""
"null","","","html-keyboard-response","196","1542961","0.0-196.0","arkbs5zx","","<span style=""color:Black; font-size:50px;"">Agent A","null","","","","",""
"null","","","video-keyboard-response","197","1545723","0.0-197.0","arkbs5zx","","","null","","Agent A","scrambled","FOR_REV_BLOBBY_STIM/498111.bmp_pp88_L2_V1.0_veridical_freeview_isoFalse_fps144_reversed_REAL.mp4",""
"null","","","html-keyboard-response","198","1547227","0.0-198.0","arkbs5zx","","<span style=""color:Black; font-size:50px;"">Agent B","null","","","","",""
"null","","","video-keyboard-response","199","1549986","0.0-199.0","arkbs5zx","","","null","","Agent B","veridical","FOR_REV_BLOBBY_STIM/498111.bmp_pp88_L2_V1.0_veridical_freeview_isoFalse_fps144.mp4",""
"","","","call-function","200","1549987","0.0-200.0","arkbs5zx","","","","","","","",""
"1431.0999999998603","{""judgement"":0}","[0]","survey-likert","201","1551419","0.0-201.0","arkbs5zx","","","","","","","","1"
"1935.3899999998976","{""confidence"":3}","[0]","survey-likert","202","1553355","0.0-202.0","arkbs5zx","","","","","","","",""
"","","","call-function","203","1553356","0.0-203.0","arkbs5zx","","","","","","","",""
"null","","","html-keyboard-response","204","1554858","0.0-204.0","arkbs5zx","","<span style=""color:Black; font-size:50px;"">Agent A","null","","","","",""
"null","","","video-keyboard-response","205","1557425","0.0-205.0","arkbs5zx","","","null","","Agent A","scrambled","FOR_REV_BLOBBY_STIM/1159813.bmp_pp79_L2_V1.0_veridical_freeview_isoFalse_fps144_reversed_REAL.mp4",""
"null","","","html-keyboard-response","206","1558928","0.0-206.0","arkbs5zx","","<span style=""color:Black; font-size:50px;"">Agent B","null","","","","",""
"null","","","video-keyboard-response","207","1561490","0.0-207.0","arkbs5zx","","","null","","Agent B","veridical","FOR_REV_BLOBBY_STIM/1159813.bmp_pp79_L2_V1.0_veridical_freeview_isoFalse_fps144.mp4",""
"","","","call-function","208","1561491","0.0-208.0","arkbs5zx","","","","","","","",""
"2361.215000000084","{""judgement"":0}","[0]","survey-likert","209","1563853","0.0-209.0","arkbs5zx","","","","","","","","1"
"1102.25","{""confidence"":0}","[0]","survey-likert","210","1564956","0.0-210.0","arkbs5zx","","","","","","","",""
"","","","call-function","211","1564957","0.0-211.0","arkbs5zx","","","","","","","",""
"null","","","html-keyboard-response","212","1566458","0.0-212.0","arkbs5zx","","<span style=""color:Black; font-size:50px;"">Agent A","null","","","","",""
"null","","","video-keyboard-response","213","1568082","0.0-213.0","arkbs5zx","","","null","","Agent A","veridical","FOR_REV_BLOBBY_STIM/713684.bmp_pp85_L3_V1.0_veridical_freeview_isoFalse_fps144.mp4",""
"null","","","html-keyboard-response","214","1569587","0.0-214.0","arkbs5zx","","<span style=""color:Black; font-size:50px;"">Agent B","null","","","","",""
"null","","","video-keyboard-response","215","1571190","0.0-215.0","arkbs5zx","","","null","","Agent B","scrambled","FOR_REV_BLOBBY_STIM/713684.bmp_pp85_L3_V1.0_veridical_freeview_isoFalse_fps144_reversed_REAL.mp4",""
"","","","call-function","216","1571190","0.0-216.0","arkbs5zx","","","","","","","",""
"1147.0699999998324","{""judgement"":1}","[0]","survey-likert","217","1572338","0.0-217.0","arkbs5zx","","","","","","","","0"
"1052.1650000000373","{""confidence"":1}","[0]","survey-likert","218","1573391","0.0-218.0","arkbs5zx","","","","","","","",""
"","","","call-function","219","1573392","0.0-219.0","arkbs5zx","","","","","","","",""
"null","","","html-keyboard-response","220","1574897","0.0-220.0","arkbs5zx","","<span style=""color:Black; font-size:50px;"">Agent A","null","","","","",""
"null","","","video-keyboard-response","221","1577526","0.0-221.0","arkbs5zx","","","null","","Agent A","scrambled","FOR_REV_BLOBBY_STIM/713779.bmp_pp152_L2_V1.0_veridical_freeview_isoFalse_fps144_reversed_REAL.mp4",""
"null","","","html-keyboard-response","222","1579031","0.0-222.0","arkbs5zx","","<span style=""color:Black; font-size:50px;"">Agent B","null","","","","",""
"null","","","video-keyboard-response","223","1581669","0.0-223.0","arkbs5zx","","","null","","Agent B","veridical","FOR_REV_BLOBBY_STIM/713779.bmp_pp152_L2_V1.0_veridical_freeview_isoFalse_fps144.mp4",""
"","","","call-function","224","1581669","0.0-224.0","arkbs5zx","","","","","","","",""
"1290.0849999999627","{""judgement"":1}","[0]","survey-likert","225","1582960","0.0-225.0","arkbs5zx","","","","","","","","1"
"1269.0699999998324","{""confidence"":0}","[0]","survey-likert","226","1584230","0.0-226.0","arkbs5zx","","","","","","","",""
"","","","call-function","227","1584231","0.0-227.0","arkbs5zx","","","","","","","",""
"null","","","html-keyboard-response","228","1585734","0.0-228.0","arkbs5zx","","<span style=""color:Black; font-size:50px;"">Agent A","null","","","","",""
"null","","","video-keyboard-response","229","1588566","0.0-229.0","arkbs5zx","","","null","","Agent A","veridical","FOR_REV_BLOBBY_STIM/1592286.bmp_pp52_L1_V1.0_veridical_freeview_isoFalse_fps144.mp4",""
"null","","","html-keyboard-response","230","1590070","0.0-230.0","arkbs5zx","","<span style=""color:Black; font-size:50px;"">Agent B","null","","","","",""
"null","","","video-keyboard-response","231","1592912","0.0-231.0","arkbs5zx","","","null","","Agent B","scrambled","FOR_REV_BLOBBY_STIM/1592286.bmp_pp52_L1_V1.0_veridical_freeview_isoFalse_fps144_reversed_REAL.mp4",""
"","","","call-function","232","1592914","0.0-232.0","arkbs5zx","","","","","","","",""
"1159.5700000000652","{""judgement"":0}","[0]","survey-likert","233","1594074","0.0-233.0","arkbs5zx","","","","","","","","0"
"1298.4650000000838","{""confidence"":3}","[0]","survey-likert","234","1595375","0.0-234.0","arkbs5zx","","","","","","","",""
"","","","call-function","235","1595376","0.0-235.0","arkbs5zx","","","","","","","",""
"null","","","html-keyboard-response","236","1596878","0.0-236.0","arkbs5zx","","<span style=""color:Black; font-size:50px;"">Agent A","null","","","","",""
"null","","","video-keyboard-response","237","1599572","0.0-237.0","arkbs5zx","","","null","","Agent A","scrambled","FOR_REV_BLOBBY_STIM/1592133.bmp_pp75_L1_V1.0_veridical_freeview_isoFalse_fps144_reversed_REAL.mp4",""
"null","","","html-keyboard-response","238","1601079","0.0-238.0","arkbs5zx","","<span style=""color:Black; font-size:50px;"">Agent B","null","","","","",""
"null","","","video-keyboard-response","239","1603764","0.0-239.0","arkbs5zx","","","null","","Agent B","veridical","FOR_REV_BLOBBY_STIM/1592133.bmp_pp75_L1_V1.0_veridical_freeview_isoFalse_fps144.mp4",""
"","","","call-function","240","1603765","0.0-240.0","arkbs5zx","","","","","","","",""
"1111.1650000000373","{""judgement"":0}","[0]","survey-likert","241","1604878","0.0-241.0","arkbs5zx","","","","","","","","1"
"1173.905000000028","{""confidence"":3}","[0]","survey-likert","242","1606053","0.0-242.0","arkbs5zx","","","","","","","",""
"","","","call-function","243","1606053","0.0-243.0","arkbs5zx","","","","","","","",""
"null","","","html-keyboard-response","244","1607558","0.0-244.0","arkbs5zx","","<span style=""color:Black; font-size:50px;"">Agent A","null","","","","",""
"null","","","video-keyboard-response","245","1610384","0.0-245.0","arkbs5zx","","","null","","Agent A","scrambled","FOR_REV_BLOBBY_STIM/1159675.bmp_pp77_L3_V1.0_veridical_freeview_isoFalse_fps144_reversed_REAL.mp4",""
"null","","","html-keyboard-response","246","1611889","0.0-246.0","arkbs5zx","","<span style=""color:Black; font-size:50px;"">Agent B","null","","","","",""
"null","","","video-keyboard-response","247","1614717","0.0-247.0","arkbs5zx","","","null","","Agent B","veridical","FOR_REV_BLOBBY_STIM/1159675.bmp_pp77_L3_V1.0_veridical_freeview_isoFalse_fps144.mp4",""
"","","","call-function","248","1614717","0.0-248.0","arkbs5zx","","","","","","","",""
"1161.994999999879","{""judgement"":1}","[0]","survey-likert","249","1615881","0.0-249.0","arkbs5zx","","","","","","","","1"
"1137.3900000001304","{""confidence"":2}","[0]","survey-likert","250","1617019","0.0-250.0","arkbs5zx","","","","","","","",""
"1372.6750000000466","","","instructions","251","1618392","0.0-251.0","arkbs5zx","[{""page_index"":0,""viewing_time"":848.1450000000186},{""page_index"":1,""viewing_time"":368.96999999997206},{""page_index"":2,""viewing_time"":155.39000000013039}]","","","","","","",""
"693.0849999999627","","","instructions","252","1619086","0.0-252.0","arkbs5zx","[{""page_index"":0,""viewing_time"":114.2249999998603},{""page_index"":1,""viewing_time"":142.14000000013039},{""page_index"":2,""viewing_time"":436.6149999999907}]","","","","","","",""
"","","","call-function","253","1619086","0.0-253.0","arkbs5zx","","","","","","","",""
"null","","","html-keyboard-response","254","1620590","0.0-254.0","arkbs5zx","","<span style=""color:Black; font-size:50px;"">Agent A","null","","","","",""
"null","","","video-keyboard-response","255","1623446","0.0-255.0","arkbs5zx","","","null","","Agent A","scrambled","FOR_REV_BLOBBY_STIM/713593.bmp_pp64_L1_V1.0_veridical_freeview_isoFalse_fps144_reversed_REAL.mp4",""
"null","","","html-keyboard-response","256","1624949","0.0-256.0","arkbs5zx","","<span style=""color:Black; font-size:50px;"">Agent B","null","","","","",""
"null","","","video-keyboard-response","257","1627800","0.0-257.0","arkbs5zx","","","null","","Agent B","veridical","FOR_REV_BLOBBY_STIM/713593.bmp_pp64_L1_V1.0_veridical_freeview_isoFalse_fps144.mp4",""
"","","","call-function","258","1627800","0.0-258.0","arkbs5zx","","","","","","","",""
"1387.4799999999814","{""judgement"":1}","[0]","survey-likert","259","1629188","0.0-259.0","arkbs5zx","","","","","","","","1"
"1180.160000000149","{""confidence"":3}","[0]","survey-likert","260","1630370","0.0-260.0","arkbs5zx","","","","","","","",""
"","","","call-function","261","1630370","0.0-261.0","arkbs5zx","","","","","","","",""
"null","","","html-keyboard-response","262","1631873","0.0-262.0","arkbs5zx","","<span style=""color:Black; font-size:50px;"">Agent A","null","","","","",""
"null","","","video-keyboard-response","263","1634470","0.0-263.0","arkbs5zx","","","null","","Agent A","scrambled","FOR_REV_BLOBBY_STIM/1592397.bmp_pp85_L3_V1.0_veridical_freeview_isoFalse_fps144_reversed_REAL.mp4",""
"null","","","html-keyboard-response","264","1635972","0.0-264.0","arkbs5zx","","<span style=""color:Black; font-size:50px;"">Agent B","null","","","","",""
"null","","","video-keyboard-response","265","1638570","0.0-265.0","arkbs5zx","","","null","","Agent B","veridical","FOR_REV_BLOBBY_STIM/1592397.bmp_pp85_L3_V1.0_veridical_freeview_isoFalse_fps144.mp4",""
"","","","call-function","266","1638571","0.0-266.0","arkbs5zx","","","","","","","",""
"1151.8000000000466","{""judgement"":0}","[0]","survey-likert","267","1639723","0.0-267.0","arkbs5zx","","","","","","","","1"
"1041.8850000000093","{""confidence"":3}","[0]","survey-likert","268","1640767","0.0-268.0","arkbs5zx","","","","","","","",""
"","","","call-function","269","1640767","0.0-269.0","arkbs5zx","","","","","","","",""
"null","","","html-keyboard-response","270","1642270","0.0-270.0","arkbs5zx","","<span style=""color:Black; font-size:50px;"">Agent A","null","","","","",""
"null","","","video-keyboard-response","271","1645020","0.0-271.0","arkbs5zx","","","null","","Agent A","veridical","FOR_REV_BLOBBY_STIM/498170.bmp_pp153_L3_V1.0_veridical_freeview_isoFalse_fps144.mp4",""
"null","","","html-keyboard-response","272","1646523","0.0-272.0","arkbs5zx","","<span style=""color:Black; font-size:50px;"">Agent B","null","","","","",""
"null","","","video-keyboard-response","273","1649261","0.0-273.0","arkbs5zx","","","null","","Agent B","scrambled","FOR_REV_BLOBBY_STIM/498170.bmp_pp153_L3_V1.0_veridical_freeview_isoFalse_fps144_reversed_REAL.mp4",""
"","","","call-function","274","1649261","0.0-274.0","arkbs5zx","","","","","","","",""
"1074.0100000000093","{""judgement"":0}","[0]","survey-likert","275","1650336","0.0-275.0","arkbs5zx","","","","","","","","0"
"1471.5","{""confidence"":3}","[0]","survey-likert","276","1651809","0.0-276.0","arkbs5zx","","","","","","","",""
"","","","call-function","277","1651810","0.0-277.0","arkbs5zx","","","","","","","",""
"null","","","html-keyboard-response","278","1653313","0.0-278.0","arkbs5zx","","<span style=""color:Black; font-size:50px;"">Agent A","null","","","","",""
"null","","","video-keyboard-response","279","1656171","0.0-279.0","arkbs5zx","","","null","","Agent A","veridical","FOR_REV_BLOBBY_STIM/498253.bmp_pp67_L2_V1.0_veridical_freeview_isoFalse_fps144.mp4",""
"null","","","html-keyboard-response","280","1657676","0.0-280.0","arkbs5zx","","<span style=""color:Black; font-size:50px;"">Agent B","null","","","","",""
"null","","","video-keyboard-response","281","1660531","0.0-281.0","arkbs5zx","","","null","","Agent B","scrambled","FOR_REV_BLOBBY_STIM/498253.bmp_pp67_L2_V1.0_veridical_freeview_isoFalse_fps144_reversed_REAL.mp4",""
"","","","call-function","282","1660531","0.0-282.0","arkbs5zx","","","","","","","",""
"1290.410000000149","{""judgement"":0}","[0]","survey-likert","283","1661823","0.0-283.0","arkbs5zx","","","","","","","","0"
"850.7949999999255","{""confidence"":0}","[0]","survey-likert","284","1662674","0.0-284.0","arkbs5zx","","","","","","","",""
"","","","call-function","285","1662675","0.0-285.0","arkbs5zx","","","","","","","",""
"null","","","html-keyboard-response","286","1664177","0.0-286.0","arkbs5zx","","<span style=""color:Black; font-size:50px;"">Agent A","null","","","","",""
"null","","","video-keyboard-response","287","1666875","0.0-287.0","arkbs5zx","","","null","","Agent A","scrambled","FOR_REV_BLOBBY_STIM/285994.bmp_pp92_L3_V1.0_veridical_freeview_isoFalse_fps144_reversed_REAL.mp4",""
"null","","","html-keyboard-response","288","1668377","0.0-288.0","arkbs5zx","","<span style=""color:Black; font-size:50px;"">Agent B","null","","","","",""
"null","","","video-keyboard-response","289","1671165","0.0-289.0","arkbs5zx","","","null","","Agent B","veridical","FOR_REV_BLOBBY_STIM/285994.bmp_pp92_L3_V1.0_veridical_freeview_isoFalse_fps144.mp4",""
"","","","call-function","290","1671166","0.0-290.0","arkbs5zx","","","","","","","",""
"1943.8899999998976","{""judgement"":1}","[0]","survey-likert","291","1673111","0.0-291.0","arkbs5zx","","","","","","","","1"
"895.8249999999534","{""confidence"":2}","[0]","survey-likert","292","1674007","0.0-292.0","arkbs5zx","","","","","","","",""
"","","","call-function","293","1674008","0.0-293.0","arkbs5zx","","","","","","","",""
"null","","","html-keyboard-response","294","1675510","0.0-294.0","arkbs5zx","","<span style=""color:Black; font-size:50px;"">Agent A","null","","","","",""
"null","","","video-keyboard-response","295","1678347","0.0-295.0","arkbs5zx","","","null","","Agent A","veridical","FOR_REV_BLOBBY_STIM/497950.bmp_pp151_L1_V1.0_veridical_freeview_isoFalse_fps144.mp4",""
"null","","","html-keyboard-response","296","1679849","0.0-296.0","arkbs5zx","","<span style=""color:Black; font-size:50px;"">Agent B","null","","","","",""
"null","","","video-keyboard-response","297","1682689","0.0-297.0","arkbs5zx","","","null","","Agent B","scrambled","FOR_REV_BLOBBY_STIM/497950.bmp_pp151_L1_V1.0_veridical_freeview_isoFalse_fps144_reversed_REAL.mp4",""
"","","","call-function","298","1682689","0.0-298.0","arkbs5zx","","","","","","","",""
"1600.530000000028","{""judgement"":0}","[0]","survey-likert","299","1684290","0.0-299.0","arkbs5zx","","","","","","","","0"
"862.9450000000652","{""confidence"":2}","[0]","survey-likert","300","1685154","0.0-300.0","arkbs5zx","","","","","","","",""
"","","","call-function","301","1685155","0.0-301.0","arkbs5zx","","","","","","","",""
"null","","","html-keyboard-response","302","1686658","0.0-302.0","arkbs5zx","","<span style=""color:Black; font-size:50px;"">Agent A","null","","","","",""
"null","","","video-keyboard-response","303","1689423","0.0-303.0","arkbs5zx","","","null","","Agent A","scrambled","FOR_REV_BLOBBY_STIM/713749.bmp_pp88_L2_V1.0_veridical_freeview_isoFalse_fps144_reversed_REAL.mp4",""
"null","","","html-keyboard-response","304","1690928","0.0-304.0","arkbs5zx","","<span style=""color:Black; font-size:50px;"">Agent B","null","","","","",""
"null","","","video-keyboard-response","305","1693699","0.0-305.0","arkbs5zx","","","null","","Agent B","veridical","FOR_REV_BLOBBY_STIM/713749.bmp_pp88_L2_V1.0_veridical_freeview_isoFalse_fps144.mp4",""
"","","","call-function","306","1693701","0.0-306.0","arkbs5zx","","","","","","","",""
"2625.6699999999255","{""judgement"":0}","[0]","survey-likert","307","1696328","0.0-307.0","arkbs5zx","","","","","","","","1"
"1093.595000000205","{""confidence"":0}","[0]","survey-likert","308","1697423","0.0-308.0","arkbs5zx","","","","","","","",""
"","","","call-function","309","1697423","0.0-309.0","arkbs5zx","","","","","","","",""
"null","","","html-keyboard-response","310","1698928","0.0-310.0","arkbs5zx","","<span style=""color:Black; font-size:50px;"">Agent A","null","","","","",""
"null","","","video-keyboard-response","311","1701701","0.0-311.0","arkbs5zx","","","null","","Agent A","scrambled","FOR_REV_BLOBBY_STIM/1593041.bmp_pp58_L1_V1.0_veridical_freeview_isoFalse_fps144_reversed_REAL.mp4",""
"null","","","html-keyboard-response","312","1703207","0.0-312.0","arkbs5zx","","<span style=""color:Black; font-size:50px;"">Agent B","null","","","","",""
"null","","","video-keyboard-response","313","1705983","0.0-313.0","arkbs5zx","","","null","","Agent B","veridical","FOR_REV_BLOBBY_STIM/1593041.bmp_pp58_L1_V1.0_veridical_freeview_isoFalse_fps144.mp4",""
"","","","call-function","314","1705984","0.0-314.0","arkbs5zx","","","","","","","",""
"2880.7700000000186","{""judgement"":0}","[0]","survey-likert","315","1708866","0.0-315.0","arkbs5zx","","","","","","","","1"
"1695.969999999972","{""confidence"":1}","[0]","survey-likert","316","1710563","0.0-316.0","arkbs5zx","","","","","","","",""
"","","","call-function","317","1710564","0.0-317.0","arkbs5zx","","","","","","","",""
"null","","","html-keyboard-response","318","1712065","0.0-318.0","arkbs5zx","","<span style=""color:Black; font-size:50px;"">Agent A","null","","","","",""
"null","","","video-keyboard-response","319","1714883","0.0-319.0","arkbs5zx","","","null","","Agent A","scrambled","FOR_REV_BLOBBY_STIM/1592362.bmp_pp95_L2_V1.0_veridical_freeview_isoFalse_fps144_reversed_REAL.mp4",""
"null","","","html-keyboard-response","320","1716385","0.0-320.0","arkbs5zx","","<span style=""color:Black; font-size:50px;"">Agent B","null","","","","",""
"null","","","video-keyboard-response","321","1719217","0.0-321.0","arkbs5zx","","","null","","Agent B","veridical","FOR_REV_BLOBBY_STIM/1592362.bmp_pp95_L2_V1.0_veridical_freeview_isoFalse_fps144.mp4",""
"","","","call-function","322","1719218","0.0-322.0","arkbs5zx","","","","","","","",""
"1472.0500000000466","{""judgement"":1}","[0]","survey-likert","323","1720691","0.0-323.0","arkbs5zx","","","","","","","","1"
"3051.070000000065","{""confidence"":3}","[0]","survey-likert","324","1723743","0.0-324.0","arkbs5zx","","","","","","","",""
"","","","call-function","325","1723743","0.0-325.0","arkbs5zx","","","","","","","",""
"null","","","html-keyboard-response","326","1725246","0.0-326.0","arkbs5zx","","<span style=""color:Black; font-size:50px;"">Agent A","null","","","","",""
"null","","","video-keyboard-response","327","1728079","0.0-327.0","arkbs5zx","","","null","","Agent A","veridical","FOR_REV_BLOBBY_STIM/285751.bmp_pp55_L3_V1.0_veridical_freeview_isoFalse_fps144.mp4",""
"null","","","html-keyboard-response","328","1729581","0.0-328.0","arkbs5zx","","<span style=""color:Black; font-size:50px;"">Agent B","null","","","","",""
"null","","","video-keyboard-response","329","1732400","0.0-329.0","arkbs5zx","","","null","","Agent B","scrambled","FOR_REV_BLOBBY_STIM/285751.bmp_pp55_L3_V1.0_veridical_freeview_isoFalse_fps144_reversed_REAL.mp4",""
"","","","call-function","330","1732400","0.0-330.0","arkbs5zx","","","","","","","",""
"2033.4199999999255","{""judgement"":0}","[0]","survey-likert","331","1734435","0.0-331.0","arkbs5zx","","","","","","","","0"
"886.8649999999907","{""confidence"":3}","[0]","survey-likert","332","1735323","0.0-332.0","arkbs5zx","","","","","","","",""
"1561.1150000002235","","","instructions","333","1736884","0.0-333.0","arkbs5zx","[{""page_index"":0,""viewing_time"":946.1700000001583},{""page_index"":1,""viewing_time"":355.40500000002794},{""page_index"":2,""viewing_time"":259.2849999999162}]","","","","","","",""
"652.0250000001397","","","instructions","334","1737537","0.0-334.0","arkbs5zx","[{""page_index"":0,""viewing_time"":138.50500000012107},{""page_index"":1,""viewing_time"":233.9550000000745},{""page_index"":2,""viewing_time"":279.45999999996275}]","","","","","","",""
"","","","call-function","335","1737537","0.0-335.0","arkbs5zx","","","","","","","",""
"null","","","html-keyboard-response","336","1739041","0.0-336.0","arkbs5zx","","<span style=""color:Black; font-size:50px;"">Agent A","null","","","","",""
"null","","","video-keyboard-response","337","1741939","0.0-337.0","arkbs5zx","","","null","","Agent A","veridical","FOR_REV_BLOBBY_STIM/1159440.bmp_pp98_L1_V1.0_veridical_freeview_isoFalse_fps144.mp4",""
"null","","","html-keyboard-response","338","1743441","0.0-338.0","arkbs5zx","","<span style=""color:Black; font-size:50px;"">Agent B","null","","","","",""
"null","","","video-keyboard-response","339","1746271","0.0-339.0","arkbs5zx","","","null","","Agent B","scrambled","FOR_REV_BLOBBY_STIM/1159440.bmp_pp98_L1_V1.0_veridical_freeview_isoFalse_fps144_reversed_REAL.mp4",""
"","","","call-function","340","1746271","0.0-340.0","arkbs5zx","","","","","","","",""
"2645.225000000093","{""judgement"":0}","[0]","survey-likert","341","1748918","0.0-341.0","arkbs5zx","","","","","","","","0"
"971.8649999999907","{""confidence"":0}","[0]","survey-likert","342","1749891","0.0-342.0","arkbs5zx","","","","","","","",""
"","","","call-function","343","1749891","0.0-343.0","arkbs5zx","","","","","","","",""
"null","","","html-keyboard-response","344","1751393","0.0-344.0","arkbs5zx","","<span style=""color:Black; font-size:50px;"">Agent A","null","","","","",""
"null","","","video-keyboard-response","345","1754203","0.0-345.0","arkbs5zx","","","null","","Agent A","veridical","FOR_REV_BLOBBY_STIM/713620.bmp_pp65_L3_V1.0_veridical_freeview_isoFalse_fps144.mp4",""
"null","","","html-keyboard-response","346","1755708","0.0-346.0","arkbs5zx","","<span style=""color:Black; font-size:50px;"">Agent B","null","","","","",""
"null","","","video-keyboard-response","347","1758508","0.0-347.0","arkbs5zx","","","null","","Agent B","scrambled","FOR_REV_BLOBBY_STIM/713620.bmp_pp65_L3_V1.0_veridical_freeview_isoFalse_fps144_reversed_REAL.mp4",""
"","","","call-function","348","1758508","0.0-348.0","arkbs5zx","","","","","","","",""
"2323.3950000000186","{""judgement"":0}","[0]","survey-likert","349","1760833","0.0-349.0","arkbs5zx","","","","","","","","0"
"1163.8599999998696","{""confidence"":0}","[0]","survey-likert","350","1761998","0.0-350.0","arkbs5zx","","","","","","","",""
"","","","call-function","351","1761998","0.0-351.0","arkbs5zx","","","","","","","",""
"null","","","html-keyboard-response","352","1763505","0.0-352.0","arkbs5zx","","<span style=""color:Black; font-size:50px;"">Agent A","null","","","","",""
"null","","","video-keyboard-response","353","1766200","0.0-353.0","arkbs5zx","","","null","","Agent A","veridical","FOR_REV_BLOBBY_STIM/1592727.bmp_pp59_L3_V1.0_veridical_freeview_isoFalse_fps144.mp4",""
"null","","","html-keyboard-response","354","1767702","0.0-354.0","arkbs5zx","","<span style=""color:Black; font-size:50px;"">Agent B","null","","","","",""
"null","","","video-keyboard-response","355","1770388","0.0-355.0","arkbs5zx","","","null","","Agent B","scrambled","FOR_REV_BLOBBY_STIM/1592727.bmp_pp59_L3_V1.0_veridical_freeview_isoFalse_fps144_reversed_REAL.mp4",""
"","","","call-function","356","1770389","0.0-356.0","arkbs5zx","","","","","","","",""
"1294.8249999999534","{""judgement"":1}","[0]","survey-likert","357","1771684","0.0-357.0","arkbs5zx","","","","","","","","0"
"1403.344999999972","{""confidence"":2}","[0]","survey-likert","358","1773089","0.0-358.0","arkbs5zx","","","","","","","",""
"","","","call-function","359","1773089","0.0-359.0","arkbs5zx","","","","","","","",""
"null","","","html-keyboard-response","360","1774593","0.0-360.0","arkbs5zx","","<span style=""color:Black; font-size:50px;"">Agent A","null","","","","",""
"null","","","video-keyboard-response","361","1777361","0.0-361.0","arkbs5zx","","","null","","Agent A","scrambled","FOR_REV_BLOBBY_STIM/1591954.bmp_pp62_L2_V1.0_veridical_freeview_isoFalse_fps144_reversed_REAL.mp4",""
"null","","","html-keyboard-response","362","1778862","0.0-362.0","arkbs5zx","","<span style=""color:Black; font-size:50px;"">Agent B","null","","","","",""
"null","","","video-keyboard-response","363","1781595","0.0-363.0","arkbs5zx","","","null","","Agent B","veridical","FOR_REV_BLOBBY_STIM/1591954.bmp_pp62_L2_V1.0_veridical_freeview_isoFalse_fps144.mp4",""
"","","","call-function","364","1781595","0.0-364.0","arkbs5zx","","","","","","","",""
"1423.494999999879","{""judgement"":1}","[0]","survey-likert","365","1783020","0.0-365.0","arkbs5zx","","","","","","","","1"
"966.0400000000373","{""confidence"":3}","[0]","survey-likert","366","1783987","0.0-366.0","arkbs5zx","","","","","","","",""
"","","","call-function","367","1783987","0.0-367.0","arkbs5zx","","","","","","","",""
"null","","","html-keyboard-response","368","1785489","0.0-368.0","arkbs5zx","","<span style=""color:Black; font-size:50px;"">Agent A","null","","","","",""
"null","","","video-keyboard-response","369","1788028","0.0-369.0","arkbs5zx","","","null","","Agent A","scrambled","FOR_REV_BLOBBY_STIM/713513.bmp_pp62_L2_V1.0_veridical_freeview_isoFalse_fps144_reversed_REAL.mp4",""
"null","","","html-keyboard-response","370","1789532","0.0-370.0","arkbs5zx","","<span style=""color:Black; font-size:50px;"">Agent B","null","","","","",""
"null","","","video-keyboard-response","371","1792076","0.0-371.0","arkbs5zx","","","null","","Agent B","veridical","FOR_REV_BLOBBY_STIM/713513.bmp_pp62_L2_V1.0_veridical_freeview_isoFalse_fps144.mp4",""
"","","","call-function","372","1792077","0.0-372.0","arkbs5zx","","","","","","","",""
"1344.1750000000466","{""judgement"":0}","[0]","survey-likert","373","1793422","0.0-373.0","arkbs5zx","","","","","","","","1"
"787.839999999851","{""confidence"":2}","[0]","survey-likert","374","1794211","0.0-374.0","arkbs5zx","","","","","","","",""
"","","","call-function","375","1794213","0.0-375.0","arkbs5zx","","","","","","","",""
"null","","","html-keyboard-response","376","1795719","0.0-376.0","arkbs5zx","","<span style=""color:Black; font-size:50px;"">Agent A","null","","","","",""
"null","","","video-keyboard-response","377","1798582","0.0-377.0","arkbs5zx","","","null","","Agent A","scrambled","FOR_REV_BLOBBY_STIM/1159572.bmp_pp71_L1_V1.0_veridical_freeview_isoFalse_fps144_reversed_REAL.mp4",""
"null","","","html-keyboard-response","378","1800087","0.0-378.0","arkbs5zx","","<span style=""color:Black; font-size:50px;"">Agent B","null","","","","",""
"null","","","video-keyboard-response","379","1802945","0.0-379.0","arkbs5zx","","","null","","Agent B","veridical","FOR_REV_BLOBBY_STIM/1159572.bmp_pp71_L1_V1.0_veridical_freeview_isoFalse_fps144.mp4",""
"","","","call-function","380","1802945","0.0-380.0","arkbs5zx","","","","","","","",""
"1111.529999999795","{""judgement"":0}","[0]","survey-likert","381","1804058","0.0-381.0","arkbs5zx","","","","","","","","1"
"1407.9499999999534","{""confidence"":0}","[0]","survey-likert","382","1805467","0.0-382.0","arkbs5zx","","","","","","","",""
"","","","call-function","383","1805468","0.0-383.0","arkbs5zx","","","","","","","",""
"null","","","html-keyboard-response","384","1806970","0.0-384.0","arkbs5zx","","<span style=""color:Black; font-size:50px;"">Agent A","null","","","","",""
"null","","","video-keyboard-response","385","1809618","0.0-385.0","arkbs5zx","","","null","","Agent A","scrambled","FOR_REV_BLOBBY_STIM/713707.bmp_pp154_L1_V1.0_veridical_freeview_isoFalse_fps144_reversed_REAL.mp4",""
"null","","","html-keyboard-response","386","1811122","0.0-386.0","arkbs5zx","","<span style=""color:Black; font-size:50px;"">Agent B","null","","","","",""
"null","","","video-keyboard-response","387","1813803","0.0-387.0","arkbs5zx","","","null","","Agent B","veridical","FOR_REV_BLOBBY_STIM/713707.bmp_pp154_L1_V1.0_veridical_freeview_isoFalse_fps144.mp4",""
"","","","call-function","388","1813804","0.0-388.0","arkbs5zx","","","","","","","",""
"1174.8149999999441","{""judgement"":0}","[0]","survey-likert","389","1814980","0.0-389.0","arkbs5zx","","","","","","","","1"
"877.3100000000559","{""confidence"":3}","[0]","survey-likert","390","1815858","0.0-390.0","arkbs5zx","","","","","","","",""
"","","","call-function","391","1815859","0.0-391.0","arkbs5zx","","","","","","","",""
"null","","","html-keyboard-response","392","1817361","0.0-392.0","arkbs5zx","","<span style=""color:Black; font-size:50px;"">Agent A","null","","","","",""
"null","","","video-keyboard-response","393","1820200","0.0-393.0","arkbs5zx","","","null","","Agent A","scrambled","FOR_REV_BLOBBY_STIM/713666.bmp_pp97_L3_V1.0_veridical_freeview_isoFalse_fps144_reversed_REAL.mp4",""
"null","","","html-keyboard-response","394","1821703","0.0-394.0","arkbs5zx","","<span style=""color:Black; font-size:50px;"">Agent B","null","","","","",""
"null","","","video-keyboard-response","395","1824541","0.0-395.0","arkbs5zx","","","null","","Agent B","veridical","FOR_REV_BLOBBY_STIM/713666.bmp_pp97_L3_V1.0_veridical_freeview_isoFalse_fps144.mp4",""
"","","","call-function","396","1824541","0.0-396.0","arkbs5zx","","","","","","","",""
"1642.6400000001304","{""judgement"":0}","[0]","survey-likert","397","1826185","0.0-397.0","arkbs5zx","","","","","","","","1"
"1016.1300000001211","{""confidence"":1}","[0]","survey-likert","398","1827202","0.0-398.0","arkbs5zx","","","","","","","",""
"","","","call-function","399","1827202","0.0-399.0","arkbs5zx","","","","","","","",""
"null","","","html-keyboard-response","400","1828705","0.0-400.0","arkbs5zx","","<span style=""color:Black; font-size:50px;"">Agent A","null","","","","",""
"null","","","video-keyboard-response","401","1831457","0.0-401.0","arkbs5zx","","","null","","Agent A","scrambled","FOR_REV_BLOBBY_STIM/1159446.bmp_pp60_L3_V1.0_veridical_freeview_isoFalse_fps144_reversed_REAL.mp4",""
"null","","","html-keyboard-response","402","1832961","0.0-402.0","arkbs5zx","","<span style=""color:Black; font-size:50px;"">Agent B","null","","","","",""
"null","","","video-keyboard-response","403","1835700","0.0-403.0","arkbs5zx","","","null","","Agent B","veridical","FOR_REV_BLOBBY_STIM/1159446.bmp_pp60_L3_V1.0_veridical_freeview_isoFalse_fps144.mp4",""
"","","","call-function","404","1835701","0.0-404.0","arkbs5zx","","","","","","","",""
"2329.9250000000466","{""judgement"":0}","[0]","survey-likert","405","1838032","0.0-405.0","arkbs5zx","","","","","","","","1"
"1166.0500000000466","{""confidence"":0}","[0]","survey-likert","406","1839199","0.0-406.0","arkbs5zx","","","","","","","",""
"","","","call-function","407","1839199","0.0-407.0","arkbs5zx","","","","","","","",""
"null","","","html-keyboard-response","408","1840702","0.0-408.0","arkbs5zx","","<span style=""color:Black; font-size:50px;"">Agent A","null","","","","",""
"null","","","video-keyboard-response","409","1843328","0.0-409.0","arkbs5zx","","","null","","Agent A","veridical","FOR_REV_BLOBBY_STIM/1593146.bmp_pp93_L1_V1.0_veridical_freeview_isoFalse_fps144.mp4",""
"null","","","html-keyboard-response","410","1844831","0.0-410.0","arkbs5zx","","<span style=""color:Black; font-size:50px;"">Agent B","null","","","","",""
"null","","","video-keyboard-response","411","1847459","0.0-411.0","arkbs5zx","","","null","","Agent B","scrambled","FOR_REV_BLOBBY_STIM/1593146.bmp_pp93_L1_V1.0_veridical_freeview_isoFalse_fps144_reversed_REAL.mp4",""
"","","","call-function","412","1847459","0.0-412.0","arkbs5zx","","","","","","","",""
"985.3000000000466","{""judgement"":0}","[0]","survey-likert","413","1848446","0.0-413.0","arkbs5zx","","","","","","","","0"
"1588.1149999999907","{""confidence"":3}","[0]","survey-likert","414","1850036","0.0-414.0","arkbs5zx","","","","","","","",""
"1453.4599999999627","","","instructions","415","1851490","0.0-415.0","arkbs5zx","[{""page_index"":0,""viewing_time"":909.9949999998789},{""page_index"":1,""viewing_time"":384.82499999995343},{""page_index"":2,""viewing_time"":158.375}]","","","","","","",""
"380.52499999990687","","","instructions","416","1851871","0.0-416.0","arkbs5zx","[{""page_index"":0,""viewing_time"":166.3200000000652},{""page_index"":1,""viewing_time"":111.07499999995343},{""page_index"":2,""viewing_time"":103.00499999988824}]","","","","","","",""
"","","","call-function","417","1851871","0.0-417.0","arkbs5zx","","","","","","","",""
"null","","","html-keyboard-response","418","1853377","0.0-418.0","arkbs5zx","","<span style=""color:Black; font-size:50px;"">Agent A","null","","","","",""
"null","","","video-keyboard-response","419","1856038","0.0-419.0","arkbs5zx","","","null","","Agent A","scrambled","FOR_REV_BLOBBY_STIM/498149.bmp_pp99_L2_V1.0_veridical_freeview_isoFalse_fps144_reversed_REAL.mp4",""
"null","","","html-keyboard-response","420","1857543","0.0-420.0","arkbs5zx","","<span style=""color:Black; font-size:50px;"">Agent B","null","","","","",""
"null","","","video-keyboard-response","421","1860202","0.0-421.0","arkbs5zx","","","null","","Agent B","veridical","FOR_REV_BLOBBY_STIM/498149.bmp_pp99_L2_V1.0_veridical_freeview_isoFalse_fps144.mp4",""
"","","","call-function","422","1860202","0.0-422.0","arkbs5zx","","","","","","","",""
"1253.030000000028","{""judgement"":1}","[0]","survey-likert","423","1861457","0.0-423.0","arkbs5zx","","","","","","","","1"
"1900.839999999851","{""confidence"":0}","[0]","survey-likert","424","1863358","0.0-424.0","arkbs5zx","","","","","","","",""
"","","","call-function","425","1863359","0.0-425.0","arkbs5zx","","","","","","","",""
"null","","","html-keyboard-response","426","1864864","0.0-426.0","arkbs5zx","","<span style=""color:Black; font-size:50px;"">Agent A","null","","","","",""
"null","","","video-keyboard-response","427","1867667","0.0-427.0","arkbs5zx","","","null","","Agent A","scrambled","FOR_REV_BLOBBY_STIM/1159829.bmp_pp91_L3_V1.0_veridical_freeview_isoFalse_fps144_reversed_REAL.mp4",""
"null","","","html-keyboard-response","428","1869169","0.0-428.0","arkbs5zx","","<span style=""color:Black; font-size:50px;"">Agent B","null","","","","",""
"null","","","video-keyboard-response","429","1871970","0.0-429.0","arkbs5zx","","","null","","Agent B","veridical","FOR_REV_BLOBBY_STIM/1159829.bmp_pp91_L3_V1.0_veridical_freeview_isoFalse_fps144.mp4",""
"","","","call-function","430","1871971","0.0-430.0","arkbs5zx","","","","","","","",""
"1115.7099999999627","{""judgement"":1}","[0]","survey-likert","431","1873087","0.0-431.0","arkbs5zx","","","","","","","","1"
"1231.0449999999255","{""confidence"":3}","[0]","survey-likert","432","1874319","0.0-432.0","arkbs5zx","","","","","","","",""
"","","","call-function","433","1874320","0.0-433.0","arkbs5zx","","","","","","","",""
"null","","","html-keyboard-response","434","1875825","0.0-434.0","arkbs5zx","","<span style=""color:Black; font-size:50px;"">Agent A","null","","","","",""
"null","","","video-keyboard-response","435","1878374","0.0-435.0","arkbs5zx","","","null","","Agent A","scrambled","FOR_REV_BLOBBY_STIM/1159515.bmp_pp84_L3_V1.0_veridical_freeview_isoFalse_fps144_reversed_REAL.mp4",""
"null","","","html-keyboard-response","436","1879878","0.0-436.0","arkbs5zx","","<span style=""color:Black; font-size:50px;"">Agent B","null","","","","",""
"null","","","video-keyboard-response","437","1882449","0.0-437.0","arkbs5zx","","","null","","Agent B","veridical","FOR_REV_BLOBBY_STIM/1159515.bmp_pp84_L3_V1.0_veridical_freeview_isoFalse_fps144.mp4",""
"","","","call-function","438","1882449","0.0-438.0","arkbs5zx","","","","","","","",""
"3271.564999999944","{""judgement"":1}","[0]","survey-likert","439","1885722","0.0-439.0","arkbs5zx","","","","","","","","1"
"1042.8200000000652","{""confidence"":1}","[0]","survey-likert","440","1886766","0.0-440.0","arkbs5zx","","","","","","","",""
"","","","call-function","441","1886766","0.0-441.0","arkbs5zx","","","","","","","",""
"null","","","html-keyboard-response","442","1888268","0.0-442.0","arkbs5zx","","<span style=""color:Black; font-size:50px;"">Agent A","null","","","","",""
"null","","","video-keyboard-response","443","1890828","0.0-443.0","arkbs5zx","","","null","","Agent A","veridical","FOR_REV_BLOBBY_STIM/1591876.bmp_pp63_L1_V1.0_veridical_freeview_isoFalse_fps144.mp4",""
"null","","","html-keyboard-response","444","1892331","0.0-444.0","arkbs5zx","","<span style=""color:Black; font-size:50px;"">Agent B","null","","","","",""
"null","","","video-keyboard-response","445","1894882","0.0-445.0","arkbs5zx","","","null","","Agent B","scrambled","FOR_REV_BLOBBY_STIM/1591876.bmp_pp63_L1_V1.0_veridical_freeview_isoFalse_fps144_reversed_REAL.mp4",""
"","","","call-function","446","1894883","0.0-446.0","arkbs5zx","","","","","","","",""
"1454.1200000001118","{""judgement"":0}","[0]","survey-likert","447","1896339","0.0-447.0","arkbs5zx","","","","","","","","0"
"1382.9199999999255","{""confidence"":3}","[0]","survey-likert","448","1897723","0.0-448.0","arkbs5zx","","","","","","","",""
"","","","call-function","449","1897724","0.0-449.0","arkbs5zx","","","","","","","",""
"null","","","html-keyboard-response","450","1899228","0.0-450.0","arkbs5zx","","<span style=""color:Black; font-size:50px;"">Agent A","null","","","","",""
"null","","","video-keyboard-response","451","1901996","0.0-451.0","arkbs5zx","","","null","","Agent A","veridical","FOR_REV_BLOBBY_STIM/498155.bmp_pp61_L2_V1.0_veridical_freeview_isoFalse_fps144.mp4",""
"null","","","html-keyboard-response","452","1903500","0.0-452.0","arkbs5zx","","<span style=""color:Black; font-size:50px;"">Agent B","null","","","","",""
"null","","","video-keyboard-response","453","1906254","0.0-453.0","arkbs5zx","","","null","","Agent B","scrambled","FOR_REV_BLOBBY_STIM/498155.bmp_pp61_L2_V1.0_veridical_freeview_isoFalse_fps144_reversed_REAL.mp4",""
"","","","call-function","454","1906254","0.0-454.0","arkbs5zx","","","","","","","",""
"1392.5200000000186","{""judgement"":1}","[0]","survey-likert","455","1907648","0.0-455.0","arkbs5zx","","","","","","","","0"
"1610.5849999999627","{""confidence"":3}","[0]","survey-likert","456","1909260","0.0-456.0","arkbs5zx","","","","","","","",""
"","","","call-function","457","1909261","0.0-457.0","arkbs5zx","","","","","","","",""
"null","","","html-keyboard-response","458","1910764","0.0-458.0","arkbs5zx","","<span style=""color:Black; font-size:50px;"">Agent A","null","","","","",""
"null","","","video-keyboard-response","459","1913307","0.0-459.0","arkbs5zx","","","null","","Agent A","scrambled","FOR_REV_BLOBBY_STIM/713760.bmp_pp81_L1_V1.0_veridical_freeview_isoFalse_fps144_reversed_REAL.mp4",""
"null","","","html-keyboard-response","460","1914812","0.0-460.0","arkbs5zx","","<span style=""color:Black; font-size:50px;"">Agent B","null","","","","",""
"null","","","video-keyboard-response","461","1917379","0.0-461.0","arkbs5zx","","","null","","Agent B","veridical","FOR_REV_BLOBBY_STIM/713760.bmp_pp81_L1_V1.0_veridical_freeview_isoFalse_fps144.mp4",""
"","","","call-function","462","1917380","0.0-462.0","arkbs5zx","","","","","","","",""
"2414.784999999916","{""judgement"":0}","[0]","survey-likert","463","1919796","0.0-463.0","arkbs5zx","","","","","","","","1"
"914.9650000000838","{""confidence"":1}","[0]","survey-likert","464","1920712","0.0-464.0","arkbs5zx","","","","","","","",""
"","","","call-function","465","1920712","0.0-465.0","arkbs5zx","","","","","","","",""
"null","","","html-keyboard-response","466","1922215","0.0-466.0","arkbs5zx","","<span style=""color:Black; font-size:50px;"">Agent A","null","","","","",""
"null","","","video-keyboard-response","467","1925043","0.0-467.0","arkbs5zx","","","null","","Agent A","veridical","FOR_REV_BLOBBY_STIM/1159784.bmp_pp73_L3_V1.0_veridical_freeview_isoFalse_fps144.mp4",""
"null","","","html-keyboard-response","468","1926545","0.0-468.0","arkbs5zx","","<span style=""color:Black; font-size:50px;"">Agent B","null","","","","",""
"null","","","video-keyboard-response","469","1929355","0.0-469.0","arkbs5zx","","","null","","Agent B","scrambled","FOR_REV_BLOBBY_STIM/1159784.bmp_pp73_L3_V1.0_veridical_freeview_isoFalse_fps144_reversed_REAL.mp4",""
"","","","call-function","470","1929356","0.0-470.0","arkbs5zx","","","","","","","",""
"1186.2600000000093","{""judgement"":1}","[0]","survey-likert","471","1930543","0.0-471.0","arkbs5zx","","","","","","","","0"
"1728.6500000001397","{""confidence"":1}","[0]","survey-likert","472","1932273","0.0-472.0","arkbs5zx","","","","","","","",""
"","","","call-function","473","1932273","0.0-473.0","arkbs5zx","","","","","","","",""
"null","","","html-keyboard-response","474","1933775","0.0-474.0","arkbs5zx","","<span style=""color:Black; font-size:50px;"">Agent A","null","","","","",""
"null","","","video-keyboard-response","475","1936646","0.0-475.0","arkbs5zx","","","null","","Agent A","scrambled","FOR_REV_BLOBBY_STIM/1592807.bmp_pp68_L1_V1.0_veridical_freeview_isoFalse_fps144_reversed_REAL.mp4",""
"null","","","html-keyboard-response","476","1938152","0.0-476.0","arkbs5zx","","<span style=""color:Black; font-size:50px;"">Agent B","null","","","","",""
"null","","","video-keyboard-response","477","1941020","0.0-477.0","arkbs5zx","","","null","","Agent B","veridical","FOR_REV_BLOBBY_STIM/1592807.bmp_pp68_L1_V1.0_veridical_freeview_isoFalse_fps144.mp4",""
"","","","call-function","478","1941020","0.0-478.0","arkbs5zx","","","","","","","",""
"1241.940000000177","{""judgement"":0}","[0]","survey-likert","479","1942263","0.0-479.0","arkbs5zx","","","","","","","","1"
"1676.7999999998137","{""confidence"":2}","[0]","survey-likert","480","1943941","0.0-480.0","arkbs5zx","","","","","","","",""
"","","","call-function","481","1943941","0.0-481.0","arkbs5zx","","","","","","","",""
"null","","","html-keyboard-response","482","1945446","0.0-482.0","arkbs5zx","","<span style=""color:Black; font-size:50px;"">Agent A","null","","","","",""
"null","","","video-keyboard-response","483","1948266","0.0-483.0","arkbs5zx","","","null","","Agent A","veridical","FOR_REV_BLOBBY_STIM/498175.bmp_pp154_L1_V1.0_veridical_freeview_isoFalse_fps144.mp4",""
"null","","","html-keyboard-response","484","1949771","0.0-484.0","arkbs5zx","","<span style=""color:Black; font-size:50px;"">Agent B","null","","","","",""
"null","","","video-keyboard-response","485","1952589","0.0-485.0","arkbs5zx","","","null","","Agent B","scrambled","FOR_REV_BLOBBY_STIM/498175.bmp_pp154_L1_V1.0_veridical_freeview_isoFalse_fps144_reversed_REAL.mp4",""
"","","","call-function","486","1952590","0.0-486.0","arkbs5zx","","","","","","","",""
"1352.3349999999627","{""judgement"":0}","[0]","survey-likert","487","1953943","0.0-487.0","arkbs5zx","","","","","","","","0"
"986.2900000000373","{""confidence"":3}","[0]","survey-likert","488","1954930","0.0-488.0","arkbs5zx","","","","","","","",""
"","","","call-function","489","1954931","0.0-489.0","arkbs5zx","","","","","","","",""
"null","","","html-keyboard-response","490","1956434","0.0-490.0","arkbs5zx","","<span style=""color:Black; font-size:50px;"">Agent A","null","","","","",""
"null","","","video-keyboard-response","491","1959213","0.0-491.0","arkbs5zx","","","null","","Agent A","veridical","FOR_REV_BLOBBY_STIM/1592581.bmp_pp100_L3_V1.0_veridical_freeview_isoFalse_fps144.mp4",""
"null","","","html-keyboard-response","492","1960716","0.0-492.0","arkbs5zx","","<span style=""color:Black; font-size:50px;"">Agent B","null","","","","",""
"null","","","video-keyboard-response","493","1963496","0.0-493.0","arkbs5zx","","","null","","Agent B","scrambled","FOR_REV_BLOBBY_STIM/1592581.bmp_pp100_L3_V1.0_veridical_freeview_isoFalse_fps144_reversed_REAL.mp4",""
"","","","call-function","494","1963497","0.0-494.0","arkbs5zx","","","","","","","",""
"1717.75","{""judgement"":0}","[0]","survey-likert","495","1965216","0.0-495.0","arkbs5zx","","","","","","","","0"
"2259.4150000000373","{""confidence"":3}","[0]","survey-likert","496","1967476","0.0-496.0","arkbs5zx","","","","","","","",""
"1448.7549999998882","","","instructions","497","1968925","0.0-497.0","arkbs5zx","[{""page_index"":0,""viewing_time"":1042.0549999999348},{""page_index"":1,""viewing_time"":157.89999999990687},{""page_index"":2,""viewing_time"":248.6500000001397}]","","","","","","",""
"1016.5900000000838","","","instructions","498","1969942","0.0-498.0","arkbs5zx","[{""page_index"":0,""viewing_time"":156.7200000002049},{""page_index"":1,""viewing_time"":522.6299999998882},{""page_index"":2,""viewing_time"":337.11000000010245}]","","","","","","",""
"","","","call-function","499","1969943","0.0-499.0","arkbs5zx","","","","","","","",""
"null","","","html-keyboard-response","500","1971447","0.0-500.0","arkbs5zx","","<span style=""color:Black; font-size:50px;"">Agent A","null","","","","",""
"null","","","video-keyboard-response","501","1974066","0.0-501.0","arkbs5zx","","","null","","Agent A","veridical","FOR_REV_BLOBBY_STIM/286001.bmp_pp54_L2_V1.0_veridical_freeview_isoFalse_fps144.mp4",""
"null","","","html-keyboard-response","502","1975569","0.0-502.0","arkbs5zx","","<span style=""color:Black; font-size:50px;"">Agent B","null","","","","",""
"null","","","video-keyboard-response","503","1978153","0.0-503.0","arkbs5zx","","","null","","Agent B","scrambled","FOR_REV_BLOBBY_STIM/286001.bmp_pp54_L2_V1.0_veridical_freeview_isoFalse_fps144_reversed_REAL.mp4",""
"","","","call-function","504","1978153","0.0-504.0","arkbs5zx","","","","","","","",""
"1490.5799999998417","{""judgement"":0}","[0]","survey-likert","505","1979645","0.0-505.0","arkbs5zx","","","","","","","","0"
"1212.880000000121","{""confidence"":3}","[0]","survey-likert","506","1980859","0.0-506.0","arkbs5zx","","","","","","","",""
"","","","call-function","507","1980859","0.0-507.0","arkbs5zx","","","","","","","",""
"null","","","html-keyboard-response","508","1982364","0.0-508.0","arkbs5zx","","<span style=""color:Black; font-size:50px;"">Agent A","null","","","","",""
"null","","","video-keyboard-response","509","1985159","0.0-509.0","arkbs5zx","","","null","","Agent A","veridical","FOR_REV_BLOBBY_STIM/713135.bmp_pp54_L2_V1.0_veridical_freeview_isoFalse_fps144.mp4",""
"null","","","html-keyboard-response","510","1986667","0.0-510.0","arkbs5zx","","<span style=""color:Black; font-size:50px;"">Agent B","null","","","","",""
"null","","","video-keyboard-response","511","1989448","0.0-511.0","arkbs5zx","","","null","","Agent B","scrambled","FOR_REV_BLOBBY_STIM/713135.bmp_pp54_L2_V1.0_veridical_freeview_isoFalse_fps144_reversed_REAL.mp4",""
"","","","call-function","512","1989450","0.0-512.0","arkbs5zx","","","","","","","",""
"2006.6700000001583","{""judgement"":0}","[0]","survey-likert","513","1991458","0.0-513.0","arkbs5zx","","","","","","","","0"
"1708.1950000000652","{""confidence"":3}","[0]","survey-likert","514","1993169","0.0-514.0","arkbs5zx","","","","","","","",""
"","","","call-function","515","1993170","0.0-515.0","arkbs5zx","","","","","","","",""
"null","","","html-keyboard-response","516","1994673","0.0-516.0","arkbs5zx","","<span style=""color:Black; font-size:50px;"">Agent A","null","","","","",""
"null","","","video-keyboard-response","517","1997499","0.0-517.0","arkbs5zx","","","null","","Agent A","veridical","FOR_REV_BLOBBY_STIM/1159882.bmp_pp61_L2_V1.0_veridical_freeview_isoFalse_fps144.mp4",""
"null","","","html-keyboard-response","518","1999004","0.0-518.0","arkbs5zx","","<span style=""color:Black; font-size:50px;"">Agent B","null","","","","",""
"null","","","video-keyboard-response","519","2001820","0.0-519.0","arkbs5zx","","","null","","Agent B","scrambled","FOR_REV_BLOBBY_STIM/1159882.bmp_pp61_L2_V1.0_veridical_freeview_isoFalse_fps144_reversed_REAL.mp4",""
"","","","call-function","520","2001820","0.0-520.0","arkbs5zx","","","","","","","",""
"1324.9599999999627","{""judgement"":0}","[0]","survey-likert","521","2003146","0.0-521.0","arkbs5zx","","","","","","","","0"
"1375.3649999999907","{""confidence"":3}","[0]","survey-likert","522","2004523","0.0-522.0","arkbs5zx","","","","","","","",""
"","","","call-function","523","2004524","0.0-523.0","arkbs5zx","","","","","","","",""
"null","","","html-keyboard-response","524","2006026","0.0-524.0","arkbs5zx","","<span style=""color:Black; font-size:50px;"">Agent A","null","","","","",""
"null","","","video-keyboard-response","525","2008880","0.0-525.0","arkbs5zx","","","null","","Agent A","veridical","FOR_REV_BLOBBY_STIM/713403.bmp_pp80_L3_V1.0_veridical_freeview_isoFalse_fps144.mp4",""
"null","","","html-keyboard-response","526","2010386","0.0-526.0","arkbs5zx","","<span style=""color:Black; font-size:50px;"">Agent B","null","","","","",""
"null","","","video-keyboard-response","527","2013224","0.0-527.0","arkbs5zx","","","null","","Agent B","scrambled","FOR_REV_BLOBBY_STIM/713403.bmp_pp80_L3_V1.0_veridical_freeview_isoFalse_fps144_reversed_REAL.mp4",""
"","","","call-function","528","2013225","0.0-528.0","arkbs5zx","","","","","","","",""
"1378.8549999999814","{""judgement"":0}","[0]","survey-likert","529","2014605","0.0-529.0","arkbs5zx","","","","","","","","0"
"1127.3050000001676","{""confidence"":3}","[0]","survey-likert","530","2015733","0.0-530.0","arkbs5zx","","","","","","","",""
"","","","call-function","531","2015734","0.0-531.0","arkbs5zx","","","","","","","",""
"null","","","html-keyboard-response","532","2017237","0.0-532.0","arkbs5zx","","<span style=""color:Black; font-size:50px;"">Agent A","null","","","","",""
"null","","","video-keyboard-response","533","2020129","0.0-533.0","arkbs5zx","","","null","","Agent A","veridical","FOR_REV_BLOBBY_STIM/713089.bmp_pp60_L3_V1.0_veridical_freeview_isoFalse_fps144.mp4",""
"null","","","html-keyboard-response","534","2021634","0.0-534.0","arkbs5zx","","<span style=""color:Black; font-size:50px;"">Agent B","null","","","","",""
"null","","","video-keyboard-response","535","2024514","0.0-535.0","arkbs5zx","","","null","","Agent B","scrambled","FOR_REV_BLOBBY_STIM/713089.bmp_pp60_L3_V1.0_veridical_freeview_isoFalse_fps144_reversed_REAL.mp4",""
"","","","call-function","536","2024515","0.0-536.0","arkbs5zx","","","","","","","",""
"1635.3549999999814","{""judgement"":0}","[0]","survey-likert","537","2026151","0.0-537.0","arkbs5zx","","","","","","","","0"
"2056.7549999998882","{""confidence"":3}","[0]","survey-likert","538","2028209","0.0-538.0","arkbs5zx","","","","","","","",""
"","","","call-function","539","2028210","0.0-539.0","arkbs5zx","","","","","","","",""
"null","","","html-keyboard-response","540","2029714","0.0-540.0","arkbs5zx","","<span style=""color:Black; font-size:50px;"">Agent A","null","","","","",""
"null","","","video-keyboard-response","541","2032519","0.0-541.0","arkbs5zx","","","null","","Agent A","scrambled","FOR_REV_BLOBBY_STIM/1592804.bmp_pp91_L3_V1.0_veridical_freeview_isoFalse_fps144_reversed_REAL.mp4",""
"null","","","html-keyboard-response","542","2034023","0.0-542.0","arkbs5zx","","<span style=""color:Black; font-size:50px;"">Agent B","null","","","","",""
"null","","","video-keyboard-response","543","2036829","0.0-543.0","arkbs5zx","","","null","","Agent B","veridical","FOR_REV_BLOBBY_STIM/1592804.bmp_pp91_L3_V1.0_veridical_freeview_isoFalse_fps144.mp4",""
"","","","call-function","544","2036829","0.0-544.0","arkbs5zx","","","","","","","",""
"1125.9200000001583","{""judgement"":0}","[0]","survey-likert","545","2037956","0.0-545.0","arkbs5zx","","","","","","","","1"
"1384.9250000000466","{""confidence"":1}","[0]","survey-likert","546","2039342","0.0-546.0","arkbs5zx","","","","","","","",""
"","","","call-function","547","2039343","0.0-547.0","arkbs5zx","","","","","","","",""
"null","","","html-keyboard-response","548","2040844","0.0-548.0","arkbs5zx","","<span style=""color:Black; font-size:50px;"">Agent A","null","","","","",""
"null","","","video-keyboard-response","549","2043617","0.0-549.0","arkbs5zx","","","null","","Agent A","veridical","FOR_REV_BLOBBY_STIM/1592619.bmp_pp56_L3_V1.0_veridical_freeview_isoFalse_fps144.mp4",""
"null","","","html-keyboard-response","550","2045122","0.0-550.0","arkbs5zx","","<span style=""color:Black; font-size:50px;"">Agent B","null","","","","",""
"null","","","video-keyboard-response","551","2047889","0.0-551.0","arkbs5zx","","","null","","Agent B","scrambled","FOR_REV_BLOBBY_STIM/1592619.bmp_pp56_L3_V1.0_veridical_freeview_isoFalse_fps144_reversed_REAL.mp4",""
"","","","call-function","552","2047890","0.0-552.0","arkbs5zx","","","","","","","",""
"1030.3249999999534","{""judgement"":0}","[0]","survey-likert","553","2048921","0.0-553.0","arkbs5zx","","","","","","","","0"
"2011.369999999879","{""confidence"":0}","[0]","survey-likert","554","2050934","0.0-554.0","arkbs5zx","","","","","","","",""
"","","","call-function","555","2050935","0.0-555.0","arkbs5zx","","","","","","","",""
"null","","","html-keyboard-response","556","2052439","0.0-556.0","arkbs5zx","","<span style=""color:Black; font-size:50px;"">Agent A","null","","","","",""
"null","","","video-keyboard-response","557","2055266","0.0-557.0","arkbs5zx","","","null","","Agent A","veridical","FOR_REV_BLOBBY_STIM/1159777.bmp_pp77_L3_V1.0_veridical_freeview_isoFalse_fps144.mp4",""
"null","","","html-keyboard-response","558","2056770","0.0-558.0","arkbs5zx","","<span style=""color:Black; font-size:50px;"">Agent B","null","","","","",""
"null","","","video-keyboard-response","559","2059579","0.0-559.0","arkbs5zx","","","null","","Agent B","scrambled","FOR_REV_BLOBBY_STIM/1159777.bmp_pp77_L3_V1.0_veridical_freeview_isoFalse_fps144_reversed_REAL.mp4",""
"","","","call-function","560","2059580","0.0-560.0","arkbs5zx","","","","","","","",""
"1299.9550000000745","{""judgement"":0}","[0]","survey-likert","561","2060881","0.0-561.0","arkbs5zx","","","","","","","","0"
"1022.8249999999534","{""confidence"":3}","[0]","survey-likert","562","2061906","0.0-562.0","arkbs5zx","","","","","","","",""
"","","","call-function","563","2061907","0.0-563.0","arkbs5zx","","","","","","","",""
"null","","","html-keyboard-response","564","2063414","0.0-564.0","arkbs5zx","","<span style=""color:Black; font-size:50px;"">Agent A","null","","","","",""
"null","","","video-keyboard-response","565","2066270","0.0-565.0","arkbs5zx","","","null","","Agent A","veridical","FOR_REV_BLOBBY_STIM/713017.bmp_pp152_L2_V1.0_veridical_freeview_isoFalse_fps144.mp4",""
"null","","","html-keyboard-response","566","2067774","0.0-566.0","arkbs5zx","","<span style=""color:Black; font-size:50px;"">Agent B","null","","","","",""
"null","","","video-keyboard-response","567","2070663","0.0-567.0","arkbs5zx","","","null","","Agent B","scrambled","FOR_REV_BLOBBY_STIM/713017.bmp_pp152_L2_V1.0_veridical_freeview_isoFalse_fps144_reversed_REAL.mp4",""
"","","","call-function","568","2070663","0.0-568.0","arkbs5zx","","","","","","","",""
"1432.1400000001304","{""judgement"":0}","[0]","survey-likert","569","2072096","0.0-569.0","arkbs5zx","","","","","","","","0"
"805.4350000000559","{""confidence"":1}","[0]","survey-likert","570","2072903","0.0-570.0","arkbs5zx","","","","","","","",""
"","","","call-function","571","2072904","0.0-571.0","arkbs5zx","","","","","","","",""
"null","","","html-keyboard-response","572","2074407","0.0-572.0","arkbs5zx","","<span style=""color:Black; font-size:50px;"">Agent A","null","","","","",""
"null","","","video-keyboard-response","573","2077201","0.0-573.0","arkbs5zx","","","null","","Agent A","veridical","FOR_REV_BLOBBY_STIM/1159855.bmp_pp99_L2_V1.0_veridical_freeview_isoFalse_fps144.mp4",""
"null","","","html-keyboard-response","574","2078706","0.0-574.0","arkbs5zx","","<span style=""color:Black; font-size:50px;"">Agent B","null","","","","",""
"null","","","video-keyboard-response","575","2081526","0.0-575.0","arkbs5zx","","","null","","Agent B","scrambled","FOR_REV_BLOBBY_STIM/1159855.bmp_pp99_L2_V1.0_veridical_freeview_isoFalse_fps144_reversed_REAL.mp4",""
"","","","call-function","576","2081527","0.0-576.0","arkbs5zx","","","","","","","",""
"1801.4450000000652","{""judgement"":0}","[0]","survey-likert","577","2083329","0.0-577.0","arkbs5zx","","","","","","","","0"
"1986.630000000121","{""confidence"":1}","[0]","survey-likert","578","2085317","0.0-578.0","arkbs5zx","","","","","","","",""
"1151.6650000000373","","","instructions","579","2086470","0.0-579.0","arkbs5zx","[{""page_index"":0,""viewing_time"":1151.535000000149}]","","","","","","",""
"1642.7549999998882","","","instructions","580","2088113","0.0-580.0","arkbs5zx","[{""page_index"":0,""viewing_time"":1642.5449999999255}]","","","","","","",""
"6141.050000000047","{""post-1"":1}","[0]","survey-likert","581","2094255","0.0-581.0","arkbs5zx","","","","","","","",""
"3093.480000000214","{""post-1"":1}","[0]","survey-likert","582","2097350","0.0-582.0","arkbs5zx","","","","","","","",""
"4653.779999999795","{""post-2"":1}","[0]","survey-likert","583","2102005","0.0-583.0","arkbs5zx","","","","","","","",""
"2183.864999999758","{""post-2"":1}","[0]","survey-likert","584","2104190","0.0-584.0","arkbs5zx","","","","","","","",""
"6125.685000000056","{""post-3"":0}","[0]","survey-likert","585","2110317","0.0-585.0","arkbs5zx","","","","","","","",""
"3481.9799999999814","{""post-3"":0}","[0]","survey-likert","586","2113800","0.0-586.0","arkbs5zx","","","","","","","",""
"4903","{""post-4"":0}","[0]","survey-likert","587","2118704","0.0-587.0","arkbs5zx","","","","","","","",""
"1765.9399999999441","{""post-4"":0}","[0]","survey-likert","588","2120471","0.0-588.0","arkbs5zx","","","","","","","",""
"5305.48499999987","{""post-5"":2}","[0]","survey-likert","589","2125778","0.0-589.0","arkbs5zx","","","","","","","",""
"1292.9499999997206","{""post-5"":2}","[0]","survey-likert","590","2127072","0.0-590.0","arkbs5zx","","","","","","","",""
"22734.029999999795","{""Q0"":""rarely did it feel like the attention hotspots mimicked my own, except for the initial hot spot on faces""}","","survey-text","591","2149811","0.0-591.0","arkbs5zx","","","","","","","",""
"31110.46999999974","{""Q0"":""I found the hotspot sequences that focused first on a face or bright color or face of an object to be easiest to determine as human""}","","survey-text","592","2180926","0.0-592.0","arkbs5zx","","","","","","","",""
"34032.10499999998","{""Q0"":""the fact that I was thinking about whether I'm imagining a person with autism generating the hotspots, since some humans do not always look at faces first but rather objects.""}","","survey-text","593","2214961","0.0-593.0","arkbs5zx","","","","","","","",""
"1248.0150000001304","","","instructions","594","2216210","0.0-594.0","arkbs5zx","[{""page_index"":0,""viewing_time"":1247.8500000000931}]","","","","","","",""
"8415076.975","{""Experimenter_end"":[""Printed ID# arkbs5zx on consent form"",""Given subject SONA credit or payment"",""Given the subject debrief form""]}","[0]","survey-multi-select","595","10631304","0.0-595.0","arkbs5zx","","","","","","","",""
