"rt","responses","question_order","trial_type","trial_index","time_elapsed","internal_node_id","ID","view_history","stimulus","key_press","value","agent","condition","image","correct_answer"
"160243.315","{""Experimenter"":[""Confirmed subject's identity"",""Confirmed normal or corrected-to-normal vision"",""Obtained consent (signature and date)"",""Checked the test room lighting"",""Checked computer screen lighting"",""Checked distance from screen to chin rest (50cm)"",""Cleaned and adjusted chin rest"",""Counterbalanced the order of the tasks"",""Opened the experiment in Firefox"",""Made the experiment full screen"",""Encouraged subject to silence phone, put away distractors, etc.""]}","[0]","survey-multi-select","0","160251","0.0-0.0","awlqeo5d","","","","","","","",""
"29854.639999999985","","","instructions","1","190107","0.0-1.0","awlqeo5d","[{""page_index"":0,""viewing_time"":29854.48999999999}]","","","","","","",""
"20177.73000000001","","","instructions","2","210286","0.0-2.0","awlqeo5d","[{""page_index"":0,""viewing_time"":13238.915000000008},{""page_index"":1,""viewing_time"":1798.8500000000058},{""page_index"":2,""viewing_time"":5139.779999999999}]","","","","","","",""
"4480.795000000013","","","instructions","3","214767","0.0-3.0","awlqeo5d","[{""page_index"":0,""viewing_time"":4480.684999999998}]","","","","","","",""
"null","","","video-keyboard-response","4","217841","0.0-4.0","awlqeo5d","","","null","","","","",""
"11755.550000000017","","","instructions","5","229597","0.0-5.0","awlqeo5d","[{""page_index"":0,""viewing_time"":3407.5500000000175},{""page_index"":1,""viewing_time"":5006.984999999986},{""page_index"":2,""viewing_time"":3340.9100000000035}]","","","","","","",""
"4620.424999999988","","","instructions","6","234218","0.0-6.0","awlqeo5d","[{""page_index"":0,""viewing_time"":4620.325000000012}]","","","","","","",""
"1354.9049999999988","","","instructions","7","235573","0.0-7.0","awlqeo5d","[{""page_index"":0,""viewing_time"":1354.6849999999977}]","","","","","","",""
"null","","","video-keyboard-response","8","238646","0.0-8.0","awlqeo5d","","","null","","","","",""
"17012.070000000007","","","instructions","9","255659","0.0-9.0","awlqeo5d","[{""page_index"":0,""viewing_time"":2884},{""page_index"":1,""viewing_time"":5168.455000000016},{""page_index"":2,""viewing_time"":8958.979999999981}]","","","","","","",""
"6774.350000000006","","","instructions","10","262434","0.0-10.0","awlqeo5d","[{""page_index"":0,""viewing_time"":6774.24000000002}]","","","","","","",""
"","","","call-function","11","262435","0.0-11.0","awlqeo5d","","","","","","","",""
"null","","","html-keyboard-response","12","263939","0.0-12.0","awlqeo5d","","<span style=""color:Black; font-size:50px;"">Agent A","null","","","","",""
"null","","","video-keyboard-response","13","267007","0.0-13.0","awlqeo5d","","","null","","Agent A","veridical","STIM_SET_2_144/498396.bmp_pp99_L2_V1.0_veridical_freeview_isoTrue_fps144.mp4",""
"null","","","html-keyboard-response","14","268511","0.0-14.0","awlqeo5d","","<span style=""color:Black; font-size:50px;"">Agent B","null","","","","",""
"null","","","video-keyboard-response","15","271577","0.0-15.0","awlqeo5d","","","null","","Agent B","scrambled","STIM_SET_5/498396.bmp_pp99_L2_V1.0_veridical_freeview_isoTrue_Hflip_fps144.mp4",""
"","","","call-function","16","271577","0.0-16.0","awlqeo5d","","","","","","","",""
"3753.1300000000047","{""judgement"":1}","[0]","survey-likert","17","275332","0.0-17.0","awlqeo5d","","","","","","","","0"
"4231.084999999963","{""confidence"":2}","[0]","survey-likert","18","279564","0.0-18.0","awlqeo5d","","","","","","","",""
"","","","call-function","19","279564","0.0-19.0","awlqeo5d","","","","","","","",""
"null","","","html-keyboard-response","20","281069","0.0-20.0","awlqeo5d","","<span style=""color:Black; font-size:50px;"">Agent A","null","","","","",""
"null","","","video-keyboard-response","21","284133","0.0-21.0","awlqeo5d","","","null","","Agent A","scrambled","STIM_SET_5/1159860.bmp_pp152_L2_V1.0_veridical_freeview_isoTrue_Hflip_fps144.mp4",""
"null","","","html-keyboard-response","22","285637","0.0-22.0","awlqeo5d","","<span style=""color:Black; font-size:50px;"">Agent B","null","","","","",""
"null","","","video-keyboard-response","23","288701","0.0-23.0","awlqeo5d","","","null","","Agent B","veridical","STIM_SET_2_144/1159860.bmp_pp152_L2_V1.0_veridical_freeview_isoTrue_fps144.mp4",""
"","","","call-function","24","288701","0.0-24.0","awlqeo5d","","","","","","","",""
"3336.2700000000186","{""judgement"":1}","[0]","survey-likert","25","292038","0.0-25.0","awlqeo5d","","","","","","","","1"
"3242.585000000021","{""confidence"":0}","[0]","survey-likert","26","295282","0.0-26.0","awlqeo5d","","","","","","","",""
"","","","call-function","27","295282","0.0-27.0","awlqeo5d","","","","","","","",""
"null","","","html-keyboard-response","28","296784","0.0-28.0","awlqeo5d","","<span style=""color:Black; font-size:50px;"">Agent A","null","","","","",""
"null","","","video-keyboard-response","29","299881","0.0-29.0","awlqeo5d","","","null","","Agent A","veridical","STIM_SET_2_144/713633.bmp_pp58_L1_V1.0_veridical_freeview_isoTrue_fps144.mp4",""
"null","","","html-keyboard-response","30","301387","0.0-30.0","awlqeo5d","","<span style=""color:Black; font-size:50px;"">Agent B","null","","","","",""
"null","","","video-keyboard-response","31","304478","0.0-31.0","awlqeo5d","","","null","","Agent B","scrambled","STIM_SET_5/713633.bmp_pp58_L1_V1.0_veridical_freeview_isoTrue_Hflip_fps144.mp4",""
"","","","call-function","32","304478","0.0-32.0","awlqeo5d","","","","","","","",""
"2502.3550000000396","{""judgement"":0}","[0]","survey-likert","33","306981","0.0-33.0","awlqeo5d","","","","","","","","0"
"2202.579999999958","{""confidence"":1}","[0]","survey-likert","34","309185","0.0-34.0","awlqeo5d","","","","","","","",""
"","","","call-function","35","309185","0.0-35.0","awlqeo5d","","","","","","","",""
"null","","","html-keyboard-response","36","310688","0.0-36.0","awlqeo5d","","<span style=""color:Black; font-size:50px;"">Agent A","null","","","","",""
"null","","","video-keyboard-response","37","313763","0.0-37.0","awlqeo5d","","","null","","Agent A","veridical","STIM_SET_2_144/1159427.bmp_pp98_L1_V1.0_veridical_freeview_isoTrue_fps144.mp4",""
"null","","","html-keyboard-response","38","315267","0.0-38.0","awlqeo5d","","<span style=""color:Black; font-size:50px;"">Agent B","null","","","","",""
"null","","","video-keyboard-response","39","318343","0.0-39.0","awlqeo5d","","","null","","Agent B","scrambled","STIM_SET_5/1159427.bmp_pp98_L1_V1.0_veridical_freeview_isoTrue_Hflip_fps144.mp4",""
"","","","call-function","40","318343","0.0-40.0","awlqeo5d","","","","","","","",""
"2852.5800000000163","{""judgement"":1}","[0]","survey-likert","41","321196","0.0-41.0","awlqeo5d","","","","","","","","0"
"2492.4749999999767","{""confidence"":0}","[0]","survey-likert","42","323690","0.0-42.0","awlqeo5d","","","","","","","",""
"","","","call-function","43","323690","0.0-43.0","awlqeo5d","","","","","","","",""
"null","","","html-keyboard-response","44","325192","0.0-44.0","awlqeo5d","","<span style=""color:Black; font-size:50px;"">Agent A","null","","","","",""
"null","","","video-keyboard-response","45","328277","0.0-45.0","awlqeo5d","","","null","","Agent A","veridical","STIM_SET_2_144/1592201.bmp_pp97_L3_V1.0_veridical_freeview_isoTrue_fps144.mp4",""
"null","","","html-keyboard-response","46","329783","0.0-46.0","awlqeo5d","","<span style=""color:Black; font-size:50px;"">Agent B","null","","","","",""
"null","","","video-keyboard-response","47","332849","0.0-47.0","awlqeo5d","","","null","","Agent B","scrambled","STIM_SET_5/1592201.bmp_pp97_L3_V1.0_veridical_freeview_isoTrue_Hflip_fps144.mp4",""
"","","","call-function","48","332850","0.0-48.0","awlqeo5d","","","","","","","",""
"4707.979999999981","{""judgement"":1}","[0]","survey-likert","49","337558","0.0-49.0","awlqeo5d","","","","","","","","0"
"2024.7600000000093","{""confidence"":2}","[0]","survey-likert","50","339584","0.0-50.0","awlqeo5d","","","","","","","",""
"","","","call-function","51","339585","0.0-51.0","awlqeo5d","","","","","","","",""
"null","","","html-keyboard-response","52","341086","0.0-52.0","awlqeo5d","","<span style=""color:Black; font-size:50px;"">Agent A","null","","","","",""
"null","","","video-keyboard-response","53","344163","0.0-53.0","awlqeo5d","","","null","","Agent A","veridical","STIM_SET_2_144/713790.bmp_pp100_L3_V1_veridical_freeview_isoTrue_fps144.mp4",""
"null","","","html-keyboard-response","54","345667","0.0-54.0","awlqeo5d","","<span style=""color:Black; font-size:50px;"">Agent B","null","","","","",""
"null","","","video-keyboard-response","55","348741","0.0-55.0","awlqeo5d","","","null","","Agent B","scrambled","STIM_SET_5/713790.bmp_pp100_L3_V1_veridical_freeview_isoTrue_Hflip_fps144.mp4",""
"","","","call-function","56","348741","0.0-56.0","awlqeo5d","","","","","","","",""
"3296.6350000000093","{""judgement"":1}","[0]","survey-likert","57","352039","0.0-57.0","awlqeo5d","","","","","","","","0"
"1762.4000000000233","{""confidence"":2}","[0]","survey-likert","58","353802","0.0-58.0","awlqeo5d","","","","","","","",""
"","","","call-function","59","353802","0.0-59.0","awlqeo5d","","","","","","","",""
"null","","","html-keyboard-response","60","355306","0.0-60.0","awlqeo5d","","<span style=""color:Black; font-size:50px;"">Agent A","null","","","","",""
"null","","","video-keyboard-response","61","358368","0.0-61.0","awlqeo5d","","","null","","Agent A","scrambled","STIM_SET_5/1592047.bmp_pp51_L1_V1.0_veridical_freeview_isoTrue_Hflip_fps144.mp4",""
"null","","","html-keyboard-response","62","359870","0.0-62.0","awlqeo5d","","<span style=""color:Black; font-size:50px;"">Agent B","null","","","","",""
"null","","","video-keyboard-response","63","362954","0.0-63.0","awlqeo5d","","","null","","Agent B","veridical","STIM_SET_2_144/1592047.bmp_pp51_L1_V1.0_veridical_freeview_isoTrue_fps144.mp4",""
"","","","call-function","64","362955","0.0-64.0","awlqeo5d","","","","","","","",""
"1825.579999999958","{""judgement"":1}","[0]","survey-likert","65","364782","0.0-65.0","awlqeo5d","","","","","","","","1"
"1854.2750000000233","{""confidence"":1}","[0]","survey-likert","66","366638","0.0-66.0","awlqeo5d","","","","","","","",""
"","","","call-function","67","366639","0.0-67.0","awlqeo5d","","","","","","","",""
"null","","","html-keyboard-response","68","368142","0.0-68.0","awlqeo5d","","<span style=""color:Black; font-size:50px;"">Agent A","null","","","","",""
"null","","","video-keyboard-response","69","371236","0.0-69.0","awlqeo5d","","","null","","Agent A","veridical","STIM_SET_2_144/498261.bmp_pp84_L3_V1.0_veridical_freeview_isoTrue_fps144.mp4",""
"null","","","html-keyboard-response","70","372743","0.0-70.0","awlqeo5d","","<span style=""color:Black; font-size:50px;"">Agent B","null","","","","",""
"null","","","video-keyboard-response","71","375813","0.0-71.0","awlqeo5d","","","null","","Agent B","scrambled","STIM_SET_5/498261.bmp_pp84_L3_V1.0_veridical_freeview_isoTrue_Hflip_fps144.mp4",""
"","","","call-function","72","375814","0.0-72.0","awlqeo5d","","","","","","","",""
"1881.9799999999814","{""judgement"":1}","[0]","survey-likert","73","377697","0.0-73.0","awlqeo5d","","","","","","","","0"
"1996.664999999979","{""confidence"":0}","[0]","survey-likert","74","379695","0.0-74.0","awlqeo5d","","","","","","","",""
"","","","call-function","75","379695","0.0-75.0","awlqeo5d","","","","","","","",""
"null","","","html-keyboard-response","76","381197","0.0-76.0","awlqeo5d","","<span style=""color:Black; font-size:50px;"">Agent A","null","","","","",""
"null","","","video-keyboard-response","77","384272","0.0-77.0","awlqeo5d","","","null","","Agent A","scrambled","STIM_SET_5/1159592.bmp_pp91_L3_V1.0_veridical_freeview_isoTrue_Hflip_fps144.mp4",""
"null","","","html-keyboard-response","78","385775","0.0-78.0","awlqeo5d","","<span style=""color:Black; font-size:50px;"">Agent B","null","","","","",""
"null","","","video-keyboard-response","79","388850","0.0-79.0","awlqeo5d","","","null","","Agent B","veridical","STIM_SET_2_144/1159592.bmp_pp91_L3_V1.0_veridical_freeview_isoTrue_fps144.mp4",""
"","","","call-function","80","388851","0.0-80.0","awlqeo5d","","","","","","","",""
"5158.455000000016","{""judgement"":0}","[0]","survey-likert","81","394010","0.0-81.0","awlqeo5d","","","","","","","","1"
"1739.2099999999627","{""confidence"":0}","[0]","survey-likert","82","395751","0.0-82.0","awlqeo5d","","","","","","","",""
"","","","call-function","83","395751","0.0-83.0","awlqeo5d","","","","","","","",""
"null","","","html-keyboard-response","84","397258","0.0-84.0","awlqeo5d","","<span style=""color:Black; font-size:50px;"">Agent A","null","","","","",""
"null","","","video-keyboard-response","85","400319","0.0-85.0","awlqeo5d","","","null","","Agent A","veridical","STIM_SET_2_144/1159325.bmp_pp67_L2_V1.0_veridical_freeview_isoTrue_fps144.mp4",""
"null","","","html-keyboard-response","86","401820","0.0-86.0","awlqeo5d","","<span style=""color:Black; font-size:50px;"">Agent B","null","","","","",""
"null","","","video-keyboard-response","87","404900","0.0-87.0","awlqeo5d","","","null","","Agent B","scrambled","STIM_SET_5/1159325.bmp_pp67_L2_V1.0_veridical_freeview_isoTrue_Hflip_fps144.mp4",""
"","","","call-function","88","404900","0.0-88.0","awlqeo5d","","","","","","","",""
"2555.4949999999953","{""judgement"":0}","[0]","survey-likert","89","407456","0.0-89.0","awlqeo5d","","","","","","","","0"
"1655.1600000000326","{""confidence"":1}","[0]","survey-likert","90","409113","0.0-90.0","awlqeo5d","","","","","","","",""
"6207.515000000014","","","instructions","91","415321","0.0-91.0","awlqeo5d","[{""page_index"":0,""viewing_time"":2301.460000000021},{""page_index"":1,""viewing_time"":1667.719999999972},{""page_index"":2,""viewing_time"":2238.0200000000186}]","","","","","","",""
"5781.375","","","instructions","92","421102","0.0-92.0","awlqeo5d","[{""page_index"":0,""viewing_time"":1638.2000000000116},{""page_index"":1,""viewing_time"":3048.195000000007},{""page_index"":2,""viewing_time"":1094.875}]","","","","","","",""
"","","","call-function","93","421103","0.0-93.0","awlqeo5d","","","","","","","",""
"null","","","html-keyboard-response","94","422608","0.0-94.0","awlqeo5d","","<span style=""color:Black; font-size:50px;"">Agent A","null","","","","",""
"null","","","video-keyboard-response","95","425691","0.0-95.0","awlqeo5d","","","null","","Agent A","veridical","STIM_SET_2_144/1159973.bmp_pp98_L1_V1.0_veridical_freeview_isoTrue_fps144.mp4",""
"null","","","html-keyboard-response","96","427193","0.0-96.0","awlqeo5d","","<span style=""color:Black; font-size:50px;"">Agent B","null","","","","",""
"null","","","video-keyboard-response","97","430274","0.0-97.0","awlqeo5d","","","null","","Agent B","scrambled","STIM_SET_5/1159973.bmp_pp98_L1_V1.0_veridical_freeview_isoTrue_Hflip_fps144.mp4",""
"","","","call-function","98","430274","0.0-98.0","awlqeo5d","","","","","","","",""
"2671.609999999986","{""judgement"":0}","[0]","survey-likert","99","432946","0.0-99.0","awlqeo5d","","","","","","","","0"
"1658.0999999999767","{""confidence"":2}","[0]","survey-likert","100","434606","0.0-100.0","awlqeo5d","","","","","","","",""
"","","","call-function","101","434606","0.0-101.0","awlqeo5d","","","","","","","",""
"null","","","html-keyboard-response","102","436110","0.0-102.0","awlqeo5d","","<span style=""color:Black; font-size:50px;"">Agent A","null","","","","",""
"null","","","video-keyboard-response","103","439171","0.0-103.0","awlqeo5d","","","null","","Agent A","veridical","STIM_SET_2_144/285684.bmp_pp80_L3_V1.0_veridical_freeview_isoTrue_fps144.mp4",""
"null","","","html-keyboard-response","104","440675","0.0-104.0","awlqeo5d","","<span style=""color:Black; font-size:50px;"">Agent B","null","","","","",""
"null","","","video-keyboard-response","105","443748","0.0-105.0","awlqeo5d","","","null","","Agent B","scrambled","STIM_SET_5/285684.bmp_pp80_L3_V1.0_veridical_freeview_isoTrue_Hflip_fps144.mp4",""
"","","","call-function","106","443748","0.0-106.0","awlqeo5d","","","","","","","",""
"4170.729999999981","{""judgement"":1}","[0]","survey-likert","107","447920","0.0-107.0","awlqeo5d","","","","","","","","0"
"2452.670000000042","{""confidence"":0}","[0]","survey-likert","108","450374","0.0-108.0","awlqeo5d","","","","","","","",""
"","","","call-function","109","450374","0.0-109.0","awlqeo5d","","","","","","","",""
"null","","","html-keyboard-response","110","451877","0.0-110.0","awlqeo5d","","<span style=""color:Black; font-size:50px;"">Agent A","null","","","","",""
"null","","","video-keyboard-response","111","454938","0.0-111.0","awlqeo5d","","","null","","Agent A","scrambled","STIM_SET_5/498398.bmp_pp81_L1_V1.0_veridical_freeview_isoTrue_Hflip_fps144.mp4",""
"null","","","html-keyboard-response","112","456445","0.0-112.0","awlqeo5d","","<span style=""color:Black; font-size:50px;"">Agent B","null","","","","",""
"null","","","video-keyboard-response","113","459509","0.0-113.0","awlqeo5d","","","null","","Agent B","veridical","STIM_SET_2_144/498398.bmp_pp81_L1_V1.0_veridical_freeview_isoTrue_fps144.mp4",""
"","","","call-function","114","459510","0.0-114.0","awlqeo5d","","","","","","","",""
"2428.5","{""judgement"":1}","[0]","survey-likert","115","461939","0.0-115.0","awlqeo5d","","","","","","","","1"
"2004.9400000000023","{""confidence"":1}","[0]","survey-likert","116","463945","0.0-116.0","awlqeo5d","","","","","","","",""
"","","","call-function","117","463945","0.0-117.0","awlqeo5d","","","","","","","",""
"null","","","html-keyboard-response","118","465448","0.0-118.0","awlqeo5d","","<span style=""color:Black; font-size:50px;"">Agent A","null","","","","",""
"null","","","video-keyboard-response","119","468516","0.0-119.0","awlqeo5d","","","null","","Agent A","scrambled","STIM_SET_5/1160189.bmp_pp64_L1_V1.0_veridical_freeview_isoTrue_Hflip_fps144.mp4",""
"null","","","html-keyboard-response","120","470018","0.0-120.0","awlqeo5d","","<span style=""color:Black; font-size:50px;"">Agent B","null","","","","",""
"null","","","video-keyboard-response","121","473108","0.0-121.0","awlqeo5d","","","null","","Agent B","veridical","STIM_SET_2_144/1160189.bmp_pp64_L1_V1.0_veridical_freeview_isoTrue_fps144.mp4",""
"","","","call-function","122","473109","0.0-122.0","awlqeo5d","","","","","","","",""
"2127.8300000000163","{""judgement"":1}","[0]","survey-likert","123","475238","0.0-123.0","awlqeo5d","","","","","","","","1"
"1600.5050000000047","{""confidence"":2}","[0]","survey-likert","124","476840","0.0-124.0","awlqeo5d","","","","","","","",""
"","","","call-function","125","476840","0.0-125.0","awlqeo5d","","","","","","","",""
"null","","","html-keyboard-response","126","478343","0.0-126.0","awlqeo5d","","<span style=""color:Black; font-size:50px;"">Agent A","null","","","","",""
"null","","","video-keyboard-response","127","481420","0.0-127.0","awlqeo5d","","","null","","Agent A","scrambled","STIM_SET_5/498372.bmp_pp95_L2_V1_veridical_freeview_isoTrue_Hflip_fps144.mp4",""
"null","","","html-keyboard-response","128","482922","0.0-128.0","awlqeo5d","","<span style=""color:Black; font-size:50px;"">Agent B","null","","","","",""
"null","","","video-keyboard-response","129","485996","0.0-129.0","awlqeo5d","","","null","","Agent B","veridical","STIM_SET_2_144/498372.bmp_pp95_L2_V1_veridical_freeview_isoTrue_fps144.mp4",""
"","","","call-function","130","485997","0.0-130.0","awlqeo5d","","","","","","","",""
"2435.5449999999837","{""judgement"":0}","[0]","survey-likert","131","488433","0.0-131.0","awlqeo5d","","","","","","","","1"
"1650.7099999999627","{""confidence"":0}","[0]","survey-likert","132","490086","0.0-132.0","awlqeo5d","","","","","","","",""
"","","","call-function","133","490086","0.0-133.0","awlqeo5d","","","","","","","",""
"null","","","html-keyboard-response","134","491592","0.0-134.0","awlqeo5d","","<span style=""color:Black; font-size:50px;"">Agent A","null","","","","",""
"null","","","video-keyboard-response","135","494675","0.0-135.0","awlqeo5d","","","null","","Agent A","veridical","STIM_SET_2_144/498025.bmp_pp81_L1_V1.0_veridical_freeview_isoTrue_fps144.mp4",""
"null","","","html-keyboard-response","136","496177","0.0-136.0","awlqeo5d","","<span style=""color:Black; font-size:50px;"">Agent B","null","","","","",""
"null","","","video-keyboard-response","137","499257","0.0-137.0","awlqeo5d","","","null","","Agent B","scrambled","STIM_SET_5/498025.bmp_pp81_L1_V1.0_veridical_freeview_isoTrue_Hflip_fps144.mp4",""
"","","","call-function","138","499258","0.0-138.0","awlqeo5d","","","","","","","",""
"1688.8549999999814","{""judgement"":1}","[0]","survey-likert","139","500948","0.0-139.0","awlqeo5d","","","","","","","","0"
"2647.0200000000186","{""confidence"":2}","[0]","survey-likert","140","503596","0.0-140.0","awlqeo5d","","","","","","","",""
"","","","call-function","141","503596","0.0-141.0","awlqeo5d","","","","","","","",""
"null","","","html-keyboard-response","142","505100","0.0-142.0","awlqeo5d","","<span style=""color:Black; font-size:50px;"">Agent A","null","","","","",""
"null","","","video-keyboard-response","143","508183","0.0-143.0","awlqeo5d","","","null","","Agent A","veridical","STIM_SET_2_144/1592857.bmp_pp52_L1_V1_veridical_freeview_isoTrue_fps144.mp4",""
"null","","","html-keyboard-response","144","509685","0.0-144.0","awlqeo5d","","<span style=""color:Black; font-size:50px;"">Agent B","null","","","","",""
"null","","","video-keyboard-response","145","512759","0.0-145.0","awlqeo5d","","","null","","Agent B","scrambled","STIM_SET_5/1592857.bmp_pp52_L1_V1_veridical_freeview_isoTrue_Hflip_fps144.mp4",""
"","","","call-function","146","512759","0.0-146.0","awlqeo5d","","","","","","","",""
"4024.8950000000186","{""judgement"":0}","[0]","survey-likert","147","516785","0.0-147.0","awlqeo5d","","","","","","","","0"
"1384.8800000000047","{""confidence"":1}","[0]","survey-likert","148","518171","0.0-148.0","awlqeo5d","","","","","","","",""
"","","","call-function","149","518171","0.0-149.0","awlqeo5d","","","","","","","",""
"null","","","html-keyboard-response","150","519674","0.0-150.0","awlqeo5d","","<span style=""color:Black; font-size:50px;"">Agent A","null","","","","",""
"null","","","video-keyboard-response","151","522746","0.0-151.0","awlqeo5d","","","null","","Agent A","veridical","STIM_SET_2_144/1592044.bmp_pp94_L2_V1.0_veridical_freeview_isoTrue_fps144.mp4",""
"null","","","html-keyboard-response","152","524247","0.0-152.0","awlqeo5d","","<span style=""color:Black; font-size:50px;"">Agent B","null","","","","",""
"null","","","video-keyboard-response","153","527319","0.0-153.0","awlqeo5d","","","null","","Agent B","scrambled","STIM_SET_5/1592044.bmp_pp94_L2_V1.0_veridical_freeview_isoTrue_Hflip_fps144.mp4",""
"","","","call-function","154","527320","0.0-154.0","awlqeo5d","","","","","","","",""
"2004.7550000000047","{""judgement"":1}","[0]","survey-likert","155","529325","0.0-155.0","awlqeo5d","","","","","","","","0"
"1384.3000000000466","{""confidence"":0}","[0]","survey-likert","156","530711","0.0-156.0","awlqeo5d","","","","","","","",""
"","","","call-function","157","530711","0.0-157.0","awlqeo5d","","","","","","","",""
"null","","","html-keyboard-response","158","532213","0.0-158.0","awlqeo5d","","<span style=""color:Black; font-size:50px;"">Agent A","null","","","","",""
"null","","","video-keyboard-response","159","535294","0.0-159.0","awlqeo5d","","","null","","Agent A","veridical","STIM_SET_2_144/1159819.bmp_pp151_L1_V1.0_veridical_freeview_isoTrue_fps144.mp4",""
"null","","","html-keyboard-response","160","536800","0.0-160.0","awlqeo5d","","<span style=""color:Black; font-size:50px;"">Agent B","null","","","","",""
"null","","","video-keyboard-response","161","539879","0.0-161.0","awlqeo5d","","","null","","Agent B","scrambled","STIM_SET_5/1159819.bmp_pp151_L1_V1.0_veridical_freeview_isoTrue_Hflip_fps144.mp4",""
"","","","call-function","162","539879","0.0-162.0","awlqeo5d","","","","","","","",""
"1974.6799999999348","{""judgement"":0}","[0]","survey-likert","163","541855","0.0-163.0","awlqeo5d","","","","","","","","0"
"2307.8800000000047","{""confidence"":1}","[0]","survey-likert","164","544164","0.0-164.0","awlqeo5d","","","","","","","",""
"","","","call-function","165","544164","0.0-165.0","awlqeo5d","","","","","","","",""
"null","","","html-keyboard-response","166","545665","0.0-166.0","awlqeo5d","","<span style=""color:Black; font-size:50px;"">Agent A","null","","","","",""
"null","","","video-keyboard-response","167","548732","0.0-167.0","awlqeo5d","","","null","","Agent A","scrambled","STIM_SET_5/713920.bmp_pp76_L1_V1.0_veridical_freeview_isoTrue_Hflip_fps144.mp4",""
"null","","","html-keyboard-response","168","550237","0.0-168.0","awlqeo5d","","<span style=""color:Black; font-size:50px;"">Agent B","null","","","","",""
"null","","","video-keyboard-response","169","553301","0.0-169.0","awlqeo5d","","","null","","Agent B","veridical","STIM_SET_2_144/713920.bmp_pp76_L1_V1.0_veridical_freeview_isoTrue_fps144.mp4",""
"","","","call-function","170","553302","0.0-170.0","awlqeo5d","","","","","","","",""
"2930.945000000065","{""judgement"":0}","[0]","survey-likert","171","556234","0.0-171.0","awlqeo5d","","","","","","","","1"
"2692.444999999949","{""confidence"":1}","[0]","survey-likert","172","558927","0.0-172.0","awlqeo5d","","","","","","","",""
"47483.45499999996","","","instructions","173","606411","0.0-173.0","awlqeo5d","[{""page_index"":0,""viewing_time"":5166.179999999935},{""page_index"":1,""viewing_time"":40633.765000000014},{""page_index"":2,""viewing_time"":1683.2700000000186}]","","","","","","",""
"5387.3099999999395","","","instructions","174","611799","0.0-174.0","awlqeo5d","[{""page_index"":0,""viewing_time"":1487.2299999999814},{""page_index"":1,""viewing_time"":3120.9949999999953},{""page_index"":2,""viewing_time"":778.9749999999767}]","","","","","","",""
"","","","call-function","175","611799","0.0-175.0","awlqeo5d","","","","","","","",""
"null","","","html-keyboard-response","176","613303","0.0-176.0","awlqeo5d","","<span style=""color:Black; font-size:50px;"">Agent A","null","","","","",""
"null","","","video-keyboard-response","177","616366","0.0-177.0","awlqeo5d","","","null","","Agent A","scrambled","STIM_SET_5/1592150.bmp_pp77_L3_V1.0_veridical_freeview_isoTrue_Hflip_fps144.mp4",""
"null","","","html-keyboard-response","178","617872","0.0-178.0","awlqeo5d","","<span style=""color:Black; font-size:50px;"">Agent B","null","","","","",""
"null","","","video-keyboard-response","179","620933","0.0-179.0","awlqeo5d","","","null","","Agent B","veridical","STIM_SET_2_144/1592150.bmp_pp77_L3_V1.0_veridical_freeview_isoTrue_fps144.mp4",""
"","","","call-function","180","620934","0.0-180.0","awlqeo5d","","","","","","","",""
"2284.585000000079","{""judgement"":1}","[0]","survey-likert","181","623219","0.0-181.0","awlqeo5d","","","","","","","","1"
"1600.9899999999907","{""confidence"":2}","[0]","survey-likert","182","624821","0.0-182.0","awlqeo5d","","","","","","","",""
"","","","call-function","183","624822","0.0-183.0","awlqeo5d","","","","","","","",""
"null","","","html-keyboard-response","184","626323","0.0-184.0","awlqeo5d","","<span style=""color:Black; font-size:50px;"">Agent A","null","","","","",""
"null","","","video-keyboard-response","185","629399","0.0-185.0","awlqeo5d","","","null","","Agent A","veridical","STIM_SET_2_144/1592168.bmp_pp71_L1_V1.0_veridical_freeview_isoTrue_fps144.mp4",""
"null","","","html-keyboard-response","186","630901","0.0-186.0","awlqeo5d","","<span style=""color:Black; font-size:50px;"">Agent B","null","","","","",""
"null","","","video-keyboard-response","187","633975","0.0-187.0","awlqeo5d","","","null","","Agent B","scrambled","STIM_SET_5/1592168.bmp_pp71_L1_V1.0_veridical_freeview_isoTrue_Hflip_fps144.mp4",""
"","","","call-function","188","633975","0.0-188.0","awlqeo5d","","","","","","","",""
"3848.3699999999953","{""judgement"":1}","[0]","survey-likert","189","637826","0.0-189.0","awlqeo5d","","","","","","","","0"
"2230.295000000042","{""confidence"":0}","[0]","survey-likert","190","640058","0.0-190.0","awlqeo5d","","","","","","","",""
"","","","call-function","191","640059","0.0-191.0","awlqeo5d","","","","","","","",""
"null","","","html-keyboard-response","192","641561","0.0-192.0","awlqeo5d","","<span style=""color:Black; font-size:50px;"">Agent A","null","","","","",""
"null","","","video-keyboard-response","193","644628","0.0-193.0","awlqeo5d","","","null","","Agent A","scrambled","STIM_SET_5/1592747.bmp_pp53_L2_V1.0_veridical_freeview_isoTrue_Hflip_fps144.mp4",""
"null","","","html-keyboard-response","194","646134","0.0-194.0","awlqeo5d","","<span style=""color:Black; font-size:50px;"">Agent B","null","","","","",""
"null","","","video-keyboard-response","195","649203","0.0-195.0","awlqeo5d","","","null","","Agent B","veridical","STIM_SET_2_144/1592747.bmp_pp53_L2_V1.0_veridical_freeview_isoTrue_fps144.mp4",""
"","","","call-function","196","649203","0.0-196.0","awlqeo5d","","","","","","","",""
"1860.8250000000698","{""judgement"":0}","[0]","survey-likert","197","651065","0.0-197.0","awlqeo5d","","","","","","","","1"
"1654.6950000000652","{""confidence"":0}","[0]","survey-likert","198","652721","0.0-198.0","awlqeo5d","","","","","","","",""
"","","","call-function","199","652722","0.0-199.0","awlqeo5d","","","","","","","",""
"null","","","html-keyboard-response","200","654224","0.0-200.0","awlqeo5d","","<span style=""color:Black; font-size:50px;"">Agent A","null","","","","",""
"null","","","video-keyboard-response","201","657286","0.0-201.0","awlqeo5d","","","null","","Agent A","scrambled","STIM_SET_5/286034.bmp_pp69_L3_V1.0_veridical_freeview_isoTrue_Hflip_fps144.mp4",""
"null","","","html-keyboard-response","202","658792","0.0-202.0","awlqeo5d","","<span style=""color:Black; font-size:50px;"">Agent B","null","","","","",""
"null","","","video-keyboard-response","203","661855","0.0-203.0","awlqeo5d","","","null","","Agent B","veridical","STIM_SET_2_144/286034.bmp_pp69_L3_V1.0_veridical_freeview_isoTrue_fps144.mp4",""
"","","","call-function","204","661856","0.0-204.0","awlqeo5d","","","","","","","",""
"3419.939999999944","{""judgement"":1}","[0]","survey-likert","205","665276","0.0-205.0","awlqeo5d","","","","","","","","1"
"1715.8049999999348","{""confidence"":1}","[0]","survey-likert","206","666993","0.0-206.0","awlqeo5d","","","","","","","",""
"","","","call-function","207","666994","0.0-207.0","awlqeo5d","","","","","","","",""
"null","","","html-keyboard-response","208","668500","0.0-208.0","awlqeo5d","","<span style=""color:Black; font-size:50px;"">Agent A","null","","","","",""
"null","","","video-keyboard-response","209","671598","0.0-209.0","awlqeo5d","","","null","","Agent A","scrambled","STIM_SET_5/713858.bmp_pp57_L1_V1.0_veridical_freeview_isoTrue_Hflip_fps144.mp4",""
"null","","","html-keyboard-response","210","673103","0.0-210.0","awlqeo5d","","<span style=""color:Black; font-size:50px;"">Agent B","null","","","","",""
"null","","","video-keyboard-response","211","676193","0.0-211.0","awlqeo5d","","","null","","Agent B","veridical","STIM_SET_2_144/713858.bmp_pp57_L1_V1.0_veridical_freeview_isoTrue_fps144.mp4",""
"","","","call-function","212","676194","0.0-212.0","awlqeo5d","","","","","","","",""
"6859.760000000009","{""judgement"":1}","[0]","survey-likert","213","683054","0.0-213.0","awlqeo5d","","","","","","","","1"
"1876.6350000000093","{""confidence"":0}","[0]","survey-likert","214","684932","0.0-214.0","awlqeo5d","","","","","","","",""
"","","","call-function","215","684933","0.0-215.0","awlqeo5d","","","","","","","",""
"null","","","html-keyboard-response","216","686437","0.0-216.0","awlqeo5d","","<span style=""color:Black; font-size:50px;"">Agent A","null","","","","",""
"null","","","video-keyboard-response","217","689514","0.0-217.0","awlqeo5d","","","null","","Agent A","scrambled","STIM_SET_5/1159508.bmp_pp151_L1_V1.0_veridical_freeview_isoTrue_Hflip_fps144.mp4",""
"null","","","html-keyboard-response","218","691021","0.0-218.0","awlqeo5d","","<span style=""color:Black; font-size:50px;"">Agent B","null","","","","",""
"null","","","video-keyboard-response","219","694107","0.0-219.0","awlqeo5d","","","null","","Agent B","veridical","STIM_SET_2_144/1159508.bmp_pp151_L1_V1.0_veridical_freeview_isoTrue_fps144.mp4",""
"","","","call-function","220","694107","0.0-220.0","awlqeo5d","","","","","","","",""
"2627.060000000056","{""judgement"":0}","[0]","survey-likert","221","696735","0.0-221.0","awlqeo5d","","","","","","","","1"
"1510.1500000000233","{""confidence"":1}","[0]","survey-likert","222","698246","0.0-222.0","awlqeo5d","","","","","","","",""
"","","","call-function","223","698247","0.0-223.0","awlqeo5d","","","","","","","",""
"null","","","html-keyboard-response","224","699750","0.0-224.0","awlqeo5d","","<span style=""color:Black; font-size:50px;"">Agent A","null","","","","",""
"null","","","video-keyboard-response","225","702839","0.0-225.0","awlqeo5d","","","null","","Agent A","veridical","STIM_SET_2_144/107909.bmp_pp95_L2_V1.0_veridical_freeview_isoTrue_fps144.mp4",""
"null","","","html-keyboard-response","226","704343","0.0-226.0","awlqeo5d","","<span style=""color:Black; font-size:50px;"">Agent B","null","","","","",""
"null","","","video-keyboard-response","227","707429","0.0-227.0","awlqeo5d","","","null","","Agent B","scrambled","STIM_SET_5/107909.bmp_pp95_L2_V1.0_veridical_freeview_isoTrue_Hflip_fps144.mp4",""
"","","","call-function","228","707430","0.0-228.0","awlqeo5d","","","","","","","",""
"1895.6450000000186","{""judgement"":1}","[0]","survey-likert","229","709326","0.0-229.0","awlqeo5d","","","","","","","","0"
"1169.3150000000605","{""confidence"":2}","[0]","survey-likert","230","710496","0.0-230.0","awlqeo5d","","","","","","","",""
"","","","call-function","231","710497","0.0-231.0","awlqeo5d","","","","","","","",""
"null","","","html-keyboard-response","232","711999","0.0-232.0","awlqeo5d","","<span style=""color:Black; font-size:50px;"">Agent A","null","","","","",""
"null","","","video-keyboard-response","233","715070","0.0-233.0","awlqeo5d","","","null","","Agent A","scrambled","STIM_SET_5/1159956.bmp_pp59_L3_V1.0_veridical_freeview_isoTrue_Hflip_fps144.mp4",""
"null","","","html-keyboard-response","234","716575","0.0-234.0","awlqeo5d","","<span style=""color:Black; font-size:50px;"">Agent B","null","","","","",""
"null","","","video-keyboard-response","235","719642","0.0-235.0","awlqeo5d","","","null","","Agent B","veridical","STIM_SET_2_144/1159956.bmp_pp59_L3_V1.0_veridical_freeview_isoTrue_fps144.mp4",""
"","","","call-function","236","719642","0.0-236.0","awlqeo5d","","","","","","","",""
"2985.3150000000605","{""judgement"":0}","[0]","survey-likert","237","722628","0.0-237.0","awlqeo5d","","","","","","","","1"
"1899.1199999999953","{""confidence"":3}","[0]","survey-likert","238","724529","0.0-238.0","awlqeo5d","","","","","","","",""
"","","","call-function","239","724529","0.0-239.0","awlqeo5d","","","","","","","",""
"null","","","html-keyboard-response","240","726034","0.0-240.0","awlqeo5d","","<span style=""color:Black; font-size:50px;"">Agent A","null","","","","",""
"null","","","video-keyboard-response","241","729101","0.0-241.0","awlqeo5d","","","null","","Agent A","scrambled","STIM_SET_5/61513.bmp_pp75_L1_V1.0_veridical_freeview_isoTrue_Hflip_fps144.mp4",""
"null","","","html-keyboard-response","242","730606","0.0-242.0","awlqeo5d","","<span style=""color:Black; font-size:50px;"">Agent B","null","","","","",""
"null","","","video-keyboard-response","243","733674","0.0-243.0","awlqeo5d","","","null","","Agent B","veridical","STIM_SET_2_144/61513.bmp_pp75_L1_V1.0_veridical_freeview_isoTrue_fps144.mp4",""
"","","","call-function","244","733675","0.0-244.0","awlqeo5d","","","","","","","",""
"3309.3249999999534","{""judgement"":0}","[0]","survey-likert","245","736985","0.0-245.0","awlqeo5d","","","","","","","","1"
"1786.640000000014","{""confidence"":0}","[0]","survey-likert","246","738773","0.0-246.0","awlqeo5d","","","","","","","",""
"","","","call-function","247","738773","0.0-247.0","awlqeo5d","","","","","","","",""
"null","","","html-keyboard-response","248","740280","0.0-248.0","awlqeo5d","","<span style=""color:Black; font-size:50px;"">Agent A","null","","","","",""
"null","","","video-keyboard-response","249","743369","0.0-249.0","awlqeo5d","","","null","","Agent A","scrambled","STIM_SET_5/713788.bmp_pp52_L1_V1.0_veridical_freeview_isoTrue_Hflip_fps144.mp4",""
"null","","","html-keyboard-response","250","744871","0.0-250.0","awlqeo5d","","<span style=""color:Black; font-size:50px;"">Agent B","null","","","","",""
"null","","","video-keyboard-response","251","747953","0.0-251.0","awlqeo5d","","","null","","Agent B","veridical","STIM_SET_2_144/713788.bmp_pp52_L1_V1.0_veridical_freeview_isoTrue_fps144.mp4",""
"","","","call-function","252","747955","0.0-252.0","awlqeo5d","","","","","","","",""
"3128.0999999999767","{""judgement"":0}","[0]","survey-likert","253","751084","0.0-253.0","awlqeo5d","","","","","","","","1"
"1561.045000000042","{""confidence"":1}","[0]","survey-likert","254","752647","0.0-254.0","awlqeo5d","","","","","","","",""
"75721.22499999998","","","instructions","255","828369","0.0-255.0","awlqeo5d","[{""page_index"":0,""viewing_time"":1659.905000000028},{""page_index"":1,""viewing_time"":72991.79499999993},{""page_index"":2,""viewing_time"":1069.3600000001024}]","","","","","","",""
"4783.275000000023","","","instructions","256","833154","0.0-256.0","awlqeo5d","[{""page_index"":0,""viewing_time"":2180.0400000000373},{""page_index"":1,""viewing_time"":1880.280000000028},{""page_index"":2,""viewing_time"":722.8249999999534}]","","","","","","",""
"","","","call-function","257","833155","0.0-257.0","awlqeo5d","","","","","","","",""
"null","","","html-keyboard-response","258","834656","0.0-258.0","awlqeo5d","","<span style=""color:Black; font-size:50px;"">Agent A","null","","","","",""
"null","","","video-keyboard-response","259","837718","0.0-259.0","awlqeo5d","","","null","","Agent A","veridical","STIM_SET_2_144/713829.bmp_pp60_L3_V1.0_veridical_freeview_isoTrue_fps144.mp4",""
"null","","","html-keyboard-response","260","839220","0.0-260.0","awlqeo5d","","<span style=""color:Black; font-size:50px;"">Agent B","null","","","","",""
"null","","","video-keyboard-response","261","842282","0.0-261.0","awlqeo5d","","","null","","Agent B","scrambled","STIM_SET_5/713829.bmp_pp60_L3_V1.0_veridical_freeview_isoTrue_Hflip_fps144.mp4",""
"","","","call-function","262","842282","0.0-262.0","awlqeo5d","","","","","","","",""
"1822.3349999999627","{""judgement"":0}","[0]","survey-likert","263","844105","0.0-263.0","awlqeo5d","","","","","","","","0"
"1517.234999999986","{""confidence"":1}","[0]","survey-likert","264","845624","0.0-264.0","awlqeo5d","","","","","","","",""
"","","","call-function","265","845625","0.0-265.0","awlqeo5d","","","","","","","",""
"null","","","html-keyboard-response","266","847128","0.0-266.0","awlqeo5d","","<span style=""color:Black; font-size:50px;"">Agent A","null","","","","",""
"null","","","video-keyboard-response","267","850204","0.0-267.0","awlqeo5d","","","null","","Agent A","veridical","STIM_SET_2_144/713381.bmp_pp82_L2_V1.0_veridical_freeview_isoTrue_fps144.mp4",""
"null","","","html-keyboard-response","268","851706","0.0-268.0","awlqeo5d","","<span style=""color:Black; font-size:50px;"">Agent B","null","","","","",""
"null","","","video-keyboard-response","269","854780","0.0-269.0","awlqeo5d","","","null","","Agent B","scrambled","STIM_SET_5/713381.bmp_pp82_L2_V1.0_veridical_freeview_isoTrue_Hflip_fps144.mp4",""
"","","","call-function","270","854780","0.0-270.0","awlqeo5d","","","","","","","",""
"3260.1300000000047","{""judgement"":0}","[0]","survey-likert","271","858041","0.0-271.0","awlqeo5d","","","","","","","","0"
"1102","{""confidence"":0}","[0]","survey-likert","272","859145","0.0-272.0","awlqeo5d","","","","","","","",""
"","","","call-function","273","859145","0.0-273.0","awlqeo5d","","","","","","","",""
"null","","","html-keyboard-response","274","860648","0.0-274.0","awlqeo5d","","<span style=""color:Black; font-size:50px;"">Agent A","null","","","","",""
"null","","","video-keyboard-response","275","863748","0.0-275.0","awlqeo5d","","","null","","Agent A","scrambled","STIM_SET_5/1591781.bmp_pp63_L1_V1.0_veridical_freeview_isoTrue_Hflip_fps144.mp4",""
"null","","","html-keyboard-response","276","865255","0.0-276.0","awlqeo5d","","<span style=""color:Black; font-size:50px;"">Agent B","null","","","","",""
"null","","","video-keyboard-response","277","868343","0.0-277.0","awlqeo5d","","","null","","Agent B","veridical","STIM_SET_2_144/1591781.bmp_pp63_L1_V1.0_veridical_freeview_isoTrue_fps144.mp4",""
"","","","call-function","278","868344","0.0-278.0","awlqeo5d","","","","","","","",""
"2043.1800000000512","{""judgement"":1}","[0]","survey-likert","279","870388","0.0-279.0","awlqeo5d","","","","","","","","1"
"1680.0550000000512","{""confidence"":1}","[0]","survey-likert","280","872069","0.0-280.0","awlqeo5d","","","","","","","",""
"","","","call-function","281","872069","0.0-281.0","awlqeo5d","","","","","","","",""
"null","","","html-keyboard-response","282","873574","0.0-282.0","awlqeo5d","","<span style=""color:Black; font-size:50px;"">Agent A","null","","","","",""
"null","","","video-keyboard-response","283","876656","0.0-283.0","awlqeo5d","","","null","","Agent A","veridical","STIM_SET_2_144/1160204.bmp_pp54_L2_V1.0_veridical_freeview_isoTrue_fps144.mp4",""
"null","","","html-keyboard-response","284","878163","0.0-284.0","awlqeo5d","","<span style=""color:Black; font-size:50px;"">Agent B","null","","","","",""
"null","","","video-keyboard-response","285","881245","0.0-285.0","awlqeo5d","","","null","","Agent B","scrambled","STIM_SET_5/1160204.bmp_pp54_L2_V1.0_veridical_freeview_isoTrue_Hflip_fps144.mp4",""
"","","","call-function","286","881246","0.0-286.0","awlqeo5d","","","","","","","",""
"1653.9749999999767","{""judgement"":1}","[0]","survey-likert","287","882901","0.0-287.0","awlqeo5d","","","","","","","","0"
"1402.4000000000233","{""confidence"":2}","[0]","survey-likert","288","884304","0.0-288.0","awlqeo5d","","","","","","","",""
"","","","call-function","289","884304","0.0-289.0","awlqeo5d","","","","","","","",""
"null","","","html-keyboard-response","290","885808","0.0-290.0","awlqeo5d","","<span style=""color:Black; font-size:50px;"">Agent A","null","","","","",""
"null","","","video-keyboard-response","291","888897","0.0-291.0","awlqeo5d","","","null","","Agent A","scrambled","STIM_SET_5/1592038.bmp_pp79_L2_V1.0_veridical_freeview_isoTrue_Hflip_fps144.mp4",""
"null","","","html-keyboard-response","292","890400","0.0-292.0","awlqeo5d","","<span style=""color:Black; font-size:50px;"">Agent B","null","","","","",""
"null","","","video-keyboard-response","293","893489","0.0-293.0","awlqeo5d","","","null","","Agent B","veridical","STIM_SET_2_144/1592038.bmp_pp79_L2_V1.0_veridical_freeview_isoTrue_fps144.mp4",""
"","","","call-function","294","893490","0.0-294.0","awlqeo5d","","","","","","","",""
"2195.344999999972","{""judgement"":0}","[0]","survey-likert","295","895686","0.0-295.0","awlqeo5d","","","","","","","","1"
"1590.9300000000512","{""confidence"":0}","[0]","survey-likert","296","897278","0.0-296.0","awlqeo5d","","","","","","","",""
"","","","call-function","297","897279","0.0-297.0","awlqeo5d","","","","","","","",""
"null","","","html-keyboard-response","298","898784","0.0-298.0","awlqeo5d","","<span style=""color:Black; font-size:50px;"">Agent A","null","","","","",""
"null","","","video-keyboard-response","299","901861","0.0-299.0","awlqeo5d","","","null","","Agent A","veridical","STIM_SET_2_144/1160247.bmp_pp54_L2_V1.0_veridical_freeview_isoTrue_fps144.mp4",""
"null","","","html-keyboard-response","300","903364","0.0-300.0","awlqeo5d","","<span style=""color:Black; font-size:50px;"">Agent B","null","","","","",""
"null","","","video-keyboard-response","301","906439","0.0-301.0","awlqeo5d","","","null","","Agent B","scrambled","STIM_SET_5/1160247.bmp_pp54_L2_V1.0_veridical_freeview_isoTrue_Hflip_fps144.mp4",""
"","","","call-function","302","906439","0.0-302.0","awlqeo5d","","","","","","","",""
"6105.089999999967","{""judgement"":1}","[0]","survey-likert","303","912545","0.0-303.0","awlqeo5d","","","","","","","","0"
"2931.2750000000233","{""confidence"":0}","[0]","survey-likert","304","915478","0.0-304.0","awlqeo5d","","","","","","","",""
"","","","call-function","305","915478","0.0-305.0","awlqeo5d","","","","","","","",""
"null","","","html-keyboard-response","306","916982","0.0-306.0","awlqeo5d","","<span style=""color:Black; font-size:50px;"">Agent A","null","","","","",""
"null","","","video-keyboard-response","307","920054","0.0-307.0","awlqeo5d","","","null","","Agent A","scrambled","STIM_SET_5/713742.bmp_pp91_L3_V1.0_veridical_freeview_isoTrue_Hflip_fps144.mp4",""
"null","","","html-keyboard-response","308","921557","0.0-308.0","awlqeo5d","","<span style=""color:Black; font-size:50px;"">Agent B","null","","","","",""
"null","","","video-keyboard-response","309","924630","0.0-309.0","awlqeo5d","","","null","","Agent B","veridical","STIM_SET_2_144/713742.bmp_pp91_L3_V1.0_veridical_freeview_isoTrue_fps144.mp4",""
"","","","call-function","310","924631","0.0-310.0","awlqeo5d","","","","","","","",""
"4595.29999999993","{""judgement"":0}","[0]","survey-likert","311","929227","0.0-311.0","awlqeo5d","","","","","","","","1"
"1710.5950000000885","{""confidence"":0}","[0]","survey-likert","312","930938","0.0-312.0","awlqeo5d","","","","","","","",""
"","","","call-function","313","930939","0.0-313.0","awlqeo5d","","","","","","","",""
"null","","","html-keyboard-response","314","932442","0.0-314.0","awlqeo5d","","<span style=""color:Black; font-size:50px;"">Agent A","null","","","","",""
"null","","","video-keyboard-response","315","935536","0.0-315.0","awlqeo5d","","","null","","Agent A","scrambled","STIM_SET_5/1592530.bmp_pp75_L1_V1.0_veridical_freeview_isoTrue_Hflip_fps144.mp4",""
"null","","","html-keyboard-response","316","937042","0.0-316.0","awlqeo5d","","<span style=""color:Black; font-size:50px;"">Agent B","null","","","","",""
"null","","","video-keyboard-response","317","940133","0.0-317.0","awlqeo5d","","","null","","Agent B","veridical","STIM_SET_2_144/1592530.bmp_pp75_L1_V1.0_veridical_freeview_isoTrue_fps144.mp4",""
"","","","call-function","318","940134","0.0-318.0","awlqeo5d","","","","","","","",""
"2179.3450000000885","{""judgement"":1}","[0]","survey-likert","319","942314","0.0-319.0","awlqeo5d","","","","","","","","1"
"1391.670000000042","{""confidence"":0}","[0]","survey-likert","320","943708","0.0-320.0","awlqeo5d","","","","","","","",""
"","","","call-function","321","943709","0.0-321.0","awlqeo5d","","","","","","","",""
"null","","","html-keyboard-response","322","945214","0.0-322.0","awlqeo5d","","<span style=""color:Black; font-size:50px;"">Agent A","null","","","","",""
"null","","","video-keyboard-response","323","948278","0.0-323.0","awlqeo5d","","","null","","Agent A","veridical","STIM_SET_2_144/1592567.bmp_pp70_L2_V1.0_veridical_freeview_isoTrue_fps144.mp4",""
"null","","","html-keyboard-response","324","949780","0.0-324.0","awlqeo5d","","<span style=""color:Black; font-size:50px;"">Agent B","null","","","","",""
"null","","","video-keyboard-response","325","952842","0.0-325.0","awlqeo5d","","","null","","Agent B","scrambled","STIM_SET_5/1592567.bmp_pp70_L2_V1.0_veridical_freeview_isoTrue_Hflip_fps144.mp4",""
"","","","call-function","326","952843","0.0-326.0","awlqeo5d","","","","","","","",""
"1840.280000000028","{""judgement"":1}","[0]","survey-likert","327","954684","0.0-327.0","awlqeo5d","","","","","","","","0"
"1546.0649999999441","{""confidence"":1}","[0]","survey-likert","328","956231","0.0-328.0","awlqeo5d","","","","","","","",""
"","","","call-function","329","956232","0.0-329.0","awlqeo5d","","","","","","","",""
"null","","","html-keyboard-response","330","957736","0.0-330.0","awlqeo5d","","<span style=""color:Black; font-size:50px;"">Agent A","null","","","","",""
"null","","","video-keyboard-response","331","960798","0.0-331.0","awlqeo5d","","","null","","Agent A","veridical","STIM_SET_2_144/285932.bmp_pp64_L1_V1.0_veridical_freeview_isoTrue_fps144.mp4",""
"null","","","html-keyboard-response","332","962300","0.0-332.0","awlqeo5d","","<span style=""color:Black; font-size:50px;"">Agent B","null","","","","",""
"null","","","video-keyboard-response","333","965360","0.0-333.0","awlqeo5d","","","null","","Agent B","scrambled","STIM_SET_5/285932.bmp_pp64_L1_V1.0_veridical_freeview_isoTrue_Hflip_fps144.mp4",""
"","","","call-function","334","965360","0.0-334.0","awlqeo5d","","","","","","","",""
"2106.8099999999395","{""judgement"":0}","[0]","survey-likert","335","967468","0.0-335.0","awlqeo5d","","","","","","","","0"
"1770.1199999999953","{""confidence"":2}","[0]","survey-likert","336","969239","0.0-336.0","awlqeo5d","","","","","","","",""
"35352.98999999999","","","instructions","337","1004592","0.0-337.0","awlqeo5d","[{""page_index"":0,""viewing_time"":33083.95999999996},{""page_index"":1,""viewing_time"":1532.8499999999767},{""page_index"":2,""viewing_time"":736.0250000000233}]","","","","","","",""
"4352.604999999981","","","instructions","338","1008945","0.0-338.0","awlqeo5d","[{""page_index"":0,""viewing_time"":595.5050000000047},{""page_index"":1,""viewing_time"":837.9199999999255},{""page_index"":2,""viewing_time"":1750.030000000028},{""page_index"":1,""viewing_time"":760.1300000000047},{""page_index"":2,""viewing_time"":408.7850000000326}]","","","","","","",""
"","","","call-function","339","1008946","0.0-339.0","awlqeo5d","","","","","","","",""
"null","","","html-keyboard-response","340","1010449","0.0-340.0","awlqeo5d","","<span style=""color:Black; font-size:50px;"">Agent A","null","","","","",""
"null","","","video-keyboard-response","341","1013516","0.0-341.0","awlqeo5d","","","null","","Agent A","veridical","STIM_SET_2_144/1592305.bmp_pp65_L3_V1.0_veridical_freeview_isoTrue_fps144.mp4",""
"null","","","html-keyboard-response","342","1015018","0.0-342.0","awlqeo5d","","<span style=""color:Black; font-size:50px;"">Agent B","null","","","","",""
"null","","","video-keyboard-response","343","1018085","0.0-343.0","awlqeo5d","","","null","","Agent B","scrambled","STIM_SET_5/1592305.bmp_pp65_L3_V1.0_veridical_freeview_isoTrue_Hflip_fps144.mp4",""
"","","","call-function","344","1018086","0.0-344.0","awlqeo5d","","","","","","","",""
"2415.8399999999674","{""judgement"":0}","[0]","survey-likert","345","1020503","0.0-345.0","awlqeo5d","","","","","","","","0"
"1921.0400000000373","{""confidence"":1}","[0]","survey-likert","346","1022425","0.0-346.0","awlqeo5d","","","","","","","",""
"","","","call-function","347","1022425","0.0-347.0","awlqeo5d","","","","","","","",""
"null","","","html-keyboard-response","348","1023930","0.0-348.0","awlqeo5d","","<span style=""color:Black; font-size:50px;"">Agent A","null","","","","",""
"null","","","video-keyboard-response","349","1027005","0.0-349.0","awlqeo5d","","","null","","Agent A","scrambled","STIM_SET_5/1592568.bmp_pp71_L1_V1.0_veridical_freeview_isoTrue_Hflip_fps144.mp4",""
"null","","","html-keyboard-response","350","1028507","0.0-350.0","awlqeo5d","","<span style=""color:Black; font-size:50px;"">Agent B","null","","","","",""
"null","","","video-keyboard-response","351","1031582","0.0-351.0","awlqeo5d","","","null","","Agent B","veridical","STIM_SET_2_144/1592568.bmp_pp71_L1_V1.0_veridical_freeview_isoTrue_fps144.mp4",""
"","","","call-function","352","1031582","0.0-352.0","awlqeo5d","","","","","","","",""
"2032.3950000000186","{""judgement"":0}","[0]","survey-likert","353","1033616","0.0-353.0","awlqeo5d","","","","","","","","1"
"1883.9299999999348","{""confidence"":2}","[0]","survey-likert","354","1035501","0.0-354.0","awlqeo5d","","","","","","","",""
"","","","call-function","355","1035501","0.0-355.0","awlqeo5d","","","","","","","",""
"null","","","html-keyboard-response","356","1037003","0.0-356.0","awlqeo5d","","<span style=""color:Black; font-size:50px;"">Agent A","null","","","","",""
"null","","","video-keyboard-response","357","1040107","0.0-357.0","awlqeo5d","","","null","","Agent A","veridical","STIM_SET_2_144/285946.bmp_pp79_L2_V1.0_veridical_freeview_isoTrue_fps144.mp4",""
"null","","","html-keyboard-response","358","1041609","0.0-358.0","awlqeo5d","","<span style=""color:Black; font-size:50px;"">Agent B","null","","","","",""
"null","","","video-keyboard-response","359","1044702","0.0-359.0","awlqeo5d","","","null","","Agent B","scrambled","STIM_SET_5/285946.bmp_pp79_L2_V1.0_veridical_freeview_isoTrue_Hflip_fps144.mp4",""
"","","","call-function","360","1044702","0.0-360.0","awlqeo5d","","","","","","","",""
"2419.609999999986","{""judgement"":1}","[0]","survey-likert","361","1047123","0.0-361.0","awlqeo5d","","","","","","","","0"
"1482.780000000028","{""confidence"":0}","[0]","survey-likert","362","1048607","0.0-362.0","awlqeo5d","","","","","","","",""
"","","","call-function","363","1048607","0.0-363.0","awlqeo5d","","","","","","","",""
"null","","","html-keyboard-response","364","1050111","0.0-364.0","awlqeo5d","","<span style=""color:Black; font-size:50px;"">Agent A","null","","","","",""
"null","","","video-keyboard-response","365","1053186","0.0-365.0","awlqeo5d","","","null","","Agent A","veridical","STIM_SET_2_144/498326.bmp_pp57_L1_V1.0_veridical_freeview_isoTrue_fps144.mp4",""
"null","","","html-keyboard-response","366","1054689","0.0-366.0","awlqeo5d","","<span style=""color:Black; font-size:50px;"">Agent B","null","","","","",""
"null","","","video-keyboard-response","367","1057761","0.0-367.0","awlqeo5d","","","null","","Agent B","scrambled","STIM_SET_5/498326.bmp_pp57_L1_V1.0_veridical_freeview_isoTrue_Hflip_fps144.mp4",""
"","","","call-function","368","1057761","0.0-368.0","awlqeo5d","","","","","","","",""
"1846.469999999972","{""judgement"":1}","[0]","survey-likert","369","1059609","0.0-369.0","awlqeo5d","","","","","","","","0"
"1373.9899999999907","{""confidence"":1}","[0]","survey-likert","370","1060984","0.0-370.0","awlqeo5d","","","","","","","",""
"","","","call-function","371","1060984","0.0-371.0","awlqeo5d","","","","","","","",""
"null","","","html-keyboard-response","372","1062488","0.0-372.0","awlqeo5d","","<span style=""color:Black; font-size:50px;"">Agent A","null","","","","",""
"null","","","video-keyboard-response","373","1065564","0.0-373.0","awlqeo5d","","","null","","Agent A","veridical","STIM_SET_2_144/1159392.bmp_pp96_L2_V1.0_veridical_freeview_isoTrue_fps144.mp4",""
"null","","","html-keyboard-response","374","1067068","0.0-374.0","awlqeo5d","","<span style=""color:Black; font-size:50px;"">Agent B","null","","","","",""
"null","","","video-keyboard-response","375","1070144","0.0-375.0","awlqeo5d","","","null","","Agent B","scrambled","STIM_SET_5/1159392.bmp_pp96_L2_V1.0_veridical_freeview_isoTrue_Hflip_fps144.mp4",""
"","","","call-function","376","1070144","0.0-376.0","awlqeo5d","","","","","","","",""
"1839.3999999999069","{""judgement"":1}","[0]","survey-likert","377","1071984","0.0-377.0","awlqeo5d","","","","","","","","0"
"1565.5600000000559","{""confidence"":2}","[0]","survey-likert","378","1073551","0.0-378.0","awlqeo5d","","","","","","","",""
"","","","call-function","379","1073551","0.0-379.0","awlqeo5d","","","","","","","",""
"null","","","html-keyboard-response","380","1075056","0.0-380.0","awlqeo5d","","<span style=""color:Black; font-size:50px;"">Agent A","null","","","","",""
"null","","","video-keyboard-response","381","1078116","0.0-381.0","awlqeo5d","","","null","","Agent A","scrambled","STIM_SET_5/713689.bmp_pp153_L3_V1.0_veridical_freeview_isoTrue_Hflip_fps144.mp4",""
"null","","","html-keyboard-response","382","1079619","0.0-382.0","awlqeo5d","","<span style=""color:Black; font-size:50px;"">Agent B","null","","","","",""
"null","","","video-keyboard-response","383","1082681","0.0-383.0","awlqeo5d","","","null","","Agent B","veridical","STIM_SET_2_144/713689.bmp_pp153_L3_V1.0_veridical_freeview_isoTrue_fps144.mp4",""
"","","","call-function","384","1082681","0.0-384.0","awlqeo5d","","","","","","","",""
"2225.945000000065","{""judgement"":0}","[0]","survey-likert","385","1084908","0.0-385.0","awlqeo5d","","","","","","","","1"
"1314.535000000149","{""confidence"":1}","[0]","survey-likert","386","1086224","0.0-386.0","awlqeo5d","","","","","","","",""
"","","","call-function","387","1086224","0.0-387.0","awlqeo5d","","","","","","","",""
"null","","","html-keyboard-response","388","1087730","0.0-388.0","awlqeo5d","","<span style=""color:Black; font-size:50px;"">Agent A","null","","","","",""
"null","","","video-keyboard-response","389","1090798","0.0-389.0","awlqeo5d","","","null","","Agent A","veridical","STIM_SET_2_144/1592025.bmp_pp68_L1_V1.0_veridical_freeview_isoTrue_fps144.mp4",""
"null","","","html-keyboard-response","390","1092305","0.0-390.0","awlqeo5d","","<span style=""color:Black; font-size:50px;"">Agent B","null","","","","",""
"null","","","video-keyboard-response","391","1095372","0.0-391.0","awlqeo5d","","","null","","Agent B","scrambled","STIM_SET_5/1592025.bmp_pp68_L1_V1.0_veridical_freeview_isoTrue_Hflip_fps144.mp4",""
"","","","call-function","392","1095373","0.0-392.0","awlqeo5d","","","","","","","",""
"1755.6400000001304","{""judgement"":0}","[0]","survey-likert","393","1097131","0.0-393.0","awlqeo5d","","","","","","","","0"
"1048.6699999999255","{""confidence"":0}","[0]","survey-likert","394","1098181","0.0-394.0","awlqeo5d","","","","","","","",""
"","","","call-function","395","1098181","0.0-395.0","awlqeo5d","","","","","","","",""
"null","","","html-keyboard-response","396","1099684","0.0-396.0","awlqeo5d","","<span style=""color:Black; font-size:50px;"">Agent A","null","","","","",""
"null","","","video-keyboard-response","397","1102752","0.0-397.0","awlqeo5d","","","null","","Agent A","veridical","STIM_SET_2_144/1592289.bmp_pp92_L3_V1.0_veridical_freeview_isoTrue_fps144.mp4",""
"null","","","html-keyboard-response","398","1104258","0.0-398.0","awlqeo5d","","<span style=""color:Black; font-size:50px;"">Agent B","null","","","","",""
"null","","","video-keyboard-response","399","1107325","0.0-399.0","awlqeo5d","","","null","","Agent B","scrambled","STIM_SET_5/1592289.bmp_pp92_L3_V1.0_veridical_freeview_isoTrue_Hflip_fps144.mp4",""
"","","","call-function","400","1107326","0.0-400.0","awlqeo5d","","","","","","","",""
"2268.564999999944","{""judgement"":1}","[0]","survey-likert","401","1109595","0.0-401.0","awlqeo5d","","","","","","","","0"
"2102.320000000065","{""confidence"":2}","[0]","survey-likert","402","1111699","0.0-402.0","awlqeo5d","","","","","","","",""
"","","","call-function","403","1111700","0.0-403.0","awlqeo5d","","","","","","","",""
"null","","","html-keyboard-response","404","1113204","0.0-404.0","awlqeo5d","","<span style=""color:Black; font-size:50px;"">Agent A","null","","","","",""
"null","","","video-keyboard-response","405","1116263","0.0-405.0","awlqeo5d","","","null","","Agent A","scrambled","STIM_SET_5/1591975.bmp_pp88_L2_V1.0_veridical_freeview_isoTrue_Hflip_fps144.mp4",""
"null","","","html-keyboard-response","406","1117770","0.0-406.0","awlqeo5d","","<span style=""color:Black; font-size:50px;"">Agent B","null","","","","",""
"null","","","video-keyboard-response","407","1120830","0.0-407.0","awlqeo5d","","","null","","Agent B","veridical","STIM_SET_2_144/1591975.bmp_pp88_L2_V1.0_veridical_freeview_isoTrue_fps144.mp4",""
"","","","call-function","408","1120830","0.0-408.0","awlqeo5d","","","","","","","",""
"1613","{""judgement"":1}","[0]","survey-likert","409","1122444","0.0-409.0","awlqeo5d","","","","","","","","1"
"1679.1350000000093","{""confidence"":1}","[0]","survey-likert","410","1124124","0.0-410.0","awlqeo5d","","","","","","","",""
"","","","call-function","411","1124125","0.0-411.0","awlqeo5d","","","","","","","",""
"null","","","html-keyboard-response","412","1125628","0.0-412.0","awlqeo5d","","<span style=""color:Black; font-size:50px;"">Agent A","null","","","","",""
"null","","","video-keyboard-response","413","1128713","0.0-413.0","awlqeo5d","","","null","","Agent A","scrambled","STIM_SET_5/1592129.bmp_pp153_L3_V1.0_veridical_freeview_isoTrue_Hflip_fps144.mp4",""
"null","","","html-keyboard-response","414","1130220","0.0-414.0","awlqeo5d","","<span style=""color:Black; font-size:50px;"">Agent B","null","","","","",""
"null","","","video-keyboard-response","415","1133294","0.0-415.0","awlqeo5d","","","null","","Agent B","veridical","STIM_SET_2_144/1592129.bmp_pp153_L3_V1.0_veridical_freeview_isoTrue_fps144.mp4",""
"","","","call-function","416","1133294","0.0-416.0","awlqeo5d","","","","","","","",""
"3550.030000000028","{""judgement"":0}","[0]","survey-likert","417","1136846","0.0-417.0","awlqeo5d","","","","","","","","1"
"1580.505000000121","{""confidence"":0}","[0]","survey-likert","418","1138427","0.0-418.0","awlqeo5d","","","","","","","",""
"111317.03500000015","","","instructions","419","1249745","0.0-419.0","awlqeo5d","[{""page_index"":0,""viewing_time"":2197.9300000001676},{""page_index"":1,""viewing_time"":108488.82999999984},{""page_index"":2,""viewing_time"":630.1149999999907}]","","","","","","",""
"3773.564999999944","","","instructions","420","1253519","0.0-420.0","awlqeo5d","[{""page_index"":0,""viewing_time"":605.4750000000931},{""page_index"":1,""viewing_time"":731.9699999999721},{""page_index"":2,""viewing_time"":2435.969999999972}]","","","","","","",""
"","","","call-function","421","1253519","0.0-421.0","awlqeo5d","","","","","","","",""
"null","","","html-keyboard-response","422","1255026","0.0-422.0","awlqeo5d","","<span style=""color:Black; font-size:50px;"">Agent A","null","","","","",""
"null","","","video-keyboard-response","423","1258087","0.0-423.0","awlqeo5d","","","null","","Agent A","veridical","STIM_SET_2_144/107955.bmp_pp90_L2_V1.0_veridical_freeview_isoTrue_fps144.mp4",""
"null","","","html-keyboard-response","424","1259589","0.0-424.0","awlqeo5d","","<span style=""color:Black; font-size:50px;"">Agent B","null","","","","",""
"null","","","video-keyboard-response","425","1262648","0.0-425.0","awlqeo5d","","","null","","Agent B","scrambled","STIM_SET_5/107955.bmp_pp90_L2_V1.0_veridical_freeview_isoTrue_Hflip_fps144.mp4",""
"","","","call-function","426","1262648","0.0-426.0","awlqeo5d","","","","","","","",""
"1152.5849999999627","{""judgement"":1}","[0]","survey-likert","427","1263802","0.0-427.0","awlqeo5d","","","","","","","","0"
"1169.1850000000559","{""confidence"":1}","[0]","survey-likert","428","1264972","0.0-428.0","awlqeo5d","","","","","","","",""
"","","","call-function","429","1264973","0.0-429.0","awlqeo5d","","","","","","","",""
"null","","","html-keyboard-response","430","1266474","0.0-430.0","awlqeo5d","","<span style=""color:Black; font-size:50px;"">Agent A","null","","","","",""
"null","","","video-keyboard-response","431","1269539","0.0-431.0","awlqeo5d","","","null","","Agent A","veridical","STIM_SET_2_144/150463.bmp_pp55_L3_V1.0_veridical_freeview_isoTrue_fps144.mp4",""
"null","","","html-keyboard-response","432","1271041","0.0-432.0","awlqeo5d","","<span style=""color:Black; font-size:50px;"">Agent B","null","","","","",""
"null","","","video-keyboard-response","433","1274108","0.0-433.0","awlqeo5d","","","null","","Agent B","scrambled","STIM_SET_5/150463.bmp_pp55_L3_V1.0_veridical_freeview_isoTrue_Hflip_fps144.mp4",""
"","","","call-function","434","1274109","0.0-434.0","awlqeo5d","","","","","","","",""
"2160.685000000056","{""judgement"":0}","[0]","survey-likert","435","1276271","0.0-435.0","awlqeo5d","","","","","","","","0"
"2210.8000000000466","{""confidence"":2}","[0]","survey-likert","436","1278482","0.0-436.0","awlqeo5d","","","","","","","",""
"","","","call-function","437","1278483","0.0-437.0","awlqeo5d","","","","","","","",""
"null","","","html-keyboard-response","438","1279989","0.0-438.0","awlqeo5d","","<span style=""color:Black; font-size:50px;"">Agent A","null","","","","",""
"null","","","video-keyboard-response","439","1283077","0.0-439.0","awlqeo5d","","","null","","Agent A","veridical","STIM_SET_2_144/285715.bmp_pp67_L2_V1.0_veridical_freeview_isoTrue_fps144.mp4",""
"null","","","html-keyboard-response","440","1284579","0.0-440.0","awlqeo5d","","<span style=""color:Black; font-size:50px;"">Agent B","null","","","","",""
"null","","","video-keyboard-response","441","1287657","0.0-441.0","awlqeo5d","","","null","","Agent B","scrambled","STIM_SET_5/285715.bmp_pp67_L2_V1.0_veridical_freeview_isoTrue_Hflip_fps144.mp4",""
"","","","call-function","442","1287657","0.0-442.0","awlqeo5d","","","","","","","",""
"2045.655000000028","{""judgement"":0}","[0]","survey-likert","443","1289704","0.0-443.0","awlqeo5d","","","","","","","","0"
"2021.7750000001397","{""confidence"":1}","[0]","survey-likert","444","1291727","0.0-444.0","awlqeo5d","","","","","","","",""
"","","","call-function","445","1291728","0.0-445.0","awlqeo5d","","","","","","","",""
"null","","","html-keyboard-response","446","1293233","0.0-446.0","awlqeo5d","","<span style=""color:Black; font-size:50px;"">Agent A","null","","","","",""
"null","","","video-keyboard-response","447","1296321","0.0-447.0","awlqeo5d","","","null","","Agent A","veridical","STIM_SET_2_144/713770.bmp_pp89_L1_V1.0_veridical_freeview_isoTrue_fps144.mp4",""
"null","","","html-keyboard-response","448","1297826","0.0-448.0","awlqeo5d","","<span style=""color:Black; font-size:50px;"">Agent B","null","","","","",""
"null","","","video-keyboard-response","449","1300913","0.0-449.0","awlqeo5d","","","null","","Agent B","scrambled","STIM_SET_5/713770.bmp_pp89_L1_V1.0_veridical_freeview_isoTrue_Hflip_fps144.mp4",""
"","","","call-function","450","1300913","0.0-450.0","awlqeo5d","","","","","","","",""
"2051.9899999999907","{""judgement"":1}","[0]","survey-likert","451","1302966","0.0-451.0","awlqeo5d","","","","","","","","0"
"2054.9849999998696","{""confidence"":0}","[0]","survey-likert","452","1305022","0.0-452.0","awlqeo5d","","","","","","","",""
"","","","call-function","453","1305023","0.0-453.0","awlqeo5d","","","","","","","",""
"null","","","html-keyboard-response","454","1306524","0.0-454.0","awlqeo5d","","<span style=""color:Black; font-size:50px;"">Agent A","null","","","","",""
"null","","","video-keyboard-response","455","1309598","0.0-455.0","awlqeo5d","","","null","","Agent A","veridical","STIM_SET_2_144/1592314.bmp_pp100_L3_V1.0_veridical_freeview_isoTrue_fps144.mp4",""
"null","","","html-keyboard-response","456","1311100","0.0-456.0","awlqeo5d","","<span style=""color:Black; font-size:50px;"">Agent B","null","","","","",""
"null","","","video-keyboard-response","457","1314175","0.0-457.0","awlqeo5d","","","null","","Agent B","scrambled","STIM_SET_5/1592314.bmp_pp100_L3_V1.0_veridical_freeview_isoTrue_Hflip_fps144.mp4",""
"","","","call-function","458","1314175","0.0-458.0","awlqeo5d","","","","","","","",""
"2267.1400000001304","{""judgement"":1}","[0]","survey-likert","459","1316444","0.0-459.0","awlqeo5d","","","","","","","","0"
"1684.9799999999814","{""confidence"":2}","[0]","survey-likert","460","1318131","0.0-460.0","awlqeo5d","","","","","","","",""
"","","","call-function","461","1318132","0.0-461.0","awlqeo5d","","","","","","","",""
"null","","","html-keyboard-response","462","1319635","0.0-462.0","awlqeo5d","","<span style=""color:Black; font-size:50px;"">Agent A","null","","","","",""
"null","","","video-keyboard-response","463","1322697","0.0-463.0","awlqeo5d","","","null","","Agent A","scrambled","STIM_SET_5/1592017.bmp_pp154_L1_V1.0_veridical_freeview_isoTrue_Hflip_fps144.mp4",""
"null","","","html-keyboard-response","464","1324202","0.0-464.0","awlqeo5d","","<span style=""color:Black; font-size:50px;"">Agent B","null","","","","",""
"null","","","video-keyboard-response","465","1327265","0.0-465.0","awlqeo5d","","","null","","Agent B","veridical","STIM_SET_2_144/1592017.bmp_pp154_L1_V1.0_veridical_freeview_isoTrue_fps144.mp4",""
"","","","call-function","466","1327266","0.0-466.0","awlqeo5d","","","","","","","",""
"3248.0799999998417","{""judgement"":0}","[0]","survey-likert","467","1330515","0.0-467.0","awlqeo5d","","","","","","","","1"
"1765.9350000000559","{""confidence"":0}","[0]","survey-likert","468","1332282","0.0-468.0","awlqeo5d","","","","","","","",""
"","","","call-function","469","1332283","0.0-469.0","awlqeo5d","","","","","","","",""
"null","","","html-keyboard-response","470","1333786","0.0-470.0","awlqeo5d","","<span style=""color:Black; font-size:50px;"">Agent A","null","","","","",""
"null","","","video-keyboard-response","471","1336862","0.0-471.0","awlqeo5d","","","null","","Agent A","scrambled","STIM_SET_5/285959.bmp_pp93_L1_V1.0_veridical_freeview_isoTrue_Hflip_fps144.mp4",""
"null","","","html-keyboard-response","472","1338363","0.0-472.0","awlqeo5d","","<span style=""color:Black; font-size:50px;"">Agent B","null","","","","",""
"null","","","video-keyboard-response","473","1341437","0.0-473.0","awlqeo5d","","","null","","Agent B","veridical","STIM_SET_2_144/285959.bmp_pp93_L1_V1.0_veridical_freeview_isoTrue_fps144.mp4",""
"","","","call-function","474","1341438","0.0-474.0","awlqeo5d","","","","","","","",""
"1882.0999999998603","{""judgement"":0}","[0]","survey-likert","475","1343321","0.0-475.0","awlqeo5d","","","","","","","","1"
"2419.3599999998696","{""confidence"":2}","[0]","survey-likert","476","1345741","0.0-476.0","awlqeo5d","","","","","","","",""
"","","","call-function","477","1345742","0.0-477.0","awlqeo5d","","","","","","","",""
"null","","","html-keyboard-response","478","1347244","0.0-478.0","awlqeo5d","","<span style=""color:Black; font-size:50px;"">Agent A","null","","","","",""
"null","","","video-keyboard-response","479","1350334","0.0-479.0","awlqeo5d","","","null","","Agent A","veridical","STIM_SET_2_144/1592350.bmp_pp55_L3_V1.0_veridical_freeview_isoTrue_fps144.mp4",""
"null","","","html-keyboard-response","480","1351841","0.0-480.0","awlqeo5d","","<span style=""color:Black; font-size:50px;"">Agent B","null","","","","",""
"null","","","video-keyboard-response","481","1354924","0.0-481.0","awlqeo5d","","","null","","Agent B","scrambled","STIM_SET_5/1592350.bmp_pp55_L3_V1.0_veridical_freeview_isoTrue_Hflip_fps144.mp4",""
"","","","call-function","482","1354924","0.0-482.0","awlqeo5d","","","","","","","",""
"3732.280000000028","{""judgement"":1}","[0]","survey-likert","483","1358657","0.0-483.0","awlqeo5d","","","","","","","","0"
"1531.910000000149","{""confidence"":0}","[0]","survey-likert","484","1360190","0.0-484.0","awlqeo5d","","","","","","","",""
"","","","call-function","485","1360191","0.0-485.0","awlqeo5d","","","","","","","",""
"null","","","html-keyboard-response","486","1361692","0.0-486.0","awlqeo5d","","<span style=""color:Black; font-size:50px;"">Agent A","null","","","","",""
"null","","","video-keyboard-response","487","1364771","0.0-487.0","awlqeo5d","","","null","","Agent A","scrambled","STIM_SET_5/150277.bmp_pp65_L3_V1.0_veridical_freeview_isoTrue_Hflip_fps144.mp4",""
"null","","","html-keyboard-response","488","1366273","0.0-488.0","awlqeo5d","","<span style=""color:Black; font-size:50px;"">Agent B","null","","","","",""
"null","","","video-keyboard-response","489","1369353","0.0-489.0","awlqeo5d","","","null","","Agent B","veridical","STIM_SET_2_144/150277.bmp_pp65_L3_V1.0_veridical_freeview_isoTrue_fps144.mp4",""
"","","","call-function","490","1369353","0.0-490.0","awlqeo5d","","","","","","","",""
"1979.1149999999907","{""judgement"":0}","[0]","survey-likert","491","1371333","0.0-491.0","awlqeo5d","","","","","","","","1"
"1382.8199999998324","{""confidence"":0}","[0]","survey-likert","492","1372717","0.0-492.0","awlqeo5d","","","","","","","",""
"","","","call-function","493","1372718","0.0-493.0","awlqeo5d","","","","","","","",""
"null","","","html-keyboard-response","494","1374222","0.0-494.0","awlqeo5d","","<span style=""color:Black; font-size:50px;"">Agent A","null","","","","",""
"null","","","video-keyboard-response","495","1377297","0.0-495.0","awlqeo5d","","","null","","Agent A","scrambled","STIM_SET_5/1591920.bmp_pp97_L3_V1_veridical_freeview_isoTrue_Hflip_fps144.mp4",""
"null","","","html-keyboard-response","496","1378805","0.0-496.0","awlqeo5d","","<span style=""color:Black; font-size:50px;"">Agent B","null","","","","",""
"null","","","video-keyboard-response","497","1381883","0.0-497.0","awlqeo5d","","","null","","Agent B","veridical","STIM_SET_2_144/1591920.bmp_pp97_L3_V1_veridical_freeview_isoTrue_fps144.mp4",""
"","","","call-function","498","1381883","0.0-498.0","awlqeo5d","","","","","","","",""
"3056.439999999944","{""judgement"":1}","[0]","survey-likert","499","1384941","0.0-499.0","awlqeo5d","","","","","","","","1"
"1546.780000000028","{""confidence"":0}","[0]","survey-likert","500","1386488","0.0-500.0","awlqeo5d","","","","","","","",""
"2965.8950000000186","","","instructions","501","1389455","0.0-501.0","awlqeo5d","[{""page_index"":0,""viewing_time"":1449.094999999972},{""page_index"":1,""viewing_time"":1077.9350000000559},{""page_index"":2,""viewing_time"":438.70999999996275}]","","","","","","",""
"1792.1100000001024","","","instructions","502","1391248","0.0-502.0","awlqeo5d","[{""page_index"":0,""viewing_time"":423.74500000011176},{""page_index"":1,""viewing_time"":722.8649999999907},{""page_index"":2,""viewing_time"":645.2749999999069}]","","","","","","",""
"","","","call-function","503","1391248","0.0-503.0","awlqeo5d","","","","","","","",""
"null","","","html-keyboard-response","504","1392752","0.0-504.0","awlqeo5d","","<span style=""color:Black; font-size:50px;"">Agent A","null","","","","",""
"null","","","video-keyboard-response","505","1395820","0.0-505.0","awlqeo5d","","","null","","Agent A","veridical","STIM_SET_2_144/713274.bmp_pp73_L3_V1.0_veridical_freeview_isoTrue_fps144.mp4",""
"null","","","html-keyboard-response","506","1397325","0.0-506.0","awlqeo5d","","<span style=""color:Black; font-size:50px;"">Agent B","null","","","","",""
"null","","","video-keyboard-response","507","1400392","0.0-507.0","awlqeo5d","","","null","","Agent B","scrambled","STIM_SET_5/713274.bmp_pp73_L3_V1.0_veridical_freeview_isoTrue_Hflip_fps144.mp4",""
"","","","call-function","508","1400393","0.0-508.0","awlqeo5d","","","","","","","",""
"1382.875","{""judgement"":1}","[0]","survey-likert","509","1401777","0.0-509.0","awlqeo5d","","","","","","","","0"
"2304.7349999998696","{""confidence"":2}","[0]","survey-likert","510","1404083","0.0-510.0","awlqeo5d","","","","","","","",""
"","","","call-function","511","1404083","0.0-511.0","awlqeo5d","","","","","","","",""
"null","","","html-keyboard-response","512","1405585","0.0-512.0","awlqeo5d","","<span style=""color:Black; font-size:50px;"">Agent A","null","","","","",""
"null","","","video-keyboard-response","513","1408652","0.0-513.0","awlqeo5d","","","null","","Agent A","scrambled","STIM_SET_5/1592921.bmp_pp69_L3_V1.0_veridical_freeview_isoTrue_Hflip_fps144.mp4",""
"null","","","html-keyboard-response","514","1410154","0.0-514.0","awlqeo5d","","<span style=""color:Black; font-size:50px;"">Agent B","null","","","","",""
"null","","","video-keyboard-response","515","1413220","0.0-515.0","awlqeo5d","","","null","","Agent B","veridical","STIM_SET_2_144/1592921.bmp_pp69_L3_V1.0_veridical_freeview_isoTrue_fps144.mp4",""
"","","","call-function","516","1413220","0.0-516.0","awlqeo5d","","","","","","","",""
"3675.344999999972","{""judgement"":0}","[0]","survey-likert","517","1416896","0.0-517.0","awlqeo5d","","","","","","","","1"
"1565.0400000000373","{""confidence"":0}","[0]","survey-likert","518","1418463","0.0-518.0","awlqeo5d","","","","","","","",""
"","","","call-function","519","1418463","0.0-519.0","awlqeo5d","","","","","","","",""
"null","","","html-keyboard-response","520","1419966","0.0-520.0","awlqeo5d","","<span style=""color:Black; font-size:50px;"">Agent A","null","","","","",""
"null","","","video-keyboard-response","521","1423051","0.0-521.0","awlqeo5d","","","null","","Agent A","scrambled","STIM_SET_5/1592951.bmp_pp80_L3_V1.0_veridical_freeview_isoTrue_Hflip_fps144.mp4",""
"null","","","html-keyboard-response","522","1424553","0.0-522.0","awlqeo5d","","<span style=""color:Black; font-size:50px;"">Agent B","null","","","","",""
"null","","","video-keyboard-response","523","1427628","0.0-523.0","awlqeo5d","","","null","","Agent B","veridical","STIM_SET_2_144/1592951.bmp_pp80_L3_V1.0_veridical_freeview_isoTrue_fps144.mp4",""
"","","","call-function","524","1427629","0.0-524.0","awlqeo5d","","","","","","","",""
"3898.769999999786","{""judgement"":0}","[0]","survey-likert","525","1431529","0.0-525.0","awlqeo5d","","","","","","","","1"
"2030.4899999999907","{""confidence"":1}","[0]","survey-likert","526","1433560","0.0-526.0","awlqeo5d","","","","","","","",""
"","","","call-function","527","1433561","0.0-527.0","awlqeo5d","","","","","","","",""
"null","","","html-keyboard-response","528","1435063","0.0-528.0","awlqeo5d","","<span style=""color:Black; font-size:50px;"">Agent A","null","","","","",""
"null","","","video-keyboard-response","529","1438151","0.0-529.0","awlqeo5d","","","null","","Agent A","veridical","STIM_SET_2_144/713328.bmp_pp86_L2_V1.0_veridical_freeview_isoTrue_fps144.mp4",""
"null","","","html-keyboard-response","530","1439656","0.0-530.0","awlqeo5d","","<span style=""color:Black; font-size:50px;"">Agent B","null","","","","",""
"null","","","video-keyboard-response","531","1442740","0.0-531.0","awlqeo5d","","","null","","Agent B","scrambled","STIM_SET_5/713328.bmp_pp86_L2_V1.0_veridical_freeview_isoTrue_Hflip_fps144.mp4",""
"","","","call-function","532","1442742","0.0-532.0","awlqeo5d","","","","","","","",""
"1663.8350000001956","{""judgement"":1}","[0]","survey-likert","533","1444408","0.0-533.0","awlqeo5d","","","","","","","","0"
"1882.5049999998882","{""confidence"":0}","[0]","survey-likert","534","1446291","0.0-534.0","awlqeo5d","","","","","","","",""
"","","","call-function","535","1446292","0.0-535.0","awlqeo5d","","","","","","","",""
"null","","","html-keyboard-response","536","1447795","0.0-536.0","awlqeo5d","","<span style=""color:Black; font-size:50px;"">Agent A","null","","","","",""
"null","","","video-keyboard-response","537","1450871","0.0-537.0","awlqeo5d","","","null","","Agent A","scrambled","STIM_SET_5/1159874.bmp_pp96_L2_V1.0_veridical_freeview_isoTrue_Hflip_fps144.mp4",""
"null","","","html-keyboard-response","538","1452375","0.0-538.0","awlqeo5d","","<span style=""color:Black; font-size:50px;"">Agent B","null","","","","",""
"null","","","video-keyboard-response","539","1455460","0.0-539.0","awlqeo5d","","","null","","Agent B","veridical","STIM_SET_2_144/1159874.bmp_pp96_L2_V1.0_veridical_freeview_isoTrue_fps144.mp4",""
"","","","call-function","540","1455460","0.0-540.0","awlqeo5d","","","","","","","",""
"1869.869999999879","{""judgement"":1}","[0]","survey-likert","541","1457331","0.0-541.0","awlqeo5d","","","","","","","","1"
"1739.2050000000745","{""confidence"":2}","[0]","survey-likert","542","1459072","0.0-542.0","awlqeo5d","","","","","","","",""
"","","","call-function","543","1459072","0.0-543.0","awlqeo5d","","","","","","","",""
"null","","","html-keyboard-response","544","1460578","0.0-544.0","awlqeo5d","","<span style=""color:Black; font-size:50px;"">Agent A","null","","","","",""
"null","","","video-keyboard-response","545","1463641","0.0-545.0","awlqeo5d","","","null","","Agent A","scrambled","STIM_SET_5/713652.bmp_pp89_L1_V1_veridical_freeview_isoTrue_Hflip_fps144.mp4",""
"null","","","html-keyboard-response","546","1465146","0.0-546.0","awlqeo5d","","<span style=""color:Black; font-size:50px;"">Agent B","null","","","","",""
"null","","","video-keyboard-response","547","1468209","0.0-547.0","awlqeo5d","","","null","","Agent B","veridical","STIM_SET_2_144/713652.bmp_pp89_L1_V1_veridical_freeview_isoTrue_fps144.mp4",""
"","","","call-function","548","1468210","0.0-548.0","awlqeo5d","","","","","","","",""
"5131.225000000093","{""judgement"":0}","[0]","survey-likert","549","1473342","0.0-549.0","awlqeo5d","","","","","","","","1"
"1497.8000000000466","{""confidence"":0}","[0]","survey-likert","550","1474841","0.0-550.0","awlqeo5d","","","","","","","",""
"","","","call-function","551","1474842","0.0-551.0","awlqeo5d","","","","","","","",""
"null","","","html-keyboard-response","552","1476345","0.0-552.0","awlqeo5d","","<span style=""color:Black; font-size:50px;"">Agent A","null","","","","",""
"null","","","video-keyboard-response","553","1479432","0.0-553.0","awlqeo5d","","","null","","Agent A","scrambled","STIM_SET_5/498258.bmp_pp51_L1_V1.0_veridical_freeview_isoTrue_Hflip_fps144.mp4",""
"null","","","html-keyboard-response","554","1480938","0.0-554.0","awlqeo5d","","<span style=""color:Black; font-size:50px;"">Agent B","null","","","","",""
"null","","","video-keyboard-response","555","1484019","0.0-555.0","awlqeo5d","","","null","","Agent B","veridical","STIM_SET_2_144/498258.bmp_pp51_L1_V1.0_veridical_freeview_isoTrue_fps144.mp4",""
"","","","call-function","556","1484020","0.0-556.0","awlqeo5d","","","","","","","",""
"1499.3999999999069","{""judgement"":1}","[0]","survey-likert","557","1485520","0.0-557.0","awlqeo5d","","","","","","","","1"
"1335.0249999999069","{""confidence"":2}","[0]","survey-likert","558","1486856","0.0-558.0","awlqeo5d","","","","","","","",""
"","","","call-function","559","1486856","0.0-559.0","awlqeo5d","","","","","","","",""
"null","","","html-keyboard-response","560","1488358","0.0-560.0","awlqeo5d","","<span style=""color:Black; font-size:50px;"">Agent A","null","","","","",""
"null","","","video-keyboard-response","561","1491430","0.0-561.0","awlqeo5d","","","null","","Agent A","veridical","STIM_SET_2_144/1160049.bmp_pp53_L2_V1.0_veridical_freeview_isoTrue_fps144.mp4",""
"null","","","html-keyboard-response","562","1492936","0.0-562.0","awlqeo5d","","<span style=""color:Black; font-size:50px;"">Agent B","null","","","","",""
"null","","","video-keyboard-response","563","1496012","0.0-563.0","awlqeo5d","","","null","","Agent B","scrambled","STIM_SET_5/1160049.bmp_pp53_L2_V1.0_veridical_freeview_isoTrue_Hflip_fps144.mp4",""
"","","","call-function","564","1496013","0.0-564.0","awlqeo5d","","","","","","","",""
"1715.7249999998603","{""judgement"":0}","[0]","survey-likert","565","1497729","0.0-565.0","awlqeo5d","","","","","","","","0"
"1615.5649999999441","{""confidence"":1}","[0]","survey-likert","566","1499346","0.0-566.0","awlqeo5d","","","","","","","",""
"","","","call-function","567","1499347","0.0-567.0","awlqeo5d","","","","","","","",""
"null","","","html-keyboard-response","568","1500849","0.0-568.0","awlqeo5d","","<span style=""color:Black; font-size:50px;"">Agent A","null","","","","",""
"null","","","video-keyboard-response","569","1503930","0.0-569.0","awlqeo5d","","","null","","Agent A","scrambled","STIM_SET_5/1592298.bmp_pp56_L3_V1.0_veridical_freeview_isoTrue_Hflip_fps144.mp4",""
"null","","","html-keyboard-response","570","1505432","0.0-570.0","awlqeo5d","","<span style=""color:Black; font-size:50px;"">Agent B","null","","","","",""
"null","","","video-keyboard-response","571","1508515","0.0-571.0","awlqeo5d","","","null","","Agent B","veridical","STIM_SET_2_144/1592298.bmp_pp56_L3_V1.0_veridical_freeview_isoTrue_fps144.mp4",""
"","","","call-function","572","1508515","0.0-572.0","awlqeo5d","","","","","","","",""
"1655.469999999972","{""judgement"":0}","[0]","survey-likert","573","1510171","0.0-573.0","awlqeo5d","","","","","","","","1"
"2240.0100000000093","{""confidence"":2}","[0]","survey-likert","574","1512413","0.0-574.0","awlqeo5d","","","","","","","",""
"","","","call-function","575","1512413","0.0-575.0","awlqeo5d","","","","","","","",""
"null","","","html-keyboard-response","576","1513917","0.0-576.0","awlqeo5d","","<span style=""color:Black; font-size:50px;"">Agent A","null","","","","",""
"null","","","video-keyboard-response","577","1516984","0.0-577.0","awlqeo5d","","","null","","Agent A","scrambled","STIM_SET_5/1159329.bmp_pp61_L2_V1.0_veridical_freeview_isoTrue_Hflip_fps144.mp4",""
"null","","","html-keyboard-response","578","1518490","0.0-578.0","awlqeo5d","","<span style=""color:Black; font-size:50px;"">Agent B","null","","","","",""
"null","","","video-keyboard-response","579","1521559","0.0-579.0","awlqeo5d","","","null","","Agent B","veridical","STIM_SET_2_144/1159329.bmp_pp61_L2_V1.0_veridical_freeview_isoTrue_fps144.mp4",""
"","","","call-function","580","1521560","0.0-580.0","awlqeo5d","","","","","","","",""
"2680","{""judgement"":0}","[0]","survey-likert","581","1524241","0.0-581.0","awlqeo5d","","","","","","","","1"
"1564.8149999999441","{""confidence"":0}","[0]","survey-likert","582","1525807","0.0-582.0","awlqeo5d","","","","","","","",""
"2045.2849999999162","","","instructions","583","1527852","0.0-583.0","awlqeo5d","[{""page_index"":0,""viewing_time"":2045.155000000028}]","","","","","","",""
"4097.594999999972","","","instructions","584","1531950","0.0-584.0","awlqeo5d","[{""page_index"":0,""viewing_time"":4097.489999999991}]","","","","","","",""
"11941.675000000047","{""post-1"":0}","[0]","survey-likert","585","1543894","0.0-585.0","awlqeo5d","","","","","","","",""
"5707.619999999879","{""post-1"":0}","[0]","survey-likert","586","1549604","0.0-586.0","awlqeo5d","","","","","","","",""
"9559.76000000001","{""post-2"":0}","[0]","survey-likert","587","1559166","0.0-587.0","awlqeo5d","","","","","","","",""
"3371.3700000001118","{""post-2"":0}","[0]","survey-likert","588","1562539","0.0-588.0","awlqeo5d","","","","","","","",""
"9074.149999999907","{""post-3"":1}","[0]","survey-likert","589","1571614","0.0-589.0","awlqeo5d","","","","","","","",""
"2064.4950000001118","{""post-3"":1}","[0]","survey-likert","590","1573680","0.0-590.0","awlqeo5d","","","","","","","",""
"10712.51000000001","{""post-4"":2}","[0]","survey-likert","591","1584394","0.0-591.0","awlqeo5d","","","","","","","",""
"3275.600000000093","{""post-4"":2}","[0]","survey-likert","592","1587671","0.0-592.0","awlqeo5d","","","","","","","",""
"6739.780000000028","{""post-5"":2}","[0]","survey-likert","593","1594412","0.0-593.0","awlqeo5d","","","","","","","",""
"5864.854999999981","{""post-5"":3}","[0]","survey-likert","594","1600278","0.0-594.0","awlqeo5d","","","","","","","",""
"89744.52500000014","{""Q0"":""It was really difficult to tell which one was more human. Sometimes I decided just based on which movement felt  more \""natural\"".""}","","survey-text","595","1690028","0.0-595.0","awlqeo5d","","","","","","","",""
"49111.77000000002","{""Q0"":""My strategy was to follow the hotspot and try t think how I would move my eyes""}","","survey-text","596","1739144","0.0-596.0","awlqeo5d","","","","","","","",""
"31118.675000000047","{""Q0"":""Telling them apart, it wasn't always that obvious.""}","","survey-text","597","1770266","0.0-597.0","awlqeo5d","","","","","","","",""
"2490.4499999999534","","","instructions","598","1772757","0.0-598.0","awlqeo5d","[{""page_index"":0,""viewing_time"":2490.314999999944}]","","","","","","",""
"103710.83000000007","{""Experimenter_end"":[""Printed ID# awlqeo5d on consent form"",""Given subject SONA credit or payment"",""Given the subject debrief form""]}","[0]","survey-multi-select","599","1876470","0.0-599.0","awlqeo5d","","","","","","","",""
