"rt","responses","question_order","trial_type","trial_index","time_elapsed","internal_node_id","ID","view_history","stimulus","key_press","value","agent","condition","image","correct_answer"
"14613.535","{""Experimenter"":[""Confirmed subject's identity (ID card)"",""Confirmed normal or corrected-to-normal vision"",""Obtained consent (signature and date)"",""Checked the test room lighting"",""Checked computer screen lighting"",""Checked distance from screen to chin rest (50cm)"",""Cleaned and adjusted chin rest"",""Counterbalanced the order of the tasks"",""Opened the experiment in Firefox"",""Made the experiment full screen"",""Encouraged subject to silence phone, put away distractors, etc.""]}","[0]","survey-multi-select","0","14622","0.0-0.0","ayhrbqjc","","","","","","","",""
"39974.86","","","instructions","1","54599","0.0-1.0","ayhrbqjc","[{""page_index"":0,""viewing_time"":39974.31}]","","","","","","",""
"8020.559999999998","","","instructions","2","62621","0.0-2.0","ayhrbqjc","[{""page_index"":0,""viewing_time"":2761.415000000001},{""page_index"":1,""viewing_time"":3314.0999999999985},{""page_index"":2,""viewing_time"":1944.9049999999988}]","","","","","","",""
"2623.8899999999994","","","instructions","3","65245","0.0-3.0","ayhrbqjc","[{""page_index"":0,""viewing_time"":2623.784999999996}]","","","","","","",""
"null","","","video-keyboard-response","4","68321","0.0-4.0","ayhrbqjc","","","null","","","","",""
"17637.40000000001","","","instructions","5","85959","0.0-5.0","ayhrbqjc","[{""page_index"":0,""viewing_time"":1796.5800000000017},{""page_index"":1,""viewing_time"":3647.9400000000023},{""page_index"":2,""viewing_time"":1056.675000000003},{""page_index"":3,""viewing_time"":6774.934999999998},{""page_index"":4,""viewing_time"":4361.139999999999}]","","","","","","",""
"5013.675000000003","","","instructions","6","90974","0.0-6.0","ayhrbqjc","[{""page_index"":0,""viewing_time"":5013.550000000003}]","","","","","","",""
"","","","call-function","7","90974","0.0-7.0","ayhrbqjc","","","","","","","",""
"null","","","html-keyboard-response","8","92481","0.0-8.0","ayhrbqjc","","<span style=""color:Black; font-size:50px;"">Agent A","null","","","","",""
"null","","","video-keyboard-response","9","95558","0.0-9.0","ayhrbqjc","","","null","","Agent A","scrambled","STIM_SET_1/285905.bmp_pp57_L1_V1.0_scrambled_freeview_isoFalse.mp4",""
"null","","","html-keyboard-response","10","97063","0.0-10.0","ayhrbqjc","","<span style=""color:Black; font-size:50px;"">Agent B","null","","","","",""
"null","","","video-keyboard-response","11","100138","0.0-11.0","ayhrbqjc","","","null","","Agent B","veridical","STIM_SET_1/285905.bmp_pp57_L1_V1.0_veridical_freeview_isoFalse.mp4",""
"","","","call-function","12","100138","0.0-12.0","ayhrbqjc","","","","","","","",""
"2638.949999999997","{""judgement"":1}","[0]","survey-likert","13","102778","0.0-13.0","ayhrbqjc","","","","","","","","1"
"2185.8699999999953","{""confidence"":2}","[0]","survey-likert","14","104966","0.0-14.0","ayhrbqjc","","","","","","","",""
"","","","call-function","15","104966","0.0-15.0","ayhrbqjc","","","","","","","",""
"null","","","html-keyboard-response","16","106468","0.0-16.0","ayhrbqjc","","<span style=""color:Black; font-size:50px;"">Agent A","null","","","","",""
"null","","","video-keyboard-response","17","109543","0.0-17.0","ayhrbqjc","","","null","","Agent A","veridical","STIM_SET_1/1592397.bmp_pp85_L3_V1.0_veridical_freeview_isoFalse.mp4",""
"null","","","html-keyboard-response","18","111045","0.0-18.0","ayhrbqjc","","<span style=""color:Black; font-size:50px;"">Agent B","null","","","","",""
"null","","","video-keyboard-response","19","114159","0.0-19.0","ayhrbqjc","","","null","","Agent B","scrambled","STIM_SET_1/1592397.bmp_pp85_L3_V1.0_scrambled_freeview_isoFalse.mp4",""
"","","","call-function","20","114160","0.0-20.0","ayhrbqjc","","","","","","","",""
"1903.8649999999907","{""judgement"":1}","[0]","survey-likert","21","116065","0.0-21.0","ayhrbqjc","","","","","","","","0"
"1559.929999999993","{""confidence"":3}","[0]","survey-likert","22","117626","0.0-22.0","ayhrbqjc","","","","","","","",""
"","","","call-function","23","117627","0.0-23.0","ayhrbqjc","","","","","","","",""
"null","","","html-keyboard-response","24","119133","0.0-24.0","ayhrbqjc","","<span style=""color:Black; font-size:50px;"">Agent A","null","","","","",""
"null","","","video-keyboard-response","25","122251","0.0-25.0","ayhrbqjc","","","null","","Agent A","veridical","STIM_SET_1/1591876.bmp_pp63_L1_V1.0_veridical_freeview_isoFalse.mp4",""
"null","","","html-keyboard-response","26","123758","0.0-26.0","ayhrbqjc","","<span style=""color:Black; font-size:50px;"">Agent B","null","","","","",""
"null","","","video-keyboard-response","27","126875","0.0-27.0","ayhrbqjc","","","null","","Agent B","scrambled","STIM_SET_1/1591876.bmp_pp63_L1_V1.0_scrambled_freeview_isoFalse.mp4",""
"","","","call-function","28","126875","0.0-28.0","ayhrbqjc","","","","","","","",""
"1728.12999999999","{""judgement"":0}","[0]","survey-likert","29","128604","0.0-29.0","ayhrbqjc","","","","","","","","0"
"1446.0999999999913","{""confidence"":3}","[0]","survey-likert","30","130052","0.0-30.0","ayhrbqjc","","","","","","","",""
"","","","call-function","31","130052","0.0-31.0","ayhrbqjc","","","","","","","",""
"null","","","html-keyboard-response","32","131557","0.0-32.0","ayhrbqjc","","<span style=""color:Black; font-size:50px;"">Agent A","null","","","","",""
"null","","","video-keyboard-response","33","134629","0.0-33.0","ayhrbqjc","","","null","","Agent A","veridical","STIM_SET_1/1159440.bmp_pp98_L1_V1.0_veridical_freeview_isoFalse.mp4",""
"null","","","html-keyboard-response","34","136133","0.0-34.0","ayhrbqjc","","<span style=""color:Black; font-size:50px;"">Agent B","null","","","","",""
"null","","","video-keyboard-response","35","139255","0.0-35.0","ayhrbqjc","","","null","","Agent B","scrambled","STIM_SET_1/1159440.bmp_pp98_L1_V1.0_scrambled_freeview_isoFalse.mp4",""
"","","","call-function","36","139256","0.0-36.0","ayhrbqjc","","","","","","","",""
"1986.0749999999825","{""judgement"":0}","[0]","survey-likert","37","141243","0.0-37.0","ayhrbqjc","","","","","","","","0"
"966.2600000000093","{""confidence"":0}","[0]","survey-likert","38","142210","0.0-38.0","ayhrbqjc","","","","","","","",""
"","","","call-function","39","142211","0.0-39.0","ayhrbqjc","","","","","","","",""
"null","","","html-keyboard-response","40","143713","0.0-40.0","ayhrbqjc","","<span style=""color:Black; font-size:50px;"">Agent A","null","","","","",""
"null","","","video-keyboard-response","41","146799","0.0-41.0","ayhrbqjc","","","null","","Agent A","veridical","STIM_SET_1/713371.bmp_pp68_L1_V1.0_veridical_freeview_isoFalse.mp4",""
"null","","","html-keyboard-response","42","148305","0.0-42.0","ayhrbqjc","","<span style=""color:Black; font-size:50px;"">Agent B","null","","","","",""
"null","","","video-keyboard-response","43","151391","0.0-43.0","ayhrbqjc","","","null","","Agent B","scrambled","STIM_SET_1/713371.bmp_pp68_L1_V1.0_scrambled_freeview_isoFalse.mp4",""
"","","","call-function","44","151392","0.0-44.0","ayhrbqjc","","","","","","","",""
"1847.1900000000023","{""judgement"":1}","[0]","survey-likert","45","153241","0.0-45.0","ayhrbqjc","","","","","","","","0"
"1465.0499999999884","{""confidence"":2}","[0]","survey-likert","46","154707","0.0-46.0","ayhrbqjc","","","","","","","",""
"","","","call-function","47","154708","0.0-47.0","ayhrbqjc","","","","","","","",""
"null","","","html-keyboard-response","48","156216","0.0-48.0","ayhrbqjc","","<span style=""color:Black; font-size:50px;"">Agent A","null","","","","",""
"null","","","video-keyboard-response","49","159301","0.0-49.0","ayhrbqjc","","","null","","Agent A","scrambled","STIM_SET_1/285751.bmp_pp55_L3_V1.0_scrambled_freeview_isoFalse.mp4",""
"null","","","html-keyboard-response","50","160806","0.0-50.0","ayhrbqjc","","<span style=""color:Black; font-size:50px;"">Agent B","null","","","","",""
"null","","","video-keyboard-response","51","163886","0.0-51.0","ayhrbqjc","","","null","","Agent B","veridical","STIM_SET_1/285751.bmp_pp55_L3_V1.0_veridical_freeview_isoFalse.mp4",""
"","","","call-function","52","163887","0.0-52.0","ayhrbqjc","","","","","","","",""
"2253.445000000007","{""judgement"":0}","[0]","survey-likert","53","166142","0.0-53.0","ayhrbqjc","","","","","","","","1"
"2008.7700000000186","{""confidence"":0}","[0]","survey-likert","54","168153","0.0-54.0","ayhrbqjc","","","","","","","",""
"","","","call-function","55","168153","0.0-55.0","ayhrbqjc","","","","","","","",""
"null","","","html-keyboard-response","56","169659","0.0-56.0","ayhrbqjc","","<span style=""color:Black; font-size:50px;"">Agent A","null","","","","",""
"null","","","video-keyboard-response","57","172730","0.0-57.0","ayhrbqjc","","","null","","Agent A","scrambled","STIM_SET_1/1159882.bmp_pp61_L2_V1.0_scrambled_freeview_isoFalse.mp4",""
"null","","","html-keyboard-response","58","174232","0.0-58.0","ayhrbqjc","","<span style=""color:Black; font-size:50px;"">Agent B","null","","","","",""
"null","","","video-keyboard-response","59","177300","0.0-59.0","ayhrbqjc","","","null","","Agent B","veridical","STIM_SET_1/1159882.bmp_pp61_L2_V1.0_veridical_freeview_isoFalse.mp4",""
"","","","call-function","60","177301","0.0-60.0","ayhrbqjc","","","","","","","",""
"1814.0299999999988","{""judgement"":0}","[0]","survey-likert","61","179116","0.0-61.0","ayhrbqjc","","","","","","","","1"
"1682.8799999999756","{""confidence"":1}","[0]","survey-likert","62","180800","0.0-62.0","ayhrbqjc","","","","","","","",""
"","","","call-function","63","180800","0.0-63.0","ayhrbqjc","","","","","","","",""
"null","","","html-keyboard-response","64","182303","0.0-64.0","ayhrbqjc","","<span style=""color:Black; font-size:50px;"">Agent A","null","","","","",""
"null","","","video-keyboard-response","65","185423","0.0-65.0","ayhrbqjc","","","null","","Agent A","scrambled","STIM_SET_1/1159621.bmp_pp92_L3_V1.0_scrambled_freeview_isoFalse.mp4",""
"null","","","html-keyboard-response","66","186926","0.0-66.0","ayhrbqjc","","<span style=""color:Black; font-size:50px;"">Agent B","null","","","","",""
"null","","","video-keyboard-response","67","190040","0.0-67.0","ayhrbqjc","","","null","","Agent B","veridical","STIM_SET_1/1159621.bmp_pp92_L3_V1.0_veridical_freeview_isoFalse.mp4",""
"","","","call-function","68","190040","0.0-68.0","ayhrbqjc","","","","","","","",""
"1795.9949999999953","{""judgement"":1}","[0]","survey-likert","69","191837","0.0-69.0","ayhrbqjc","","","","","","","","1"
"1160.5050000000047","{""confidence"":1}","[0]","survey-likert","70","192999","0.0-70.0","ayhrbqjc","","","","","","","",""
"","","","call-function","71","193000","0.0-71.0","ayhrbqjc","","","","","","","",""
"null","","","html-keyboard-response","72","194504","0.0-72.0","ayhrbqjc","","<span style=""color:Black; font-size:50px;"">Agent A","null","","","","",""
"null","","","video-keyboard-response","73","197614","0.0-73.0","ayhrbqjc","","","null","","Agent A","scrambled","STIM_SET_1/713089.bmp_pp60_L3_V1.0_scrambled_freeview_isoFalse.mp4",""
"null","","","html-keyboard-response","74","199117","0.0-74.0","ayhrbqjc","","<span style=""color:Black; font-size:50px;"">Agent B","null","","","","",""
"null","","","video-keyboard-response","75","202227","0.0-75.0","ayhrbqjc","","","null","","Agent B","veridical","STIM_SET_1/713089.bmp_pp60_L3_V1.0_veridical_freeview_isoFalse.mp4",""
"","","","call-function","76","202228","0.0-76.0","ayhrbqjc","","","","","","","",""
"2995.4550000000163","{""judgement"":1}","[0]","survey-likert","77","205224","0.0-77.0","ayhrbqjc","","","","","","","","1"
"1259.1350000000093","{""confidence"":3}","[0]","survey-likert","78","206484","0.0-78.0","ayhrbqjc","","","","","","","",""
"","","","call-function","79","206485","0.0-79.0","ayhrbqjc","","","","","","","",""
"null","","","html-keyboard-response","80","207987","0.0-80.0","ayhrbqjc","","<span style=""color:Black; font-size:50px;"">Agent A","null","","","","",""
"null","","","video-keyboard-response","81","211107","0.0-81.0","ayhrbqjc","","","null","","Agent A","veridical","STIM_SET_1/1592286.bmp_pp52_L1_V1.0_veridical_freeview_isoFalse.mp4",""
"null","","","html-keyboard-response","82","212611","0.0-82.0","ayhrbqjc","","<span style=""color:Black; font-size:50px;"">Agent B","null","","","","",""
"null","","","video-keyboard-response","83","215725","0.0-83.0","ayhrbqjc","","","null","","Agent B","scrambled","STIM_SET_1/1592286.bmp_pp52_L1_V1.0_scrambled_freeview_isoFalse.mp4",""
"","","","call-function","84","215725","0.0-84.0","ayhrbqjc","","","","","","","",""
"1893.2449999999953","{""judgement"":0}","[0]","survey-likert","85","217619","0.0-85.0","ayhrbqjc","","","","","","","","0"
"1082.085000000021","{""confidence"":2}","[0]","survey-likert","86","218703","0.0-86.0","ayhrbqjc","","","","","","","",""
"2179.7449999999953","","","instructions","87","220883","0.0-87.0","ayhrbqjc","[{""page_index"":0,""viewing_time"":926.804999999993},{""page_index"":1,""viewing_time"":775.0050000000047},{""page_index"":2,""viewing_time"":477.67500000001746}]","","","","","","",""
"1586.3950000000186","","","instructions","88","222470","0.0-88.0","ayhrbqjc","[{""page_index"":0,""viewing_time"":492.38000000000466},{""page_index"":1,""viewing_time"":479.09500000000116},{""page_index"":2,""viewing_time"":614.8000000000175}]","","","","","","",""
"","","","call-function","89","222470","0.0-89.0","ayhrbqjc","","","","","","","",""
"null","","","html-keyboard-response","90","223973","0.0-90.0","ayhrbqjc","","<span style=""color:Black; font-size:50px;"">Agent A","null","","","","",""
"null","","","video-keyboard-response","91","227054","0.0-91.0","ayhrbqjc","","","null","","Agent A","veridical","STIM_SET_1/1159855.bmp_pp99_L2_V1.0_veridical_freeview_isoFalse.mp4",""
"null","","","html-keyboard-response","92","228557","0.0-92.0","ayhrbqjc","","<span style=""color:Black; font-size:50px;"">Agent B","null","","","","",""
"null","","","video-keyboard-response","93","231634","0.0-93.0","ayhrbqjc","","","null","","Agent B","scrambled","STIM_SET_1/1159855.bmp_pp99_L2_V1.0_scrambled_freeview_isoFalse.mp4",""
"","","","call-function","94","231634","0.0-94.0","ayhrbqjc","","","","","","","",""
"1513.7300000000105","{""judgement"":0}","[0]","survey-likert","95","233149","0.0-95.0","ayhrbqjc","","","","","","","","0"
"1199.5350000000035","{""confidence"":2}","[0]","survey-likert","96","234350","0.0-96.0","ayhrbqjc","","","","","","","",""
"","","","call-function","97","234350","0.0-97.0","ayhrbqjc","","","","","","","",""
"null","","","html-keyboard-response","98","235854","0.0-98.0","ayhrbqjc","","<span style=""color:Black; font-size:50px;"">Agent A","null","","","","",""
"null","","","video-keyboard-response","99","238933","0.0-99.0","ayhrbqjc","","","null","","Agent A","veridical","STIM_SET_1/1159777.bmp_pp77_L3_V1.0_veridical_freeview_isoFalse.mp4",""
"null","","","html-keyboard-response","100","240438","0.0-100.0","ayhrbqjc","","<span style=""color:Black; font-size:50px;"">Agent B","null","","","","",""
"null","","","video-keyboard-response","101","243519","0.0-101.0","ayhrbqjc","","","null","","Agent B","scrambled","STIM_SET_1/1159777.bmp_pp77_L3_V1.0_scrambled_freeview_isoFalse.mp4",""
"","","","call-function","102","243520","0.0-102.0","ayhrbqjc","","","","","","","",""
"3293.1149999999907","{""judgement"":1}","[0]","survey-likert","103","246815","0.0-103.0","ayhrbqjc","","","","","","","","0"
"1506.4400000000023","{""confidence"":1}","[0]","survey-likert","104","248322","0.0-104.0","ayhrbqjc","","","","","","","",""
"","","","call-function","105","248323","0.0-105.0","ayhrbqjc","","","","","","","",""
"null","","","html-keyboard-response","106","249825","0.0-106.0","ayhrbqjc","","<span style=""color:Black; font-size:50px;"">Agent A","null","","","","",""
"null","","","video-keyboard-response","107","252945","0.0-107.0","ayhrbqjc","","","null","","Agent A","scrambled","STIM_SET_1/498253.bmp_pp67_L2_V1.0_scrambled_freeview_isoFalse.mp4",""
"null","","","html-keyboard-response","108","254448","0.0-108.0","ayhrbqjc","","<span style=""color:Black; font-size:50px;"">Agent B","null","","","","",""
"null","","","video-keyboard-response","109","257530","0.0-109.0","ayhrbqjc","","","null","","Agent B","veridical","STIM_SET_1/498253.bmp_pp67_L2_V1.0_veridical_freeview_isoFalse.mp4",""
"","","","call-function","110","257531","0.0-110.0","ayhrbqjc","","","","","","","",""
"1791.8699999999953","{""judgement"":1}","[0]","survey-likert","111","259324","0.0-111.0","ayhrbqjc","","","","","","","","1"
"1319.0249999999942","{""confidence"":1}","[0]","survey-likert","112","260645","0.0-112.0","ayhrbqjc","","","","","","","",""
"","","","call-function","113","260646","0.0-113.0","ayhrbqjc","","","","","","","",""
"null","","","html-keyboard-response","114","262153","0.0-114.0","ayhrbqjc","","<span style=""color:Black; font-size:50px;"">Agent A","null","","","","",""
"null","","","video-keyboard-response","115","265227","0.0-115.0","ayhrbqjc","","","null","","Agent A","scrambled","STIM_SET_1/1592934.bmp_pp63_L1_V1.0_scrambled_freeview_isoFalse.mp4",""
"null","","","html-keyboard-response","116","266733","0.0-116.0","ayhrbqjc","","<span style=""color:Black; font-size:50px;"">Agent B","null","","","","",""
"null","","","video-keyboard-response","117","269807","0.0-117.0","ayhrbqjc","","","null","","Agent B","veridical","STIM_SET_1/1592934.bmp_pp63_L1_V1.0_veridical_freeview_isoFalse.mp4",""
"","","","call-function","118","269807","0.0-118.0","ayhrbqjc","","","","","","","",""
"2115.179999999993","{""judgement"":1}","[0]","survey-likert","119","271924","0.0-119.0","ayhrbqjc","","","","","","","","1"
"1245.0299999999697","{""confidence"":1}","[0]","survey-likert","120","273170","0.0-120.0","ayhrbqjc","","","","","","","",""
"","","","call-function","121","273171","0.0-121.0","ayhrbqjc","","","","","","","",""
"null","","","html-keyboard-response","122","274672","0.0-122.0","ayhrbqjc","","<span style=""color:Black; font-size:50px;"">Agent A","null","","","","",""
"null","","","video-keyboard-response","123","277750","0.0-123.0","ayhrbqjc","","","null","","Agent A","veridical","STIM_SET_1/1593146.bmp_pp93_L1_V1.0_veridical_freeview_isoFalse.mp4",""
"null","","","html-keyboard-response","124","279252","0.0-124.0","ayhrbqjc","","<span style=""color:Black; font-size:50px;"">Agent B","null","","","","",""
"null","","","video-keyboard-response","125","282361","0.0-125.0","ayhrbqjc","","","null","","Agent B","scrambled","STIM_SET_1/1593146.bmp_pp93_L1_V1.0_scrambled_freeview_isoFalse.mp4",""
"","","","call-function","126","282362","0.0-126.0","ayhrbqjc","","","","","","","",""
"1513.039999999979","{""judgement"":0}","[0]","survey-likert","127","283876","0.0-127.0","ayhrbqjc","","","","","","","","0"
"1102.5449999999837","{""confidence"":0}","[0]","survey-likert","128","284980","0.0-128.0","ayhrbqjc","","","","","","","",""
"","","","call-function","129","284981","0.0-129.0","ayhrbqjc","","","","","","","",""
"null","","","html-keyboard-response","130","286482","0.0-130.0","ayhrbqjc","","<span style=""color:Black; font-size:50px;"">Agent A","null","","","","",""
"null","","","video-keyboard-response","131","289598","0.0-131.0","ayhrbqjc","","","null","","Agent A","scrambled","STIM_SET_1/1592499.bmp_pp96_L2_V1.0_scrambled_freeview_isoFalse.mp4",""
"null","","","html-keyboard-response","132","291101","0.0-132.0","ayhrbqjc","","<span style=""color:Black; font-size:50px;"">Agent B","null","","","","",""
"null","","","video-keyboard-response","133","294218","0.0-133.0","ayhrbqjc","","","null","","Agent B","veridical","STIM_SET_1/1592499.bmp_pp96_L2_V1.0_veridical_freeview_isoFalse.mp4",""
"","","","call-function","134","294219","0.0-134.0","ayhrbqjc","","","","","","","",""
"2412.9000000000233","{""judgement"":1}","[0]","survey-likert","135","296632","0.0-135.0","ayhrbqjc","","","","","","","","1"
"1480.195000000007","{""confidence"":0}","[0]","survey-likert","136","298114","0.0-136.0","ayhrbqjc","","","","","","","",""
"","","","call-function","137","298114","0.0-137.0","ayhrbqjc","","","","","","","",""
"null","","","html-keyboard-response","138","299615","0.0-138.0","ayhrbqjc","","<span style=""color:Black; font-size:50px;"">Agent A","null","","","","",""
"null","","","video-keyboard-response","139","302697","0.0-139.0","ayhrbqjc","","","null","","Agent A","veridical","STIM_SET_1/1159675.bmp_pp77_L3_V1.0_veridical_freeview_isoFalse.mp4",""
"null","","","html-keyboard-response","140","304199","0.0-140.0","ayhrbqjc","","<span style=""color:Black; font-size:50px;"">Agent B","null","","","","",""
"null","","","video-keyboard-response","141","307279","0.0-141.0","ayhrbqjc","","","null","","Agent B","scrambled","STIM_SET_1/1159675.bmp_pp77_L3_V1.0_scrambled_freeview_isoFalse.mp4",""
"","","","call-function","142","307280","0.0-142.0","ayhrbqjc","","","","","","","",""
"1920.945000000007","{""judgement"":0}","[0]","survey-likert","143","309202","0.0-143.0","ayhrbqjc","","","","","","","","0"
"2448.929999999993","{""confidence"":1}","[0]","survey-likert","144","311652","0.0-144.0","ayhrbqjc","","","","","","","",""
"","","","call-function","145","311652","0.0-145.0","ayhrbqjc","","","","","","","",""
"null","","","html-keyboard-response","146","313156","0.0-146.0","ayhrbqjc","","<span style=""color:Black; font-size:50px;"">Agent A","null","","","","",""
"null","","","video-keyboard-response","147","316274","0.0-147.0","ayhrbqjc","","","null","","Agent A","veridical","STIM_SET_1/1592804.bmp_pp91_L3_V1.0_veridical_freeview_isoFalse.mp4",""
"null","","","html-keyboard-response","148","317777","0.0-148.0","ayhrbqjc","","<span style=""color:Black; font-size:50px;"">Agent B","null","","","","",""
"null","","","video-keyboard-response","149","320853","0.0-149.0","ayhrbqjc","","","null","","Agent B","scrambled","STIM_SET_1/1592804.bmp_pp91_L3_V1.0_scrambled_freeview_isoFalse.mp4",""
"","","","call-function","150","320854","0.0-150.0","ayhrbqjc","","","","","","","",""
"3512.0200000000186","{""judgement"":1}","[0]","survey-likert","151","324367","0.0-151.0","ayhrbqjc","","","","","","","","0"
"1222.289999999979","{""confidence"":1}","[0]","survey-likert","152","325591","0.0-152.0","ayhrbqjc","","","","","","","",""
"","","","call-function","153","325591","0.0-153.0","ayhrbqjc","","","","","","","",""
"null","","","html-keyboard-response","154","327093","0.0-154.0","ayhrbqjc","","<span style=""color:Black; font-size:50px;"">Agent A","null","","","","",""
"null","","","video-keyboard-response","155","330158","0.0-155.0","ayhrbqjc","","","null","","Agent A","scrambled","STIM_SET_1/1159446.bmp_pp60_L3_V1.0_scrambled_freeview_isoFalse.mp4",""
"null","","","html-keyboard-response","156","331661","0.0-156.0","ayhrbqjc","","<span style=""color:Black; font-size:50px;"">Agent B","null","","","","",""
"null","","","video-keyboard-response","157","334728","0.0-157.0","ayhrbqjc","","","null","","Agent B","veridical","STIM_SET_1/1159446.bmp_pp60_L3_V1.0_veridical_freeview_isoFalse.mp4",""
"","","","call-function","158","334729","0.0-158.0","ayhrbqjc","","","","","","","",""
"2975.3400000000256","{""judgement"":1}","[0]","survey-likert","159","337706","0.0-159.0","ayhrbqjc","","","","","","","","1"
"1975.0350000000326","{""confidence"":1}","[0]","survey-likert","160","339683","0.0-160.0","ayhrbqjc","","","","","","","",""
"","","","call-function","161","339684","0.0-161.0","ayhrbqjc","","","","","","","",""
"null","","","html-keyboard-response","162","341189","0.0-162.0","ayhrbqjc","","<span style=""color:Black; font-size:50px;"">Agent A","null","","","","",""
"null","","","video-keyboard-response","163","344266","0.0-163.0","ayhrbqjc","","","null","","Agent A","veridical","STIM_SET_1/498175.bmp_pp154_L1_V1.0_veridical_freeview_isoFalse.mp4",""
"null","","","html-keyboard-response","164","345768","0.0-164.0","ayhrbqjc","","<span style=""color:Black; font-size:50px;"">Agent B","null","","","","",""
"null","","","video-keyboard-response","165","348848","0.0-165.0","ayhrbqjc","","","null","","Agent B","scrambled","STIM_SET_1/498175.bmp_pp154_L1_V1.0_scrambled_freeview_isoFalse.mp4",""
"","","","call-function","166","348849","0.0-166.0","ayhrbqjc","","","","","","","",""
"1577.7600000000093","{""judgement"":0}","[0]","survey-likert","167","350428","0.0-167.0","ayhrbqjc","","","","","","","","0"
"1692.9799999999814","{""confidence"":1}","[0]","survey-likert","168","352122","0.0-168.0","ayhrbqjc","","","","","","","",""
"2439.6900000000023","","","instructions","169","354562","0.0-169.0","ayhrbqjc","[{""page_index"":0,""viewing_time"":1117.3450000000303},{""page_index"":1,""viewing_time"":736.1049999999814},{""page_index"":2,""viewing_time"":586.0800000000163}]","","","","","","",""
"1357.0750000000116","","","instructions","170","355920","0.0-170.0","ayhrbqjc","[{""page_index"":0,""viewing_time"":475.89000000001397},{""page_index"":1,""viewing_time"":453.9899999999907},{""page_index"":2,""viewing_time"":427.0900000000256}]","","","","","","",""
"","","","call-function","171","355921","0.0-171.0","ayhrbqjc","","","","","","","",""
"null","","","html-keyboard-response","172","357422","0.0-172.0","ayhrbqjc","","<span style=""color:Black; font-size:50px;"">Agent A","null","","","","",""
"null","","","video-keyboard-response","173","360493","0.0-173.0","ayhrbqjc","","","null","","Agent A","veridical","STIM_SET_1/1592890.bmp_pp82_L2_V1.0_veridical_freeview_isoFalse.mp4",""
"null","","","html-keyboard-response","174","361997","0.0-174.0","ayhrbqjc","","<span style=""color:Black; font-size:50px;"">Agent B","null","","","","",""
"null","","","video-keyboard-response","175","365066","0.0-175.0","ayhrbqjc","","","null","","Agent B","scrambled","STIM_SET_1/1592890.bmp_pp82_L2_V1.0_scrambled_freeview_isoFalse.mp4",""
"","","","call-function","176","365066","0.0-176.0","ayhrbqjc","","","","","","","",""
"2768.7299999999814","{""judgement"":1}","[0]","survey-likert","177","367836","0.0-177.0","ayhrbqjc","","","","","","","","0"
"1030.3950000000186","{""confidence"":2}","[0]","survey-likert","178","368868","0.0-178.0","ayhrbqjc","","","","","","","",""
"","","","call-function","179","368868","0.0-179.0","ayhrbqjc","","","","","","","",""
"null","","","html-keyboard-response","180","370370","0.0-180.0","ayhrbqjc","","<span style=""color:Black; font-size:50px;"">Agent A","null","","","","",""
"null","","","video-keyboard-response","181","373480","0.0-181.0","ayhrbqjc","","","null","","Agent A","scrambled","STIM_SET_1/1592619.bmp_pp56_L3_V1.0_scrambled_freeview_isoFalse.mp4",""
"null","","","html-keyboard-response","182","374983","0.0-182.0","ayhrbqjc","","<span style=""color:Black; font-size:50px;"">Agent B","null","","","","",""
"null","","","video-keyboard-response","183","378093","0.0-183.0","ayhrbqjc","","","null","","Agent B","veridical","STIM_SET_1/1592619.bmp_pp56_L3_V1.0_veridical_freeview_isoFalse.mp4",""
"","","","call-function","184","378093","0.0-184.0","ayhrbqjc","","","","","","","",""
"1914.0650000000023","{""judgement"":0}","[0]","survey-likert","185","380008","0.0-185.0","ayhrbqjc","","","","","","","","1"
"1217.405000000028","{""confidence"":2}","[0]","survey-likert","186","381227","0.0-186.0","ayhrbqjc","","","","","","","",""
"","","","call-function","187","381227","0.0-187.0","ayhrbqjc","","","","","","","",""
"null","","","html-keyboard-response","188","382732","0.0-188.0","ayhrbqjc","","<span style=""color:Black; font-size:50px;"">Agent A","null","","","","",""
"null","","","video-keyboard-response","189","385836","0.0-189.0","ayhrbqjc","","","null","","Agent A","veridical","STIM_SET_1/713403.bmp_pp80_L3_V1.0_veridical_freeview_isoFalse.mp4",""
"null","","","html-keyboard-response","190","387340","0.0-190.0","ayhrbqjc","","<span style=""color:Black; font-size:50px;"">Agent B","null","","","","",""
"null","","","video-keyboard-response","191","390445","0.0-191.0","ayhrbqjc","","","null","","Agent B","scrambled","STIM_SET_1/713403.bmp_pp80_L3_V1.0_scrambled_freeview_isoFalse.mp4",""
"","","","call-function","192","390446","0.0-192.0","ayhrbqjc","","","","","","","",""
"1460.2399999999907","{""judgement"":0}","[0]","survey-likert","193","391907","0.0-193.0","ayhrbqjc","","","","","","","","0"
"1356.4249999999884","{""confidence"":2}","[0]","survey-likert","194","393264","0.0-194.0","ayhrbqjc","","","","","","","",""
"","","","call-function","195","393265","0.0-195.0","ayhrbqjc","","","","","","","",""
"null","","","html-keyboard-response","196","394768","0.0-196.0","ayhrbqjc","","<span style=""color:Black; font-size:50px;"">Agent A","null","","","","",""
"null","","","video-keyboard-response","197","397877","0.0-197.0","ayhrbqjc","","","null","","Agent A","scrambled","STIM_SET_1/1592362.bmp_pp95_L2_V1.0_scrambled_freeview_isoFalse.mp4",""
"null","","","html-keyboard-response","198","399379","0.0-198.0","ayhrbqjc","","<span style=""color:Black; font-size:50px;"">Agent B","null","","","","",""
"null","","","video-keyboard-response","199","402487","0.0-199.0","ayhrbqjc","","","null","","Agent B","veridical","STIM_SET_1/1592362.bmp_pp95_L2_V1.0_veridical_freeview_isoFalse.mp4",""
"","","","call-function","200","402487","0.0-200.0","ayhrbqjc","","","","","","","",""
"3478.055000000051","{""judgement"":1}","[0]","survey-likert","201","405966","0.0-201.0","ayhrbqjc","","","","","","","","1"
"1682.6749999999884","{""confidence"":0}","[0]","survey-likert","202","407650","0.0-202.0","ayhrbqjc","","","","","","","",""
"","","","call-function","203","407651","0.0-203.0","ayhrbqjc","","","","","","","",""
"null","","","html-keyboard-response","204","409155","0.0-204.0","ayhrbqjc","","<span style=""color:Black; font-size:50px;"">Agent A","null","","","","",""
"null","","","video-keyboard-response","205","412221","0.0-205.0","ayhrbqjc","","","null","","Agent A","veridical","STIM_SET_1/286001.bmp_pp54_L2_V1.0_veridical_freeview_isoFalse.mp4",""
"null","","","html-keyboard-response","206","413724","0.0-206.0","ayhrbqjc","","<span style=""color:Black; font-size:50px;"">Agent B","null","","","","",""
"null","","","video-keyboard-response","207","416790","0.0-207.0","ayhrbqjc","","","null","","Agent B","scrambled","STIM_SET_1/286001.bmp_pp54_L2_V1.0_scrambled_freeview_isoFalse.mp4",""
"","","","call-function","208","416791","0.0-208.0","ayhrbqjc","","","","","","","",""
"2971.5200000000186","{""judgement"":1}","[0]","survey-likert","209","419763","0.0-209.0","ayhrbqjc","","","","","","","","0"
"2108.7449999999953","{""confidence"":1}","[0]","survey-likert","210","421873","0.0-210.0","ayhrbqjc","","","","","","","",""
"","","","call-function","211","421874","0.0-211.0","ayhrbqjc","","","","","","","",""
"null","","","html-keyboard-response","212","423376","0.0-212.0","ayhrbqjc","","<span style=""color:Black; font-size:50px;"">Agent A","null","","","","",""
"null","","","video-keyboard-response","213","426454","0.0-213.0","ayhrbqjc","","","null","","Agent A","scrambled","STIM_SET_1/713620.bmp_pp65_L3_V1.0_scrambled_freeview_isoFalse.mp4",""
"null","","","html-keyboard-response","214","427956","0.0-214.0","ayhrbqjc","","<span style=""color:Black; font-size:50px;"">Agent B","null","","","","",""
"null","","","video-keyboard-response","215","431032","0.0-215.0","ayhrbqjc","","","null","","Agent B","veridical","STIM_SET_1/713620.bmp_pp65_L3_V1.0_veridical_freeview_isoFalse.mp4",""
"","","","call-function","216","431033","0.0-216.0","ayhrbqjc","","","","","","","",""
"2268.9199999999837","{""judgement"":0}","[0]","survey-likert","217","433303","0.0-217.0","ayhrbqjc","","","","","","","","1"
"1465.3450000000303","{""confidence"":1}","[0]","survey-likert","218","434770","0.0-218.0","ayhrbqjc","","","","","","","",""
"","","","call-function","219","434772","0.0-219.0","ayhrbqjc","","","","","","","",""
"null","","","html-keyboard-response","220","436278","0.0-220.0","ayhrbqjc","","<span style=""color:Black; font-size:50px;"">Agent A","null","","","","",""
"null","","","video-keyboard-response","221","439354","0.0-221.0","ayhrbqjc","","","null","","Agent A","veridical","STIM_SET_1/498111.bmp_pp88_L2_V1.0_veridical_freeview_isoFalse.mp4",""
"null","","","html-keyboard-response","222","440857","0.0-222.0","ayhrbqjc","","<span style=""color:Black; font-size:50px;"">Agent B","null","","","","",""
"null","","","video-keyboard-response","223","443934","0.0-223.0","ayhrbqjc","","","null","","Agent B","scrambled","STIM_SET_1/498111.bmp_pp88_L2_V1.0_scrambled_freeview_isoFalse.mp4",""
"","","","call-function","224","443935","0.0-224.0","ayhrbqjc","","","","","","","",""
"2704.320000000007","{""judgement"":0}","[0]","survey-likert","225","446640","0.0-225.0","ayhrbqjc","","","","","","","","0"
"2438.8699999999953","{""confidence"":0}","[0]","survey-likert","226","449080","0.0-226.0","ayhrbqjc","","","","","","","",""
"","","","call-function","227","449081","0.0-227.0","ayhrbqjc","","","","","","","",""
"null","","","html-keyboard-response","228","450583","0.0-228.0","ayhrbqjc","","<span style=""color:Black; font-size:50px;"">Agent A","null","","","","",""
"null","","","video-keyboard-response","229","453652","0.0-229.0","ayhrbqjc","","","null","","Agent A","veridical","STIM_SET_1/285994.bmp_pp92_L3_V1.0_veridical_freeview_isoFalse.mp4",""
"null","","","html-keyboard-response","230","455157","0.0-230.0","ayhrbqjc","","<span style=""color:Black; font-size:50px;"">Agent B","null","","","","",""
"null","","","video-keyboard-response","231","458226","0.0-231.0","ayhrbqjc","","","null","","Agent B","scrambled","STIM_SET_1/285994.bmp_pp92_L3_V1.0_scrambled_freeview_isoFalse.mp4",""
"","","","call-function","232","458226","0.0-232.0","ayhrbqjc","","","","","","","",""
"2301.929999999993","{""judgement"":1}","[0]","survey-likert","233","460529","0.0-233.0","ayhrbqjc","","","","","","","","0"
"968.0499999999884","{""confidence"":0}","[0]","survey-likert","234","461498","0.0-234.0","ayhrbqjc","","","","","","","",""
"","","","call-function","235","461499","0.0-235.0","ayhrbqjc","","","","","","","",""
"null","","","html-keyboard-response","236","463006","0.0-236.0","ayhrbqjc","","<span style=""color:Black; font-size:50px;"">Agent A","null","","","","",""
"null","","","video-keyboard-response","237","466113","0.0-237.0","ayhrbqjc","","","null","","Agent A","scrambled","STIM_SET_1/1592351.bmp_pp51_L1_V1.0_scrambled_freeview_isoFalse.mp4",""
"null","","","html-keyboard-response","238","467615","0.0-238.0","ayhrbqjc","","<span style=""color:Black; font-size:50px;"">Agent B","null","","","","",""
"null","","","video-keyboard-response","239","470723","0.0-239.0","ayhrbqjc","","","null","","Agent B","veridical","STIM_SET_1/1592351.bmp_pp51_L1_V1.0_veridical_freeview_isoFalse.mp4",""
"","","","call-function","240","470723","0.0-240.0","ayhrbqjc","","","","","","","",""
"2059.8600000000442","{""judgement"":1}","[0]","survey-likert","241","472784","0.0-241.0","ayhrbqjc","","","","","","","","1"
"834.0899999999674","{""confidence"":2}","[0]","survey-likert","242","473619","0.0-242.0","ayhrbqjc","","","","","","","",""
"","","","call-function","243","473620","0.0-243.0","ayhrbqjc","","","","","","","",""
"null","","","html-keyboard-response","244","475123","0.0-244.0","ayhrbqjc","","<span style=""color:Black; font-size:50px;"">Agent A","null","","","","",""
"null","","","video-keyboard-response","245","478243","0.0-245.0","ayhrbqjc","","","null","","Agent A","veridical","STIM_SET_1/713749.bmp_pp88_L2_V1.0_veridical_freeview_isoFalse.mp4",""
"null","","","html-keyboard-response","246","479747","0.0-246.0","ayhrbqjc","","<span style=""color:Black; font-size:50px;"">Agent B","null","","","","",""
"null","","","video-keyboard-response","247","482868","0.0-247.0","ayhrbqjc","","","null","","Agent B","scrambled","STIM_SET_1/713749.bmp_pp88_L2_V1.0_scrambled_freeview_isoFalse.mp4",""
"","","","call-function","248","482869","0.0-248.0","ayhrbqjc","","","","","","","",""
"2905.9049999999697","{""judgement"":0}","[0]","survey-likert","249","485775","0.0-249.0","ayhrbqjc","","","","","","","","0"
"2094.4949999999953","{""confidence"":2}","[0]","survey-likert","250","487871","0.0-250.0","ayhrbqjc","","","","","","","",""
"2519.6450000000186","","","instructions","251","490391","0.0-251.0","ayhrbqjc","[{""page_index"":0,""viewing_time"":1161.4349999999977},{""page_index"":1,""viewing_time"":718.3450000000303},{""page_index"":2,""viewing_time"":639.7049999999581}]","","","","","","",""
"1286.429999999993","","","instructions","252","491678","0.0-252.0","ayhrbqjc","[{""page_index"":0,""viewing_time"":444.28999999997905},{""page_index"":1,""viewing_time"":423.1599999999744},{""page_index"":2,""viewing_time"":418.875}]","","","","","","",""
"","","","call-function","253","491679","0.0-253.0","ayhrbqjc","","","","","","","",""
"null","","","html-keyboard-response","254","493180","0.0-254.0","ayhrbqjc","","<span style=""color:Black; font-size:50px;"">Agent A","null","","","","",""
"null","","","video-keyboard-response","255","496282","0.0-255.0","ayhrbqjc","","","null","","Agent A","veridical","STIM_SET_1/1592727.bmp_pp59_L3_V1.0_veridical_freeview_isoFalse.mp4",""
"null","","","html-keyboard-response","256","497789","0.0-256.0","ayhrbqjc","","<span style=""color:Black; font-size:50px;"">Agent B","null","","","","",""
"null","","","video-keyboard-response","257","500891","0.0-257.0","ayhrbqjc","","","null","","Agent B","scrambled","STIM_SET_1/1592727.bmp_pp59_L3_V1.0_scrambled_freeview_isoFalse.mp4",""
"","","","call-function","258","500893","0.0-258.0","ayhrbqjc","","","","","","","",""
"2115.695000000007","{""judgement"":0}","[0]","survey-likert","259","503010","0.0-259.0","ayhrbqjc","","","","","","","","0"
"1500.5599999999977","{""confidence"":2}","[0]","survey-likert","260","504512","0.0-260.0","ayhrbqjc","","","","","","","",""
"","","","call-function","261","504513","0.0-261.0","ayhrbqjc","","","","","","","",""
"null","","","html-keyboard-response","262","506016","0.0-262.0","ayhrbqjc","","<span style=""color:Black; font-size:50px;"">Agent A","null","","","","",""
"null","","","video-keyboard-response","263","509080","0.0-263.0","ayhrbqjc","","","null","","Agent A","scrambled","STIM_SET_1/1592133.bmp_pp75_L1_V1.0_scrambled_freeview_isoFalse.mp4",""
"null","","","html-keyboard-response","264","510583","0.0-264.0","ayhrbqjc","","<span style=""color:Black; font-size:50px;"">Agent B","null","","","","",""
"null","","","video-keyboard-response","265","513648","0.0-265.0","ayhrbqjc","","","null","","Agent B","veridical","STIM_SET_1/1592133.bmp_pp75_L1_V1.0_veridical_freeview_isoFalse.mp4",""
"","","","call-function","266","513649","0.0-266.0","ayhrbqjc","","","","","","","",""
"3789.5050000000047","{""judgement"":0}","[0]","survey-likert","267","517440","0.0-267.0","ayhrbqjc","","","","","","","","1"
"1132.2949999999837","{""confidence"":0}","[0]","survey-likert","268","518574","0.0-268.0","ayhrbqjc","","","","","","","",""
"","","","call-function","269","518575","0.0-269.0","ayhrbqjc","","","","","","","",""
"null","","","html-keyboard-response","270","520077","0.0-270.0","ayhrbqjc","","<span style=""color:Black; font-size:50px;"">Agent A","null","","","","",""
"null","","","video-keyboard-response","271","523157","0.0-271.0","ayhrbqjc","","","null","","Agent A","veridical","STIM_SET_1/1160127.bmp_pp90_L2_V1.0_veridical_freeview_isoFalse.mp4",""
"null","","","html-keyboard-response","272","524659","0.0-272.0","ayhrbqjc","","<span style=""color:Black; font-size:50px;"">Agent B","null","","","","",""
"null","","","video-keyboard-response","273","527738","0.0-273.0","ayhrbqjc","","","null","","Agent B","scrambled","STIM_SET_1/1160127.bmp_pp90_L2_V1.0_scrambled_freeview_isoFalse.mp4",""
"","","","call-function","274","527739","0.0-274.0","ayhrbqjc","","","","","","","",""
"1991.390000000014","{""judgement"":1}","[0]","survey-likert","275","529731","0.0-275.0","ayhrbqjc","","","","","","","","0"
"1923.015000000014","{""confidence"":2}","[0]","survey-likert","276","531656","0.0-276.0","ayhrbqjc","","","","","","","",""
"","","","call-function","277","531656","0.0-277.0","ayhrbqjc","","","","","","","",""
"null","","","html-keyboard-response","278","533157","0.0-278.0","ayhrbqjc","","<span style=""color:Black; font-size:50px;"">Agent A","null","","","","",""
"null","","","video-keyboard-response","279","536280","0.0-279.0","ayhrbqjc","","","null","","Agent A","scrambled","STIM_SET_1/713666.bmp_pp97_L3_V1.0_scrambled_freeview_isoFalse.mp4",""
"null","","","html-keyboard-response","280","537781","0.0-280.0","ayhrbqjc","","<span style=""color:Black; font-size:50px;"">Agent B","null","","","","",""
"null","","","video-keyboard-response","281","540903","0.0-281.0","ayhrbqjc","","","null","","Agent B","veridical","STIM_SET_1/713666.bmp_pp97_L3_V1.0_veridical_freeview_isoFalse.mp4",""
"","","","call-function","282","540904","0.0-282.0","ayhrbqjc","","","","","","","",""
"3016.7700000000186","{""judgement"":1}","[0]","survey-likert","283","543921","0.0-283.0","ayhrbqjc","","","","","","","","1"
"1440.530000000028","{""confidence"":1}","[0]","survey-likert","284","545363","0.0-284.0","ayhrbqjc","","","","","","","",""
"","","","call-function","285","545364","0.0-285.0","ayhrbqjc","","","","","","","",""
"null","","","html-keyboard-response","286","546866","0.0-286.0","ayhrbqjc","","<span style=""color:Black; font-size:50px;"">Agent A","null","","","","",""
"null","","","video-keyboard-response","287","549945","0.0-287.0","ayhrbqjc","","","null","","Agent A","veridical","STIM_SET_1/1591961.bmp_pp67_L2_V1.0_veridical_freeview_isoFalse.mp4",""
"null","","","html-keyboard-response","288","551450","0.0-288.0","ayhrbqjc","","<span style=""color:Black; font-size:50px;"">Agent B","null","","","","",""
"null","","","video-keyboard-response","289","554571","0.0-289.0","ayhrbqjc","","","null","","Agent B","scrambled","STIM_SET_1/1591961.bmp_pp67_L2_V1.0_scrambled_freeview_isoFalse.mp4",""
"","","","call-function","290","554572","0.0-290.0","ayhrbqjc","","","","","","","",""
"3606.734999999986","{""judgement"":0}","[0]","survey-likert","291","558179","0.0-291.0","ayhrbqjc","","","","","","","","0"
"1255.9800000000978","{""confidence"":2}","[0]","survey-likert","292","559436","0.0-292.0","ayhrbqjc","","","","","","","",""
"","","","call-function","293","559437","0.0-293.0","ayhrbqjc","","","","","","","",""
"null","","","html-keyboard-response","294","560938","0.0-294.0","ayhrbqjc","","<span style=""color:Black; font-size:50px;"">Agent A","null","","","","",""
"null","","","video-keyboard-response","295","564047","0.0-295.0","ayhrbqjc","","","null","","Agent A","veridical","STIM_SET_1/1593035.bmp_pp94_L2_V1.0_veridical_freeview_isoFalse.mp4",""
"null","","","html-keyboard-response","296","565549","0.0-296.0","ayhrbqjc","","<span style=""color:Black; font-size:50px;"">Agent B","null","","","","",""
"null","","","video-keyboard-response","297","568660","0.0-297.0","ayhrbqjc","","","null","","Agent B","scrambled","STIM_SET_1/1593035.bmp_pp94_L2_V1.0_scrambled_freeview_isoFalse.mp4",""
"","","","call-function","298","568662","0.0-298.0","ayhrbqjc","","","","","","","",""
"2686.6350000000093","{""judgement"":0}","[0]","survey-likert","299","571350","0.0-299.0","ayhrbqjc","","","","","","","","0"
"1623.5","{""confidence"":1}","[0]","survey-likert","300","572975","0.0-300.0","ayhrbqjc","","","","","","","",""
"","","","call-function","301","572975","0.0-301.0","ayhrbqjc","","","","","","","",""
"null","","","html-keyboard-response","302","574480","0.0-302.0","ayhrbqjc","","<span style=""color:Black; font-size:50px;"">Agent A","null","","","","",""
"null","","","video-keyboard-response","303","577555","0.0-303.0","ayhrbqjc","","","null","","Agent A","veridical","STIM_SET_1/1592807.bmp_pp68_L1_V1.0_veridical_freeview_isoFalse.mp4",""
"null","","","html-keyboard-response","304","579059","0.0-304.0","ayhrbqjc","","<span style=""color:Black; font-size:50px;"">Agent B","null","","","","",""
"null","","","video-keyboard-response","305","582137","0.0-305.0","ayhrbqjc","","","null","","Agent B","scrambled","STIM_SET_1/1592807.bmp_pp68_L1_V1.0_scrambled_freeview_isoFalse.mp4",""
"","","","call-function","306","582137","0.0-306.0","ayhrbqjc","","","","","","","",""
"2136.189999999944","{""judgement"":1}","[0]","survey-likert","307","584275","0.0-307.0","ayhrbqjc","","","","","","","","0"
"1071.4749999999767","{""confidence"":1}","[0]","survey-likert","308","585348","0.0-308.0","ayhrbqjc","","","","","","","",""
"","","","call-function","309","585348","0.0-309.0","ayhrbqjc","","","","","","","",""
"null","","","html-keyboard-response","310","586853","0.0-310.0","ayhrbqjc","","<span style=""color:Black; font-size:50px;"">Agent A","null","","","","",""
"null","","","video-keyboard-response","311","589926","0.0-311.0","ayhrbqjc","","","null","","Agent A","veridical","STIM_SET_1/1159829.bmp_pp91_L3_V1.0_veridical_freeview_isoFalse.mp4",""
"null","","","html-keyboard-response","312","591429","0.0-312.0","ayhrbqjc","","<span style=""color:Black; font-size:50px;"">Agent B","null","","","","",""
"null","","","video-keyboard-response","313","594501","0.0-313.0","ayhrbqjc","","","null","","Agent B","scrambled","STIM_SET_1/1159829.bmp_pp91_L3_V1.0_scrambled_freeview_isoFalse.mp4",""
"","","","call-function","314","594501","0.0-314.0","ayhrbqjc","","","","","","","",""
"2032.1500000000233","{""judgement"":1}","[0]","survey-likert","315","596534","0.0-315.0","ayhrbqjc","","","","","","","","0"
"2688.9599999999627","{""confidence"":3}","[0]","survey-likert","316","599225","0.0-316.0","ayhrbqjc","","","","","","","",""
"","","","call-function","317","599225","0.0-317.0","ayhrbqjc","","","","","","","",""
"null","","","html-keyboard-response","318","600728","0.0-318.0","ayhrbqjc","","<span style=""color:Black; font-size:50px;"">Agent A","null","","","","",""
"null","","","video-keyboard-response","319","603846","0.0-319.0","ayhrbqjc","","","null","","Agent A","veridical","STIM_SET_1/285933.bmp_pp81_L1_V1.0_veridical_freeview_isoFalse.mp4",""
"null","","","html-keyboard-response","320","605349","0.0-320.0","ayhrbqjc","","<span style=""color:Black; font-size:50px;"">Agent B","null","","","","",""
"null","","","video-keyboard-response","321","608460","0.0-321.0","ayhrbqjc","","","null","","Agent B","scrambled","STIM_SET_1/285933.bmp_pp81_L1_V1.0_scrambled_freeview_isoFalse.mp4",""
"","","","call-function","322","608461","0.0-322.0","ayhrbqjc","","","","","","","",""
"1669.5299999999115","{""judgement"":0}","[0]","survey-likert","323","610131","0.0-323.0","ayhrbqjc","","","","","","","","0"
"2585.590000000084","{""confidence"":2}","[0]","survey-likert","324","612718","0.0-324.0","ayhrbqjc","","","","","","","",""
"","","","call-function","325","612719","0.0-325.0","ayhrbqjc","","","","","","","",""
"null","","","html-keyboard-response","326","614224","0.0-326.0","ayhrbqjc","","<span style=""color:Black; font-size:50px;"">Agent A","null","","","","",""
"null","","","video-keyboard-response","327","617339","0.0-327.0","ayhrbqjc","","","null","","Agent A","veridical","STIM_SET_1/712977.bmp_pp51_L1_V1.0_veridical_freeview_isoFalse.mp4",""
"null","","","html-keyboard-response","328","618844","0.0-328.0","ayhrbqjc","","<span style=""color:Black; font-size:50px;"">Agent B","null","","","","",""
"null","","","video-keyboard-response","329","621957","0.0-329.0","ayhrbqjc","","","null","","Agent B","scrambled","STIM_SET_1/712977.bmp_pp51_L1_V1.0_scrambled_freeview_isoFalse.mp4",""
"","","","call-function","330","621958","0.0-330.0","ayhrbqjc","","","","","","","",""
"4408.25","{""judgement"":0}","[0]","survey-likert","331","626367","0.0-331.0","ayhrbqjc","","","","","","","","0"
"1818.7700000000186","{""confidence"":0}","[0]","survey-likert","332","628187","0.0-332.0","ayhrbqjc","","","","","","","",""
"224724.995","","","instructions","333","852913","0.0-333.0","ayhrbqjc","[{""page_index"":0,""viewing_time"":2657.9349999999395},{""page_index"":1,""viewing_time"":219544.90000000002},{""page_index"":2,""viewing_time"":2521.9899999999907}]","","","","","","",""
"2294.3150000000605","","","instructions","334","855208","0.0-334.0","ayhrbqjc","[{""page_index"":0,""viewing_time"":894.3950000000186},{""page_index"":1,""viewing_time"":696.9500000000698},{""page_index"":2,""viewing_time"":702.8549999999814}]","","","","","","",""
"","","","call-function","335","855209","0.0-335.0","ayhrbqjc","","","","","","","",""
"null","","","html-keyboard-response","336","856714","0.0-336.0","ayhrbqjc","","<span style=""color:Black; font-size:50px;"">Agent A","null","","","","",""
"null","","","video-keyboard-response","337","859785","0.0-337.0","ayhrbqjc","","","null","","Agent A","veridical","STIM_SET_1/1159813.bmp_pp79_L2_V1.0_veridical_freeview_isoFalse.mp4",""
"null","","","html-keyboard-response","338","861287","0.0-338.0","ayhrbqjc","","<span style=""color:Black; font-size:50px;"">Agent B","null","","","","",""
"null","","","video-keyboard-response","339","864361","0.0-339.0","ayhrbqjc","","","null","","Agent B","scrambled","STIM_SET_1/1159813.bmp_pp79_L2_V1.0_scrambled_freeview_isoFalse.mp4",""
"","","","call-function","340","864361","0.0-340.0","ayhrbqjc","","","","","","","",""
"1616.329999999958","{""judgement"":0}","[0]","survey-likert","341","865978","0.0-341.0","ayhrbqjc","","","","","","","","0"
"2420.7850000000326","{""confidence"":0}","[0]","survey-likert","342","868401","0.0-342.0","ayhrbqjc","","","","","","","",""
"","","","call-function","343","868402","0.0-343.0","ayhrbqjc","","","","","","","",""
"null","","","html-keyboard-response","344","869908","0.0-344.0","ayhrbqjc","","<span style=""color:Black; font-size:50px;"">Agent A","null","","","","",""
"null","","","video-keyboard-response","345","872988","0.0-345.0","ayhrbqjc","","","null","","Agent A","veridical","STIM_SET_1/1592657.bmp_pp98_L1_V1.0_veridical_freeview_isoFalse.mp4",""
"null","","","html-keyboard-response","346","874493","0.0-346.0","ayhrbqjc","","<span style=""color:Black; font-size:50px;"">Agent B","null","","","","",""
"null","","","video-keyboard-response","347","877570","0.0-347.0","ayhrbqjc","","","null","","Agent B","scrambled","STIM_SET_1/1592657.bmp_pp98_L1_V1.0_scrambled_freeview_isoFalse.mp4",""
"","","","call-function","348","877572","0.0-348.0","ayhrbqjc","","","","","","","",""
"2370.469999999972","{""judgement"":0}","[0]","survey-likert","349","879943","0.0-349.0","ayhrbqjc","","","","","","","","0"
"1412.1199999999953","{""confidence"":2}","[0]","survey-likert","350","881357","0.0-350.0","ayhrbqjc","","","","","","","",""
"","","","call-function","351","881357","0.0-351.0","ayhrbqjc","","","","","","","",""
"null","","","html-keyboard-response","352","882859","0.0-352.0","ayhrbqjc","","<span style=""color:Black; font-size:50px;"">Agent A","null","","","","",""
"null","","","video-keyboard-response","353","885942","0.0-353.0","ayhrbqjc","","","null","","Agent A","veridical","STIM_SET_1/713211.bmp_pp100_L3_V1.0_veridical_freeview_isoFalse.mp4",""
"null","","","html-keyboard-response","354","887446","0.0-354.0","ayhrbqjc","","<span style=""color:Black; font-size:50px;"">Agent B","null","","","","",""
"null","","","video-keyboard-response","355","890525","0.0-355.0","ayhrbqjc","","","null","","Agent B","scrambled","STIM_SET_1/713211.bmp_pp100_L3_V1.0_scrambled_freeview_isoFalse.mp4",""
"","","","call-function","356","890526","0.0-356.0","ayhrbqjc","","","","","","","",""
"3443.4000000000233","{""judgement"":0}","[0]","survey-likert","357","893970","0.0-357.0","ayhrbqjc","","","","","","","","0"
"1646.734999999986","{""confidence"":2}","[0]","survey-likert","358","895618","0.0-358.0","ayhrbqjc","","","","","","","",""
"","","","call-function","359","895619","0.0-359.0","ayhrbqjc","","","","","","","",""
"null","","","html-keyboard-response","360","897121","0.0-360.0","ayhrbqjc","","<span style=""color:Black; font-size:50px;"">Agent A","null","","","","",""
"null","","","video-keyboard-response","361","900234","0.0-361.0","ayhrbqjc","","","null","","Agent A","veridical","STIM_SET_1/1159572.bmp_pp71_L1_V1.0_veridical_freeview_isoFalse.mp4",""
"null","","","html-keyboard-response","362","901735","0.0-362.0","ayhrbqjc","","<span style=""color:Black; font-size:50px;"">Agent B","null","","","","",""
"null","","","video-keyboard-response","363","904843","0.0-363.0","ayhrbqjc","","","null","","Agent B","scrambled","STIM_SET_1/1159572.bmp_pp71_L1_V1.0_scrambled_freeview_isoFalse.mp4",""
"","","","call-function","364","904844","0.0-364.0","ayhrbqjc","","","","","","","",""
"2385.4100000000326","{""judgement"":1}","[0]","survey-likert","365","907230","0.0-365.0","ayhrbqjc","","","","","","","","0"
"1140.109999999986","{""confidence"":0}","[0]","survey-likert","366","908372","0.0-366.0","ayhrbqjc","","","","","","","",""
"","","","call-function","367","908372","0.0-367.0","ayhrbqjc","","","","","","","",""
"null","","","html-keyboard-response","368","909879","0.0-368.0","ayhrbqjc","","<span style=""color:Black; font-size:50px;"">Agent A","null","","","","",""
"null","","","video-keyboard-response","369","912986","0.0-369.0","ayhrbqjc","","","null","","Agent A","veridical","STIM_SET_1/713513.bmp_pp62_L2_V1.0_veridical_freeview_isoFalse.mp4",""
"null","","","html-keyboard-response","370","914490","0.0-370.0","ayhrbqjc","","<span style=""color:Black; font-size:50px;"">Agent B","null","","","","",""
"null","","","video-keyboard-response","371","917601","0.0-371.0","ayhrbqjc","","","null","","Agent B","scrambled","STIM_SET_1/713513.bmp_pp62_L2_V1.0_scrambled_freeview_isoFalse.mp4",""
"","","","call-function","372","917601","0.0-372.0","ayhrbqjc","","","","","","","",""
"9533.554999999935","{""judgement"":0}","[0]","survey-likert","373","927136","0.0-373.0","ayhrbqjc","","","","","","","","0"
"1510.670000000042","{""confidence"":0}","[0]","survey-likert","374","928648","0.0-374.0","ayhrbqjc","","","","","","","",""
"","","","call-function","375","928648","0.0-375.0","ayhrbqjc","","","","","","","",""
"null","","","html-keyboard-response","376","930152","0.0-376.0","ayhrbqjc","","<span style=""color:Black; font-size:50px;"">Agent A","null","","","","",""
"null","","","video-keyboard-response","377","933276","0.0-377.0","ayhrbqjc","","","null","","Agent A","veridical","STIM_SET_1/1591954.bmp_pp62_L2_V1.0_veridical_freeview_isoFalse.mp4",""
"null","","","html-keyboard-response","378","934781","0.0-378.0","ayhrbqjc","","<span style=""color:Black; font-size:50px;"">Agent B","null","","","","",""
"null","","","video-keyboard-response","379","937859","0.0-379.0","ayhrbqjc","","","null","","Agent B","scrambled","STIM_SET_1/1591954.bmp_pp62_L2_V1.0_scrambled_freeview_isoFalse.mp4",""
"","","","call-function","380","937859","0.0-380.0","ayhrbqjc","","","","","","","",""
"2706.54999999993","{""judgement"":1}","[0]","survey-likert","381","940567","0.0-381.0","ayhrbqjc","","","","","","","","0"
"10202.31500000006","{""confidence"":1}","[0]","survey-likert","382","950770","0.0-382.0","ayhrbqjc","","","","","","","",""
"","","","call-function","383","950771","0.0-383.0","ayhrbqjc","","","","","","","",""
"null","","","html-keyboard-response","384","952273","0.0-384.0","ayhrbqjc","","<span style=""color:Black; font-size:50px;"">Agent A","null","","","","",""
"null","","","video-keyboard-response","385","955335","0.0-385.0","ayhrbqjc","","","null","","Agent A","scrambled","STIM_SET_1/713779.bmp_pp152_L2_V1.0_scrambled_freeview_isoFalse.mp4",""
"null","","","html-keyboard-response","386","956842","0.0-386.0","ayhrbqjc","","<span style=""color:Black; font-size:50px;"">Agent B","null","","","","",""
"null","","","video-keyboard-response","387","959907","0.0-387.0","ayhrbqjc","","","null","","Agent B","veridical","STIM_SET_1/713779.bmp_pp152_L2_V1.0_veridical_freeview_isoFalse.mp4",""
"","","","call-function","388","959908","0.0-388.0","ayhrbqjc","","","","","","","",""
"3987.3499999999767","{""judgement"":0}","[0]","survey-likert","389","963896","0.0-389.0","ayhrbqjc","","","","","","","","1"
"1381.2750000000233","{""confidence"":1}","[0]","survey-likert","390","965278","0.0-390.0","ayhrbqjc","","","","","","","",""
"","","","call-function","391","965279","0.0-391.0","ayhrbqjc","","","","","","","",""
"null","","","html-keyboard-response","392","966782","0.0-392.0","ayhrbqjc","","<span style=""color:Black; font-size:50px;"">Agent A","null","","","","",""
"null","","","video-keyboard-response","393","969850","0.0-393.0","ayhrbqjc","","","null","","Agent A","scrambled","STIM_SET_1/497950.bmp_pp151_L1_V1.0_scrambled_freeview_isoFalse.mp4",""
"null","","","html-keyboard-response","394","971356","0.0-394.0","ayhrbqjc","","<span style=""color:Black; font-size:50px;"">Agent B","null","","","","",""
"null","","","video-keyboard-response","395","974427","0.0-395.0","ayhrbqjc","","","null","","Agent B","veridical","STIM_SET_1/497950.bmp_pp151_L1_V1.0_veridical_freeview_isoFalse.mp4",""
"","","","call-function","396","974429","0.0-396.0","ayhrbqjc","","","","","","","",""
"2107.2099999999627","{""judgement"":1}","[0]","survey-likert","397","976538","0.0-397.0","ayhrbqjc","","","","","","","","1"
"2446.295000000042","{""confidence"":1}","[0]","survey-likert","398","978986","0.0-398.0","ayhrbqjc","","","","","","","",""
"","","","call-function","399","978986","0.0-399.0","ayhrbqjc","","","","","","","",""
"null","","","html-keyboard-response","400","980493","0.0-400.0","ayhrbqjc","","<span style=""color:Black; font-size:50px;"">Agent A","null","","","","",""
"null","","","video-keyboard-response","401","983570","0.0-401.0","ayhrbqjc","","","null","","Agent A","scrambled","STIM_SET_1/1592581.bmp_pp100_L3_V1.0_scrambled_freeview_isoFalse.mp4",""
"null","","","html-keyboard-response","402","985073","0.0-402.0","ayhrbqjc","","<span style=""color:Black; font-size:50px;"">Agent B","null","","","","",""
"null","","","video-keyboard-response","403","988146","0.0-403.0","ayhrbqjc","","","null","","Agent B","veridical","STIM_SET_1/1592581.bmp_pp100_L3_V1.0_veridical_freeview_isoFalse.mp4",""
"","","","call-function","404","988146","0.0-404.0","ayhrbqjc","","","","","","","",""
"1857.9599999999627","{""judgement"":0}","[0]","survey-likert","405","990006","0.0-405.0","ayhrbqjc","","","","","","","","1"
"1537.1450000000186","{""confidence"":1}","[0]","survey-likert","406","991545","0.0-406.0","ayhrbqjc","","","","","","","",""
"","","","call-function","407","991545","0.0-407.0","ayhrbqjc","","","","","","","",""
"null","","","html-keyboard-response","408","993047","0.0-408.0","ayhrbqjc","","<span style=""color:Black; font-size:50px;"">Agent A","null","","","","",""
"null","","","video-keyboard-response","409","996118","0.0-409.0","ayhrbqjc","","","null","","Agent A","veridical","STIM_SET_1/713681.bmp_pp86_L2_V1.0_veridical_freeview_isoFalse.mp4",""
"null","","","html-keyboard-response","410","997620","0.0-410.0","ayhrbqjc","","<span style=""color:Black; font-size:50px;"">Agent B","null","","","","",""
"null","","","video-keyboard-response","411","1000696","0.0-411.0","ayhrbqjc","","","null","","Agent B","scrambled","STIM_SET_1/713681.bmp_pp86_L2_V1.0_scrambled_freeview_isoFalse.mp4",""
"","","","call-function","412","1000697","0.0-412.0","ayhrbqjc","","","","","","","",""
"2254.805000000051","{""judgement"":0}","[0]","survey-likert","413","1002953","0.0-413.0","ayhrbqjc","","","","","","","","0"
"933.2800000000279","{""confidence"":2}","[0]","survey-likert","414","1003887","0.0-414.0","ayhrbqjc","","","","","","","",""
"1776.8050000000512","","","instructions","415","1005665","0.0-415.0","ayhrbqjc","[{""page_index"":0,""viewing_time"":932.2200000000885},{""page_index"":1,""viewing_time"":464.5699999999488},{""page_index"":2,""viewing_time"":379.83499999996275}]","","","","","","",""
"2152.8150000000605","","","instructions","416","1007818","0.0-416.0","ayhrbqjc","[{""page_index"":0,""viewing_time"":1037.359999999986},{""page_index"":1,""viewing_time"":374.91500000003725},{""page_index"":2,""viewing_time"":740.2950000000419}]","","","","","","",""
"","","","call-function","417","1007819","0.0-417.0","ayhrbqjc","","","","","","","",""
"null","","","html-keyboard-response","418","1009320","0.0-418.0","ayhrbqjc","","<span style=""color:Black; font-size:50px;"">Agent A","null","","","","",""
"null","","","video-keyboard-response","419","1012426","0.0-419.0","ayhrbqjc","","","null","","Agent A","scrambled","STIM_SET_1/498149.bmp_pp99_L2_V1.0_scrambled_freeview_isoFalse.mp4",""
"null","","","html-keyboard-response","420","1013928","0.0-420.0","ayhrbqjc","","<span style=""color:Black; font-size:50px;"">Agent B","null","","","","",""
"null","","","video-keyboard-response","421","1017035","0.0-421.0","ayhrbqjc","","","null","","Agent B","veridical","STIM_SET_1/498149.bmp_pp99_L2_V1.0_veridical_freeview_isoFalse.mp4",""
"","","","call-function","422","1017035","0.0-422.0","ayhrbqjc","","","","","","","",""
"2275.3150000000605","{""judgement"":1}","[0]","survey-likert","423","1019311","0.0-423.0","ayhrbqjc","","","","","","","","1"
"1397.8349999999627","{""confidence"":1}","[0]","survey-likert","424","1020711","0.0-424.0","ayhrbqjc","","","","","","","",""
"","","","call-function","425","1020711","0.0-425.0","ayhrbqjc","","","","","","","",""
"null","","","html-keyboard-response","426","1022213","0.0-426.0","ayhrbqjc","","<span style=""color:Black; font-size:50px;"">Agent A","null","","","","",""
"null","","","video-keyboard-response","427","1025304","0.0-427.0","ayhrbqjc","","","null","","Agent A","veridical","STIM_SET_1/713684.bmp_pp85_L3_V1.0_veridical_freeview_isoFalse.mp4",""
"null","","","html-keyboard-response","428","1026805","0.0-428.0","ayhrbqjc","","<span style=""color:Black; font-size:50px;"">Agent B","null","","","","",""
"null","","","video-keyboard-response","429","1029903","0.0-429.0","ayhrbqjc","","","null","","Agent B","scrambled","STIM_SET_1/713684.bmp_pp85_L3_V1.0_scrambled_freeview_isoFalse.mp4",""
"","","","call-function","430","1029903","0.0-430.0","ayhrbqjc","","","","","","","",""
"2144.3000000000466","{""judgement"":0}","[0]","survey-likert","431","1032049","0.0-431.0","ayhrbqjc","","","","","","","","0"
"889.2600000000093","{""confidence"":1}","[0]","survey-likert","432","1032939","0.0-432.0","ayhrbqjc","","","","","","","",""
"","","","call-function","433","1032940","0.0-433.0","ayhrbqjc","","","","","","","",""
"null","","","html-keyboard-response","434","1034441","0.0-434.0","ayhrbqjc","","<span style=""color:Black; font-size:50px;"">Agent A","null","","","","",""
"null","","","video-keyboard-response","435","1037517","0.0-435.0","ayhrbqjc","","","null","","Agent A","veridical","STIM_SET_1/61537.bmp_pp73_L3_V1.0_veridical_freeview_isoFalse.mp4",""
"null","","","html-keyboard-response","436","1039019","0.0-436.0","ayhrbqjc","","<span style=""color:Black; font-size:50px;"">Agent B","null","","","","",""
"null","","","video-keyboard-response","437","1042135","0.0-437.0","ayhrbqjc","","","null","","Agent B","scrambled","STIM_SET_1/61537.bmp_pp73_L3_V1.0_scrambled_freeview_isoFalse.mp4",""
"","","","call-function","438","1042136","0.0-438.0","ayhrbqjc","","","","","","","",""
"4409.8150000000605","{""judgement"":0}","[0]","survey-likert","439","1046547","0.0-439.0","ayhrbqjc","","","","","","","","0"
"1402.5899999999674","{""confidence"":1}","[0]","survey-likert","440","1047952","0.0-440.0","ayhrbqjc","","","","","","","",""
"","","","call-function","441","1047953","0.0-441.0","ayhrbqjc","","","","","","","",""
"null","","","html-keyboard-response","442","1049455","0.0-442.0","ayhrbqjc","","<span style=""color:Black; font-size:50px;"">Agent A","null","","","","",""
"null","","","video-keyboard-response","443","1052530","0.0-443.0","ayhrbqjc","","","null","","Agent A","scrambled","STIM_SET_1/713593.bmp_pp64_L1_V1.0_scrambled_freeview_isoFalse.mp4",""
"null","","","html-keyboard-response","444","1054031","0.0-444.0","ayhrbqjc","","<span style=""color:Black; font-size:50px;"">Agent B","null","","","","",""
"null","","","video-keyboard-response","445","1057113","0.0-445.0","ayhrbqjc","","","null","","Agent B","veridical","STIM_SET_1/713593.bmp_pp64_L1_V1.0_veridical_freeview_isoFalse.mp4",""
"","","","call-function","446","1057114","0.0-446.0","ayhrbqjc","","","","","","","",""
"1306.4499999999534","{""judgement"":1}","[0]","survey-likert","447","1058421","0.0-447.0","ayhrbqjc","","","","","","","","1"
"1204.7250000000931","{""confidence"":3}","[0]","survey-likert","448","1059628","0.0-448.0","ayhrbqjc","","","","","","","",""
"","","","call-function","449","1059628","0.0-449.0","ayhrbqjc","","","","","","","",""
"null","","","html-keyboard-response","450","1061135","0.0-450.0","ayhrbqjc","","<span style=""color:Black; font-size:50px;"">Agent A","null","","","","",""
"null","","","video-keyboard-response","451","1064206","0.0-451.0","ayhrbqjc","","","null","","Agent A","scrambled","STIM_SET_1/1159768.bmp_pp89_L1_V1.0_scrambled_freeview_isoFalse.mp4",""
"null","","","html-keyboard-response","452","1065710","0.0-452.0","ayhrbqjc","","<span style=""color:Black; font-size:50px;"">Agent B","null","","","","",""
"null","","","video-keyboard-response","453","1068780","0.0-453.0","ayhrbqjc","","","null","","Agent B","veridical","STIM_SET_1/1159768.bmp_pp89_L1_V1.0_veridical_freeview_isoFalse.mp4",""
"","","","call-function","454","1068781","0.0-454.0","ayhrbqjc","","","","","","","",""
"2015.755000000121","{""judgement"":0}","[0]","survey-likert","455","1070798","0.0-455.0","ayhrbqjc","","","","","","","","1"
"950.9850000001024","{""confidence"":0}","[0]","survey-likert","456","1071750","0.0-456.0","ayhrbqjc","","","","","","","",""
"","","","call-function","457","1071750","0.0-457.0","ayhrbqjc","","","","","","","",""
"null","","","html-keyboard-response","458","1073253","0.0-458.0","ayhrbqjc","","<span style=""color:Black; font-size:50px;"">Agent A","null","","","","",""
"null","","","video-keyboard-response","459","1076385","0.0-459.0","ayhrbqjc","","","null","","Agent A","veridical","STIM_SET_1/1160168.bmp_pp53_L2_V1.0_veridical_freeview_isoFalse.mp4",""
"null","","","html-keyboard-response","460","1077887","0.0-460.0","ayhrbqjc","","<span style=""color:Black; font-size:50px;"">Agent B","null","","","","",""
"null","","","video-keyboard-response","461","1081009","0.0-461.0","ayhrbqjc","","","null","","Agent B","scrambled","STIM_SET_1/1160168.bmp_pp53_L2_V1.0_scrambled_freeview_isoFalse.mp4",""
"","","","call-function","462","1081010","0.0-462.0","ayhrbqjc","","","","","","","",""
"1580.469999999972","{""judgement"":0}","[0]","survey-likert","463","1082591","0.0-463.0","ayhrbqjc","","","","","","","","0"
"2482.875","{""confidence"":3}","[0]","survey-likert","464","1085076","0.0-464.0","ayhrbqjc","","","","","","","",""
"","","","call-function","465","1085076","0.0-465.0","ayhrbqjc","","","","","","","",""
"null","","","html-keyboard-response","466","1086578","0.0-466.0","ayhrbqjc","","<span style=""color:Black; font-size:50px;"">Agent A","null","","","","",""
"null","","","video-keyboard-response","467","1089697","0.0-467.0","ayhrbqjc","","","null","","Agent A","veridical","STIM_SET_1/1592372.bmp_pp76_L1_V1.0_veridical_freeview_isoFalse.mp4",""
"null","","","html-keyboard-response","468","1091198","0.0-468.0","ayhrbqjc","","<span style=""color:Black; font-size:50px;"">Agent B","null","","","","",""
"null","","","video-keyboard-response","469","1094319","0.0-469.0","ayhrbqjc","","","null","","Agent B","scrambled","STIM_SET_1/1592372.bmp_pp76_L1_V1.0_scrambled_freeview_isoFalse.mp4",""
"","","","call-function","470","1094320","0.0-470.0","ayhrbqjc","","","","","","","",""
"2026.8200000000652","{""judgement"":0}","[0]","survey-likert","471","1096348","0.0-471.0","ayhrbqjc","","","","","","","","0"
"1343.6950000000652","{""confidence"":1}","[0]","survey-likert","472","1097692","0.0-472.0","ayhrbqjc","","","","","","","",""
"","","","call-function","473","1097693","0.0-473.0","ayhrbqjc","","","","","","","",""
"null","","","html-keyboard-response","474","1099196","0.0-474.0","ayhrbqjc","","<span style=""color:Black; font-size:50px;"">Agent A","null","","","","",""
"null","","","video-keyboard-response","475","1102304","0.0-475.0","ayhrbqjc","","","null","","Agent A","veridical","STIM_SET_1/1592817.bmp_pp55_L3_V1.0_veridical_freeview_isoFalse.mp4",""
"null","","","html-keyboard-response","476","1103809","0.0-476.0","ayhrbqjc","","<span style=""color:Black; font-size:50px;"">Agent B","null","","","","",""
"null","","","video-keyboard-response","477","1106914","0.0-477.0","ayhrbqjc","","","null","","Agent B","scrambled","STIM_SET_1/1592817.bmp_pp55_L3_V1.0_scrambled_freeview_isoFalse.mp4",""
"","","","call-function","478","1106915","0.0-478.0","ayhrbqjc","","","","","","","",""
"1509.1699999999255","{""judgement"":0}","[0]","survey-likert","479","1108425","0.0-479.0","ayhrbqjc","","","","","","","","0"
"1266.8649999999907","{""confidence"":2}","[0]","survey-likert","480","1109693","0.0-480.0","ayhrbqjc","","","","","","","",""
"","","","call-function","481","1109694","0.0-481.0","ayhrbqjc","","","","","","","",""
"null","","","html-keyboard-response","482","1111196","0.0-482.0","ayhrbqjc","","<span style=""color:Black; font-size:50px;"">Agent A","null","","","","",""
"null","","","video-keyboard-response","483","1114367","0.0-483.0","ayhrbqjc","","","null","","Agent A","scrambled","STIM_SET_1/1159447.bmp_pp70_L2_V1.0_scrambled_freeview_isoFalse.mp4",""
"null","","","html-keyboard-response","484","1115869","0.0-484.0","ayhrbqjc","","<span style=""color:Black; font-size:50px;"">Agent B","null","","","","",""
"null","","","video-keyboard-response","485","1118935","0.0-485.0","ayhrbqjc","","","null","","Agent B","veridical","STIM_SET_1/1159447.bmp_pp70_L2_V1.0_veridical_freeview_isoFalse.mp4",""
"","","","call-function","486","1118936","0.0-486.0","ayhrbqjc","","","","","","","",""
"1814.1399999998976","{""judgement"":1}","[0]","survey-likert","487","1120751","0.0-487.0","ayhrbqjc","","","","","","","","1"
"1276.7600000000093","{""confidence"":3}","[0]","survey-likert","488","1122029","0.0-488.0","ayhrbqjc","","","","","","","",""
"","","","call-function","489","1122029","0.0-489.0","ayhrbqjc","","","","","","","",""
"null","","","html-keyboard-response","490","1123533","0.0-490.0","ayhrbqjc","","<span style=""color:Black; font-size:50px;"">Agent A","null","","","","",""
"null","","","video-keyboard-response","491","1126616","0.0-491.0","ayhrbqjc","","","null","","Agent A","scrambled","STIM_SET_1/1591994.bmp_pp69_L3_V1.0_scrambled_freeview_isoFalse.mp4",""
"null","","","html-keyboard-response","492","1128119","0.0-492.0","ayhrbqjc","","<span style=""color:Black; font-size:50px;"">Agent B","null","","","","",""
"null","","","video-keyboard-response","493","1131196","0.0-493.0","ayhrbqjc","","","null","","Agent B","veridical","STIM_SET_1/1591994.bmp_pp69_L3_V1.0_veridical_freeview_isoFalse.mp4",""
"","","","call-function","494","1131198","0.0-494.0","ayhrbqjc","","","","","","","",""
"1099.8200000000652","{""judgement"":1}","[0]","survey-likert","495","1132299","0.0-495.0","ayhrbqjc","","","","","","","","1"
"2309.570000000065","{""confidence"":3}","[0]","survey-likert","496","1134610","0.0-496.0","ayhrbqjc","","","","","","","",""
"94667.76000000001","","","instructions","497","1229279","0.0-497.0","ayhrbqjc","[{""page_index"":0,""viewing_time"":846.6599999999162},{""page_index"":1,""viewing_time"":93193.875},{""page_index"":2,""viewing_time"":627.0750000001863}]","","","","","","",""
"2217.3700000001118","","","instructions","498","1231497","0.0-498.0","ayhrbqjc","[{""page_index"":0,""viewing_time"":723.1750000000466},{""page_index"":1,""viewing_time"":961.0800000000745},{""page_index"":2,""viewing_time"":533.0049999998882}]","","","","","","",""
"","","","call-function","499","1231498","0.0-499.0","ayhrbqjc","","","","","","","",""
"null","","","html-keyboard-response","500","1232998","0.0-500.0","ayhrbqjc","","<span style=""color:Black; font-size:50px;"">Agent A","null","","","","",""
"null","","","video-keyboard-response","501","1236078","0.0-501.0","ayhrbqjc","","","null","","Agent A","scrambled","STIM_SET_1/498155.bmp_pp61_L2_V1.0_scrambled_freeview_isoFalse.mp4",""
"null","","","html-keyboard-response","502","1237581","0.0-502.0","ayhrbqjc","","<span style=""color:Black; font-size:50px;"">Agent B","null","","","","",""
"null","","","video-keyboard-response","503","1240661","0.0-503.0","ayhrbqjc","","","null","","Agent B","veridical","STIM_SET_1/498155.bmp_pp61_L2_V1.0_veridical_freeview_isoFalse.mp4",""
"","","","call-function","504","1240662","0.0-504.0","ayhrbqjc","","","","","","","",""
"3520.7600000000093","{""judgement"":1}","[0]","survey-likert","505","1244184","0.0-505.0","ayhrbqjc","","","","","","","","1"
"2349.5500000000466","{""confidence"":3}","[0]","survey-likert","506","1246535","0.0-506.0","ayhrbqjc","","","","","","","",""
"","","","call-function","507","1246535","0.0-507.0","ayhrbqjc","","","","","","","",""
"null","","","html-keyboard-response","508","1248041","0.0-508.0","ayhrbqjc","","<span style=""color:Black; font-size:50px;"">Agent A","null","","","","",""
"null","","","video-keyboard-response","509","1251115","0.0-509.0","ayhrbqjc","","","null","","Agent A","veridical","STIM_SET_1/1159515.bmp_pp84_L3_V1.0_veridical_freeview_isoFalse.mp4",""
"null","","","html-keyboard-response","510","1252617","0.0-510.0","ayhrbqjc","","<span style=""color:Black; font-size:50px;"">Agent B","null","","","","",""
"null","","","video-keyboard-response","511","1255688","0.0-511.0","ayhrbqjc","","","null","","Agent B","scrambled","STIM_SET_1/1159515.bmp_pp84_L3_V1.0_scrambled_freeview_isoFalse.mp4",""
"","","","call-function","512","1255688","0.0-512.0","ayhrbqjc","","","","","","","",""
"3567.7299999999814","{""judgement"":0}","[0]","survey-likert","513","1259257","0.0-513.0","ayhrbqjc","","","","","","","","0"
"1799.7949999999255","{""confidence"":1}","[0]","survey-likert","514","1261058","0.0-514.0","ayhrbqjc","","","","","","","",""
"","","","call-function","515","1261059","0.0-515.0","ayhrbqjc","","","","","","","",""
"null","","","html-keyboard-response","516","1262562","0.0-516.0","ayhrbqjc","","<span style=""color:Black; font-size:50px;"">Agent A","null","","","","",""
"null","","","video-keyboard-response","517","1265680","0.0-517.0","ayhrbqjc","","","null","","Agent A","veridical","STIM_SET_1/1159784.bmp_pp73_L3_V1.0_veridical_freeview_isoFalse.mp4",""
"null","","","html-keyboard-response","518","1267182","0.0-518.0","ayhrbqjc","","<span style=""color:Black; font-size:50px;"">Agent B","null","","","","",""
"null","","","video-keyboard-response","519","1270294","0.0-519.0","ayhrbqjc","","","null","","Agent B","scrambled","STIM_SET_1/1159784.bmp_pp73_L3_V1.0_scrambled_freeview_isoFalse.mp4",""
"","","","call-function","520","1270295","0.0-520.0","ayhrbqjc","","","","","","","",""
"1971.1799999999348","{""judgement"":1}","[0]","survey-likert","521","1272267","0.0-521.0","ayhrbqjc","","","","","","","","0"
"1173.780000000028","{""confidence"":2}","[0]","survey-likert","522","1273442","0.0-522.0","ayhrbqjc","","","","","","","",""
"","","","call-function","523","1273443","0.0-523.0","ayhrbqjc","","","","","","","",""
"null","","","html-keyboard-response","524","1274944","0.0-524.0","ayhrbqjc","","<span style=""color:Black; font-size:50px;"">Agent A","null","","","","",""
"null","","","video-keyboard-response","525","1278057","0.0-525.0","ayhrbqjc","","","null","","Agent A","scrambled","STIM_SET_1/713760.bmp_pp81_L1_V1.0_scrambled_freeview_isoFalse.mp4",""
"null","","","html-keyboard-response","526","1279560","0.0-526.0","ayhrbqjc","","<span style=""color:Black; font-size:50px;"">Agent B","null","","","","",""
"null","","","video-keyboard-response","527","1282669","0.0-527.0","ayhrbqjc","","","null","","Agent B","veridical","STIM_SET_1/713760.bmp_pp81_L1_V1.0_veridical_freeview_isoFalse.mp4",""
"","","","call-function","528","1282669","0.0-528.0","ayhrbqjc","","","","","","","",""
"3289.8950000000186","{""judgement"":1}","[0]","survey-likert","529","1285960","0.0-529.0","ayhrbqjc","","","","","","","","1"
"2081.7050000000745","{""confidence"":3}","[0]","survey-likert","530","1288043","0.0-530.0","ayhrbqjc","","","","","","","",""
"","","","call-function","531","1288044","0.0-531.0","ayhrbqjc","","","","","","","",""
"null","","","html-keyboard-response","532","1289546","0.0-532.0","ayhrbqjc","","<span style=""color:Black; font-size:50px;"">Agent A","null","","","","",""
"null","","","video-keyboard-response","533","1292671","0.0-533.0","ayhrbqjc","","","null","","Agent A","veridical","STIM_SET_1/713707.bmp_pp154_L1_V1.0_veridical_freeview_isoFalse.mp4",""
"null","","","html-keyboard-response","534","1294173","0.0-534.0","ayhrbqjc","","<span style=""color:Black; font-size:50px;"">Agent B","null","","","","",""
"null","","","video-keyboard-response","535","1297258","0.0-535.0","ayhrbqjc","","","null","","Agent B","scrambled","STIM_SET_1/713707.bmp_pp154_L1_V1.0_scrambled_freeview_isoFalse.mp4",""
"","","","call-function","536","1297259","0.0-536.0","ayhrbqjc","","","","","","","",""
"1570.7649999998976","{""judgement"":1}","[0]","survey-likert","537","1298832","0.0-537.0","ayhrbqjc","","","","","","","","0"
"3684.0850000001956","{""confidence"":0}","[0]","survey-likert","538","1302518","0.0-538.0","ayhrbqjc","","","","","","","",""
"","","","call-function","539","1302519","0.0-539.0","ayhrbqjc","","","","","","","",""
"null","","","html-keyboard-response","540","1304023","0.0-540.0","ayhrbqjc","","<span style=""color:Black; font-size:50px;"">Agent A","null","","","","",""
"null","","","video-keyboard-response","541","1307092","0.0-541.0","ayhrbqjc","","","null","","Agent A","veridical","STIM_SET_1/713135.bmp_pp54_L2_V1.0_veridical_freeview_isoFalse.mp4",""
"null","","","html-keyboard-response","542","1308594","0.0-542.0","ayhrbqjc","","<span style=""color:Black; font-size:50px;"">Agent B","null","","","","",""
"null","","","video-keyboard-response","543","1311667","0.0-543.0","ayhrbqjc","","","null","","Agent B","scrambled","STIM_SET_1/713135.bmp_pp54_L2_V1.0_scrambled_freeview_isoFalse.mp4",""
"","","","call-function","544","1311668","0.0-544.0","ayhrbqjc","","","","","","","",""
"1656.375","{""judgement"":1}","[0]","survey-likert","545","1313325","0.0-545.0","ayhrbqjc","","","","","","","","0"
"1252.869999999879","{""confidence"":1}","[0]","survey-likert","546","1314581","0.0-546.0","ayhrbqjc","","","","","","","",""
"","","","call-function","547","1314581","0.0-547.0","ayhrbqjc","","","","","","","",""
"null","","","html-keyboard-response","548","1316086","0.0-548.0","ayhrbqjc","","<span style=""color:Black; font-size:50px;"">Agent A","null","","","","",""
"null","","","video-keyboard-response","549","1319162","0.0-549.0","ayhrbqjc","","","null","","Agent A","scrambled","STIM_SET_1/713017.bmp_pp152_L2_V1.0_scrambled_freeview_isoFalse.mp4",""
"null","","","html-keyboard-response","550","1320664","0.0-550.0","ayhrbqjc","","<span style=""color:Black; font-size:50px;"">Agent B","null","","","","",""
"null","","","video-keyboard-response","551","1323740","0.0-551.0","ayhrbqjc","","","null","","Agent B","veridical","STIM_SET_1/713017.bmp_pp152_L2_V1.0_veridical_freeview_isoFalse.mp4",""
"","","","call-function","552","1323741","0.0-552.0","ayhrbqjc","","","","","","","",""
"1743.9650000000838","{""judgement"":1}","[0]","survey-likert","553","1325486","0.0-553.0","ayhrbqjc","","","","","","","","1"
"1515.25","{""confidence"":2}","[0]","survey-likert","554","1327003","0.0-554.0","ayhrbqjc","","","","","","","",""
"","","","call-function","555","1327003","0.0-555.0","ayhrbqjc","","","","","","","",""
"null","","","html-keyboard-response","556","1328508","0.0-556.0","ayhrbqjc","","<span style=""color:Black; font-size:50px;"">Agent A","null","","","","",""
"null","","","video-keyboard-response","557","1331597","0.0-557.0","ayhrbqjc","","","null","","Agent A","scrambled","STIM_SET_1/1593041.bmp_pp58_L1_V1.0_scrambled_freeview_isoFalse.mp4",""
"null","","","html-keyboard-response","558","1333101","0.0-558.0","ayhrbqjc","","<span style=""color:Black; font-size:50px;"">Agent B","null","","","","",""
"null","","","video-keyboard-response","559","1336184","0.0-559.0","ayhrbqjc","","","null","","Agent B","veridical","STIM_SET_1/1593041.bmp_pp58_L1_V1.0_veridical_freeview_isoFalse.mp4",""
"","","","call-function","560","1336185","0.0-560.0","ayhrbqjc","","","","","","","",""
"1730.8000000000466","{""judgement"":1}","[0]","survey-likert","561","1337916","0.0-561.0","ayhrbqjc","","","","","","","","1"
"1537.1149999999907","{""confidence"":3}","[0]","survey-likert","562","1339455","0.0-562.0","ayhrbqjc","","","","","","","",""
"","","","call-function","563","1339456","0.0-563.0","ayhrbqjc","","","","","","","",""
"null","","","html-keyboard-response","564","1340957","0.0-564.0","ayhrbqjc","","<span style=""color:Black; font-size:50px;"">Agent A","null","","","","",""
"null","","","video-keyboard-response","565","1344062","0.0-565.0","ayhrbqjc","","","null","","Agent A","scrambled","STIM_SET_1/713796.bmp_pp84_L3_V1.0_scrambled_freeview_isoFalse.mp4",""
"null","","","html-keyboard-response","566","1345563","0.0-566.0","ayhrbqjc","","<span style=""color:Black; font-size:50px;"">Agent B","null","","","","",""
"null","","","video-keyboard-response","567","1348669","0.0-567.0","ayhrbqjc","","","null","","Agent B","veridical","STIM_SET_1/713796.bmp_pp84_L3_V1.0_veridical_freeview_isoFalse.mp4",""
"","","","call-function","568","1348670","0.0-568.0","ayhrbqjc","","","","","","","",""
"1506.719999999972","{""judgement"":0}","[0]","survey-likert","569","1350177","0.0-569.0","ayhrbqjc","","","","","","","","1"
"992.8600000001024","{""confidence"":0}","[0]","survey-likert","570","1351171","0.0-570.0","ayhrbqjc","","","","","","","",""
"","","","call-function","571","1351172","0.0-571.0","ayhrbqjc","","","","","","","",""
"null","","","html-keyboard-response","572","1352676","0.0-572.0","ayhrbqjc","","<span style=""color:Black; font-size:50px;"">Agent A","null","","","","",""
"null","","","video-keyboard-response","573","1355747","0.0-573.0","ayhrbqjc","","","null","","Agent A","scrambled","STIM_SET_1/498170.bmp_pp153_L3_V1.0_scrambled_freeview_isoFalse.mp4",""
"null","","","html-keyboard-response","574","1357249","0.0-574.0","ayhrbqjc","","<span style=""color:Black; font-size:50px;"">Agent B","null","","","","",""
"null","","","video-keyboard-response","575","1360320","0.0-575.0","ayhrbqjc","","","null","","Agent B","veridical","STIM_SET_1/498170.bmp_pp153_L3_V1.0_veridical_freeview_isoFalse.mp4",""
"","","","call-function","576","1360321","0.0-576.0","ayhrbqjc","","","","","","","",""
"1765.3549999999814","{""judgement"":1}","[0]","survey-likert","577","1362088","0.0-577.0","ayhrbqjc","","","","","","","","1"
"1291.2099999999627","{""confidence"":3}","[0]","survey-likert","578","1363380","0.0-578.0","ayhrbqjc","","","","","","","",""
"16428.88000000012","","","instructions","579","1379810","0.0-579.0","ayhrbqjc","[{""page_index"":0,""viewing_time"":16428.655000000028}]","","","","","","",""
"1987.2100000001956","","","instructions","580","1381798","0.0-580.0","ayhrbqjc","[{""page_index"":0,""viewing_time"":1987.1050000002142}]","","","","","","",""
"4448.719999999972","{""post-1"":1}","[0]","survey-likert","581","1386248","0.0-581.0","ayhrbqjc","","","","","","","",""
"3881.0699999998324","{""post-1"":1}","[0]","survey-likert","582","1390130","0.0-582.0","ayhrbqjc","","","","","","","",""
"7218.170000000158","{""post-2"":0}","[0]","survey-likert","583","1397350","0.0-583.0","ayhrbqjc","","","","","","","",""
"2887.284999999916","{""post-2"":0}","[0]","survey-likert","584","1400240","0.0-584.0","ayhrbqjc","","","","","","","",""
"6540.019999999786","{""post-3"":2}","[0]","survey-likert","585","1406782","0.0-585.0","ayhrbqjc","","","","","","","",""
"3574.5100000000093","{""post-3"":1}","[0]","survey-likert","586","1410358","0.0-586.0","ayhrbqjc","","","","","","","",""
"5144.480000000214","{""post-4"":1}","[0]","survey-likert","587","1415504","0.0-587.0","ayhrbqjc","","","","","","","",""
"2309.725000000093","{""post-4"":0}","[0]","survey-likert","588","1417815","0.0-588.0","ayhrbqjc","","","","","","","",""
"3946.559999999823","{""post-5"":0}","[0]","survey-likert","589","1421763","0.0-589.0","ayhrbqjc","","","","","","","",""
"1541.6499999999069","{""post-5"":1}","[0]","survey-likert","590","1423305","0.0-590.0","ayhrbqjc","","","","","","","",""
"22673.524999999907","{""Q0"":""this is a harder task than it seems\n""}","","survey-text","591","1445985","0.0-591.0","ayhrbqjc","","","","","","","",""
"28838.594999999972","{""Q0"":""i tried looking at where the spots where and figuring out if it made sense ""}","","survey-text","592","1474827","0.0-592.0","ayhrbqjc","","","","","","","",""
"43138.54500000016","{""Q0"":""knowing which one was fake when my attention spots did not match any of the ones shown""}","","survey-text","593","1517969","0.0-593.0","ayhrbqjc","","","","","","","",""
"1511.7450000001118","","","instructions","594","1519482","0.0-594.0","ayhrbqjc","[{""page_index"":0,""viewing_time"":1511.6049999999814}]","","","","","","",""
"84912.97999999998","{""Experimenter_end"":[""Printed ID# ayhrbqjc on consent form"",""Given subject SONA credit or payment"",""Given the subject debrief form""]}","[0]","survey-multi-select","595","1604397","0.0-595.0","ayhrbqjc","","","","","","","",""
