"rt","responses","question_order","trial_type","trial_index","time_elapsed","internal_node_id","ID","view_history","stimulus","key_press","value","agent","condition","image","correct_answer"
"15780.25","{""Experimenter"":[""Confirmed subject's identity (ID card)"",""Confirmed normal or corrected-to-normal vision"",""Obtained consent (signature and date)"",""Checked the test room lighting"",""Checked computer screen lighting"",""Checked distance from screen to chin rest (50cm)"",""Cleaned and adjusted chin rest"",""Counterbalanced the order of the tasks"",""Opened the experiment in Firefox"",""Made the experiment full screen"",""Encouraged subject to silence phone, put away distractors, etc.""]}","[0]","survey-multi-select","0","15788","0.0-0.0","b2ma874j","","","","","","","",""
"17348.995000000003","","","instructions","1","33138","0.0-1.0","b2ma874j","[{""page_index"":0,""viewing_time"":17348.83}]","","","","","","",""
"7615.605000000003","","","instructions","2","40755","0.0-2.0","b2ma874j","[{""page_index"":0,""viewing_time"":2268.480000000003},{""page_index"":1,""viewing_time"":3076.0699999999997},{""page_index"":2,""viewing_time"":2270.9300000000003}]","","","","","","",""
"1848.8199999999997","","","instructions","3","42604","0.0-3.0","b2ma874j","[{""page_index"":0,""viewing_time"":1848.7149999999965}]","","","","","","",""
"null","","","video-keyboard-response","4","45680","0.0-4.0","b2ma874j","","","null","","","","",""
"9445.854999999996","","","instructions","5","55126","0.0-5.0","b2ma874j","[{""page_index"":0,""viewing_time"":2954.5399999999936},{""page_index"":1,""viewing_time"":2503.1100000000006},{""page_index"":2,""viewing_time"":843.0350000000035},{""page_index"":3,""viewing_time"":1449.885000000002},{""page_index"":4,""viewing_time"":1695.1499999999942}]","","","","","","",""
"5916.574999999997","","","instructions","6","61043","0.0-6.0","b2ma874j","[{""page_index"":0,""viewing_time"":5916.449999999997}]","","","","","","",""
"","","","call-function","7","61044","0.0-7.0","b2ma874j","","","","","","","",""
"null","","","html-keyboard-response","8","62549","0.0-8.0","b2ma874j","","<span style=""color:Black; font-size:50px;"">Agent A","null","","","","",""
"null","","","video-keyboard-response","9","65317","0.0-9.0","b2ma874j","","","null","","Agent A","scrambled","FOR_REV_BLOBBY_STIM/1591994.bmp_pp69_L3_V1.0_veridical_freeview_isoFalse_fps144_reversed_REAL.mp4",""
"null","","","html-keyboard-response","10","66818","0.0-10.0","b2ma874j","","<span style=""color:Black; font-size:50px;"">Agent B","null","","","","",""
"null","","","video-keyboard-response","11","69589","0.0-11.0","b2ma874j","","","null","","Agent B","veridical","FOR_REV_BLOBBY_STIM/1591994.bmp_pp69_L3_V1.0_veridical_freeview_isoFalse_fps144.mp4",""
"","","","call-function","12","69589","0.0-12.0","b2ma874j","","","","","","","",""
"7273.244999999995","{""judgement"":0}","[0]","survey-likert","13","76863","0.0-13.0","b2ma874j","","","","","","","","1"
"1670.4149999999936","{""confidence"":2}","[0]","survey-likert","14","78535","0.0-14.0","b2ma874j","","","","","","","",""
"","","","call-function","15","78535","0.0-15.0","b2ma874j","","","","","","","",""
"null","","","html-keyboard-response","16","80040","0.0-16.0","b2ma874j","","<span style=""color:Black; font-size:50px;"">Agent A","null","","","","",""
"null","","","video-keyboard-response","17","82837","0.0-17.0","b2ma874j","","","null","","Agent A","scrambled","FOR_REV_BLOBBY_STIM/1592362.bmp_pp95_L2_V1.0_veridical_freeview_isoFalse_fps144_reversed_REAL.mp4",""
"null","","","html-keyboard-response","18","84338","0.0-18.0","b2ma874j","","<span style=""color:Black; font-size:50px;"">Agent B","null","","","","",""
"null","","","video-keyboard-response","19","87157","0.0-19.0","b2ma874j","","","null","","Agent B","veridical","FOR_REV_BLOBBY_STIM/1592362.bmp_pp95_L2_V1.0_veridical_freeview_isoFalse_fps144.mp4",""
"","","","call-function","20","87158","0.0-20.0","b2ma874j","","","","","","","",""
"1446.699999999997","{""judgement"":1}","[0]","survey-likert","21","88606","0.0-21.0","b2ma874j","","","","","","","","1"
"2063.9249999999884","{""confidence"":2}","[0]","survey-likert","22","90671","0.0-22.0","b2ma874j","","","","","","","",""
"","","","call-function","23","90672","0.0-23.0","b2ma874j","","","","","","","",""
"null","","","html-keyboard-response","24","92176","0.0-24.0","b2ma874j","","<span style=""color:Black; font-size:50px;"">Agent A","null","","","","",""
"null","","","video-keyboard-response","25","95003","0.0-25.0","b2ma874j","","","null","","Agent A","veridical","FOR_REV_BLOBBY_STIM/1159784.bmp_pp73_L3_V1.0_veridical_freeview_isoFalse_fps144.mp4",""
"null","","","html-keyboard-response","26","96504","0.0-26.0","b2ma874j","","<span style=""color:Black; font-size:50px;"">Agent B","null","","","","",""
"null","","","video-keyboard-response","27","99319","0.0-27.0","b2ma874j","","","null","","Agent B","scrambled","FOR_REV_BLOBBY_STIM/1159784.bmp_pp73_L3_V1.0_veridical_freeview_isoFalse_fps144_reversed_REAL.mp4",""
"","","","call-function","28","99320","0.0-28.0","b2ma874j","","","","","","","",""
"2263.8150000000023","{""judgement"":1}","[0]","survey-likert","29","101585","0.0-29.0","b2ma874j","","","","","","","","0"
"1694.4749999999913","{""confidence"":1}","[0]","survey-likert","30","103280","0.0-30.0","b2ma874j","","","","","","","",""
"","","","call-function","31","103280","0.0-31.0","b2ma874j","","","","","","","",""
"null","","","html-keyboard-response","32","104787","0.0-32.0","b2ma874j","","<span style=""color:Black; font-size:50px;"">Agent A","null","","","","",""
"null","","","video-keyboard-response","33","107596","0.0-33.0","b2ma874j","","","null","","Agent A","veridical","FOR_REV_BLOBBY_STIM/1592351.bmp_pp51_L1_V1.0_veridical_freeview_isoFalse_fps144.mp4",""
"null","","","html-keyboard-response","34","109101","0.0-34.0","b2ma874j","","<span style=""color:Black; font-size:50px;"">Agent B","null","","","","",""
"null","","","video-keyboard-response","35","111892","0.0-35.0","b2ma874j","","","null","","Agent B","scrambled","FOR_REV_BLOBBY_STIM/1592351.bmp_pp51_L1_V1.0_veridical_freeview_isoFalse_fps144_reversed_REAL.mp4",""
"","","","call-function","36","111892","0.0-36.0","b2ma874j","","","","","","","",""
"1639.0099999999948","{""judgement"":0}","[0]","survey-likert","37","113532","0.0-37.0","b2ma874j","","","","","","","","0"
"1614.0050000000047","{""confidence"":1}","[0]","survey-likert","38","115147","0.0-38.0","b2ma874j","","","","","","","",""
"","","","call-function","39","115148","0.0-39.0","b2ma874j","","","","","","","",""
"null","","","html-keyboard-response","40","116654","0.0-40.0","b2ma874j","","<span style=""color:Black; font-size:50px;"">Agent A","null","","","","",""
"null","","","video-keyboard-response","41","119408","0.0-41.0","b2ma874j","","","null","","Agent A","veridical","FOR_REV_BLOBBY_STIM/1592619.bmp_pp56_L3_V1.0_veridical_freeview_isoFalse_fps144.mp4",""
"null","","","html-keyboard-response","42","120913","0.0-42.0","b2ma874j","","<span style=""color:Black; font-size:50px;"">Agent B","null","","","","",""
"null","","","video-keyboard-response","43","123667","0.0-43.0","b2ma874j","","","null","","Agent B","scrambled","FOR_REV_BLOBBY_STIM/1592619.bmp_pp56_L3_V1.0_veridical_freeview_isoFalse_fps144_reversed_REAL.mp4",""
"","","","call-function","44","123667","0.0-44.0","b2ma874j","","","","","","","",""
"2352.6500000000087","{""judgement"":0}","[0]","survey-likert","45","126020","0.0-45.0","b2ma874j","","","","","","","","0"
"2027.9599999999919","{""confidence"":2}","[0]","survey-likert","46","128049","0.0-46.0","b2ma874j","","","","","","","",""
"","","","call-function","47","128050","0.0-47.0","b2ma874j","","","","","","","",""
"null","","","html-keyboard-response","48","129551","0.0-48.0","b2ma874j","","<span style=""color:Black; font-size:50px;"">Agent A","null","","","","",""
"null","","","video-keyboard-response","49","132273","0.0-49.0","b2ma874j","","","null","","Agent A","scrambled","FOR_REV_BLOBBY_STIM/285933.bmp_pp81_L1_V1.0_veridical_freeview_isoFalse_fps144_reversed_REAL.mp4",""
"null","","","html-keyboard-response","50","133779","0.0-50.0","b2ma874j","","<span style=""color:Black; font-size:50px;"">Agent B","null","","","","",""
"null","","","video-keyboard-response","51","136502","0.0-51.0","b2ma874j","","","null","","Agent B","veridical","FOR_REV_BLOBBY_STIM/285933.bmp_pp81_L1_V1.0_veridical_freeview_isoFalse_fps144.mp4",""
"","","","call-function","52","136503","0.0-52.0","b2ma874j","","","","","","","",""
"1519.3349999999919","{""judgement"":1}","[0]","survey-likert","53","138024","0.0-53.0","b2ma874j","","","","","","","","1"
"1561.3649999999907","{""confidence"":2}","[0]","survey-likert","54","139587","0.0-54.0","b2ma874j","","","","","","","",""
"","","","call-function","55","139587","0.0-55.0","b2ma874j","","","","","","","",""
"null","","","html-keyboard-response","56","141093","0.0-56.0","b2ma874j","","<span style=""color:Black; font-size:50px;"">Agent A","null","","","","",""
"null","","","video-keyboard-response","57","143926","0.0-57.0","b2ma874j","","","null","","Agent A","veridical","FOR_REV_BLOBBY_STIM/1160127.bmp_pp90_L2_V1.0_veridical_freeview_isoFalse_fps144.mp4",""
"null","","","html-keyboard-response","58","145431","0.0-58.0","b2ma874j","","<span style=""color:Black; font-size:50px;"">Agent B","null","","","","",""
"null","","","video-keyboard-response","59","148265","0.0-59.0","b2ma874j","","","null","","Agent B","scrambled","FOR_REV_BLOBBY_STIM/1160127.bmp_pp90_L2_V1.0_veridical_freeview_isoFalse_fps144_reversed_REAL.mp4",""
"","","","call-function","60","148266","0.0-60.0","b2ma874j","","","","","","","",""
"2299.8000000000175","{""judgement"":0}","[0]","survey-likert","61","150567","0.0-61.0","b2ma874j","","","","","","","","0"
"1047.5249999999942","{""confidence"":2}","[0]","survey-likert","62","151615","0.0-62.0","b2ma874j","","","","","","","",""
"","","","call-function","63","151616","0.0-63.0","b2ma874j","","","","","","","",""
"null","","","html-keyboard-response","64","153120","0.0-64.0","b2ma874j","","<span style=""color:Black; font-size:50px;"">Agent A","null","","","","",""
"null","","","video-keyboard-response","65","155817","0.0-65.0","b2ma874j","","","null","","Agent A","veridical","FOR_REV_BLOBBY_STIM/1592817.bmp_pp55_L3_V1.0_veridical_freeview_isoFalse_fps144.mp4",""
"null","","","html-keyboard-response","66","157320","0.0-66.0","b2ma874j","","<span style=""color:Black; font-size:50px;"">Agent B","null","","","","",""
"null","","","video-keyboard-response","67","160020","0.0-67.0","b2ma874j","","","null","","Agent B","scrambled","FOR_REV_BLOBBY_STIM/1592817.bmp_pp55_L3_V1.0_veridical_freeview_isoFalse_fps144_reversed_REAL.mp4",""
"","","","call-function","68","160020","0.0-68.0","b2ma874j","","","","","","","",""
"1926.3099999999977","{""judgement"":0}","[0]","survey-likert","69","161947","0.0-69.0","b2ma874j","","","","","","","","0"
"1182.2749999999942","{""confidence"":3}","[0]","survey-likert","70","163131","0.0-70.0","b2ma874j","","","","","","","",""
"","","","call-function","71","163131","0.0-71.0","b2ma874j","","","","","","","",""
"null","","","html-keyboard-response","72","164636","0.0-72.0","b2ma874j","","<span style=""color:Black; font-size:50px;"">Agent A","null","","","","",""
"null","","","video-keyboard-response","73","167445","0.0-73.0","b2ma874j","","","null","","Agent A","veridical","FOR_REV_BLOBBY_STIM/1159777.bmp_pp77_L3_V1.0_veridical_freeview_isoFalse_fps144.mp4",""
"null","","","html-keyboard-response","74","168950","0.0-74.0","b2ma874j","","<span style=""color:Black; font-size:50px;"">Agent B","null","","","","",""
"null","","","video-keyboard-response","75","171758","0.0-75.0","b2ma874j","","","null","","Agent B","scrambled","FOR_REV_BLOBBY_STIM/1159777.bmp_pp77_L3_V1.0_veridical_freeview_isoFalse_fps144_reversed_REAL.mp4",""
"","","","call-function","76","171760","0.0-76.0","b2ma874j","","","","","","","",""
"2458.9949999999953","{""judgement"":1}","[0]","survey-likert","77","174219","0.0-77.0","b2ma874j","","","","","","","","0"
"957.4349999999977","{""confidence"":2}","[0]","survey-likert","78","175178","0.0-78.0","b2ma874j","","","","","","","",""
"","","","call-function","79","175178","0.0-79.0","b2ma874j","","","","","","","",""
"null","","","html-keyboard-response","80","176680","0.0-80.0","b2ma874j","","<span style=""color:Black; font-size:50px;"">Agent A","null","","","","",""
"null","","","video-keyboard-response","81","178286","0.0-81.0","b2ma874j","","","null","","Agent A","veridical","FOR_REV_BLOBBY_STIM/713684.bmp_pp85_L3_V1.0_veridical_freeview_isoFalse_fps144.mp4",""
"null","","","html-keyboard-response","82","179790","0.0-82.0","b2ma874j","","<span style=""color:Black; font-size:50px;"">Agent B","null","","","","",""
"null","","","video-keyboard-response","83","181395","0.0-83.0","b2ma874j","","","null","","Agent B","scrambled","FOR_REV_BLOBBY_STIM/713684.bmp_pp85_L3_V1.0_veridical_freeview_isoFalse_fps144_reversed_REAL.mp4",""
"","","","call-function","84","181396","0.0-84.0","b2ma874j","","","","","","","",""
"5308.684999999998","{""judgement"":0}","[0]","survey-likert","85","186705","0.0-85.0","b2ma874j","","","","","","","","0"
"1686.9549999999872","{""confidence"":1}","[0]","survey-likert","86","188393","0.0-86.0","b2ma874j","","","","","","","",""
"3248.4400000000023","","","instructions","87","191642","0.0-87.0","b2ma874j","[{""page_index"":0,""viewing_time"":1813.320000000007},{""page_index"":1,""viewing_time"":804.9750000000058},{""page_index"":2,""viewing_time"":629.9400000000023}]","","","","","","",""
"2768.570000000007","","","instructions","88","194411","0.0-88.0","b2ma874j","[{""page_index"":0,""viewing_time"":688.3699999999953},{""page_index"":1,""viewing_time"":1355.1100000000151},{""page_index"":2,""viewing_time"":724.984999999986}]","","","","","","",""
"","","","call-function","89","194411","0.0-89.0","b2ma874j","","","","","","","",""
"null","","","html-keyboard-response","90","195913","0.0-90.0","b2ma874j","","<span style=""color:Black; font-size:50px;"">Agent A","null","","","","",""
"null","","","video-keyboard-response","91","198663","0.0-91.0","b2ma874j","","","null","","Agent A","veridical","FOR_REV_BLOBBY_STIM/713749.bmp_pp88_L2_V1.0_veridical_freeview_isoFalse_fps144.mp4",""
"null","","","html-keyboard-response","92","200166","0.0-92.0","b2ma874j","","<span style=""color:Black; font-size:50px;"">Agent B","null","","","","",""
"null","","","video-keyboard-response","93","202917","0.0-93.0","b2ma874j","","","null","","Agent B","scrambled","FOR_REV_BLOBBY_STIM/713749.bmp_pp88_L2_V1.0_veridical_freeview_isoFalse_fps144_reversed_REAL.mp4",""
"","","","call-function","94","202917","0.0-94.0","b2ma874j","","","","","","","",""
"2120.2999999999884","{""judgement"":1}","[0]","survey-likert","95","205038","0.0-95.0","b2ma874j","","","","","","","","0"
"1251.5249999999942","{""confidence"":2}","[0]","survey-likert","96","206291","0.0-96.0","b2ma874j","","","","","","","",""
"","","","call-function","97","206291","0.0-97.0","b2ma874j","","","","","","","",""
"null","","","html-keyboard-response","98","207797","0.0-98.0","b2ma874j","","<span style=""color:Black; font-size:50px;"">Agent A","null","","","","",""
"null","","","video-keyboard-response","99","210609","0.0-99.0","b2ma874j","","","null","","Agent A","veridical","FOR_REV_BLOBBY_STIM/1159882.bmp_pp61_L2_V1.0_veridical_freeview_isoFalse_fps144.mp4",""
"null","","","html-keyboard-response","100","212116","0.0-100.0","b2ma874j","","<span style=""color:Black; font-size:50px;"">Agent B","null","","","","",""
"null","","","video-keyboard-response","101","214928","0.0-101.0","b2ma874j","","","null","","Agent B","scrambled","FOR_REV_BLOBBY_STIM/1159882.bmp_pp61_L2_V1.0_veridical_freeview_isoFalse_fps144_reversed_REAL.mp4",""
"","","","call-function","102","214929","0.0-102.0","b2ma874j","","","","","","","",""
"1954.4700000000012","{""judgement"":0}","[0]","survey-likert","103","216884","0.0-103.0","b2ma874j","","","","","","","","0"
"1233.2250000000058","{""confidence"":1}","[0]","survey-likert","104","218118","0.0-104.0","b2ma874j","","","","","","","",""
"","","","call-function","105","218118","0.0-105.0","b2ma874j","","","","","","","",""
"null","","","html-keyboard-response","106","219623","0.0-106.0","b2ma874j","","<span style=""color:Black; font-size:50px;"">Agent A","null","","","","",""
"null","","","video-keyboard-response","107","222345","0.0-107.0","b2ma874j","","","null","","Agent A","veridical","FOR_REV_BLOBBY_STIM/1591954.bmp_pp62_L2_V1.0_veridical_freeview_isoFalse_fps144.mp4",""
"null","","","html-keyboard-response","108","223851","0.0-108.0","b2ma874j","","<span style=""color:Black; font-size:50px;"">Agent B","null","","","","",""
"null","","","video-keyboard-response","109","226574","0.0-109.0","b2ma874j","","","null","","Agent B","scrambled","FOR_REV_BLOBBY_STIM/1591954.bmp_pp62_L2_V1.0_veridical_freeview_isoFalse_fps144_reversed_REAL.mp4",""
"","","","call-function","110","226574","0.0-110.0","b2ma874j","","","","","","","",""
"1489.5350000000035","{""judgement"":0}","[0]","survey-likert","111","228065","0.0-111.0","b2ma874j","","","","","","","","0"
"2576.6750000000175","{""confidence"":0}","[0]","survey-likert","112","230642","0.0-112.0","b2ma874j","","","","","","","",""
"","","","call-function","113","230643","0.0-113.0","b2ma874j","","","","","","","",""
"null","","","html-keyboard-response","114","232146","0.0-114.0","b2ma874j","","<span style=""color:Black; font-size:50px;"">Agent A","null","","","","",""
"null","","","video-keyboard-response","115","234842","0.0-115.0","b2ma874j","","","null","","Agent A","scrambled","FOR_REV_BLOBBY_STIM/713211.bmp_pp100_L3_V1.0_veridical_freeview_isoFalse_fps144_reversed_REAL.mp4",""
"null","","","html-keyboard-response","116","236346","0.0-116.0","b2ma874j","","<span style=""color:Black; font-size:50px;"">Agent B","null","","","","",""
"null","","","video-keyboard-response","117","239031","0.0-117.0","b2ma874j","","","null","","Agent B","veridical","FOR_REV_BLOBBY_STIM/713211.bmp_pp100_L3_V1.0_veridical_freeview_isoFalse_fps144.mp4",""
"","","","call-function","118","239032","0.0-118.0","b2ma874j","","","","","","","",""
"2169.820000000007","{""judgement"":1}","[0]","survey-likert","119","241202","0.0-119.0","b2ma874j","","","","","","","","1"
"1112.1900000000023","{""confidence"":3}","[0]","survey-likert","120","242316","0.0-120.0","b2ma874j","","","","","","","",""
"","","","call-function","121","242316","0.0-121.0","b2ma874j","","","","","","","",""
"null","","","html-keyboard-response","122","243818","0.0-122.0","b2ma874j","","<span style=""color:Black; font-size:50px;"">Agent A","null","","","","",""
"null","","","video-keyboard-response","123","246663","0.0-123.0","b2ma874j","","","null","","Agent A","veridical","FOR_REV_BLOBBY_STIM/713403.bmp_pp80_L3_V1.0_veridical_freeview_isoFalse_fps144.mp4",""
"null","","","html-keyboard-response","124","248167","0.0-124.0","b2ma874j","","<span style=""color:Black; font-size:50px;"">Agent B","null","","","","",""
"null","","","video-keyboard-response","125","251009","0.0-125.0","b2ma874j","","","null","","Agent B","scrambled","FOR_REV_BLOBBY_STIM/713403.bmp_pp80_L3_V1.0_veridical_freeview_isoFalse_fps144_reversed_REAL.mp4",""
"","","","call-function","126","251010","0.0-126.0","b2ma874j","","","","","","","",""
"1539.9650000000256","{""judgement"":0}","[0]","survey-likert","127","252551","0.0-127.0","b2ma874j","","","","","","","","0"
"1893.5","{""confidence"":2}","[0]","survey-likert","128","254446","0.0-128.0","b2ma874j","","","","","","","",""
"","","","call-function","129","254446","0.0-129.0","b2ma874j","","","","","","","",""
"null","","","html-keyboard-response","130","255947","0.0-130.0","b2ma874j","","<span style=""color:Black; font-size:50px;"">Agent A","null","","","","",""
"null","","","video-keyboard-response","131","258760","0.0-131.0","b2ma874j","","","null","","Agent A","scrambled","FOR_REV_BLOBBY_STIM/713620.bmp_pp65_L3_V1.0_veridical_freeview_isoFalse_fps144_reversed_REAL.mp4",""
"null","","","html-keyboard-response","132","260263","0.0-132.0","b2ma874j","","<span style=""color:Black; font-size:50px;"">Agent B","null","","","","",""
"null","","","video-keyboard-response","133","263084","0.0-133.0","b2ma874j","","","null","","Agent B","veridical","FOR_REV_BLOBBY_STIM/713620.bmp_pp65_L3_V1.0_veridical_freeview_isoFalse_fps144.mp4",""
"","","","call-function","134","263085","0.0-134.0","b2ma874j","","","","","","","",""
"2376.5100000000093","{""judgement"":0}","[0]","survey-likert","135","265463","0.0-135.0","b2ma874j","","","","","","","","1"
"1163.884999999951","{""confidence"":0}","[0]","survey-likert","136","266629","0.0-136.0","b2ma874j","","","","","","","",""
"","","","call-function","137","266629","0.0-137.0","b2ma874j","","","","","","","",""
"null","","","html-keyboard-response","138","268131","0.0-138.0","b2ma874j","","<span style=""color:Black; font-size:50px;"">Agent A","null","","","","",""
"null","","","video-keyboard-response","139","270637","0.0-139.0","b2ma874j","","","null","","Agent A","scrambled","FOR_REV_BLOBBY_STIM/713513.bmp_pp62_L2_V1.0_veridical_freeview_isoFalse_fps144_reversed_REAL.mp4",""
"null","","","html-keyboard-response","140","272142","0.0-140.0","b2ma874j","","<span style=""color:Black; font-size:50px;"">Agent B","null","","","","",""
"null","","","video-keyboard-response","141","274648","0.0-141.0","b2ma874j","","","null","","Agent B","veridical","FOR_REV_BLOBBY_STIM/713513.bmp_pp62_L2_V1.0_veridical_freeview_isoFalse_fps144.mp4",""
"","","","call-function","142","274649","0.0-142.0","b2ma874j","","","","","","","",""
"2364.9249999999884","{""judgement"":0}","[0]","survey-likert","143","277015","0.0-143.0","b2ma874j","","","","","","","","1"
"2826.3850000000093","{""confidence"":1}","[0]","survey-likert","144","279843","0.0-144.0","b2ma874j","","","","","","","",""
"","","","call-function","145","279843","0.0-145.0","b2ma874j","","","","","","","",""
"null","","","html-keyboard-response","146","281349","0.0-146.0","b2ma874j","","<span style=""color:Black; font-size:50px;"">Agent A","null","","","","",""
"null","","","video-keyboard-response","147","284119","0.0-147.0","b2ma874j","","","null","","Agent A","scrambled","FOR_REV_BLOBBY_STIM/713135.bmp_pp54_L2_V1.0_veridical_freeview_isoFalse_fps144_reversed_REAL.mp4",""
"null","","","html-keyboard-response","148","285623","0.0-148.0","b2ma874j","","<span style=""color:Black; font-size:50px;"">Agent B","null","","","","",""
"null","","","video-keyboard-response","149","288399","0.0-149.0","b2ma874j","","","null","","Agent B","veridical","FOR_REV_BLOBBY_STIM/713135.bmp_pp54_L2_V1.0_veridical_freeview_isoFalse_fps144.mp4",""
"","","","call-function","150","288400","0.0-150.0","b2ma874j","","","","","","","",""
"2634.6549999999697","{""judgement"":1}","[0]","survey-likert","151","291035","0.0-151.0","b2ma874j","","","","","","","","1"
"1333.2399999999907","{""confidence"":2}","[0]","survey-likert","152","292370","0.0-152.0","b2ma874j","","","","","","","",""
"","","","call-function","153","292370","0.0-153.0","b2ma874j","","","","","","","",""
"null","","","html-keyboard-response","154","293872","0.0-154.0","b2ma874j","","<span style=""color:Black; font-size:50px;"">Agent A","null","","","","",""
"null","","","video-keyboard-response","155","296551","0.0-155.0","b2ma874j","","","null","","Agent A","scrambled","FOR_REV_BLOBBY_STIM/1592372.bmp_pp76_L1_V1.0_veridical_freeview_isoFalse_fps144_reversed_REAL.mp4",""
"null","","","html-keyboard-response","156","298056","0.0-156.0","b2ma874j","","<span style=""color:Black; font-size:50px;"">Agent B","null","","","","",""
"null","","","video-keyboard-response","157","300784","0.0-157.0","b2ma874j","","","null","","Agent B","veridical","FOR_REV_BLOBBY_STIM/1592372.bmp_pp76_L1_V1.0_veridical_freeview_isoFalse_fps144.mp4",""
"","","","call-function","158","300784","0.0-158.0","b2ma874j","","","","","","","",""
"2094.390000000014","{""judgement"":1}","[0]","survey-likert","159","302880","0.0-159.0","b2ma874j","","","","","","","","1"
"1617.320000000007","{""confidence"":1}","[0]","survey-likert","160","304498","0.0-160.0","b2ma874j","","","","","","","",""
"","","","call-function","161","304499","0.0-161.0","b2ma874j","","","","","","","",""
"null","","","html-keyboard-response","162","306006","0.0-162.0","b2ma874j","","<span style=""color:Black; font-size:50px;"">Agent A","null","","","","",""
"null","","","video-keyboard-response","163","308786","0.0-163.0","b2ma874j","","","null","","Agent A","veridical","FOR_REV_BLOBBY_STIM/1592804.bmp_pp91_L3_V1.0_veridical_freeview_isoFalse_fps144.mp4",""
"null","","","html-keyboard-response","164","310290","0.0-164.0","b2ma874j","","<span style=""color:Black; font-size:50px;"">Agent B","null","","","","",""
"null","","","video-keyboard-response","165","313073","0.0-165.0","b2ma874j","","","null","","Agent B","scrambled","FOR_REV_BLOBBY_STIM/1592804.bmp_pp91_L3_V1.0_veridical_freeview_isoFalse_fps144_reversed_REAL.mp4",""
"","","","call-function","166","313074","0.0-166.0","b2ma874j","","","","","","","",""
"2229.1599999999744","{""judgement"":0}","[0]","survey-likert","167","315304","0.0-167.0","b2ma874j","","","","","","","","0"
"1886.125","{""confidence"":1}","[0]","survey-likert","168","317191","0.0-168.0","b2ma874j","","","","","","","",""
"4666.315000000002","","","instructions","169","321857","0.0-169.0","b2ma874j","[{""page_index"":0,""viewing_time"":2458.9349999999977},{""page_index"":1,""viewing_time"":1090.1350000000093},{""page_index"":2,""viewing_time"":1116.9749999999767}]","","","","","","",""
"18251.869999999995","","","instructions","170","340110","0.0-170.0","b2ma874j","[{""page_index"":0,""viewing_time"":12399.365000000049},{""page_index"":1,""viewing_time"":1620.0599999999977},{""page_index"":2,""viewing_time"":4232.334999999963}]","","","","","","",""
"","","","call-function","171","340110","0.0-171.0","b2ma874j","","","","","","","",""
"null","","","html-keyboard-response","172","341617","0.0-172.0","b2ma874j","","<span style=""color:Black; font-size:50px;"">Agent A","null","","","","",""
"null","","","video-keyboard-response","173","344414","0.0-173.0","b2ma874j","","","null","","Agent A","veridical","FOR_REV_BLOBBY_STIM/713666.bmp_pp97_L3_V1.0_veridical_freeview_isoFalse_fps144.mp4",""
"null","","","html-keyboard-response","174","345919","0.0-174.0","b2ma874j","","<span style=""color:Black; font-size:50px;"">Agent B","null","","","","",""
"null","","","video-keyboard-response","175","348719","0.0-175.0","b2ma874j","","","null","","Agent B","scrambled","FOR_REV_BLOBBY_STIM/713666.bmp_pp97_L3_V1.0_veridical_freeview_isoFalse_fps144_reversed_REAL.mp4",""
"","","","call-function","176","348719","0.0-176.0","b2ma874j","","","","","","","",""
"3732","{""judgement"":0}","[0]","survey-likert","177","352452","0.0-177.0","b2ma874j","","","","","","","","0"
"2593.2649999999558","{""confidence"":1}","[0]","survey-likert","178","355046","0.0-178.0","b2ma874j","","","","","","","",""
"","","","call-function","179","355047","0.0-179.0","b2ma874j","","","","","","","",""
"null","","","html-keyboard-response","180","356550","0.0-180.0","b2ma874j","","<span style=""color:Black; font-size:50px;"">Agent A","null","","","","",""
"null","","","video-keyboard-response","181","359078","0.0-181.0","b2ma874j","","","null","","Agent A","veridical","FOR_REV_BLOBBY_STIM/1591876.bmp_pp63_L1_V1.0_veridical_freeview_isoFalse_fps144.mp4",""
"null","","","html-keyboard-response","182","360580","0.0-182.0","b2ma874j","","<span style=""color:Black; font-size:50px;"">Agent B","null","","","","",""
"null","","","video-keyboard-response","183","363108","0.0-183.0","b2ma874j","","","null","","Agent B","scrambled","FOR_REV_BLOBBY_STIM/1591876.bmp_pp63_L1_V1.0_veridical_freeview_isoFalse_fps144_reversed_REAL.mp4",""
"","","","call-function","184","363109","0.0-184.0","b2ma874j","","","","","","","",""
"2498.6699999999837","{""judgement"":0}","[0]","survey-likert","185","365608","0.0-185.0","b2ma874j","","","","","","","","0"
"1627.210000000021","{""confidence"":1}","[0]","survey-likert","186","367236","0.0-186.0","b2ma874j","","","","","","","",""
"","","","call-function","187","367237","0.0-187.0","b2ma874j","","","","","","","",""
"null","","","html-keyboard-response","188","368739","0.0-188.0","b2ma874j","","<span style=""color:Black; font-size:50px;"">Agent A","null","","","","",""
"null","","","video-keyboard-response","189","371615","0.0-189.0","b2ma874j","","","null","","Agent A","veridical","FOR_REV_BLOBBY_STIM/1159572.bmp_pp71_L1_V1.0_veridical_freeview_isoFalse_fps144.mp4",""
"null","","","html-keyboard-response","190","373118","0.0-190.0","b2ma874j","","<span style=""color:Black; font-size:50px;"">Agent B","null","","","","",""
"null","","","video-keyboard-response","191","375991","0.0-191.0","b2ma874j","","","null","","Agent B","scrambled","FOR_REV_BLOBBY_STIM/1159572.bmp_pp71_L1_V1.0_veridical_freeview_isoFalse_fps144_reversed_REAL.mp4",""
"","","","call-function","192","375991","0.0-192.0","b2ma874j","","","","","","","",""
"2044.9349999999977","{""judgement"":0}","[0]","survey-likert","193","378037","0.0-193.0","b2ma874j","","","","","","","","0"
"1441.1900000000023","{""confidence"":2}","[0]","survey-likert","194","379479","0.0-194.0","b2ma874j","","","","","","","",""
"","","","call-function","195","379479","0.0-195.0","b2ma874j","","","","","","","",""
"null","","","html-keyboard-response","196","380984","0.0-196.0","b2ma874j","","<span style=""color:Black; font-size:50px;"">Agent A","null","","","","",""
"null","","","video-keyboard-response","197","383624","0.0-197.0","b2ma874j","","","null","","Agent A","veridical","FOR_REV_BLOBBY_STIM/713779.bmp_pp152_L2_V1.0_veridical_freeview_isoFalse_fps144.mp4",""
"null","","","html-keyboard-response","198","385128","0.0-198.0","b2ma874j","","<span style=""color:Black; font-size:50px;"">Agent B","null","","","","",""
"null","","","video-keyboard-response","199","387764","0.0-199.0","b2ma874j","","","null","","Agent B","scrambled","FOR_REV_BLOBBY_STIM/713779.bmp_pp152_L2_V1.0_veridical_freeview_isoFalse_fps144_reversed_REAL.mp4",""
"","","","call-function","200","387765","0.0-200.0","b2ma874j","","","","","","","",""
"1911.9049999999697","{""judgement"":1}","[0]","survey-likert","201","389677","0.0-201.0","b2ma874j","","","","","","","","0"
"1132.375","{""confidence"":1}","[0]","survey-likert","202","390811","0.0-202.0","b2ma874j","","","","","","","",""
"","","","call-function","203","390811","0.0-203.0","b2ma874j","","","","","","","",""
"null","","","html-keyboard-response","204","392316","0.0-204.0","b2ma874j","","<span style=""color:Black; font-size:50px;"">Agent A","null","","","","",""
"null","","","video-keyboard-response","205","395158","0.0-205.0","b2ma874j","","","null","","Agent A","scrambled","FOR_REV_BLOBBY_STIM/1592657.bmp_pp98_L1_V1.0_veridical_freeview_isoFalse_fps144_reversed_REAL.mp4",""
"null","","","html-keyboard-response","206","396660","0.0-206.0","b2ma874j","","<span style=""color:Black; font-size:50px;"">Agent B","null","","","","",""
"null","","","video-keyboard-response","207","399498","0.0-207.0","b2ma874j","","","null","","Agent B","veridical","FOR_REV_BLOBBY_STIM/1592657.bmp_pp98_L1_V1.0_veridical_freeview_isoFalse_fps144.mp4",""
"","","","call-function","208","399499","0.0-208.0","b2ma874j","","","","","","","",""
"1366.375","{""judgement"":1}","[0]","survey-likert","209","400867","0.0-209.0","b2ma874j","","","","","","","","1"
"1219.1300000000047","{""confidence"":1}","[0]","survey-likert","210","402087","0.0-210.0","b2ma874j","","","","","","","",""
"","","","call-function","211","402088","0.0-211.0","b2ma874j","","","","","","","",""
"null","","","html-keyboard-response","212","403589","0.0-212.0","b2ma874j","","<span style=""color:Black; font-size:50px;"">Agent A","null","","","","",""
"null","","","video-keyboard-response","213","406389","0.0-213.0","b2ma874j","","","null","","Agent A","veridical","FOR_REV_BLOBBY_STIM/498175.bmp_pp154_L1_V1.0_veridical_freeview_isoFalse_fps144.mp4",""
"null","","","html-keyboard-response","214","407892","0.0-214.0","b2ma874j","","<span style=""color:Black; font-size:50px;"">Agent B","null","","","","",""
"null","","","video-keyboard-response","215","410689","0.0-215.0","b2ma874j","","","null","","Agent B","scrambled","FOR_REV_BLOBBY_STIM/498175.bmp_pp154_L1_V1.0_veridical_freeview_isoFalse_fps144_reversed_REAL.mp4",""
"","","","call-function","216","410689","0.0-216.0","b2ma874j","","","","","","","",""
"3490.585000000021","{""judgement"":0}","[0]","survey-likert","217","414181","0.0-217.0","b2ma874j","","","","","","","","0"
"1678.365000000049","{""confidence"":3}","[0]","survey-likert","218","415861","0.0-218.0","b2ma874j","","","","","","","",""
"","","","call-function","219","415861","0.0-219.0","b2ma874j","","","","","","","",""
"null","","","html-keyboard-response","220","417363","0.0-220.0","b2ma874j","","<span style=""color:Black; font-size:50px;"">Agent A","null","","","","",""
"null","","","video-keyboard-response","221","420058","0.0-221.0","b2ma874j","","","null","","Agent A","veridical","FOR_REV_BLOBBY_STIM/1592934.bmp_pp63_L1_V1.0_veridical_freeview_isoFalse_fps144.mp4",""
"null","","","html-keyboard-response","222","421560","0.0-222.0","b2ma874j","","<span style=""color:Black; font-size:50px;"">Agent B","null","","","","",""
"null","","","video-keyboard-response","223","424252","0.0-223.0","b2ma874j","","","null","","Agent B","scrambled","FOR_REV_BLOBBY_STIM/1592934.bmp_pp63_L1_V1.0_veridical_freeview_isoFalse_fps144_reversed_REAL.mp4",""
"","","","call-function","224","424253","0.0-224.0","b2ma874j","","","","","","","",""
"1892.9249999999884","{""judgement"":0}","[0]","survey-likert","225","426146","0.0-225.0","b2ma874j","","","","","","","","0"
"1176.6500000000233","{""confidence"":2}","[0]","survey-likert","226","427324","0.0-226.0","b2ma874j","","","","","","","",""
"","","","call-function","227","427325","0.0-227.0","b2ma874j","","","","","","","",""
"null","","","html-keyboard-response","228","428828","0.0-228.0","b2ma874j","","<span style=""color:Black; font-size:50px;"">Agent A","null","","","","",""
"null","","","video-keyboard-response","229","431692","0.0-229.0","b2ma874j","","","null","","Agent A","scrambled","FOR_REV_BLOBBY_STIM/498253.bmp_pp67_L2_V1.0_veridical_freeview_isoFalse_fps144_reversed_REAL.mp4",""
"null","","","html-keyboard-response","230","433196","0.0-230.0","b2ma874j","","<span style=""color:Black; font-size:50px;"">Agent B","null","","","","",""
"null","","","video-keyboard-response","231","436052","0.0-231.0","b2ma874j","","","null","","Agent B","veridical","FOR_REV_BLOBBY_STIM/498253.bmp_pp67_L2_V1.0_veridical_freeview_isoFalse_fps144.mp4",""
"","","","call-function","232","436052","0.0-232.0","b2ma874j","","","","","","","",""
"1640.5350000000326","{""judgement"":1}","[0]","survey-likert","233","437694","0.0-233.0","b2ma874j","","","","","","","","1"
"1932.2999999999884","{""confidence"":2}","[0]","survey-likert","234","439627","0.0-234.0","b2ma874j","","","","","","","",""
"","","","call-function","235","439628","0.0-235.0","b2ma874j","","","","","","","",""
"null","","","html-keyboard-response","236","441132","0.0-236.0","b2ma874j","","<span style=""color:Black; font-size:50px;"">Agent A","null","","","","",""
"null","","","video-keyboard-response","237","443687","0.0-237.0","b2ma874j","","","null","","Agent A","scrambled","FOR_REV_BLOBBY_STIM/1159515.bmp_pp84_L3_V1.0_veridical_freeview_isoFalse_fps144_reversed_REAL.mp4",""
"null","","","html-keyboard-response","238","445188","0.0-238.0","b2ma874j","","<span style=""color:Black; font-size:50px;"">Agent B","null","","","","",""
"null","","","video-keyboard-response","239","447740","0.0-239.0","b2ma874j","","","null","","Agent B","veridical","FOR_REV_BLOBBY_STIM/1159515.bmp_pp84_L3_V1.0_veridical_freeview_isoFalse_fps144.mp4",""
"","","","call-function","240","447741","0.0-240.0","b2ma874j","","","","","","","",""
"3171.774999999965","{""judgement"":0}","[0]","survey-likert","241","450913","0.0-241.0","b2ma874j","","","","","","","","1"
"3589.6300000000047","{""confidence"":1}","[0]","survey-likert","242","454504","0.0-242.0","b2ma874j","","","","","","","",""
"","","","call-function","243","454505","0.0-243.0","b2ma874j","","","","","","","",""
"null","","","html-keyboard-response","244","456006","0.0-244.0","b2ma874j","","<span style=""color:Black; font-size:50px;"">Agent A","null","","","","",""
"null","","","video-keyboard-response","245","458639","0.0-245.0","b2ma874j","","","null","","Agent A","veridical","FOR_REV_BLOBBY_STIM/61537.bmp_pp73_L3_V1.0_veridical_freeview_isoFalse_fps144.mp4",""
"null","","","html-keyboard-response","246","460145","0.0-246.0","b2ma874j","","<span style=""color:Black; font-size:50px;"">Agent B","null","","","","",""
"null","","","video-keyboard-response","247","462779","0.0-247.0","b2ma874j","","","null","","Agent B","scrambled","FOR_REV_BLOBBY_STIM/61537.bmp_pp73_L3_V1.0_veridical_freeview_isoFalse_fps144_reversed_REAL.mp4",""
"","","","call-function","248","462780","0.0-248.0","b2ma874j","","","","","","","",""
"1524.4899999999907","{""judgement"":0}","[0]","survey-likert","249","464305","0.0-249.0","b2ma874j","","","","","","","","0"
"1414.5800000000163","{""confidence"":2}","[0]","survey-likert","250","465721","0.0-250.0","b2ma874j","","","","","","","",""
"56011.225000000035","","","instructions","251","521733","0.0-251.0","b2ma874j","[{""page_index"":0,""viewing_time"":2056.9250000000466},{""page_index"":1,""viewing_time"":730.179999999993},{""page_index"":2,""viewing_time"":53223.919999999984}]","","","","","","",""
"2667.524999999965","","","instructions","252","524401","0.0-252.0","b2ma874j","[{""page_index"":0,""viewing_time"":1083.329999999958},{""page_index"":1,""viewing_time"":981.1150000000489},{""page_index"":2,""viewing_time"":602.8800000000047}]","","","","","","",""
"","","","call-function","253","524401","0.0-253.0","b2ma874j","","","","","","","",""
"null","","","html-keyboard-response","254","525903","0.0-254.0","b2ma874j","","<span style=""color:Black; font-size:50px;"">Agent A","null","","","","",""
"null","","","video-keyboard-response","255","528484","0.0-255.0","b2ma874j","","","null","","Agent A","veridical","FOR_REV_BLOBBY_STIM/1593146.bmp_pp93_L1_V1.0_veridical_freeview_isoFalse_fps144.mp4",""
"null","","","html-keyboard-response","256","529987","0.0-256.0","b2ma874j","","<span style=""color:Black; font-size:50px;"">Agent B","null","","","","",""
"null","","","video-keyboard-response","257","532568","0.0-257.0","b2ma874j","","","null","","Agent B","scrambled","FOR_REV_BLOBBY_STIM/1593146.bmp_pp93_L1_V1.0_veridical_freeview_isoFalse_fps144_reversed_REAL.mp4",""
"","","","call-function","258","532569","0.0-258.0","b2ma874j","","","","","","","",""
"2347.719999999972","{""judgement"":1}","[0]","survey-likert","259","534917","0.0-259.0","b2ma874j","","","","","","","","0"
"2087.1900000000605","{""confidence"":2}","[0]","survey-likert","260","537006","0.0-260.0","b2ma874j","","","","","","","",""
"","","","call-function","261","537006","0.0-261.0","b2ma874j","","","","","","","",""
"null","","","html-keyboard-response","262","538509","0.0-262.0","b2ma874j","","<span style=""color:Black; font-size:50px;"">Agent A","null","","","","",""
"null","","","video-keyboard-response","263","541327","0.0-263.0","b2ma874j","","","null","","Agent A","scrambled","FOR_REV_BLOBBY_STIM/1592286.bmp_pp52_L1_V1.0_veridical_freeview_isoFalse_fps144_reversed_REAL.mp4",""
"null","","","html-keyboard-response","264","542829","0.0-264.0","b2ma874j","","<span style=""color:Black; font-size:50px;"">Agent B","null","","","","",""
"null","","","video-keyboard-response","265","545646","0.0-265.0","b2ma874j","","","null","","Agent B","veridical","FOR_REV_BLOBBY_STIM/1592286.bmp_pp52_L1_V1.0_veridical_freeview_isoFalse_fps144.mp4",""
"","","","call-function","266","545646","0.0-266.0","b2ma874j","","","","","","","",""
"1515.2999999999302","{""judgement"":1}","[0]","survey-likert","267","547163","0.0-267.0","b2ma874j","","","","","","","","1"
"1271.25","{""confidence"":2}","[0]","survey-likert","268","548435","0.0-268.0","b2ma874j","","","","","","","",""
"","","","call-function","269","548435","0.0-269.0","b2ma874j","","","","","","","",""
"null","","","html-keyboard-response","270","549936","0.0-270.0","b2ma874j","","<span style=""color:Black; font-size:50px;"">Agent A","null","","","","",""
"null","","","video-keyboard-response","271","552597","0.0-271.0","b2ma874j","","","null","","Agent A","veridical","FOR_REV_BLOBBY_STIM/713707.bmp_pp154_L1_V1.0_veridical_freeview_isoFalse_fps144.mp4",""
"null","","","html-keyboard-response","272","554100","0.0-272.0","b2ma874j","","<span style=""color:Black; font-size:50px;"">Agent B","null","","","","",""
"null","","","video-keyboard-response","273","556722","0.0-273.0","b2ma874j","","","null","","Agent B","scrambled","FOR_REV_BLOBBY_STIM/713707.bmp_pp154_L1_V1.0_veridical_freeview_isoFalse_fps144_reversed_REAL.mp4",""
"","","","call-function","274","556723","0.0-274.0","b2ma874j","","","","","","","",""
"1944.3649999999907","{""judgement"":1}","[0]","survey-likert","275","558669","0.0-275.0","b2ma874j","","","","","","","","0"
"1171.015000000014","{""confidence"":2}","[0]","survey-likert","276","559841","0.0-276.0","b2ma874j","","","","","","","",""
"","","","call-function","277","559842","0.0-277.0","b2ma874j","","","","","","","",""
"null","","","html-keyboard-response","278","561345","0.0-278.0","b2ma874j","","<span style=""color:Black; font-size:50px;"">Agent A","null","","","","",""
"null","","","video-keyboard-response","279","564013","0.0-279.0","b2ma874j","","","null","","Agent A","veridical","FOR_REV_BLOBBY_STIM/1592133.bmp_pp75_L1_V1.0_veridical_freeview_isoFalse_fps144.mp4",""
"null","","","html-keyboard-response","280","565515","0.0-280.0","b2ma874j","","<span style=""color:Black; font-size:50px;"">Agent B","null","","","","",""
"null","","","video-keyboard-response","281","568180","0.0-281.0","b2ma874j","","","null","","Agent B","scrambled","FOR_REV_BLOBBY_STIM/1592133.bmp_pp75_L1_V1.0_veridical_freeview_isoFalse_fps144_reversed_REAL.mp4",""
"","","","call-function","282","568180","0.0-282.0","b2ma874j","","","","","","","",""
"3932.935000000056","{""judgement"":0}","[0]","survey-likert","283","572114","0.0-283.0","b2ma874j","","","","","","","","0"
"1067.0950000000885","{""confidence"":1}","[0]","survey-likert","284","573183","0.0-284.0","b2ma874j","","","","","","","",""
"","","","call-function","285","573183","0.0-285.0","b2ma874j","","","","","","","",""
"null","","","html-keyboard-response","286","574685","0.0-286.0","b2ma874j","","<span style=""color:Black; font-size:50px;"">Agent A","null","","","","",""
"null","","","video-keyboard-response","287","577453","0.0-287.0","b2ma874j","","","null","","Agent A","veridical","FOR_REV_BLOBBY_STIM/1592890.bmp_pp82_L2_V1.0_veridical_freeview_isoFalse_fps144.mp4",""
"null","","","html-keyboard-response","288","578954","0.0-288.0","b2ma874j","","<span style=""color:Black; font-size:50px;"">Agent B","null","","","","",""
"null","","","video-keyboard-response","289","581727","0.0-289.0","b2ma874j","","","null","","Agent B","scrambled","FOR_REV_BLOBBY_STIM/1592890.bmp_pp82_L2_V1.0_veridical_freeview_isoFalse_fps144_reversed_REAL.mp4",""
"","","","call-function","290","581727","0.0-290.0","b2ma874j","","","","","","","",""
"3540.7449999999953","{""judgement"":0}","[0]","survey-likert","291","585269","0.0-291.0","b2ma874j","","","","","","","","0"
"1362.829999999958","{""confidence"":1}","[0]","survey-likert","292","586633","0.0-292.0","b2ma874j","","","","","","","",""
"","","","call-function","293","586633","0.0-293.0","b2ma874j","","","","","","","",""
"null","","","html-keyboard-response","294","588137","0.0-294.0","b2ma874j","","<span style=""color:Black; font-size:50px;"">Agent A","null","","","","",""
"null","","","video-keyboard-response","295","590831","0.0-295.0","b2ma874j","","","null","","Agent A","scrambled","FOR_REV_BLOBBY_STIM/1592727.bmp_pp59_L3_V1.0_veridical_freeview_isoFalse_fps144_reversed_REAL.mp4",""
"null","","","html-keyboard-response","296","592333","0.0-296.0","b2ma874j","","<span style=""color:Black; font-size:50px;"">Agent B","null","","","","",""
"null","","","video-keyboard-response","297","595027","0.0-297.0","b2ma874j","","","null","","Agent B","veridical","FOR_REV_BLOBBY_STIM/1592727.bmp_pp59_L3_V1.0_veridical_freeview_isoFalse_fps144.mp4",""
"","","","call-function","298","595028","0.0-298.0","b2ma874j","","","","","","","",""
"1294.5849999999627","{""judgement"":0}","[0]","survey-likert","299","596323","0.0-299.0","b2ma874j","","","","","","","","1"
"884.7849999999162","{""confidence"":1}","[0]","survey-likert","300","597209","0.0-300.0","b2ma874j","","","","","","","",""
"","","","call-function","301","597209","0.0-301.0","b2ma874j","","","","","","","",""
"null","","","html-keyboard-response","302","598713","0.0-302.0","b2ma874j","","<span style=""color:Black; font-size:50px;"">Agent A","null","","","","",""
"null","","","video-keyboard-response","303","601511","0.0-303.0","b2ma874j","","","null","","Agent A","scrambled","FOR_REV_BLOBBY_STIM/1159855.bmp_pp99_L2_V1.0_veridical_freeview_isoFalse_fps144_reversed_REAL.mp4",""
"null","","","html-keyboard-response","304","603015","0.0-304.0","b2ma874j","","<span style=""color:Black; font-size:50px;"">Agent B","null","","","","",""
"null","","","video-keyboard-response","305","605810","0.0-305.0","b2ma874j","","","null","","Agent B","veridical","FOR_REV_BLOBBY_STIM/1159855.bmp_pp99_L2_V1.0_veridical_freeview_isoFalse_fps144.mp4",""
"","","","call-function","306","605810","0.0-306.0","b2ma874j","","","","","","","",""
"1690.8199999999488","{""judgement"":0}","[0]","survey-likert","307","607502","0.0-307.0","b2ma874j","","","","","","","","1"
"1419.579999999958","{""confidence"":2}","[0]","survey-likert","308","608923","0.0-308.0","b2ma874j","","","","","","","",""
"","","","call-function","309","608923","0.0-309.0","b2ma874j","","","","","","","",""
"null","","","html-keyboard-response","310","610430","0.0-310.0","b2ma874j","","<span style=""color:Black; font-size:50px;"">Agent A","null","","","","",""
"null","","","video-keyboard-response","311","613188","0.0-311.0","b2ma874j","","","null","","Agent A","scrambled","FOR_REV_BLOBBY_STIM/1592581.bmp_pp100_L3_V1.0_veridical_freeview_isoFalse_fps144_reversed_REAL.mp4",""
"null","","","html-keyboard-response","312","614690","0.0-312.0","b2ma874j","","<span style=""color:Black; font-size:50px;"">Agent B","null","","","","",""
"null","","","video-keyboard-response","313","617449","0.0-313.0","b2ma874j","","","null","","Agent B","veridical","FOR_REV_BLOBBY_STIM/1592581.bmp_pp100_L3_V1.0_veridical_freeview_isoFalse_fps144.mp4",""
"","","","call-function","314","617450","0.0-314.0","b2ma874j","","","","","","","",""
"1439.4099999999162","{""judgement"":1}","[0]","survey-likert","315","618890","0.0-315.0","b2ma874j","","","","","","","","1"
"1603.4150000000373","{""confidence"":1}","[0]","survey-likert","316","620494","0.0-316.0","b2ma874j","","","","","","","",""
"","","","call-function","317","620495","0.0-317.0","b2ma874j","","","","","","","",""
"null","","","html-keyboard-response","318","621999","0.0-318.0","b2ma874j","","<span style=""color:Black; font-size:50px;"">Agent A","null","","","","",""
"null","","","video-keyboard-response","319","624564","0.0-319.0","b2ma874j","","","null","","Agent A","scrambled","FOR_REV_BLOBBY_STIM/713760.bmp_pp81_L1_V1.0_veridical_freeview_isoFalse_fps144_reversed_REAL.mp4",""
"null","","","html-keyboard-response","320","626066","0.0-320.0","b2ma874j","","<span style=""color:Black; font-size:50px;"">Agent B","null","","","","",""
"null","","","video-keyboard-response","321","628606","0.0-321.0","b2ma874j","","","null","","Agent B","veridical","FOR_REV_BLOBBY_STIM/713760.bmp_pp81_L1_V1.0_veridical_freeview_isoFalse_fps144.mp4",""
"","","","call-function","322","628606","0.0-322.0","b2ma874j","","","","","","","",""
"2289.2249999999767","{""judgement"":1}","[0]","survey-likert","323","630896","0.0-323.0","b2ma874j","","","","","","","","1"
"932.75","{""confidence"":2}","[0]","survey-likert","324","631830","0.0-324.0","b2ma874j","","","","","","","",""
"","","","call-function","325","631830","0.0-325.0","b2ma874j","","","","","","","",""
"null","","","html-keyboard-response","326","633333","0.0-326.0","b2ma874j","","<span style=""color:Black; font-size:50px;"">Agent A","null","","","","",""
"null","","","video-keyboard-response","327","635949","0.0-327.0","b2ma874j","","","null","","Agent A","scrambled","FOR_REV_BLOBBY_STIM/286001.bmp_pp54_L2_V1.0_veridical_freeview_isoFalse_fps144_reversed_REAL.mp4",""
"null","","","html-keyboard-response","328","637455","0.0-328.0","b2ma874j","","<span style=""color:Black; font-size:50px;"">Agent B","null","","","","",""
"null","","","video-keyboard-response","329","640040","0.0-329.0","b2ma874j","","","null","","Agent B","veridical","FOR_REV_BLOBBY_STIM/286001.bmp_pp54_L2_V1.0_veridical_freeview_isoFalse_fps144.mp4",""
"","","","call-function","330","640041","0.0-330.0","b2ma874j","","","","","","","",""
"2022.1049999999814","{""judgement"":1}","[0]","survey-likert","331","642064","0.0-331.0","b2ma874j","","","","","","","","1"
"1045.4399999999441","{""confidence"":2}","[0]","survey-likert","332","643110","0.0-332.0","b2ma874j","","","","","","","",""
"3280.2550000000047","","","instructions","333","646391","0.0-333.0","b2ma874j","[{""page_index"":0,""viewing_time"":1429.1500000000233},{""page_index"":1,""viewing_time"":866.609999999986},{""page_index"":2,""viewing_time"":984.2700000000186}]","","","","","","",""
"2618.269999999902","","","instructions","334","649010","0.0-334.0","b2ma874j","[{""page_index"":0,""viewing_time"":1317.0749999999534},{""page_index"":1,""viewing_time"":683.0650000000605},{""page_index"":2,""viewing_time"":618.0299999999115}]","","","","","","",""
"","","","call-function","335","649010","0.0-335.0","b2ma874j","","","","","","","",""
"null","","","html-keyboard-response","336","650512","0.0-336.0","b2ma874j","","<span style=""color:Black; font-size:50px;"">Agent A","null","","","","",""
"null","","","video-keyboard-response","337","653297","0.0-337.0","b2ma874j","","","null","","Agent A","scrambled","FOR_REV_BLOBBY_STIM/1159440.bmp_pp98_L1_V1.0_veridical_freeview_isoFalse_fps144_reversed_REAL.mp4",""
"null","","","html-keyboard-response","338","654799","0.0-338.0","b2ma874j","","<span style=""color:Black; font-size:50px;"">Agent B","null","","","","",""
"null","","","video-keyboard-response","339","657584","0.0-339.0","b2ma874j","","","null","","Agent B","veridical","FOR_REV_BLOBBY_STIM/1159440.bmp_pp98_L1_V1.0_veridical_freeview_isoFalse_fps144.mp4",""
"","","","call-function","340","657585","0.0-340.0","b2ma874j","","","","","","","",""
"1854.3649999999907","{""judgement"":1}","[0]","survey-likert","341","659441","0.0-341.0","b2ma874j","","","","","","","","1"
"963.2850000000326","{""confidence"":2}","[0]","survey-likert","342","660405","0.0-342.0","b2ma874j","","","","","","","",""
"","","","call-function","343","660406","0.0-343.0","b2ma874j","","","","","","","",""
"null","","","html-keyboard-response","344","661910","0.0-344.0","b2ma874j","","<span style=""color:Black; font-size:50px;"">Agent A","null","","","","",""
"null","","","video-keyboard-response","345","664736","0.0-345.0","b2ma874j","","","null","","Agent A","scrambled","FOR_REV_BLOBBY_STIM/712977.bmp_pp51_L1_V1.0_veridical_freeview_isoFalse_fps144_reversed_REAL.mp4",""
"null","","","html-keyboard-response","346","666239","0.0-346.0","b2ma874j","","<span style=""color:Black; font-size:50px;"">Agent B","null","","","","",""
"null","","","video-keyboard-response","347","669065","0.0-347.0","b2ma874j","","","null","","Agent B","veridical","FOR_REV_BLOBBY_STIM/712977.bmp_pp51_L1_V1.0_veridical_freeview_isoFalse_fps144.mp4",""
"","","","call-function","348","669065","0.0-348.0","b2ma874j","","","","","","","",""
"3161","{""judgement"":1}","[0]","survey-likert","349","672227","0.0-349.0","b2ma874j","","","","","","","","1"
"1535.9449999999488","{""confidence"":1}","[0]","survey-likert","350","673765","0.0-350.0","b2ma874j","","","","","","","",""
"","","","call-function","351","673765","0.0-351.0","b2ma874j","","","","","","","",""
"null","","","html-keyboard-response","352","675267","0.0-352.0","b2ma874j","","<span style=""color:Black; font-size:50px;"">Agent A","null","","","","",""
"null","","","video-keyboard-response","353","678082","0.0-353.0","b2ma874j","","","null","","Agent A","scrambled","FOR_REV_BLOBBY_STIM/713593.bmp_pp64_L1_V1.0_veridical_freeview_isoFalse_fps144_reversed_REAL.mp4",""
"null","","","html-keyboard-response","354","679583","0.0-354.0","b2ma874j","","<span style=""color:Black; font-size:50px;"">Agent B","null","","","","",""
"null","","","video-keyboard-response","355","682430","0.0-355.0","b2ma874j","","","null","","Agent B","veridical","FOR_REV_BLOBBY_STIM/713593.bmp_pp64_L1_V1.0_veridical_freeview_isoFalse_fps144.mp4",""
"","","","call-function","356","682431","0.0-356.0","b2ma874j","","","","","","","",""
"1540.530000000028","{""judgement"":1}","[0]","survey-likert","357","683972","0.0-357.0","b2ma874j","","","","","","","","1"
"1059.219999999972","{""confidence"":2}","[0]","survey-likert","358","685032","0.0-358.0","b2ma874j","","","","","","","",""
"","","","call-function","359","685032","0.0-359.0","b2ma874j","","","","","","","",""
"null","","","html-keyboard-response","360","686534","0.0-360.0","b2ma874j","","<span style=""color:Black; font-size:50px;"">Agent A","null","","","","",""
"null","","","video-keyboard-response","361","689369","0.0-361.0","b2ma874j","","","null","","Agent A","veridical","FOR_REV_BLOBBY_STIM/1159675.bmp_pp77_L3_V1.0_veridical_freeview_isoFalse_fps144.mp4",""
"null","","","html-keyboard-response","362","690872","0.0-362.0","b2ma874j","","<span style=""color:Black; font-size:50px;"">Agent B","null","","","","",""
"null","","","video-keyboard-response","363","693709","0.0-363.0","b2ma874j","","","null","","Agent B","scrambled","FOR_REV_BLOBBY_STIM/1159675.bmp_pp77_L3_V1.0_veridical_freeview_isoFalse_fps144_reversed_REAL.mp4",""
"","","","call-function","364","693710","0.0-364.0","b2ma874j","","","","","","","",""
"1894.8400000000838","{""judgement"":0}","[0]","survey-likert","365","695605","0.0-365.0","b2ma874j","","","","","","","","0"
"1416.015000000014","{""confidence"":3}","[0]","survey-likert","366","697023","0.0-366.0","b2ma874j","","","","","","","",""
"","","","call-function","367","697023","0.0-367.0","b2ma874j","","","","","","","",""
"null","","","html-keyboard-response","368","698524","0.0-368.0","b2ma874j","","<span style=""color:Black; font-size:50px;"">Agent A","null","","","","",""
"null","","","video-keyboard-response","369","701385","0.0-369.0","b2ma874j","","","null","","Agent A","scrambled","FOR_REV_BLOBBY_STIM/1592807.bmp_pp68_L1_V1.0_veridical_freeview_isoFalse_fps144_reversed_REAL.mp4",""
"null","","","html-keyboard-response","370","702887","0.0-370.0","b2ma874j","","<span style=""color:Black; font-size:50px;"">Agent B","null","","","","",""
"null","","","video-keyboard-response","371","705727","0.0-371.0","b2ma874j","","","null","","Agent B","veridical","FOR_REV_BLOBBY_STIM/1592807.bmp_pp68_L1_V1.0_veridical_freeview_isoFalse_fps144.mp4",""
"","","","call-function","372","705728","0.0-372.0","b2ma874j","","","","","","","",""
"1219.8200000000652","{""judgement"":0}","[0]","survey-likert","373","706948","0.0-373.0","b2ma874j","","","","","","","","1"
"1302.859999999986","{""confidence"":2}","[0]","survey-likert","374","708252","0.0-374.0","b2ma874j","","","","","","","",""
"","","","call-function","375","708253","0.0-375.0","b2ma874j","","","","","","","",""
"null","","","html-keyboard-response","376","709754","0.0-376.0","b2ma874j","","<span style=""color:Black; font-size:50px;"">Agent A","null","","","","",""
"null","","","video-keyboard-response","377","712499","0.0-377.0","b2ma874j","","","null","","Agent A","veridical","FOR_REV_BLOBBY_STIM/498111.bmp_pp88_L2_V1.0_veridical_freeview_isoFalse_fps144.mp4",""
"null","","","html-keyboard-response","378","714001","0.0-378.0","b2ma874j","","<span style=""color:Black; font-size:50px;"">Agent B","null","","","","",""
"null","","","video-keyboard-response","379","716750","0.0-379.0","b2ma874j","","","null","","Agent B","scrambled","FOR_REV_BLOBBY_STIM/498111.bmp_pp88_L2_V1.0_veridical_freeview_isoFalse_fps144_reversed_REAL.mp4",""
"","","","call-function","380","716750","0.0-380.0","b2ma874j","","","","","","","",""
"1927.009999999893","{""judgement"":1}","[0]","survey-likert","381","718678","0.0-381.0","b2ma874j","","","","","","","","0"
"2641.7099999999627","{""confidence"":2}","[0]","survey-likert","382","721321","0.0-382.0","b2ma874j","","","","","","","",""
"","","","call-function","383","721321","0.0-383.0","b2ma874j","","","","","","","",""
"null","","","html-keyboard-response","384","722826","0.0-384.0","b2ma874j","","<span style=""color:Black; font-size:50px;"">Agent A","null","","","","",""
"null","","","video-keyboard-response","385","725608","0.0-385.0","b2ma874j","","","null","","Agent A","scrambled","FOR_REV_BLOBBY_STIM/713681.bmp_pp86_L2_V1.0_veridical_freeview_isoFalse_fps144_reversed_REAL.mp4",""
"null","","","html-keyboard-response","386","727111","0.0-386.0","b2ma874j","","<span style=""color:Black; font-size:50px;"">Agent B","null","","","","",""
"null","","","video-keyboard-response","387","729896","0.0-387.0","b2ma874j","","","null","","Agent B","veridical","FOR_REV_BLOBBY_STIM/713681.bmp_pp86_L2_V1.0_veridical_freeview_isoFalse_fps144.mp4",""
"","","","call-function","388","729896","0.0-388.0","b2ma874j","","","","","","","",""
"1483.7949999999255","{""judgement"":1}","[0]","survey-likert","389","731381","0.0-389.0","b2ma874j","","","","","","","","1"
"1026.280000000028","{""confidence"":2}","[0]","survey-likert","390","732408","0.0-390.0","b2ma874j","","","","","","","",""
"","","","call-function","391","732409","0.0-391.0","b2ma874j","","","","","","","",""
"null","","","html-keyboard-response","392","733912","0.0-392.0","b2ma874j","","<span style=""color:Black; font-size:50px;"">Agent A","null","","","","",""
"null","","","video-keyboard-response","393","736592","0.0-393.0","b2ma874j","","","null","","Agent A","scrambled","FOR_REV_BLOBBY_STIM/285994.bmp_pp92_L3_V1.0_veridical_freeview_isoFalse_fps144_reversed_REAL.mp4",""
"null","","","html-keyboard-response","394","738096","0.0-394.0","b2ma874j","","<span style=""color:Black; font-size:50px;"">Agent B","null","","","","",""
"null","","","video-keyboard-response","395","740776","0.0-395.0","b2ma874j","","","null","","Agent B","veridical","FOR_REV_BLOBBY_STIM/285994.bmp_pp92_L3_V1.0_veridical_freeview_isoFalse_fps144.mp4",""
"","","","call-function","396","740777","0.0-396.0","b2ma874j","","","","","","","",""
"1495.4300000000512","{""judgement"":1}","[0]","survey-likert","397","742273","0.0-397.0","b2ma874j","","","","","","","","1"
"2123.5250000000233","{""confidence"":2}","[0]","survey-likert","398","744398","0.0-398.0","b2ma874j","","","","","","","",""
"","","","call-function","399","744399","0.0-399.0","b2ma874j","","","","","","","",""
"null","","","html-keyboard-response","400","745904","0.0-400.0","b2ma874j","","<span style=""color:Black; font-size:50px;"">Agent A","null","","","","",""
"null","","","video-keyboard-response","401","748791","0.0-401.0","b2ma874j","","","null","","Agent A","scrambled","FOR_REV_BLOBBY_STIM/1591961.bmp_pp67_L2_V1.0_veridical_freeview_isoFalse_fps144_reversed_REAL.mp4",""
"null","","","html-keyboard-response","402","750294","0.0-402.0","b2ma874j","","<span style=""color:Black; font-size:50px;"">Agent B","null","","","","",""
"null","","","video-keyboard-response","403","753120","0.0-403.0","b2ma874j","","","null","","Agent B","veridical","FOR_REV_BLOBBY_STIM/1591961.bmp_pp67_L2_V1.0_veridical_freeview_isoFalse_fps144.mp4",""
"","","","call-function","404","753121","0.0-404.0","b2ma874j","","","","","","","",""
"1912.6450000000186","{""judgement"":1}","[0]","survey-likert","405","755035","0.0-405.0","b2ma874j","","","","","","","","1"
"1798.9749999999767","{""confidence"":2}","[0]","survey-likert","406","756837","0.0-406.0","b2ma874j","","","","","","","",""
"","","","call-function","407","756838","0.0-407.0","b2ma874j","","","","","","","",""
"null","","","html-keyboard-response","408","758341","0.0-408.0","b2ma874j","","<span style=""color:Black; font-size:50px;"">Agent A","null","","","","",""
"null","","","video-keyboard-response","409","761200","0.0-409.0","b2ma874j","","","null","","Agent A","veridical","FOR_REV_BLOBBY_STIM/713089.bmp_pp60_L3_V1.0_veridical_freeview_isoFalse_fps144.mp4",""
"null","","","html-keyboard-response","410","762702","0.0-410.0","b2ma874j","","<span style=""color:Black; font-size:50px;"">Agent B","null","","","","",""
"null","","","video-keyboard-response","411","765561","0.0-411.0","b2ma874j","","","null","","Agent B","scrambled","FOR_REV_BLOBBY_STIM/713089.bmp_pp60_L3_V1.0_veridical_freeview_isoFalse_fps144_reversed_REAL.mp4",""
"","","","call-function","412","765561","0.0-412.0","b2ma874j","","","","","","","",""
"1839.1800000000512","{""judgement"":0}","[0]","survey-likert","413","767402","0.0-413.0","b2ma874j","","","","","","","","0"
"3002.564999999944","{""confidence"":3}","[0]","survey-likert","414","770405","0.0-414.0","b2ma874j","","","","","","","",""
"2680.140000000014","","","instructions","415","773086","0.0-415.0","b2ma874j","[{""page_index"":0,""viewing_time"":1346.375},{""page_index"":1,""viewing_time"":670.6700000000419},{""page_index"":2,""viewing_time"":662.8950000000186}]","","","","","","",""
"1395.0850000000792","","","instructions","416","774482","0.0-416.0","b2ma874j","[{""page_index"":0,""viewing_time"":447},{""page_index"":1,""viewing_time"":488.15500000002794},{""page_index"":2,""viewing_time"":459.8299999999581}]","","","","","","",""
"","","","call-function","417","774482","0.0-417.0","b2ma874j","","","","","","","",""
"null","","","html-keyboard-response","418","775985","0.0-418.0","b2ma874j","","<span style=""color:Black; font-size:50px;"">Agent A","null","","","","",""
"null","","","video-keyboard-response","419","778844","0.0-419.0","b2ma874j","","","null","","Agent A","scrambled","FOR_REV_BLOBBY_STIM/1593035.bmp_pp94_L2_V1.0_veridical_freeview_isoFalse_fps144_reversed_REAL.mp4",""
"null","","","html-keyboard-response","420","780351","0.0-420.0","b2ma874j","","<span style=""color:Black; font-size:50px;"">Agent B","null","","","","",""
"null","","","video-keyboard-response","421","783208","0.0-421.0","b2ma874j","","","null","","Agent B","veridical","FOR_REV_BLOBBY_STIM/1593035.bmp_pp94_L2_V1.0_veridical_freeview_isoFalse_fps144.mp4",""
"","","","call-function","422","783209","0.0-422.0","b2ma874j","","","","","","","",""
"1569.4149999999208","{""judgement"":0}","[0]","survey-likert","423","784779","0.0-423.0","b2ma874j","","","","","","","","1"
"1476.5750000000698","{""confidence"":2}","[0]","survey-likert","424","786257","0.0-424.0","b2ma874j","","","","","","","",""
"","","","call-function","425","786257","0.0-425.0","b2ma874j","","","","","","","",""
"null","","","html-keyboard-response","426","787758","0.0-426.0","b2ma874j","","<span style=""color:Black; font-size:50px;"">Agent A","null","","","","",""
"null","","","video-keyboard-response","427","790310","0.0-427.0","b2ma874j","","","null","","Agent A","scrambled","FOR_REV_BLOBBY_STIM/1159813.bmp_pp79_L2_V1.0_veridical_freeview_isoFalse_fps144_reversed_REAL.mp4",""
"null","","","html-keyboard-response","428","791811","0.0-428.0","b2ma874j","","<span style=""color:Black; font-size:50px;"">Agent B","null","","","","",""
"null","","","video-keyboard-response","429","794358","0.0-429.0","b2ma874j","","","null","","Agent B","veridical","FOR_REV_BLOBBY_STIM/1159813.bmp_pp79_L2_V1.0_veridical_freeview_isoFalse_fps144.mp4",""
"","","","call-function","430","794359","0.0-430.0","b2ma874j","","","","","","","",""
"1719.8249999999534","{""judgement"":0}","[0]","survey-likert","431","796079","0.0-431.0","b2ma874j","","","","","","","","1"
"1464.609999999986","{""confidence"":1}","[0]","survey-likert","432","797545","0.0-432.0","b2ma874j","","","","","","","",""
"","","","call-function","433","797545","0.0-433.0","b2ma874j","","","","","","","",""
"null","","","html-keyboard-response","434","799048","0.0-434.0","b2ma874j","","<span style=""color:Black; font-size:50px;"">Agent A","null","","","","",""
"null","","","video-keyboard-response","435","801916","0.0-435.0","b2ma874j","","","null","","Agent A","scrambled","FOR_REV_BLOBBY_STIM/713371.bmp_pp68_L1_V1.0_veridical_freeview_isoFalse_fps144_reversed_REAL.mp4",""
"null","","","html-keyboard-response","436","803420","0.0-436.0","b2ma874j","","<span style=""color:Black; font-size:50px;"">Agent B","null","","","","",""
"null","","","video-keyboard-response","437","806259","0.0-437.0","b2ma874j","","","null","","Agent B","veridical","FOR_REV_BLOBBY_STIM/713371.bmp_pp68_L1_V1.0_veridical_freeview_isoFalse_fps144.mp4",""
"","","","call-function","438","806259","0.0-438.0","b2ma874j","","","","","","","",""
"2011.125","{""judgement"":1}","[0]","survey-likert","439","808271","0.0-439.0","b2ma874j","","","","","","","","1"
"1950.2999999999302","{""confidence"":2}","[0]","survey-likert","440","810222","0.0-440.0","b2ma874j","","","","","","","",""
"","","","call-function","441","810223","0.0-441.0","b2ma874j","","","","","","","",""
"null","","","html-keyboard-response","442","811725","0.0-442.0","b2ma874j","","<span style=""color:Black; font-size:50px;"">Agent A","null","","","","",""
"null","","","video-keyboard-response","443","814377","0.0-443.0","b2ma874j","","","null","","Agent A","scrambled","FOR_REV_BLOBBY_STIM/498149.bmp_pp99_L2_V1.0_veridical_freeview_isoFalse_fps144_reversed_REAL.mp4",""
"null","","","html-keyboard-response","444","815880","0.0-444.0","b2ma874j","","<span style=""color:Black; font-size:50px;"">Agent B","null","","","","",""
"null","","","video-keyboard-response","445","818545","0.0-445.0","b2ma874j","","","null","","Agent B","veridical","FOR_REV_BLOBBY_STIM/498149.bmp_pp99_L2_V1.0_veridical_freeview_isoFalse_fps144.mp4",""
"","","","call-function","446","818546","0.0-446.0","b2ma874j","","","","","","","",""
"1660.640000000014","{""judgement"":0}","[0]","survey-likert","447","820207","0.0-447.0","b2ma874j","","","","","","","","1"
"1560.9700000000885","{""confidence"":2}","[0]","survey-likert","448","821769","0.0-448.0","b2ma874j","","","","","","","",""
"","","","call-function","449","821770","0.0-449.0","b2ma874j","","","","","","","",""
"null","","","html-keyboard-response","450","823273","0.0-450.0","b2ma874j","","<span style=""color:Black; font-size:50px;"">Agent A","null","","","","",""
"null","","","video-keyboard-response","451","825793","0.0-451.0","b2ma874j","","","null","","Agent A","veridical","FOR_REV_BLOBBY_STIM/713796.bmp_pp84_L3_V1.0_veridical_freeview_isoFalse_fps144.mp4",""
"null","","","html-keyboard-response","452","827296","0.0-452.0","b2ma874j","","<span style=""color:Black; font-size:50px;"">Agent B","null","","","","",""
"null","","","video-keyboard-response","453","829813","0.0-453.0","b2ma874j","","","null","","Agent B","scrambled","FOR_REV_BLOBBY_STIM/713796.bmp_pp84_L3_V1.0_veridical_freeview_isoFalse_fps144_reversed_REAL.mp4",""
"","","","call-function","454","829813","0.0-454.0","b2ma874j","","","","","","","",""
"1642.3649999999907","{""judgement"":0}","[0]","survey-likert","455","831456","0.0-455.0","b2ma874j","","","","","","","","0"
"1433.0700000000652","{""confidence"":3}","[0]","survey-likert","456","832891","0.0-456.0","b2ma874j","","","","","","","",""
"","","","call-function","457","832891","0.0-457.0","b2ma874j","","","","","","","",""
"null","","","html-keyboard-response","458","834397","0.0-458.0","b2ma874j","","<span style=""color:Black; font-size:50px;"">Agent A","null","","","","",""
"null","","","video-keyboard-response","459","837200","0.0-459.0","b2ma874j","","","null","","Agent A","scrambled","FOR_REV_BLOBBY_STIM/498155.bmp_pp61_L2_V1.0_veridical_freeview_isoFalse_fps144_reversed_REAL.mp4",""
"null","","","html-keyboard-response","460","838703","0.0-460.0","b2ma874j","","<span style=""color:Black; font-size:50px;"">Agent B","null","","","","",""
"null","","","video-keyboard-response","461","841476","0.0-461.0","b2ma874j","","","null","","Agent B","veridical","FOR_REV_BLOBBY_STIM/498155.bmp_pp61_L2_V1.0_veridical_freeview_isoFalse_fps144.mp4",""
"","","","call-function","462","841477","0.0-462.0","b2ma874j","","","","","","","",""
"1611.640000000014","{""judgement"":0}","[0]","survey-likert","463","843090","0.0-463.0","b2ma874j","","","","","","","","1"
"1498.9199999999255","{""confidence"":2}","[0]","survey-likert","464","844590","0.0-464.0","b2ma874j","","","","","","","",""
"","","","call-function","465","844592","0.0-465.0","b2ma874j","","","","","","","",""
"null","","","html-keyboard-response","466","846095","0.0-466.0","b2ma874j","","<span style=""color:Black; font-size:50px;"">Agent A","null","","","","",""
"null","","","video-keyboard-response","467","848867","0.0-467.0","b2ma874j","","","null","","Agent A","scrambled","FOR_REV_BLOBBY_STIM/1159768.bmp_pp89_L1_V1.0_veridical_freeview_isoFalse_fps144_reversed_REAL.mp4",""
"null","","","html-keyboard-response","468","850369","0.0-468.0","b2ma874j","","<span style=""color:Black; font-size:50px;"">Agent B","null","","","","",""
"null","","","video-keyboard-response","469","853140","0.0-469.0","b2ma874j","","","null","","Agent B","veridical","FOR_REV_BLOBBY_STIM/1159768.bmp_pp89_L1_V1.0_veridical_freeview_isoFalse_fps144.mp4",""
"","","","call-function","470","853141","0.0-470.0","b2ma874j","","","","","","","",""
"3588.1650000000373","{""judgement"":1}","[0]","survey-likert","471","856730","0.0-471.0","b2ma874j","","","","","","","","1"
"1264.155000000028","{""confidence"":1}","[0]","survey-likert","472","857995","0.0-472.0","b2ma874j","","","","","","","",""
"","","","call-function","473","857996","0.0-473.0","b2ma874j","","","","","","","",""
"null","","","html-keyboard-response","474","859499","0.0-474.0","b2ma874j","","<span style=""color:Black; font-size:50px;"">Agent A","null","","","","",""
"null","","","video-keyboard-response","475","862263","0.0-475.0","b2ma874j","","","null","","Agent A","veridical","FOR_REV_BLOBBY_STIM/1159621.bmp_pp92_L3_V1.0_veridical_freeview_isoFalse_fps144.mp4",""
"null","","","html-keyboard-response","476","863768","0.0-476.0","b2ma874j","","<span style=""color:Black; font-size:50px;"">Agent B","null","","","","",""
"null","","","video-keyboard-response","477","866531","0.0-477.0","b2ma874j","","","null","","Agent B","scrambled","FOR_REV_BLOBBY_STIM/1159621.bmp_pp92_L3_V1.0_veridical_freeview_isoFalse_fps144_reversed_REAL.mp4",""
"","","","call-function","478","866532","0.0-478.0","b2ma874j","","","","","","","",""
"1791.5","{""judgement"":0}","[0]","survey-likert","479","868324","0.0-479.0","b2ma874j","","","","","","","","0"
"1146.3950000000186","{""confidence"":2}","[0]","survey-likert","480","869472","0.0-480.0","b2ma874j","","","","","","","",""
"","","","call-function","481","869472","0.0-481.0","b2ma874j","","","","","","","",""
"null","","","html-keyboard-response","482","870974","0.0-482.0","b2ma874j","","<span style=""color:Black; font-size:50px;"">Agent A","null","","","","",""
"null","","","video-keyboard-response","483","873756","0.0-483.0","b2ma874j","","","null","","Agent A","veridical","FOR_REV_BLOBBY_STIM/1593041.bmp_pp58_L1_V1.0_veridical_freeview_isoFalse_fps144.mp4",""
"null","","","html-keyboard-response","484","875258","0.0-484.0","b2ma874j","","<span style=""color:Black; font-size:50px;"">Agent B","null","","","","",""
"null","","","video-keyboard-response","485","878033","0.0-485.0","b2ma874j","","","null","","Agent B","scrambled","FOR_REV_BLOBBY_STIM/1593041.bmp_pp58_L1_V1.0_veridical_freeview_isoFalse_fps144_reversed_REAL.mp4",""
"","","","call-function","486","878035","0.0-486.0","b2ma874j","","","","","","","",""
"1346.4949999999953","{""judgement"":0}","[0]","survey-likert","487","879382","0.0-487.0","b2ma874j","","","","","","","","0"
"1405.5999999999767","{""confidence"":2}","[0]","survey-likert","488","880789","0.0-488.0","b2ma874j","","","","","","","",""
"","","","call-function","489","880789","0.0-489.0","b2ma874j","","","","","","","",""
"null","","","html-keyboard-response","490","882291","0.0-490.0","b2ma874j","","<span style=""color:Black; font-size:50px;"">Agent A","null","","","","",""
"null","","","video-keyboard-response","491","885166","0.0-491.0","b2ma874j","","","null","","Agent A","veridical","FOR_REV_BLOBBY_STIM/1159447.bmp_pp70_L2_V1.0_veridical_freeview_isoFalse_fps144.mp4",""
"null","","","html-keyboard-response","492","886670","0.0-492.0","b2ma874j","","<span style=""color:Black; font-size:50px;"">Agent B","null","","","","",""
"null","","","video-keyboard-response","493","889547","0.0-493.0","b2ma874j","","","null","","Agent B","scrambled","FOR_REV_BLOBBY_STIM/1159447.bmp_pp70_L2_V1.0_veridical_freeview_isoFalse_fps144_reversed_REAL.mp4",""
"","","","call-function","494","889548","0.0-494.0","b2ma874j","","","","","","","",""
"1386.9599999999627","{""judgement"":0}","[0]","survey-likert","495","890936","0.0-495.0","b2ma874j","","","","","","","","0"
"1116.9249999999302","{""confidence"":2}","[0]","survey-likert","496","892054","0.0-496.0","b2ma874j","","","","","","","",""
"2015.0349999999162","","","instructions","497","894069","0.0-497.0","b2ma874j","[{""page_index"":0,""viewing_time"":869.8349999999627},{""page_index"":1,""viewing_time"":727.2900000000373},{""page_index"":2,""viewing_time"":417.7049999999581}]","","","","","","",""
"1277.625","","","instructions","498","895347","0.0-498.0","b2ma874j","[{""page_index"":0,""viewing_time"":410.5},{""page_index"":1,""viewing_time"":446.9000000000233},{""page_index"":2,""viewing_time"":420.11999999999534}]","","","","","","",""
"","","","call-function","499","895348","0.0-499.0","b2ma874j","","","","","","","",""
"null","","","html-keyboard-response","500","896851","0.0-500.0","b2ma874j","","<span style=""color:Black; font-size:50px;"">Agent A","null","","","","",""
"null","","","video-keyboard-response","501","899768","0.0-501.0","b2ma874j","","","null","","Agent A","scrambled","FOR_REV_BLOBBY_STIM/285905.bmp_pp57_L1_V1.0_veridical_freeview_isoFalse_fps144_reversed_REAL.mp4",""
"null","","","html-keyboard-response","502","901273","0.0-502.0","b2ma874j","","<span style=""color:Black; font-size:50px;"">Agent B","null","","","","",""
"null","","","video-keyboard-response","503","904170","0.0-503.0","b2ma874j","","","null","","Agent B","veridical","FOR_REV_BLOBBY_STIM/285905.bmp_pp57_L1_V1.0_veridical_freeview_isoFalse_fps144.mp4",""
"","","","call-function","504","904171","0.0-504.0","b2ma874j","","","","","","","",""
"2133.5400000000373","{""judgement"":1}","[0]","survey-likert","505","906306","0.0-505.0","b2ma874j","","","","","","","","1"
"1144.3200000000652","{""confidence"":3}","[0]","survey-likert","506","907451","0.0-506.0","b2ma874j","","","","","","","",""
"","","","call-function","507","907452","0.0-507.0","b2ma874j","","","","","","","",""
"null","","","html-keyboard-response","508","908954","0.0-508.0","b2ma874j","","<span style=""color:Black; font-size:50px;"">Agent A","null","","","","",""
"null","","","video-keyboard-response","509","911629","0.0-509.0","b2ma874j","","","null","","Agent A","scrambled","FOR_REV_BLOBBY_STIM/1160168.bmp_pp53_L2_V1.0_veridical_freeview_isoFalse_fps144_reversed_REAL.mp4",""
"null","","","html-keyboard-response","510","913135","0.0-510.0","b2ma874j","","<span style=""color:Black; font-size:50px;"">Agent B","null","","","","",""
"null","","","video-keyboard-response","511","915843","0.0-511.0","b2ma874j","","","null","","Agent B","veridical","FOR_REV_BLOBBY_STIM/1160168.bmp_pp53_L2_V1.0_veridical_freeview_isoFalse_fps144.mp4",""
"","","","call-function","512","915843","0.0-512.0","b2ma874j","","","","","","","",""
"2033.265000000014","{""judgement"":1}","[0]","survey-likert","513","917877","0.0-513.0","b2ma874j","","","","","","","","1"
"1064.2700000000186","{""confidence"":2}","[0]","survey-likert","514","918943","0.0-514.0","b2ma874j","","","","","","","",""
"","","","call-function","515","918943","0.0-515.0","b2ma874j","","","","","","","",""
"null","","","html-keyboard-response","516","920444","0.0-516.0","b2ma874j","","<span style=""color:Black; font-size:50px;"">Agent A","null","","","","",""
"null","","","video-keyboard-response","517","923229","0.0-517.0","b2ma874j","","","null","","Agent A","scrambled","FOR_REV_BLOBBY_STIM/1159829.bmp_pp91_L3_V1.0_veridical_freeview_isoFalse_fps144_reversed_REAL.mp4",""
"null","","","html-keyboard-response","518","924733","0.0-518.0","b2ma874j","","<span style=""color:Black; font-size:50px;"">Agent B","null","","","","",""
"null","","","video-keyboard-response","519","927517","0.0-519.0","b2ma874j","","","null","","Agent B","veridical","FOR_REV_BLOBBY_STIM/1159829.bmp_pp91_L3_V1.0_veridical_freeview_isoFalse_fps144.mp4",""
"","","","call-function","520","927518","0.0-520.0","b2ma874j","","","","","","","",""
"1663.7850000000326","{""judgement"":1}","[0]","survey-likert","521","929183","0.0-521.0","b2ma874j","","","","","","","","1"
"1523.2100000000792","{""confidence"":2}","[0]","survey-likert","522","930708","0.0-522.0","b2ma874j","","","","","","","",""
"","","","call-function","523","930709","0.0-523.0","b2ma874j","","","","","","","",""
"null","","","html-keyboard-response","524","932212","0.0-524.0","b2ma874j","","<span style=""color:Black; font-size:50px;"">Agent A","null","","","","",""
"null","","","video-keyboard-response","525","935044","0.0-525.0","b2ma874j","","","null","","Agent A","veridical","FOR_REV_BLOBBY_STIM/713017.bmp_pp152_L2_V1.0_veridical_freeview_isoFalse_fps144.mp4",""
"null","","","html-keyboard-response","526","936549","0.0-526.0","b2ma874j","","<span style=""color:Black; font-size:50px;"">Agent B","null","","","","",""
"null","","","video-keyboard-response","527","939380","0.0-527.0","b2ma874j","","","null","","Agent B","scrambled","FOR_REV_BLOBBY_STIM/713017.bmp_pp152_L2_V1.0_veridical_freeview_isoFalse_fps144_reversed_REAL.mp4",""
"","","","call-function","528","939381","0.0-528.0","b2ma874j","","","","","","","",""
"4261.895000000019","{""judgement"":0}","[0]","survey-likert","529","943644","0.0-529.0","b2ma874j","","","","","","","","0"
"2449.1900000000605","{""confidence"":0}","[0]","survey-likert","530","946094","0.0-530.0","b2ma874j","","","","","","","",""
"","","","call-function","531","946095","0.0-531.0","b2ma874j","","","","","","","",""
"null","","","html-keyboard-response","532","947600","0.0-532.0","b2ma874j","","<span style=""color:Black; font-size:50px;"">Agent A","null","","","","",""
"null","","","video-keyboard-response","533","950313","0.0-533.0","b2ma874j","","","null","","Agent A","scrambled","FOR_REV_BLOBBY_STIM/1159446.bmp_pp60_L3_V1.0_veridical_freeview_isoFalse_fps144_reversed_REAL.mp4",""
"null","","","html-keyboard-response","534","951814","0.0-534.0","b2ma874j","","<span style=""color:Black; font-size:50px;"">Agent B","null","","","","",""
"null","","","video-keyboard-response","535","954528","0.0-535.0","b2ma874j","","","null","","Agent B","veridical","FOR_REV_BLOBBY_STIM/1159446.bmp_pp60_L3_V1.0_veridical_freeview_isoFalse_fps144.mp4",""
"","","","call-function","536","954529","0.0-536.0","b2ma874j","","","","","","","",""
"2171.069999999949","{""judgement"":1}","[0]","survey-likert","537","956701","0.0-537.0","b2ma874j","","","","","","","","1"
"2312.7799999999115","{""confidence"":2}","[0]","survey-likert","538","959015","0.0-538.0","b2ma874j","","","","","","","",""
"","","","call-function","539","959015","0.0-539.0","b2ma874j","","","","","","","",""
"null","","","html-keyboard-response","540","960521","0.0-540.0","b2ma874j","","<span style=""color:Black; font-size:50px;"">Agent A","null","","","","",""
"null","","","video-keyboard-response","541","963345","0.0-541.0","b2ma874j","","","null","","Agent A","veridical","FOR_REV_BLOBBY_STIM/285751.bmp_pp55_L3_V1.0_veridical_freeview_isoFalse_fps144.mp4",""
"null","","","html-keyboard-response","542","964847","0.0-542.0","b2ma874j","","<span style=""color:Black; font-size:50px;"">Agent B","null","","","","",""
"null","","","video-keyboard-response","543","967669","0.0-543.0","b2ma874j","","","null","","Agent B","scrambled","FOR_REV_BLOBBY_STIM/285751.bmp_pp55_L3_V1.0_veridical_freeview_isoFalse_fps144_reversed_REAL.mp4",""
"","","","call-function","544","967669","0.0-544.0","b2ma874j","","","","","","","",""
"2051.344999999972","{""judgement"":0}","[0]","survey-likert","545","969722","0.0-545.0","b2ma874j","","","","","","","","0"
"1240.3899999998976","{""confidence"":2}","[0]","survey-likert","546","970964","0.0-546.0","b2ma874j","","","","","","","",""
"","","","call-function","547","970964","0.0-547.0","b2ma874j","","","","","","","",""
"null","","","html-keyboard-response","548","972467","0.0-548.0","b2ma874j","","<span style=""color:Black; font-size:50px;"">Agent A","null","","","","",""
"null","","","video-keyboard-response","549","975206","0.0-549.0","b2ma874j","","","null","","Agent A","veridical","FOR_REV_BLOBBY_STIM/498170.bmp_pp153_L3_V1.0_veridical_freeview_isoFalse_fps144.mp4",""
"null","","","html-keyboard-response","550","976711","0.0-550.0","b2ma874j","","<span style=""color:Black; font-size:50px;"">Agent B","null","","","","",""
"null","","","video-keyboard-response","551","979447","0.0-551.0","b2ma874j","","","null","","Agent B","scrambled","FOR_REV_BLOBBY_STIM/498170.bmp_pp153_L3_V1.0_veridical_freeview_isoFalse_fps144_reversed_REAL.mp4",""
"","","","call-function","552","979447","0.0-552.0","b2ma874j","","","","","","","",""
"2128.7449999999953","{""judgement"":0}","[0]","survey-likert","553","981577","0.0-553.0","b2ma874j","","","","","","","","0"
"1375.6749999999302","{""confidence"":2}","[0]","survey-likert","554","982953","0.0-554.0","b2ma874j","","","","","","","",""
"","","","call-function","555","982954","0.0-555.0","b2ma874j","","","","","","","",""
"null","","","html-keyboard-response","556","984455","0.0-556.0","b2ma874j","","<span style=""color:Black; font-size:50px;"">Agent A","null","","","","",""
"null","","","video-keyboard-response","557","987313","0.0-557.0","b2ma874j","","","null","","Agent A","scrambled","FOR_REV_BLOBBY_STIM/497950.bmp_pp151_L1_V1.0_veridical_freeview_isoFalse_fps144_reversed_REAL.mp4",""
"null","","","html-keyboard-response","558","988816","0.0-558.0","b2ma874j","","<span style=""color:Black; font-size:50px;"">Agent B","null","","","","",""
"null","","","video-keyboard-response","559","991677","0.0-559.0","b2ma874j","","","null","","Agent B","veridical","FOR_REV_BLOBBY_STIM/497950.bmp_pp151_L1_V1.0_veridical_freeview_isoFalse_fps144.mp4",""
"","","","call-function","560","991678","0.0-560.0","b2ma874j","","","","","","","",""
"1385.1450000000186","{""judgement"":1}","[0]","survey-likert","561","993064","0.0-561.0","b2ma874j","","","","","","","","1"
"1362.3949999999022","{""confidence"":2}","[0]","survey-likert","562","994427","0.0-562.0","b2ma874j","","","","","","","",""
"","","","call-function","563","994428","0.0-563.0","b2ma874j","","","","","","","",""
"null","","","html-keyboard-response","564","995930","0.0-564.0","b2ma874j","","<span style=""color:Black; font-size:50px;"">Agent A","null","","","","",""
"null","","","video-keyboard-response","565","998692","0.0-565.0","b2ma874j","","","null","","Agent A","veridical","FOR_REV_BLOBBY_STIM/1592499.bmp_pp96_L2_V1.0_veridical_freeview_isoFalse_fps144.mp4",""
"null","","","html-keyboard-response","566","1000198","0.0-566.0","b2ma874j","","<span style=""color:Black; font-size:50px;"">Agent B","null","","","","",""
"null","","","video-keyboard-response","567","1002961","0.0-567.0","b2ma874j","","","null","","Agent B","scrambled","FOR_REV_BLOBBY_STIM/1592499.bmp_pp96_L2_V1.0_veridical_freeview_isoFalse_fps144_reversed_REAL.mp4",""
"","","","call-function","568","1002961","0.0-568.0","b2ma874j","","","","","","","",""
"1902.7700000000186","{""judgement"":1}","[0]","survey-likert","569","1004865","0.0-569.0","b2ma874j","","","","","","","","0"
"1648.734999999986","{""confidence"":2}","[0]","survey-likert","570","1006515","0.0-570.0","b2ma874j","","","","","","","",""
"","","","call-function","571","1006515","0.0-571.0","b2ma874j","","","","","","","",""
"null","","","html-keyboard-response","572","1008016","0.0-572.0","b2ma874j","","<span style=""color:Black; font-size:50px;"">Agent A","null","","","","",""
"null","","","video-keyboard-response","573","1010600","0.0-573.0","b2ma874j","","","null","","Agent A","veridical","FOR_REV_BLOBBY_STIM/1592397.bmp_pp85_L3_V1.0_veridical_freeview_isoFalse_fps144.mp4",""
"null","","","html-keyboard-response","574","1012103","0.0-574.0","b2ma874j","","<span style=""color:Black; font-size:50px;"">Agent B","null","","","","",""
"null","","","video-keyboard-response","575","1014667","0.0-575.0","b2ma874j","","","null","","Agent B","scrambled","FOR_REV_BLOBBY_STIM/1592397.bmp_pp85_L3_V1.0_veridical_freeview_isoFalse_fps144_reversed_REAL.mp4",""
"","","","call-function","576","1014668","0.0-576.0","b2ma874j","","","","","","","",""
"2121.8649999999907","{""judgement"":1}","[0]","survey-likert","577","1016792","0.0-577.0","b2ma874j","","","","","","","","0"
"1523.7799999999115","{""confidence"":3}","[0]","survey-likert","578","1018317","0.0-578.0","b2ma874j","","","","","","","",""
"1084.1199999999953","","","instructions","579","1019402","0.0-579.0","b2ma874j","[{""page_index"":0,""viewing_time"":1083.9899999999907}]","","","","","","",""
"681.375","","","instructions","580","1020085","0.0-580.0","b2ma874j","[{""page_index"":0,""viewing_time"":681.2700000000186}]","","","","","","",""
"6888.244999999995","{""post-1"":1}","[0]","survey-likert","581","1026974","0.0-581.0","b2ma874j","","","","","","","",""
"1144.7000000000698","{""post-1"":1}","[0]","survey-likert","582","1028120","0.0-582.0","b2ma874j","","","","","","","",""
"10198.494999999995","{""post-2"":1}","[0]","survey-likert","583","1038320","0.0-583.0","b2ma874j","","","","","","","",""
"4079.2399999999907","{""post-2"":1}","[0]","survey-likert","584","1042400","0.0-584.0","b2ma874j","","","","","","","",""
"10514.369999999995","{""post-3"":2}","[0]","survey-likert","585","1052916","0.0-585.0","b2ma874j","","","","","","","",""
"1881.7999999998137","{""post-3"":1}","[0]","survey-likert","586","1054799","0.0-586.0","b2ma874j","","","","","","","",""
"11880.699999999953","{""post-4"":1}","[0]","survey-likert","587","1066681","0.0-587.0","b2ma874j","","","","","","","",""
"4269.040000000037","{""post-4"":1}","[0]","survey-likert","588","1070953","0.0-588.0","b2ma874j","","","","","","","",""
"3388.5800000000745","{""post-5"":0}","[0]","survey-likert","589","1074343","0.0-589.0","b2ma874j","","","","","","","",""
"2468.1299999998882","{""post-5"":1}","[0]","survey-likert","590","1076812","0.0-590.0","b2ma874j","","","","","","","",""
"46173.919999999925","{""Q0"":""This experiment with the images was a lot easier to determine I think. Looking at what the hotspots were highlighting helped. ""}","","survey-text","591","1122991","0.0-591.0","b2ma874j","","","","","","","",""
"88645.53499999992","{""Q0"":""I picked the agents that first looked at faces or objects that were closer as real humans. This is because I think that humans tend to look for other faces and familiarity instead of other objects. This was also the case for TVs, with the images that had TVs I had picked the agents that looked at TVs first because I think it is very common now a-days. ""}","","survey-text","592","1211640","0.0-592.0","b2ma874j","","","","","","","",""
"44178.74499999988","{""Q0"":""Sometimes the pace was difficult and I think it was more distracting because it was real images so I would be distracted by the images since I myself am trying to see whats going on also. \n""}","","survey-text","593","1255823","0.0-593.0","b2ma874j","","","","","","","",""
"19882.294999999925","","","instructions","594","1275706","0.0-594.0","b2ma874j","[{""page_index"":0,""viewing_time"":19882.155000000028}]","","","","","","",""
"27893.075000000186","{""Experimenter_end"":[""Printed ID# b2ma874j on consent form"",""Given subject SONA credit or payment"",""Given the subject debrief form""]}","[0]","survey-multi-select","595","1303601","0.0-595.0","b2ma874j","","","","","","","",""
