"rt","responses","question_order","trial_type","trial_index","time_elapsed","internal_node_id","ID","view_history","stimulus","key_press","value","agent","condition","image","correct_answer"
"906613.97","{""Experimenter"":[""Confirmed subject's identity (ID card)"",""Confirmed normal or corrected-to-normal vision"",""Obtained consent (signature and date)"",""Checked the test room lighting"",""Checked computer screen lighting"",""Checked distance from screen to chin rest (50cm)"",""Cleaned and adjusted chin rest"",""Counterbalanced the order of the tasks"",""Opened the experiment in Firefox"",""Made the experiment full screen"",""Encouraged subject to silence phone, put away distractors, etc.""]}","[0]","survey-multi-select","0","906626","0.0-0.0","bj6o9f2z","","","","","","","",""
"61243.75999999989","","","instructions","1","967872","0.0-1.0","bj6o9f2z","[{""page_index"":0,""viewing_time"":61243.59999999998}]","","","","","","",""
"23088.785000000033","","","instructions","2","990963","0.0-2.0","bj6o9f2z","[{""page_index"":0,""viewing_time"":2175.8850000000093},{""page_index"":1,""viewing_time"":11855.685000000056},{""page_index"":2,""viewing_time"":9057.079999999958}]","","","","","","",""
"3917.6199999999953","","","instructions","3","994882","0.0-3.0","bj6o9f2z","[{""page_index"":0,""viewing_time"":3917.5050000000047}]","","","","","","",""
"null","","","video-keyboard-response","4","997962","0.0-4.0","bj6o9f2z","","","null","","","","",""
"37372.265000000014","","","instructions","5","1035336","0.0-5.0","bj6o9f2z","[{""page_index"":0,""viewing_time"":3679.055000000051},{""page_index"":1,""viewing_time"":4830.869999999995},{""page_index"":2,""viewing_time"":1053.0699999999488},{""page_index"":3,""viewing_time"":12811.025000000023},{""page_index"":4,""viewing_time"":14998.084999999963}]","","","","","","",""
"4159.324999999953","","","instructions","6","1039497","0.0-6.0","bj6o9f2z","[{""page_index"":0,""viewing_time"":4159.1849999999395}]","","","","","","",""
"","","","call-function","7","1039498","0.0-7.0","bj6o9f2z","","","","","","","",""
"null","","","html-keyboard-response","8","1041002","0.0-8.0","bj6o9f2z","","<span style=""color:Black; font-size:50px;"">Agent A","null","","","","",""
"null","","","video-keyboard-response","9","1043734","0.0-9.0","bj6o9f2z","","","null","","Agent A","veridical","FOR_REV_BLOBBY_STIM/1592934.bmp_pp63_L1_V1.0_veridical_freeview_isoFalse_fps144.mp4",""
"null","","","html-keyboard-response","10","1045239","0.0-10.0","bj6o9f2z","","<span style=""color:Black; font-size:50px;"">Agent B","null","","","","",""
"null","","","video-keyboard-response","11","1047941","0.0-11.0","bj6o9f2z","","","null","","Agent B","scrambled","FOR_REV_BLOBBY_STIM/1592934.bmp_pp63_L1_V1.0_veridical_freeview_isoFalse_fps144_reversed_REAL.mp4",""
"","","","call-function","12","1047942","0.0-12.0","bj6o9f2z","","","","","","","",""
"12195.579999999842","{""judgement"":0}","[0]","survey-likert","13","1060139","0.0-13.0","bj6o9f2z","","","","","","","","0"
"9988.280000000028","{""confidence"":1}","[0]","survey-likert","14","1070131","0.0-14.0","bj6o9f2z","","","","","","","",""
"","","","call-function","15","1070133","0.0-15.0","bj6o9f2z","","","","","","","",""
"null","","","html-keyboard-response","16","1071638","0.0-16.0","bj6o9f2z","","<span style=""color:Black; font-size:50px;"">Agent A","null","","","","",""
"null","","","video-keyboard-response","17","1074361","0.0-17.0","bj6o9f2z","","","null","","Agent A","veridical","FOR_REV_BLOBBY_STIM/285994.bmp_pp92_L3_V1.0_veridical_freeview_isoFalse_fps144.mp4",""
"null","","","html-keyboard-response","18","1075864","0.0-18.0","bj6o9f2z","","<span style=""color:Black; font-size:50px;"">Agent B","null","","","","",""
"null","","","video-keyboard-response","19","1078548","0.0-19.0","bj6o9f2z","","","null","","Agent B","scrambled","FOR_REV_BLOBBY_STIM/285994.bmp_pp92_L3_V1.0_veridical_freeview_isoFalse_fps144_reversed_REAL.mp4",""
"","","","call-function","20","1078550","0.0-20.0","bj6o9f2z","","","","","","","",""
"5682.889999999898","{""judgement"":1}","[0]","survey-likert","21","1084234","0.0-21.0","bj6o9f2z","","","","","","","","0"
"4520.844999999972","{""confidence"":2}","[0]","survey-likert","22","1088757","0.0-22.0","bj6o9f2z","","","","","","","",""
"","","","call-function","23","1088758","0.0-23.0","bj6o9f2z","","","","","","","",""
"null","","","html-keyboard-response","24","1090264","0.0-24.0","bj6o9f2z","","<span style=""color:Black; font-size:50px;"">Agent A","null","","","","",""
"null","","","video-keyboard-response","25","1092842","0.0-25.0","bj6o9f2z","","","null","","Agent A","veridical","FOR_REV_BLOBBY_STIM/1592397.bmp_pp85_L3_V1.0_veridical_freeview_isoFalse_fps144.mp4",""
"null","","","html-keyboard-response","26","1094347","0.0-26.0","bj6o9f2z","","<span style=""color:Black; font-size:50px;"">Agent B","null","","","","",""
"null","","","video-keyboard-response","27","1096957","0.0-27.0","bj6o9f2z","","","null","","Agent B","scrambled","FOR_REV_BLOBBY_STIM/1592397.bmp_pp85_L3_V1.0_veridical_freeview_isoFalse_fps144_reversed_REAL.mp4",""
"","","","call-function","28","1096959","0.0-28.0","bj6o9f2z","","","","","","","",""
"7485.64000000013","{""judgement"":1}","[0]","survey-likert","29","1104445","0.0-29.0","bj6o9f2z","","","","","","","","0"
"2748.6200000001118","{""confidence"":3}","[0]","survey-likert","30","1107196","0.0-30.0","bj6o9f2z","","","","","","","",""
"","","","call-function","31","1107197","0.0-31.0","bj6o9f2z","","","","","","","",""
"null","","","html-keyboard-response","32","1108702","0.0-32.0","bj6o9f2z","","<span style=""color:Black; font-size:50px;"">Agent A","null","","","","",""
"null","","","video-keyboard-response","33","1111341","0.0-33.0","bj6o9f2z","","","null","","Agent A","scrambled","FOR_REV_BLOBBY_STIM/61537.bmp_pp73_L3_V1.0_veridical_freeview_isoFalse_fps144_reversed_REAL.mp4",""
"null","","","html-keyboard-response","34","1112845","0.0-34.0","bj6o9f2z","","<span style=""color:Black; font-size:50px;"">Agent B","null","","","","",""
"null","","","video-keyboard-response","35","1115482","0.0-35.0","bj6o9f2z","","","null","","Agent B","veridical","FOR_REV_BLOBBY_STIM/61537.bmp_pp73_L3_V1.0_veridical_freeview_isoFalse_fps144.mp4",""
"","","","call-function","36","1115483","0.0-36.0","bj6o9f2z","","","","","","","",""
"12778.454999999842","{""judgement"":1}","[0]","survey-likert","37","1128262","0.0-37.0","bj6o9f2z","","","","","","","","1"
"2954.1800000001676","{""confidence"":2}","[0]","survey-likert","38","1131219","0.0-38.0","bj6o9f2z","","","","","","","",""
"","","","call-function","39","1131220","0.0-39.0","bj6o9f2z","","","","","","","",""
"null","","","html-keyboard-response","40","1132726","0.0-40.0","bj6o9f2z","","<span style=""color:Black; font-size:50px;"">Agent A","null","","","","",""
"null","","","video-keyboard-response","41","1135336","0.0-41.0","bj6o9f2z","","","null","","Agent A","scrambled","FOR_REV_BLOBBY_STIM/286001.bmp_pp54_L2_V1.0_veridical_freeview_isoFalse_fps144_reversed_REAL.mp4",""
"null","","","html-keyboard-response","42","1136840","0.0-42.0","bj6o9f2z","","<span style=""color:Black; font-size:50px;"">Agent B","null","","","","",""
"null","","","video-keyboard-response","43","1139430","0.0-43.0","bj6o9f2z","","","null","","Agent B","veridical","FOR_REV_BLOBBY_STIM/286001.bmp_pp54_L2_V1.0_veridical_freeview_isoFalse_fps144.mp4",""
"","","","call-function","44","1139431","0.0-44.0","bj6o9f2z","","","","","","","",""
"2248.355000000214","{""judgement"":1}","[0]","survey-likert","45","1141681","0.0-45.0","bj6o9f2z","","","","","","","","1"
"2053","{""confidence"":2}","[0]","survey-likert","46","1143736","0.0-46.0","bj6o9f2z","","","","","","","",""
"","","","call-function","47","1143737","0.0-47.0","bj6o9f2z","","","","","","","",""
"null","","","html-keyboard-response","48","1145239","0.0-48.0","bj6o9f2z","","<span style=""color:Black; font-size:50px;"">Agent A","null","","","","",""
"null","","","video-keyboard-response","49","1148103","0.0-49.0","bj6o9f2z","","","null","","Agent A","veridical","FOR_REV_BLOBBY_STIM/1593035.bmp_pp94_L2_V1.0_veridical_freeview_isoFalse_fps144.mp4",""
"null","","","html-keyboard-response","50","1149607","0.0-50.0","bj6o9f2z","","<span style=""color:Black; font-size:50px;"">Agent B","null","","","","",""
"null","","","video-keyboard-response","51","1152500","0.0-51.0","bj6o9f2z","","","null","","Agent B","scrambled","FOR_REV_BLOBBY_STIM/1593035.bmp_pp94_L2_V1.0_veridical_freeview_isoFalse_fps144_reversed_REAL.mp4",""
"","","","call-function","52","1152503","0.0-52.0","bj6o9f2z","","","","","","","",""
"3379.1149999999907","{""judgement"":1}","[0]","survey-likert","53","1155883","0.0-53.0","bj6o9f2z","","","","","","","","0"
"2806.899999999907","{""confidence"":2}","[0]","survey-likert","54","1158692","0.0-54.0","bj6o9f2z","","","","","","","",""
"","","","call-function","55","1158693","0.0-55.0","bj6o9f2z","","","","","","","",""
"null","","","html-keyboard-response","56","1160198","0.0-56.0","bj6o9f2z","","<span style=""color:Black; font-size:50px;"">Agent A","null","","","","",""
"null","","","video-keyboard-response","57","1162875","0.0-57.0","bj6o9f2z","","","null","","Agent A","veridical","FOR_REV_BLOBBY_STIM/1592727.bmp_pp59_L3_V1.0_veridical_freeview_isoFalse_fps144.mp4",""
"null","","","html-keyboard-response","58","1164377","0.0-58.0","bj6o9f2z","","<span style=""color:Black; font-size:50px;"">Agent B","null","","","","",""
"null","","","video-keyboard-response","59","1167079","0.0-59.0","bj6o9f2z","","","null","","Agent B","scrambled","FOR_REV_BLOBBY_STIM/1592727.bmp_pp59_L3_V1.0_veridical_freeview_isoFalse_fps144_reversed_REAL.mp4",""
"","","","call-function","60","1167080","0.0-60.0","bj6o9f2z","","","","","","","",""
"2290.255000000121","{""judgement"":1}","[0]","survey-likert","61","1169371","0.0-61.0","bj6o9f2z","","","","","","","","0"
"2393.4850000001024","{""confidence"":2}","[0]","survey-likert","62","1171767","0.0-62.0","bj6o9f2z","","","","","","","",""
"","","","call-function","63","1171768","0.0-63.0","bj6o9f2z","","","","","","","",""
"null","","","html-keyboard-response","64","1173274","0.0-64.0","bj6o9f2z","","<span style=""color:Black; font-size:50px;"">Agent A","null","","","","",""
"null","","","video-keyboard-response","65","1176142","0.0-65.0","bj6o9f2z","","","null","","Agent A","scrambled","FOR_REV_BLOBBY_STIM/1591961.bmp_pp67_L2_V1.0_veridical_freeview_isoFalse_fps144_reversed_REAL.mp4",""
"null","","","html-keyboard-response","66","1177646","0.0-66.0","bj6o9f2z","","<span style=""color:Black; font-size:50px;"">Agent B","null","","","","",""
"null","","","video-keyboard-response","67","1180522","0.0-67.0","bj6o9f2z","","","null","","Agent B","veridical","FOR_REV_BLOBBY_STIM/1591961.bmp_pp67_L2_V1.0_veridical_freeview_isoFalse_fps144.mp4",""
"","","","call-function","68","1180524","0.0-68.0","bj6o9f2z","","","","","","","",""
"6807.939999999944","{""judgement"":1}","[0]","survey-likert","69","1187334","0.0-69.0","bj6o9f2z","","","","","","","","1"
"1993.469999999972","{""confidence"":2}","[0]","survey-likert","70","1189331","0.0-70.0","bj6o9f2z","","","","","","","",""
"","","","call-function","71","1189333","0.0-71.0","bj6o9f2z","","","","","","","",""
"null","","","html-keyboard-response","72","1190876","0.0-72.0","bj6o9f2z","","<span style=""color:Black; font-size:50px;"">Agent A","null","","","","",""
"null","","","video-keyboard-response","73","1193521","0.0-73.0","bj6o9f2z","","","null","","Agent A","scrambled","FOR_REV_BLOBBY_STIM/713707.bmp_pp154_L1_V1.0_veridical_freeview_isoFalse_fps144_reversed_REAL.mp4",""
"null","","","html-keyboard-response","74","1195030","0.0-74.0","bj6o9f2z","","<span style=""color:Black; font-size:50px;"">Agent B","null","","","","",""
"null","","","video-keyboard-response","75","1197670","0.0-75.0","bj6o9f2z","","","null","","Agent B","veridical","FOR_REV_BLOBBY_STIM/713707.bmp_pp154_L1_V1.0_veridical_freeview_isoFalse_fps144.mp4",""
"","","","call-function","76","1197672","0.0-76.0","bj6o9f2z","","","","","","","",""
"4572.635000000009","{""judgement"":0}","[0]","survey-likert","77","1202245","0.0-77.0","bj6o9f2z","","","","","","","","1"
"1693.6000000000931","{""confidence"":1}","[0]","survey-likert","78","1203941","0.0-78.0","bj6o9f2z","","","","","","","",""
"","","","call-function","79","1203943","0.0-79.0","bj6o9f2z","","","","","","","",""
"null","","","html-keyboard-response","80","1205445","0.0-80.0","bj6o9f2z","","<span style=""color:Black; font-size:50px;"">Agent A","null","","","","",""
"null","","","video-keyboard-response","81","1208259","0.0-81.0","bj6o9f2z","","","null","","Agent A","veridical","FOR_REV_BLOBBY_STIM/1159675.bmp_pp77_L3_V1.0_veridical_freeview_isoFalse_fps144.mp4",""
"null","","","html-keyboard-response","82","1209762","0.0-82.0","bj6o9f2z","","<span style=""color:Black; font-size:50px;"">Agent B","null","","","","",""
"null","","","video-keyboard-response","83","1212609","0.0-83.0","bj6o9f2z","","","null","","Agent B","scrambled","FOR_REV_BLOBBY_STIM/1159675.bmp_pp77_L3_V1.0_veridical_freeview_isoFalse_fps144_reversed_REAL.mp4",""
"","","","call-function","84","1212610","0.0-84.0","bj6o9f2z","","","","","","","",""
"2980.125","{""judgement"":0}","[0]","survey-likert","85","1215591","0.0-85.0","bj6o9f2z","","","","","","","","0"
"2615.8249999999534","{""confidence"":2}","[0]","survey-likert","86","1218209","0.0-86.0","bj6o9f2z","","","","","","","",""
"76342.55000000005","","","instructions","87","1294553","0.0-87.0","bj6o9f2z","[{""page_index"":0,""viewing_time"":1648.1750000000466},{""page_index"":1,""viewing_time"":73464.95999999996},{""page_index"":2,""viewing_time"":1229.1850000000559}]","","","","","","",""
"4747.329999999842","","","instructions","88","1299302","0.0-88.0","bj6o9f2z","[{""page_index"":0,""viewing_time"":1184.9849999998696},{""page_index"":1,""viewing_time"":2733.9899999999907},{""page_index"":2,""viewing_time"":828.1100000001024}]","","","","","","",""
"","","","call-function","89","1299304","0.0-89.0","bj6o9f2z","","","","","","","",""
"null","","","html-keyboard-response","90","1300809","0.0-90.0","bj6o9f2z","","<span style=""color:Black; font-size:50px;"">Agent A","null","","","","",""
"null","","","video-keyboard-response","91","1303356","0.0-91.0","bj6o9f2z","","","null","","Agent A","scrambled","FOR_REV_BLOBBY_STIM/1159515.bmp_pp84_L3_V1.0_veridical_freeview_isoFalse_fps144_reversed_REAL.mp4",""
"null","","","html-keyboard-response","92","1304862","0.0-92.0","bj6o9f2z","","<span style=""color:Black; font-size:50px;"">Agent B","null","","","","",""
"null","","","video-keyboard-response","93","1307407","0.0-93.0","bj6o9f2z","","","null","","Agent B","veridical","FOR_REV_BLOBBY_STIM/1159515.bmp_pp84_L3_V1.0_veridical_freeview_isoFalse_fps144.mp4",""
"","","","call-function","94","1307408","0.0-94.0","bj6o9f2z","","","","","","","",""
"3567.880000000121","{""judgement"":1}","[0]","survey-likert","95","1310977","0.0-95.0","bj6o9f2z","","","","","","","","1"
"1719.1450000000186","{""confidence"":2}","[0]","survey-likert","96","1312698","0.0-96.0","bj6o9f2z","","","","","","","",""
"","","","call-function","97","1312700","0.0-97.0","bj6o9f2z","","","","","","","",""
"null","","","html-keyboard-response","98","1314201","0.0-98.0","bj6o9f2z","","<span style=""color:Black; font-size:50px;"">Agent A","null","","","","",""
"null","","","video-keyboard-response","99","1316935","0.0-99.0","bj6o9f2z","","","null","","Agent A","scrambled","FOR_REV_BLOBBY_STIM/713749.bmp_pp88_L2_V1.0_veridical_freeview_isoFalse_fps144_reversed_REAL.mp4",""
"null","","","html-keyboard-response","100","1318440","0.0-100.0","bj6o9f2z","","<span style=""color:Black; font-size:50px;"">Agent B","null","","","","",""
"null","","","video-keyboard-response","101","1321200","0.0-101.0","bj6o9f2z","","","null","","Agent B","veridical","FOR_REV_BLOBBY_STIM/713749.bmp_pp88_L2_V1.0_veridical_freeview_isoFalse_fps144.mp4",""
"","","","call-function","102","1321202","0.0-102.0","bj6o9f2z","","","","","","","",""
"1885.8300000000745","{""judgement"":1}","[0]","survey-likert","103","1323088","0.0-103.0","bj6o9f2z","","","","","","","","1"
"1677.3349999999627","{""confidence"":2}","[0]","survey-likert","104","1324768","0.0-104.0","bj6o9f2z","","","","","","","",""
"","","","call-function","105","1324769","0.0-105.0","bj6o9f2z","","","","","","","",""
"null","","","html-keyboard-response","106","1326274","0.0-106.0","bj6o9f2z","","<span style=""color:Black; font-size:50px;"">Agent A","null","","","","",""
"null","","","video-keyboard-response","107","1329043","0.0-107.0","bj6o9f2z","","","null","","Agent A","scrambled","FOR_REV_BLOBBY_STIM/1592619.bmp_pp56_L3_V1.0_veridical_freeview_isoFalse_fps144_reversed_REAL.mp4",""
"null","","","html-keyboard-response","108","1330547","0.0-108.0","bj6o9f2z","","<span style=""color:Black; font-size:50px;"">Agent B","null","","","","",""
"null","","","video-keyboard-response","109","1333306","0.0-109.0","bj6o9f2z","","","null","","Agent B","veridical","FOR_REV_BLOBBY_STIM/1592619.bmp_pp56_L3_V1.0_veridical_freeview_isoFalse_fps144.mp4",""
"","","","call-function","110","1333309","0.0-110.0","bj6o9f2z","","","","","","","",""
"2179.3850000000093","{""judgement"":1}","[0]","survey-likert","111","1335489","0.0-111.0","bj6o9f2z","","","","","","","","1"
"2236.034999999916","{""confidence"":1}","[0]","survey-likert","112","1337727","0.0-112.0","bj6o9f2z","","","","","","","",""
"","","","call-function","113","1337729","0.0-113.0","bj6o9f2z","","","","","","","",""
"null","","","html-keyboard-response","114","1339230","0.0-114.0","bj6o9f2z","","<span style=""color:Black; font-size:50px;"">Agent A","null","","","","",""
"null","","","video-keyboard-response","115","1342148","0.0-115.0","bj6o9f2z","","","null","","Agent A","veridical","FOR_REV_BLOBBY_STIM/1159882.bmp_pp61_L2_V1.0_veridical_freeview_isoFalse_fps144.mp4",""
"null","","","html-keyboard-response","116","1343654","0.0-116.0","bj6o9f2z","","<span style=""color:Black; font-size:50px;"">Agent B","null","","","","",""
"null","","","video-keyboard-response","117","1346500","0.0-117.0","bj6o9f2z","","","null","","Agent B","scrambled","FOR_REV_BLOBBY_STIM/1159882.bmp_pp61_L2_V1.0_veridical_freeview_isoFalse_fps144_reversed_REAL.mp4",""
"","","","call-function","118","1346501","0.0-118.0","bj6o9f2z","","","","","","","",""
"1938.8500000000931","{""judgement"":0}","[0]","survey-likert","119","1348441","0.0-119.0","bj6o9f2z","","","","","","","","0"
"2181.774999999907","{""confidence"":2}","[0]","survey-likert","120","1350625","0.0-120.0","bj6o9f2z","","","","","","","",""
"","","","call-function","121","1350626","0.0-121.0","bj6o9f2z","","","","","","","",""
"null","","","html-keyboard-response","122","1352132","0.0-122.0","bj6o9f2z","","<span style=""color:Black; font-size:50px;"">Agent A","null","","","","",""
"null","","","video-keyboard-response","123","1354906","0.0-123.0","bj6o9f2z","","","null","","Agent A","scrambled","FOR_REV_BLOBBY_STIM/285933.bmp_pp81_L1_V1.0_veridical_freeview_isoFalse_fps144_reversed_REAL.mp4",""
"null","","","html-keyboard-response","124","1356415","0.0-124.0","bj6o9f2z","","<span style=""color:Black; font-size:50px;"">Agent B","null","","","","",""
"null","","","video-keyboard-response","125","1359187","0.0-125.0","bj6o9f2z","","","null","","Agent B","veridical","FOR_REV_BLOBBY_STIM/285933.bmp_pp81_L1_V1.0_veridical_freeview_isoFalse_fps144.mp4",""
"","","","call-function","126","1359189","0.0-126.0","bj6o9f2z","","","","","","","",""
"3154.309999999823","{""judgement"":0}","[0]","survey-likert","127","1362344","0.0-127.0","bj6o9f2z","","","","","","","","1"
"1467.0400000000373","{""confidence"":1}","[0]","survey-likert","128","1363814","0.0-128.0","bj6o9f2z","","","","","","","",""
"","","","call-function","129","1363816","0.0-129.0","bj6o9f2z","","","","","","","",""
"null","","","html-keyboard-response","130","1365319","0.0-130.0","bj6o9f2z","","<span style=""color:Black; font-size:50px;"">Agent A","null","","","","",""
"null","","","video-keyboard-response","131","1367955","0.0-131.0","bj6o9f2z","","","null","","Agent A","veridical","FOR_REV_BLOBBY_STIM/498149.bmp_pp99_L2_V1.0_veridical_freeview_isoFalse_fps144.mp4",""
"null","","","html-keyboard-response","132","1369459","0.0-132.0","bj6o9f2z","","<span style=""color:Black; font-size:50px;"">Agent B","null","","","","",""
"null","","","video-keyboard-response","133","1372095","0.0-133.0","bj6o9f2z","","","null","","Agent B","scrambled","FOR_REV_BLOBBY_STIM/498149.bmp_pp99_L2_V1.0_veridical_freeview_isoFalse_fps144_reversed_REAL.mp4",""
"","","","call-function","134","1372097","0.0-134.0","bj6o9f2z","","","","","","","",""
"6976.334999999963","{""judgement"":0}","[0]","survey-likert","135","1379075","0.0-135.0","bj6o9f2z","","","","","","","","0"
"1795.964999999851","{""confidence"":1}","[0]","survey-likert","136","1380874","0.0-136.0","bj6o9f2z","","","","","","","",""
"","","","call-function","137","1380876","0.0-137.0","bj6o9f2z","","","","","","","",""
"null","","","html-keyboard-response","138","1382381","0.0-138.0","bj6o9f2z","","<span style=""color:Black; font-size:50px;"">Agent A","null","","","","",""
"null","","","video-keyboard-response","139","1385056","0.0-139.0","bj6o9f2z","","","null","","Agent A","scrambled","FOR_REV_BLOBBY_STIM/713211.bmp_pp100_L3_V1.0_veridical_freeview_isoFalse_fps144_reversed_REAL.mp4",""
"null","","","html-keyboard-response","140","1386558","0.0-140.0","bj6o9f2z","","<span style=""color:Black; font-size:50px;"">Agent B","null","","","","",""
"null","","","video-keyboard-response","141","1389241","0.0-141.0","bj6o9f2z","","","null","","Agent B","veridical","FOR_REV_BLOBBY_STIM/713211.bmp_pp100_L3_V1.0_veridical_freeview_isoFalse_fps144.mp4",""
"","","","call-function","142","1389243","0.0-142.0","bj6o9f2z","","","","","","","",""
"2842.7049999998417","{""judgement"":1}","[0]","survey-likert","143","1392087","0.0-143.0","bj6o9f2z","","","","","","","","1"
"1571.6699999999255","{""confidence"":2}","[0]","survey-likert","144","1393660","0.0-144.0","bj6o9f2z","","","","","","","",""
"","","","call-function","145","1393662","0.0-145.0","bj6o9f2z","","","","","","","",""
"null","","","html-keyboard-response","146","1395164","0.0-146.0","bj6o9f2z","","<span style=""color:Black; font-size:50px;"">Agent A","null","","","","",""
"null","","","video-keyboard-response","147","1397971","0.0-147.0","bj6o9f2z","","","null","","Agent A","veridical","FOR_REV_BLOBBY_STIM/1592351.bmp_pp51_L1_V1.0_veridical_freeview_isoFalse_fps144.mp4",""
"null","","","html-keyboard-response","148","1399477","0.0-148.0","bj6o9f2z","","<span style=""color:Black; font-size:50px;"">Agent B","null","","","","",""
"null","","","video-keyboard-response","149","1402317","0.0-149.0","bj6o9f2z","","","null","","Agent B","scrambled","FOR_REV_BLOBBY_STIM/1592351.bmp_pp51_L1_V1.0_veridical_freeview_isoFalse_fps144_reversed_REAL.mp4",""
"","","","call-function","150","1402318","0.0-150.0","bj6o9f2z","","","","","","","",""
"5967.184999999823","{""judgement"":0}","[0]","survey-likert","151","1408287","0.0-151.0","bj6o9f2z","","","","","","","","0"
"1537.5849999999627","{""confidence"":1}","[0]","survey-likert","152","1409826","0.0-152.0","bj6o9f2z","","","","","","","",""
"","","","call-function","153","1409828","0.0-153.0","bj6o9f2z","","","","","","","",""
"null","","","html-keyboard-response","154","1411331","0.0-154.0","bj6o9f2z","","<span style=""color:Black; font-size:50px;"">Agent A","null","","","","",""
"null","","","video-keyboard-response","155","1414114","0.0-155.0","bj6o9f2z","","","null","","Agent A","scrambled","FOR_REV_BLOBBY_STIM/1593041.bmp_pp58_L1_V1.0_veridical_freeview_isoFalse_fps144_reversed_REAL.mp4",""
"null","","","html-keyboard-response","156","1415618","0.0-156.0","bj6o9f2z","","<span style=""color:Black; font-size:50px;"">Agent B","null","","","","",""
"null","","","video-keyboard-response","157","1418408","0.0-157.0","bj6o9f2z","","","null","","Agent B","veridical","FOR_REV_BLOBBY_STIM/1593041.bmp_pp58_L1_V1.0_veridical_freeview_isoFalse_fps144.mp4",""
"","","","call-function","158","1418409","0.0-158.0","bj6o9f2z","","","","","","","",""
"5612.824999999953","{""judgement"":1}","[0]","survey-likert","159","1424023","0.0-159.0","bj6o9f2z","","","","","","","","1"
"1770.535000000149","{""confidence"":1}","[0]","survey-likert","160","1425796","0.0-160.0","bj6o9f2z","","","","","","","",""
"","","","call-function","161","1425797","0.0-161.0","bj6o9f2z","","","","","","","",""
"null","","","html-keyboard-response","162","1427298","0.0-162.0","bj6o9f2z","","<span style=""color:Black; font-size:50px;"">Agent A","null","","","","",""
"null","","","video-keyboard-response","163","1429942","0.0-163.0","bj6o9f2z","","","null","","Agent A","veridical","FOR_REV_BLOBBY_STIM/713779.bmp_pp152_L2_V1.0_veridical_freeview_isoFalse_fps144.mp4",""
"null","","","html-keyboard-response","164","1431448","0.0-164.0","bj6o9f2z","","<span style=""color:Black; font-size:50px;"">Agent B","null","","","","",""
"null","","","video-keyboard-response","165","1434103","0.0-165.0","bj6o9f2z","","","null","","Agent B","scrambled","FOR_REV_BLOBBY_STIM/713779.bmp_pp152_L2_V1.0_veridical_freeview_isoFalse_fps144_reversed_REAL.mp4",""
"","","","call-function","166","1434105","0.0-166.0","bj6o9f2z","","","","","","","",""
"10267.100000000093","{""judgement"":0}","[0]","survey-likert","167","1444373","0.0-167.0","bj6o9f2z","","","","","","","","0"
"3085.2299999999814","{""confidence"":0}","[0]","survey-likert","168","1447460","0.0-168.0","bj6o9f2z","","","","","","","",""
"4057.030000000028","","","instructions","169","1451519","0.0-169.0","bj6o9f2z","[{""page_index"":0,""viewing_time"":1858.7849999999162},{""page_index"":1,""viewing_time"":1048.880000000121},{""page_index"":2,""viewing_time"":1149.1950000000652}]","","","","","","",""
"4834.815000000177","","","instructions","170","1456355","0.0-170.0","bj6o9f2z","[{""page_index"":0,""viewing_time"":1514.3950000000186},{""page_index"":1,""viewing_time"":2442.0849999999627},{""page_index"":2,""viewing_time"":878.2150000000838}]","","","","","","",""
"","","","call-function","171","1456356","0.0-171.0","bj6o9f2z","","","","","","","",""
"null","","","html-keyboard-response","172","1457860","0.0-172.0","bj6o9f2z","","<span style=""color:Black; font-size:50px;"">Agent A","null","","","","",""
"null","","","video-keyboard-response","173","1460665","0.0-173.0","bj6o9f2z","","","null","","Agent A","scrambled","FOR_REV_BLOBBY_STIM/1159440.bmp_pp98_L1_V1.0_veridical_freeview_isoFalse_fps144_reversed_REAL.mp4",""
"null","","","html-keyboard-response","174","1462168","0.0-174.0","bj6o9f2z","","<span style=""color:Black; font-size:50px;"">Agent B","null","","","","",""
"null","","","video-keyboard-response","175","1464969","0.0-175.0","bj6o9f2z","","","null","","Agent B","veridical","FOR_REV_BLOBBY_STIM/1159440.bmp_pp98_L1_V1.0_veridical_freeview_isoFalse_fps144.mp4",""
"","","","call-function","176","1464971","0.0-176.0","bj6o9f2z","","","","","","","",""
"2012","{""judgement"":1}","[0]","survey-likert","177","1466984","0.0-177.0","bj6o9f2z","","","","","","","","1"
"2280.3850000000093","{""confidence"":1}","[0]","survey-likert","178","1469266","0.0-178.0","bj6o9f2z","","","","","","","",""
"","","","call-function","179","1469268","0.0-179.0","bj6o9f2z","","","","","","","",""
"null","","","html-keyboard-response","180","1470772","0.0-180.0","bj6o9f2z","","<span style=""color:Black; font-size:50px;"">Agent A","null","","","","",""
"null","","","video-keyboard-response","181","1473591","0.0-181.0","bj6o9f2z","","","null","","Agent A","scrambled","FOR_REV_BLOBBY_STIM/712977.bmp_pp51_L1_V1.0_veridical_freeview_isoFalse_fps144_reversed_REAL.mp4",""
"null","","","html-keyboard-response","182","1475098","0.0-182.0","bj6o9f2z","","<span style=""color:Black; font-size:50px;"">Agent B","null","","","","",""
"null","","","video-keyboard-response","183","1477945","0.0-183.0","bj6o9f2z","","","null","","Agent B","veridical","FOR_REV_BLOBBY_STIM/712977.bmp_pp51_L1_V1.0_veridical_freeview_isoFalse_fps144.mp4",""
"","","","call-function","184","1477946","0.0-184.0","bj6o9f2z","","","","","","","",""
"1904.7250000000931","{""judgement"":1}","[0]","survey-likert","185","1479852","0.0-185.0","bj6o9f2z","","","","","","","","1"
"1346.25","{""confidence"":2}","[0]","survey-likert","186","1481200","0.0-186.0","bj6o9f2z","","","","","","","",""
"","","","call-function","187","1481202","0.0-187.0","bj6o9f2z","","","","","","","",""
"null","","","html-keyboard-response","188","1482705","0.0-188.0","bj6o9f2z","","<span style=""color:Black; font-size:50px;"">Agent A","null","","","","",""
"null","","","video-keyboard-response","189","1485515","0.0-189.0","bj6o9f2z","","","null","","Agent A","veridical","FOR_REV_BLOBBY_STIM/1592804.bmp_pp91_L3_V1.0_veridical_freeview_isoFalse_fps144.mp4",""
"null","","","html-keyboard-response","190","1487042","0.0-190.0","bj6o9f2z","","<span style=""color:Black; font-size:50px;"">Agent B","null","","","","",""
"null","","","video-keyboard-response","191","1489834","0.0-191.0","bj6o9f2z","","","null","","Agent B","scrambled","FOR_REV_BLOBBY_STIM/1592804.bmp_pp91_L3_V1.0_veridical_freeview_isoFalse_fps144_reversed_REAL.mp4",""
"","","","call-function","192","1489836","0.0-192.0","bj6o9f2z","","","","","","","",""
"2240.6100000001024","{""judgement"":0}","[0]","survey-likert","193","1492079","0.0-193.0","bj6o9f2z","","","","","","","","0"
"1738.565000000177","{""confidence"":2}","[0]","survey-likert","194","1493820","0.0-194.0","bj6o9f2z","","","","","","","",""
"","","","call-function","195","1493822","0.0-195.0","bj6o9f2z","","","","","","","",""
"null","","","html-keyboard-response","196","1495327","0.0-196.0","bj6o9f2z","","<span style=""color:Black; font-size:50px;"">Agent A","null","","","","",""
"null","","","video-keyboard-response","197","1498135","0.0-197.0","bj6o9f2z","","","null","","Agent A","scrambled","FOR_REV_BLOBBY_STIM/1159768.bmp_pp89_L1_V1.0_veridical_freeview_isoFalse_fps144_reversed_REAL.mp4",""
"null","","","html-keyboard-response","198","1499639","0.0-198.0","bj6o9f2z","","<span style=""color:Black; font-size:50px;"">Agent B","null","","","","",""
"null","","","video-keyboard-response","199","1502430","0.0-199.0","bj6o9f2z","","","null","","Agent B","veridical","FOR_REV_BLOBBY_STIM/1159768.bmp_pp89_L1_V1.0_veridical_freeview_isoFalse_fps144.mp4",""
"","","","call-function","200","1502432","0.0-200.0","bj6o9f2z","","","","","","","",""
"2124.4199999999255","{""judgement"":1}","[0]","survey-likert","201","1504557","0.0-201.0","bj6o9f2z","","","","","","","","1"
"1533.8050000001676","{""confidence"":2}","[0]","survey-likert","202","1506093","0.0-202.0","bj6o9f2z","","","","","","","",""
"","","","call-function","203","1506095","0.0-203.0","bj6o9f2z","","","","","","","",""
"null","","","html-keyboard-response","204","1507598","0.0-204.0","bj6o9f2z","","<span style=""color:Black; font-size:50px;"">Agent A","null","","","","",""
"null","","","video-keyboard-response","205","1510450","0.0-205.0","bj6o9f2z","","","null","","Agent A","veridical","FOR_REV_BLOBBY_STIM/713017.bmp_pp152_L2_V1.0_veridical_freeview_isoFalse_fps144.mp4",""
"null","","","html-keyboard-response","206","1511957","0.0-206.0","bj6o9f2z","","<span style=""color:Black; font-size:50px;"">Agent B","null","","","","",""
"null","","","video-keyboard-response","207","1514825","0.0-207.0","bj6o9f2z","","","null","","Agent B","scrambled","FOR_REV_BLOBBY_STIM/713017.bmp_pp152_L2_V1.0_veridical_freeview_isoFalse_fps144_reversed_REAL.mp4",""
"","","","call-function","208","1514827","0.0-208.0","bj6o9f2z","","","","","","","",""
"4479.760000000009","{""judgement"":1}","[0]","survey-likert","209","1519308","0.0-209.0","bj6o9f2z","","","","","","","","0"
"3186.880000000121","{""confidence"":2}","[0]","survey-likert","210","1522497","0.0-210.0","bj6o9f2z","","","","","","","",""
"","","","call-function","211","1522498","0.0-211.0","bj6o9f2z","","","","","","","",""
"null","","","html-keyboard-response","212","1524001","0.0-212.0","bj6o9f2z","","<span style=""color:Black; font-size:50px;"">Agent A","null","","","","",""
"null","","","video-keyboard-response","213","1526831","0.0-213.0","bj6o9f2z","","","null","","Agent A","scrambled","FOR_REV_BLOBBY_STIM/1592890.bmp_pp82_L2_V1.0_veridical_freeview_isoFalse_fps144_reversed_REAL.mp4",""
"null","","","html-keyboard-response","214","1528339","0.0-214.0","bj6o9f2z","","<span style=""color:Black; font-size:50px;"">Agent B","null","","","","",""
"null","","","video-keyboard-response","215","1531163","0.0-215.0","bj6o9f2z","","","null","","Agent B","veridical","FOR_REV_BLOBBY_STIM/1592890.bmp_pp82_L2_V1.0_veridical_freeview_isoFalse_fps144.mp4",""
"","","","call-function","216","1531165","0.0-216.0","bj6o9f2z","","","","","","","",""
"3964.6700000001583","{""judgement"":0}","[0]","survey-likert","217","1535132","0.0-217.0","bj6o9f2z","","","","","","","","1"
"1413.1149999999907","{""confidence"":1}","[0]","survey-likert","218","1536547","0.0-218.0","bj6o9f2z","","","","","","","",""
"","","","call-function","219","1536548","0.0-219.0","bj6o9f2z","","","","","","","",""
"null","","","html-keyboard-response","220","1538051","0.0-220.0","bj6o9f2z","","<span style=""color:Black; font-size:50px;"">Agent A","null","","","","",""
"null","","","video-keyboard-response","221","1540867","0.0-221.0","bj6o9f2z","","","null","","Agent A","veridical","FOR_REV_BLOBBY_STIM/1159777.bmp_pp77_L3_V1.0_veridical_freeview_isoFalse_fps144.mp4",""
"null","","","html-keyboard-response","222","1542374","0.0-222.0","bj6o9f2z","","<span style=""color:Black; font-size:50px;"">Agent B","null","","","","",""
"null","","","video-keyboard-response","223","1545194","0.0-223.0","bj6o9f2z","","","null","","Agent B","scrambled","FOR_REV_BLOBBY_STIM/1159777.bmp_pp77_L3_V1.0_veridical_freeview_isoFalse_fps144_reversed_REAL.mp4",""
"","","","call-function","224","1545196","0.0-224.0","bj6o9f2z","","","","","","","",""
"3002.6750000000466","{""judgement"":0}","[0]","survey-likert","225","1548199","0.0-225.0","bj6o9f2z","","","","","","","","0"
"1969.1149999999907","{""confidence"":2}","[0]","survey-likert","226","1550171","0.0-226.0","bj6o9f2z","","","","","","","",""
"","","","call-function","227","1550172","0.0-227.0","bj6o9f2z","","","","","","","",""
"null","","","html-keyboard-response","228","1551675","0.0-228.0","bj6o9f2z","","<span style=""color:Black; font-size:50px;"">Agent A","null","","","","",""
"null","","","video-keyboard-response","229","1554565","0.0-229.0","bj6o9f2z","","","null","","Agent A","scrambled","FOR_REV_BLOBBY_STIM/1160127.bmp_pp90_L2_V1.0_veridical_freeview_isoFalse_fps144_reversed_REAL.mp4",""
"null","","","html-keyboard-response","230","1556073","0.0-230.0","bj6o9f2z","","<span style=""color:Black; font-size:50px;"">Agent B","null","","","","",""
"null","","","video-keyboard-response","231","1558952","0.0-231.0","bj6o9f2z","","","null","","Agent B","veridical","FOR_REV_BLOBBY_STIM/1160127.bmp_pp90_L2_V1.0_veridical_freeview_isoFalse_fps144.mp4",""
"","","","call-function","232","1558953","0.0-232.0","bj6o9f2z","","","","","","","",""
"2655.2649999998976","{""judgement"":0}","[0]","survey-likert","233","1561610","0.0-233.0","bj6o9f2z","","","","","","","","1"
"1970.6799999999348","{""confidence"":2}","[0]","survey-likert","234","1563583","0.0-234.0","bj6o9f2z","","","","","","","",""
"","","","call-function","235","1563586","0.0-235.0","bj6o9f2z","","","","","","","",""
"null","","","html-keyboard-response","236","1565088","0.0-236.0","bj6o9f2z","","<span style=""color:Black; font-size:50px;"">Agent A","null","","","","",""
"null","","","video-keyboard-response","237","1567937","0.0-237.0","bj6o9f2z","","","null","","Agent A","veridical","FOR_REV_BLOBBY_STIM/497950.bmp_pp151_L1_V1.0_veridical_freeview_isoFalse_fps144.mp4",""
"null","","","html-keyboard-response","238","1569443","0.0-238.0","bj6o9f2z","","<span style=""color:Black; font-size:50px;"">Agent B","null","","","","",""
"null","","","video-keyboard-response","239","1572279","0.0-239.0","bj6o9f2z","","","null","","Agent B","scrambled","FOR_REV_BLOBBY_STIM/497950.bmp_pp151_L1_V1.0_veridical_freeview_isoFalse_fps144_reversed_REAL.mp4",""
"","","","call-function","240","1572280","0.0-240.0","bj6o9f2z","","","","","","","",""
"1850.7100000001956","{""judgement"":0}","[0]","survey-likert","241","1574132","0.0-241.0","bj6o9f2z","","","","","","","","0"
"2072.2650000001304","{""confidence"":2}","[0]","survey-likert","242","1576207","0.0-242.0","bj6o9f2z","","","","","","","",""
"","","","call-function","243","1576208","0.0-243.0","bj6o9f2z","","","","","","","",""
"null","","","html-keyboard-response","244","1577710","0.0-244.0","bj6o9f2z","","<span style=""color:Black; font-size:50px;"">Agent A","null","","","","",""
"null","","","video-keyboard-response","245","1580238","0.0-245.0","bj6o9f2z","","","null","","Agent A","scrambled","FOR_REV_BLOBBY_STIM/713796.bmp_pp84_L3_V1.0_veridical_freeview_isoFalse_fps144_reversed_REAL.mp4",""
"null","","","html-keyboard-response","246","1581742","0.0-246.0","bj6o9f2z","","<span style=""color:Black; font-size:50px;"">Agent B","null","","","","",""
"null","","","video-keyboard-response","247","1584294","0.0-247.0","bj6o9f2z","","","null","","Agent B","veridical","FOR_REV_BLOBBY_STIM/713796.bmp_pp84_L3_V1.0_veridical_freeview_isoFalse_fps144.mp4",""
"","","","call-function","248","1584295","0.0-248.0","bj6o9f2z","","","","","","","",""
"2384.5250000001397","{""judgement"":1}","[0]","survey-likert","249","1586681","0.0-249.0","bj6o9f2z","","","","","","","","1"
"1500.7600000000093","{""confidence"":2}","[0]","survey-likert","250","1588184","0.0-250.0","bj6o9f2z","","","","","","","",""
"18074.794999999925","","","instructions","251","1606260","0.0-251.0","bj6o9f2z","[{""page_index"":0,""viewing_time"":1514.7049999998417},{""page_index"":1,""viewing_time"":13942.925000000047},{""page_index"":2,""viewing_time"":2617}]","","","","","","",""
"4190.75","","","instructions","252","1610452","0.0-252.0","bj6o9f2z","[{""page_index"":0,""viewing_time"":1485.469999999972},{""page_index"":1,""viewing_time"":1860.094999999972},{""page_index"":2,""viewing_time"":845.0549999999348}]","","","","","","",""
"","","","call-function","253","1610453","0.0-253.0","bj6o9f2z","","","","","","","",""
"null","","","html-keyboard-response","254","1611956","0.0-254.0","bj6o9f2z","","<span style=""color:Black; font-size:50px;"">Agent A","null","","","","",""
"null","","","video-keyboard-response","255","1614806","0.0-255.0","bj6o9f2z","","","null","","Agent A","veridical","FOR_REV_BLOBBY_STIM/1592286.bmp_pp52_L1_V1.0_veridical_freeview_isoFalse_fps144.mp4",""
"null","","","html-keyboard-response","256","1616310","0.0-256.0","bj6o9f2z","","<span style=""color:Black; font-size:50px;"">Agent B","null","","","","",""
"null","","","video-keyboard-response","257","1619159","0.0-257.0","bj6o9f2z","","","null","","Agent B","scrambled","FOR_REV_BLOBBY_STIM/1592286.bmp_pp52_L1_V1.0_veridical_freeview_isoFalse_fps144_reversed_REAL.mp4",""
"","","","call-function","258","1619160","0.0-258.0","bj6o9f2z","","","","","","","",""
"3108.4250000000466","{""judgement"":0}","[0]","survey-likert","259","1622270","0.0-259.0","bj6o9f2z","","","","","","","","0"
"2995.6299999998882","{""confidence"":3}","[0]","survey-likert","260","1625268","0.0-260.0","bj6o9f2z","","","","","","","",""
"","","","call-function","261","1625269","0.0-261.0","bj6o9f2z","","","","","","","",""
"null","","","html-keyboard-response","262","1626771","0.0-262.0","bj6o9f2z","","<span style=""color:Black; font-size:50px;"">Agent A","null","","","","",""
"null","","","video-keyboard-response","263","1629624","0.0-263.0","bj6o9f2z","","","null","","Agent A","veridical","FOR_REV_BLOBBY_STIM/713371.bmp_pp68_L1_V1.0_veridical_freeview_isoFalse_fps144.mp4",""
"null","","","html-keyboard-response","264","1631130","0.0-264.0","bj6o9f2z","","<span style=""color:Black; font-size:50px;"">Agent B","null","","","","",""
"null","","","video-keyboard-response","265","1633944","0.0-265.0","bj6o9f2z","","","null","","Agent B","scrambled","FOR_REV_BLOBBY_STIM/713371.bmp_pp68_L1_V1.0_veridical_freeview_isoFalse_fps144_reversed_REAL.mp4",""
"","","","call-function","266","1633946","0.0-266.0","bj6o9f2z","","","","","","","",""
"2318.564999999944","{""judgement"":0}","[0]","survey-likert","267","1636266","0.0-267.0","bj6o9f2z","","","","","","","","0"
"1695.5700000000652","{""confidence"":3}","[0]","survey-likert","268","1637966","0.0-268.0","bj6o9f2z","","","","","","","",""
"","","","call-function","269","1637968","0.0-269.0","bj6o9f2z","","","","","","","",""
"null","","","html-keyboard-response","270","1639472","0.0-270.0","bj6o9f2z","","<span style=""color:Black; font-size:50px;"">Agent A","null","","","","",""
"null","","","video-keyboard-response","271","1642074","0.0-271.0","bj6o9f2z","","","null","","Agent A","scrambled","FOR_REV_BLOBBY_STIM/1593146.bmp_pp93_L1_V1.0_veridical_freeview_isoFalse_fps144_reversed_REAL.mp4",""
"null","","","html-keyboard-response","272","1643578","0.0-272.0","bj6o9f2z","","<span style=""color:Black; font-size:50px;"">Agent B","null","","","","",""
"null","","","video-keyboard-response","273","1646174","0.0-273.0","bj6o9f2z","","","null","","Agent B","veridical","FOR_REV_BLOBBY_STIM/1593146.bmp_pp93_L1_V1.0_veridical_freeview_isoFalse_fps144.mp4",""
"","","","call-function","274","1646176","0.0-274.0","bj6o9f2z","","","","","","","",""
"5267.024999999907","{""judgement"":1}","[0]","survey-likert","275","1651444","0.0-275.0","bj6o9f2z","","","","","","","","1"
"2847.8300000000745","{""confidence"":2}","[0]","survey-likert","276","1654294","0.0-276.0","bj6o9f2z","","","","","","","",""
"","","","call-function","277","1654296","0.0-277.0","bj6o9f2z","","","","","","","",""
"null","","","html-keyboard-response","278","1655798","0.0-278.0","bj6o9f2z","","<span style=""color:Black; font-size:50px;"">Agent A","null","","","","",""
"null","","","video-keyboard-response","279","1658502","0.0-279.0","bj6o9f2z","","","null","","Agent A","scrambled","FOR_REV_BLOBBY_STIM/1160168.bmp_pp53_L2_V1.0_veridical_freeview_isoFalse_fps144_reversed_REAL.mp4",""
"null","","","html-keyboard-response","280","1660009","0.0-280.0","bj6o9f2z","","<span style=""color:Black; font-size:50px;"">Agent B","null","","","","",""
"null","","","video-keyboard-response","281","1662742","0.0-281.0","bj6o9f2z","","","null","","Agent B","veridical","FOR_REV_BLOBBY_STIM/1160168.bmp_pp53_L2_V1.0_veridical_freeview_isoFalse_fps144.mp4",""
"","","","call-function","282","1662744","0.0-282.0","bj6o9f2z","","","","","","","",""
"11971.185000000056","{""judgement"":0}","[0]","survey-likert","283","1674716","0.0-283.0","bj6o9f2z","","","","","","","","1"
"1676.1099999998696","{""confidence"":1}","[0]","survey-likert","284","1676394","0.0-284.0","bj6o9f2z","","","","","","","",""
"","","","call-function","285","1676396","0.0-285.0","bj6o9f2z","","","","","","","",""
"null","","","html-keyboard-response","286","1677901","0.0-286.0","bj6o9f2z","","<span style=""color:Black; font-size:50px;"">Agent A","null","","","","",""
"null","","","video-keyboard-response","287","1680740","0.0-287.0","bj6o9f2z","","","null","","Agent A","veridical","FOR_REV_BLOBBY_STIM/1591954.bmp_pp62_L2_V1.0_veridical_freeview_isoFalse_fps144.mp4",""
"null","","","html-keyboard-response","288","1682243","0.0-288.0","bj6o9f2z","","<span style=""color:Black; font-size:50px;"">Agent B","null","","","","",""
"null","","","video-keyboard-response","289","1685011","0.0-289.0","bj6o9f2z","","","null","","Agent B","scrambled","FOR_REV_BLOBBY_STIM/1591954.bmp_pp62_L2_V1.0_veridical_freeview_isoFalse_fps144_reversed_REAL.mp4",""
"","","","call-function","290","1685012","0.0-290.0","bj6o9f2z","","","","","","","",""
"1985.7849999999162","{""judgement"":0}","[0]","survey-likert","291","1686999","0.0-291.0","bj6o9f2z","","","","","","","","0"
"1433.0249999999069","{""confidence"":2}","[0]","survey-likert","292","1688434","0.0-292.0","bj6o9f2z","","","","","","","",""
"","","","call-function","293","1688436","0.0-293.0","bj6o9f2z","","","","","","","",""
"null","","","html-keyboard-response","294","1689939","0.0-294.0","bj6o9f2z","","<span style=""color:Black; font-size:50px;"">Agent A","null","","","","",""
"null","","","video-keyboard-response","295","1692658","0.0-295.0","bj6o9f2z","","","null","","Agent A","veridical","FOR_REV_BLOBBY_STIM/1592133.bmp_pp75_L1_V1.0_veridical_freeview_isoFalse_fps144.mp4",""
"null","","","html-keyboard-response","296","1694164","0.0-296.0","bj6o9f2z","","<span style=""color:Black; font-size:50px;"">Agent B","null","","","","",""
"null","","","video-keyboard-response","297","1696883","0.0-297.0","bj6o9f2z","","","null","","Agent B","scrambled","FOR_REV_BLOBBY_STIM/1592133.bmp_pp75_L1_V1.0_veridical_freeview_isoFalse_fps144_reversed_REAL.mp4",""
"","","","call-function","298","1696884","0.0-298.0","bj6o9f2z","","","","","","","",""
"1859.1399999998976","{""judgement"":1}","[0]","survey-likert","299","1698744","0.0-299.0","bj6o9f2z","","","","","","","","0"
"2181.5450000001583","{""confidence"":2}","[0]","survey-likert","300","1700928","0.0-300.0","bj6o9f2z","","","","","","","",""
"","","","call-function","301","1700929","0.0-301.0","bj6o9f2z","","","","","","","",""
"null","","","html-keyboard-response","302","1702432","0.0-302.0","bj6o9f2z","","<span style=""color:Black; font-size:50px;"">Agent A","null","","","","",""
"null","","","video-keyboard-response","303","1705223","0.0-303.0","bj6o9f2z","","","null","","Agent A","scrambled","FOR_REV_BLOBBY_STIM/1159855.bmp_pp99_L2_V1.0_veridical_freeview_isoFalse_fps144_reversed_REAL.mp4",""
"null","","","html-keyboard-response","304","1706726","0.0-304.0","bj6o9f2z","","<span style=""color:Black; font-size:50px;"">Agent B","null","","","","",""
"null","","","video-keyboard-response","305","1709510","0.0-305.0","bj6o9f2z","","","null","","Agent B","veridical","FOR_REV_BLOBBY_STIM/1159855.bmp_pp99_L2_V1.0_veridical_freeview_isoFalse_fps144.mp4",""
"","","","call-function","306","1709511","0.0-306.0","bj6o9f2z","","","","","","","",""
"2253.6299999998882","{""judgement"":1}","[0]","survey-likert","307","1711766","0.0-307.0","bj6o9f2z","","","","","","","","1"
"2021.964999999851","{""confidence"":2}","[0]","survey-likert","308","1713790","0.0-308.0","bj6o9f2z","","","","","","","",""
"","","","call-function","309","1713791","0.0-309.0","bj6o9f2z","","","","","","","",""
"null","","","html-keyboard-response","310","1715296","0.0-310.0","bj6o9f2z","","<span style=""color:Black; font-size:50px;"">Agent A","null","","","","",""
"null","","","video-keyboard-response","311","1717831","0.0-311.0","bj6o9f2z","","","null","","Agent A","scrambled","FOR_REV_BLOBBY_STIM/713513.bmp_pp62_L2_V1.0_veridical_freeview_isoFalse_fps144_reversed_REAL.mp4",""
"null","","","html-keyboard-response","312","1719335","0.0-312.0","bj6o9f2z","","<span style=""color:Black; font-size:50px;"">Agent B","null","","","","",""
"null","","","video-keyboard-response","313","1721842","0.0-313.0","bj6o9f2z","","","null","","Agent B","veridical","FOR_REV_BLOBBY_STIM/713513.bmp_pp62_L2_V1.0_veridical_freeview_isoFalse_fps144.mp4",""
"","","","call-function","314","1721844","0.0-314.0","bj6o9f2z","","","","","","","",""
"8676.590000000084","{""judgement"":1}","[0]","survey-likert","315","1730521","0.0-315.0","bj6o9f2z","","","","","","","","1"
"1418.2949999999255","{""confidence"":1}","[0]","survey-likert","316","1731942","0.0-316.0","bj6o9f2z","","","","","","","",""
"","","","call-function","317","1731943","0.0-317.0","bj6o9f2z","","","","","","","",""
"null","","","html-keyboard-response","318","1733446","0.0-318.0","bj6o9f2z","","<span style=""color:Black; font-size:50px;"">Agent A","null","","","","",""
"null","","","video-keyboard-response","319","1736328","0.0-319.0","bj6o9f2z","","","null","","Agent A","scrambled","FOR_REV_BLOBBY_STIM/1159447.bmp_pp70_L2_V1.0_veridical_freeview_isoFalse_fps144_reversed_REAL.mp4",""
"null","","","html-keyboard-response","320","1737831","0.0-320.0","bj6o9f2z","","<span style=""color:Black; font-size:50px;"">Agent B","null","","","","",""
"null","","","video-keyboard-response","321","1740718","0.0-321.0","bj6o9f2z","","","null","","Agent B","veridical","FOR_REV_BLOBBY_STIM/1159447.bmp_pp70_L2_V1.0_veridical_freeview_isoFalse_fps144.mp4",""
"","","","call-function","322","1740719","0.0-322.0","bj6o9f2z","","","","","","","",""
"2230.659999999916","{""judgement"":1}","[0]","survey-likert","323","1742951","0.0-323.0","bj6o9f2z","","","","","","","","1"
"1490.244999999879","{""confidence"":3}","[0]","survey-likert","324","1744443","0.0-324.0","bj6o9f2z","","","","","","","",""
"","","","call-function","325","1744445","0.0-325.0","bj6o9f2z","","","","","","","",""
"null","","","html-keyboard-response","326","1745948","0.0-326.0","bj6o9f2z","","<span style=""color:Black; font-size:50px;"">Agent A","null","","","","",""
"null","","","video-keyboard-response","327","1748799","0.0-327.0","bj6o9f2z","","","null","","Agent A","scrambled","FOR_REV_BLOBBY_STIM/713666.bmp_pp97_L3_V1.0_veridical_freeview_isoFalse_fps144_reversed_REAL.mp4",""
"null","","","html-keyboard-response","328","1750304","0.0-328.0","bj6o9f2z","","<span style=""color:Black; font-size:50px;"">Agent B","null","","","","",""
"null","","","video-keyboard-response","329","1753185","0.0-329.0","bj6o9f2z","","","null","","Agent B","veridical","FOR_REV_BLOBBY_STIM/713666.bmp_pp97_L3_V1.0_veridical_freeview_isoFalse_fps144.mp4",""
"","","","call-function","330","1753188","0.0-330.0","bj6o9f2z","","","","","","","",""
"4592.399999999907","{""judgement"":1}","[0]","survey-likert","331","1757782","0.0-331.0","bj6o9f2z","","","","","","","","1"
"1397.969999999972","{""confidence"":1}","[0]","survey-likert","332","1759183","0.0-332.0","bj6o9f2z","","","","","","","",""
"94627.45500000007","","","instructions","333","1853813","0.0-333.0","bj6o9f2z","[{""page_index"":0,""viewing_time"":1395.1200000001118},{""page_index"":1,""viewing_time"":91645.85499999998},{""page_index"":2,""viewing_time"":1586.2949999999255}]","","","","","","",""
"2361.4250000000466","","","instructions","334","1856177","0.0-334.0","bj6o9f2z","[{""page_index"":0,""viewing_time"":896.25},{""page_index"":1,""viewing_time"":786.0850000001956},{""page_index"":2,""viewing_time"":678.9699999999721}]","","","","","","",""
"","","","call-function","335","1856179","0.0-335.0","bj6o9f2z","","","","","","","",""
"null","","","html-keyboard-response","336","1857683","0.0-336.0","bj6o9f2z","","<span style=""color:Black; font-size:50px;"">Agent A","null","","","","",""
"null","","","video-keyboard-response","337","1860401","0.0-337.0","bj6o9f2z","","","null","","Agent A","veridical","FOR_REV_BLOBBY_STIM/498170.bmp_pp153_L3_V1.0_veridical_freeview_isoFalse_fps144.mp4",""
"null","","","html-keyboard-response","338","1861905","0.0-338.0","bj6o9f2z","","<span style=""color:Black; font-size:50px;"">Agent B","null","","","","",""
"null","","","video-keyboard-response","339","1864624","0.0-339.0","bj6o9f2z","","","null","","Agent B","scrambled","FOR_REV_BLOBBY_STIM/498170.bmp_pp153_L3_V1.0_veridical_freeview_isoFalse_fps144_reversed_REAL.mp4",""
"","","","call-function","340","1864626","0.0-340.0","bj6o9f2z","","","","","","","",""
"1832.344999999972","{""judgement"":0}","[0]","survey-likert","341","1866459","0.0-341.0","bj6o9f2z","","","","","","","","0"
"1447.9350000000559","{""confidence"":2}","[0]","survey-likert","342","1867910","0.0-342.0","bj6o9f2z","","","","","","","",""
"","","","call-function","343","1867911","0.0-343.0","bj6o9f2z","","","","","","","",""
"null","","","html-keyboard-response","344","1869417","0.0-344.0","bj6o9f2z","","<span style=""color:Black; font-size:50px;"">Agent A","null","","","","",""
"null","","","video-keyboard-response","345","1872202","0.0-345.0","bj6o9f2z","","","null","","Agent A","scrambled","FOR_REV_BLOBBY_STIM/1159621.bmp_pp92_L3_V1.0_veridical_freeview_isoFalse_fps144_reversed_REAL.mp4",""
"null","","","html-keyboard-response","346","1873708","0.0-346.0","bj6o9f2z","","<span style=""color:Black; font-size:50px;"">Agent B","null","","","","",""
"null","","","video-keyboard-response","347","1876517","0.0-347.0","bj6o9f2z","","","null","","Agent B","veridical","FOR_REV_BLOBBY_STIM/1159621.bmp_pp92_L3_V1.0_veridical_freeview_isoFalse_fps144.mp4",""
"","","","call-function","348","1876519","0.0-348.0","bj6o9f2z","","","","","","","",""
"2137.5200000000186","{""judgement"":0}","[0]","survey-likert","349","1878657","0.0-349.0","bj6o9f2z","","","","","","","","1"
"1401.244999999879","{""confidence"":2}","[0]","survey-likert","350","1880061","0.0-350.0","bj6o9f2z","","","","","","","",""
"","","","call-function","351","1880062","0.0-351.0","bj6o9f2z","","","","","","","",""
"null","","","html-keyboard-response","352","1881564","0.0-352.0","bj6o9f2z","","<span style=""color:Black; font-size:50px;"">Agent A","null","","","","",""
"null","","","video-keyboard-response","353","1884431","0.0-353.0","bj6o9f2z","","","null","","Agent A","scrambled","FOR_REV_BLOBBY_STIM/1592807.bmp_pp68_L1_V1.0_veridical_freeview_isoFalse_fps144_reversed_REAL.mp4",""
"null","","","html-keyboard-response","354","1885937","0.0-354.0","bj6o9f2z","","<span style=""color:Black; font-size:50px;"">Agent B","null","","","","",""
"null","","","video-keyboard-response","355","1888805","0.0-355.0","bj6o9f2z","","","null","","Agent B","veridical","FOR_REV_BLOBBY_STIM/1592807.bmp_pp68_L1_V1.0_veridical_freeview_isoFalse_fps144.mp4",""
"","","","call-function","356","1888807","0.0-356.0","bj6o9f2z","","","","","","","",""
"2022.3049999999348","{""judgement"":0}","[0]","survey-likert","357","1890830","0.0-357.0","bj6o9f2z","","","","","","","","1"
"1832.0200000000186","{""confidence"":2}","[0]","survey-likert","358","1892664","0.0-358.0","bj6o9f2z","","","","","","","",""
"","","","call-function","359","1892666","0.0-359.0","bj6o9f2z","","","","","","","",""
"null","","","html-keyboard-response","360","1894170","0.0-360.0","bj6o9f2z","","<span style=""color:Black; font-size:50px;"">Agent A","null","","","","",""
"null","","","video-keyboard-response","361","1896971","0.0-361.0","bj6o9f2z","","","null","","Agent A","veridical","FOR_REV_BLOBBY_STIM/1592499.bmp_pp96_L2_V1.0_veridical_freeview_isoFalse_fps144.mp4",""
"null","","","html-keyboard-response","362","1898474","0.0-362.0","bj6o9f2z","","<span style=""color:Black; font-size:50px;"">Agent B","null","","","","",""
"null","","","video-keyboard-response","363","1901288","0.0-363.0","bj6o9f2z","","","null","","Agent B","scrambled","FOR_REV_BLOBBY_STIM/1592499.bmp_pp96_L2_V1.0_veridical_freeview_isoFalse_fps144_reversed_REAL.mp4",""
"","","","call-function","364","1901289","0.0-364.0","bj6o9f2z","","","","","","","",""
"8468.38500000001","{""judgement"":0}","[0]","survey-likert","365","1909758","0.0-365.0","bj6o9f2z","","","","","","","","0"
"1385.8549999999814","{""confidence"":1}","[0]","survey-likert","366","1911147","0.0-366.0","bj6o9f2z","","","","","","","",""
"","","","call-function","367","1911148","0.0-367.0","bj6o9f2z","","","","","","","",""
"null","","","html-keyboard-response","368","1912650","0.0-368.0","bj6o9f2z","","<span style=""color:Black; font-size:50px;"">Agent A","null","","","","",""
"null","","","video-keyboard-response","369","1914263","0.0-369.0","bj6o9f2z","","","null","","Agent A","veridical","FOR_REV_BLOBBY_STIM/713684.bmp_pp85_L3_V1.0_veridical_freeview_isoFalse_fps144.mp4",""
"null","","","html-keyboard-response","370","1915766","0.0-370.0","bj6o9f2z","","<span style=""color:Black; font-size:50px;"">Agent B","null","","","","",""
"null","","","video-keyboard-response","371","1917387","0.0-371.0","bj6o9f2z","","","null","","Agent B","scrambled","FOR_REV_BLOBBY_STIM/713684.bmp_pp85_L3_V1.0_veridical_freeview_isoFalse_fps144_reversed_REAL.mp4",""
"","","","call-function","372","1917388","0.0-372.0","bj6o9f2z","","","","","","","",""
"2813.780000000028","{""judgement"":1}","[0]","survey-likert","373","1920203","0.0-373.0","bj6o9f2z","","","","","","","","0"
"1903.2600000000093","{""confidence"":1}","[0]","survey-likert","374","1922110","0.0-374.0","bj6o9f2z","","","","","","","",""
"","","","call-function","375","1922111","0.0-375.0","bj6o9f2z","","","","","","","",""
"null","","","html-keyboard-response","376","1923613","0.0-376.0","bj6o9f2z","","<span style=""color:Black; font-size:50px;"">Agent A","null","","","","",""
"null","","","video-keyboard-response","377","1926482","0.0-377.0","bj6o9f2z","","","null","","Agent A","veridical","FOR_REV_BLOBBY_STIM/713089.bmp_pp60_L3_V1.0_veridical_freeview_isoFalse_fps144.mp4",""
"null","","","html-keyboard-response","378","1927989","0.0-378.0","bj6o9f2z","","<span style=""color:Black; font-size:50px;"">Agent B","null","","","","",""
"null","","","video-keyboard-response","379","1930853","0.0-379.0","bj6o9f2z","","","null","","Agent B","scrambled","FOR_REV_BLOBBY_STIM/713089.bmp_pp60_L3_V1.0_veridical_freeview_isoFalse_fps144_reversed_REAL.mp4",""
"","","","call-function","380","1930854","0.0-380.0","bj6o9f2z","","","","","","","",""
"1903.5900000000838","{""judgement"":0}","[0]","survey-likert","381","1932759","0.0-381.0","bj6o9f2z","","","","","","","","0"
"2283.8600000001024","{""confidence"":3}","[0]","survey-likert","382","1935044","0.0-382.0","bj6o9f2z","","","","","","","",""
"","","","call-function","383","1935046","0.0-383.0","bj6o9f2z","","","","","","","",""
"null","","","html-keyboard-response","384","1936551","0.0-384.0","bj6o9f2z","","<span style=""color:Black; font-size:50px;"">Agent A","null","","","","",""
"null","","","video-keyboard-response","385","1939359","0.0-385.0","bj6o9f2z","","","null","","Agent A","scrambled","FOR_REV_BLOBBY_STIM/1591994.bmp_pp69_L3_V1.0_veridical_freeview_isoFalse_fps144_reversed_REAL.mp4",""
"null","","","html-keyboard-response","386","1940865","0.0-386.0","bj6o9f2z","","<span style=""color:Black; font-size:50px;"">Agent B","null","","","","",""
"null","","","video-keyboard-response","387","1943680","0.0-387.0","bj6o9f2z","","","null","","Agent B","veridical","FOR_REV_BLOBBY_STIM/1591994.bmp_pp69_L3_V1.0_veridical_freeview_isoFalse_fps144.mp4",""
"","","","call-function","388","1943681","0.0-388.0","bj6o9f2z","","","","","","","",""
"4493.149999999907","{""judgement"":0}","[0]","survey-likert","389","1948175","0.0-389.0","bj6o9f2z","","","","","","","","1"
"3226.160000000149","{""confidence"":1}","[0]","survey-likert","390","1951404","0.0-390.0","bj6o9f2z","","","","","","","",""
"","","","call-function","391","1951405","0.0-391.0","bj6o9f2z","","","","","","","",""
"null","","","html-keyboard-response","392","1952907","0.0-392.0","bj6o9f2z","","<span style=""color:Black; font-size:50px;"">Agent A","null","","","","",""
"null","","","video-keyboard-response","393","1955736","0.0-393.0","bj6o9f2z","","","null","","Agent A","scrambled","FOR_REV_BLOBBY_STIM/285751.bmp_pp55_L3_V1.0_veridical_freeview_isoFalse_fps144_reversed_REAL.mp4",""
"null","","","html-keyboard-response","394","1957239","0.0-394.0","bj6o9f2z","","<span style=""color:Black; font-size:50px;"">Agent B","null","","","","",""
"null","","","video-keyboard-response","395","1960066","0.0-395.0","bj6o9f2z","","","null","","Agent B","veridical","FOR_REV_BLOBBY_STIM/285751.bmp_pp55_L3_V1.0_veridical_freeview_isoFalse_fps144.mp4",""
"","","","call-function","396","1960069","0.0-396.0","bj6o9f2z","","","","","","","",""
"1876.0449999999255","{""judgement"":0}","[0]","survey-likert","397","1961946","0.0-397.0","bj6o9f2z","","","","","","","","1"
"1893.1350000000093","{""confidence"":2}","[0]","survey-likert","398","1963842","0.0-398.0","bj6o9f2z","","","","","","","",""
"","","","call-function","399","1963844","0.0-399.0","bj6o9f2z","","","","","","","",""
"null","","","html-keyboard-response","400","1965350","0.0-400.0","bj6o9f2z","","<span style=""color:Black; font-size:50px;"">Agent A","null","","","","",""
"null","","","video-keyboard-response","401","1968260","0.0-401.0","bj6o9f2z","","","null","","Agent A","scrambled","FOR_REV_BLOBBY_STIM/285905.bmp_pp57_L1_V1.0_veridical_freeview_isoFalse_fps144_reversed_REAL.mp4",""
"null","","","html-keyboard-response","402","1969763","0.0-402.0","bj6o9f2z","","<span style=""color:Black; font-size:50px;"">Agent B","null","","","","",""
"null","","","video-keyboard-response","403","1972701","0.0-403.0","bj6o9f2z","","","null","","Agent B","veridical","FOR_REV_BLOBBY_STIM/285905.bmp_pp57_L1_V1.0_veridical_freeview_isoFalse_fps144.mp4",""
"","","","call-function","404","1972703","0.0-404.0","bj6o9f2z","","","","","","","",""
"2091.5","{""judgement"":1}","[0]","survey-likert","405","1974796","0.0-405.0","bj6o9f2z","","","","","","","","1"
"1421.1149999999907","{""confidence"":3}","[0]","survey-likert","406","1976219","0.0-406.0","bj6o9f2z","","","","","","","",""
"","","","call-function","407","1976221","0.0-407.0","bj6o9f2z","","","","","","","",""
"null","","","html-keyboard-response","408","1977726","0.0-408.0","bj6o9f2z","","<span style=""color:Black; font-size:50px;"">Agent A","null","","","","",""
"null","","","video-keyboard-response","409","1980526","0.0-409.0","bj6o9f2z","","","null","","Agent A","veridical","FOR_REV_BLOBBY_STIM/713681.bmp_pp86_L2_V1.0_veridical_freeview_isoFalse_fps144.mp4",""
"null","","","html-keyboard-response","410","1982030","0.0-410.0","bj6o9f2z","","<span style=""color:Black; font-size:50px;"">Agent B","null","","","","",""
"null","","","video-keyboard-response","411","1984889","0.0-411.0","bj6o9f2z","","","null","","Agent B","scrambled","FOR_REV_BLOBBY_STIM/713681.bmp_pp86_L2_V1.0_veridical_freeview_isoFalse_fps144_reversed_REAL.mp4",""
"","","","call-function","412","1984891","0.0-412.0","bj6o9f2z","","","","","","","",""
"1794.0999999998603","{""judgement"":0}","[0]","survey-likert","413","1986687","0.0-413.0","bj6o9f2z","","","","","","","","0"
"1853.4650000000838","{""confidence"":3}","[0]","survey-likert","414","1988543","0.0-414.0","bj6o9f2z","","","","","","","",""
"47384.71499999985","","","instructions","415","2035929","0.0-415.0","bj6o9f2z","[{""page_index"":0,""viewing_time"":1482.6499999999069},{""page_index"":1,""viewing_time"":45165.840000000084},{""page_index"":2,""viewing_time"":736.0549999999348}]","","","","","","",""
"2218.2650000001304","","","instructions","416","2038149","0.0-416.0","bj6o9f2z","[{""page_index"":0,""viewing_time"":836.4099999999162},{""page_index"":1,""viewing_time"":758.7650000001304},{""page_index"":2,""viewing_time"":622.9699999999721}]","","","","","","",""
"","","","call-function","417","2038150","0.0-417.0","bj6o9f2z","","","","","","","",""
"null","","","html-keyboard-response","418","2039653","0.0-418.0","bj6o9f2z","","<span style=""color:Black; font-size:50px;"">Agent A","null","","","","",""
"null","","","video-keyboard-response","419","2042439","0.0-419.0","bj6o9f2z","","","null","","Agent A","veridical","FOR_REV_BLOBBY_STIM/498155.bmp_pp61_L2_V1.0_veridical_freeview_isoFalse_fps144.mp4",""
"null","","","html-keyboard-response","420","2043943","0.0-420.0","bj6o9f2z","","<span style=""color:Black; font-size:50px;"">Agent B","null","","","","",""
"null","","","video-keyboard-response","421","2046697","0.0-421.0","bj6o9f2z","","","null","","Agent B","scrambled","FOR_REV_BLOBBY_STIM/498155.bmp_pp61_L2_V1.0_veridical_freeview_isoFalse_fps144_reversed_REAL.mp4",""
"","","","call-function","422","2046698","0.0-422.0","bj6o9f2z","","","","","","","",""
"8893.685000000056","{""judgement"":0}","[0]","survey-likert","423","2055593","0.0-423.0","bj6o9f2z","","","","","","","","0"
"1197.9799999999814","{""confidence"":2}","[0]","survey-likert","424","2056793","0.0-424.0","bj6o9f2z","","","","","","","",""
"","","","call-function","425","2056794","0.0-425.0","bj6o9f2z","","","","","","","",""
"null","","","html-keyboard-response","426","2058295","0.0-426.0","bj6o9f2z","","<span style=""color:Black; font-size:50px;"">Agent A","null","","","","",""
"null","","","video-keyboard-response","427","2061013","0.0-427.0","bj6o9f2z","","","null","","Agent A","veridical","FOR_REV_BLOBBY_STIM/1159446.bmp_pp60_L3_V1.0_veridical_freeview_isoFalse_fps144.mp4",""
"null","","","html-keyboard-response","428","2062520","0.0-428.0","bj6o9f2z","","<span style=""color:Black; font-size:50px;"">Agent B","null","","","","",""
"null","","","video-keyboard-response","429","2065262","0.0-429.0","bj6o9f2z","","","null","","Agent B","scrambled","FOR_REV_BLOBBY_STIM/1159446.bmp_pp60_L3_V1.0_veridical_freeview_isoFalse_fps144_reversed_REAL.mp4",""
"","","","call-function","430","2065264","0.0-430.0","bj6o9f2z","","","","","","","",""
"1622.339999999851","{""judgement"":0}","[0]","survey-likert","431","2066888","0.0-431.0","bj6o9f2z","","","","","","","","0"
"1828.3549999999814","{""confidence"":3}","[0]","survey-likert","432","2068718","0.0-432.0","bj6o9f2z","","","","","","","",""
"","","","call-function","433","2068720","0.0-433.0","bj6o9f2z","","","","","","","",""
"null","","","html-keyboard-response","434","2070226","0.0-434.0","bj6o9f2z","","<span style=""color:Black; font-size:50px;"">Agent A","null","","","","",""
"null","","","video-keyboard-response","435","2072784","0.0-435.0","bj6o9f2z","","","null","","Agent A","scrambled","FOR_REV_BLOBBY_STIM/1159813.bmp_pp79_L2_V1.0_veridical_freeview_isoFalse_fps144_reversed_REAL.mp4",""
"null","","","html-keyboard-response","436","2074286","0.0-436.0","bj6o9f2z","","<span style=""color:Black; font-size:50px;"">Agent B","null","","","","",""
"null","","","video-keyboard-response","437","2076842","0.0-437.0","bj6o9f2z","","","null","","Agent B","veridical","FOR_REV_BLOBBY_STIM/1159813.bmp_pp79_L2_V1.0_veridical_freeview_isoFalse_fps144.mp4",""
"","","","call-function","438","2076844","0.0-438.0","bj6o9f2z","","","","","","","",""
"4476.060000000056","{""judgement"":0}","[0]","survey-likert","439","2081321","0.0-439.0","bj6o9f2z","","","","","","","","1"
"1798.0700000000652","{""confidence"":2}","[0]","survey-likert","440","2083121","0.0-440.0","bj6o9f2z","","","","","","","",""
"","","","call-function","441","2083123","0.0-441.0","bj6o9f2z","","","","","","","",""
"null","","","html-keyboard-response","442","2084624","0.0-442.0","bj6o9f2z","","<span style=""color:Black; font-size:50px;"">Agent A","null","","","","",""
"null","","","video-keyboard-response","443","2087195","0.0-443.0","bj6o9f2z","","","null","","Agent A","veridical","FOR_REV_BLOBBY_STIM/713760.bmp_pp81_L1_V1.0_veridical_freeview_isoFalse_fps144.mp4",""
"null","","","html-keyboard-response","444","2088699","0.0-444.0","bj6o9f2z","","<span style=""color:Black; font-size:50px;"">Agent B","null","","","","",""
"null","","","video-keyboard-response","445","2091272","0.0-445.0","bj6o9f2z","","","null","","Agent B","scrambled","FOR_REV_BLOBBY_STIM/713760.bmp_pp81_L1_V1.0_veridical_freeview_isoFalse_fps144_reversed_REAL.mp4",""
"","","","call-function","446","2091274","0.0-446.0","bj6o9f2z","","","","","","","",""
"5914.225000000093","{""judgement"":1}","[0]","survey-likert","447","2097189","0.0-447.0","bj6o9f2z","","","","","","","","0"
"3285.625","{""confidence"":1}","[0]","survey-likert","448","2100477","0.0-448.0","bj6o9f2z","","","","","","","",""
"","","","call-function","449","2100478","0.0-449.0","bj6o9f2z","","","","","","","",""
"null","","","html-keyboard-response","450","2101983","0.0-450.0","bj6o9f2z","","<span style=""color:Black; font-size:50px;"">Agent A","null","","","","",""
"null","","","video-keyboard-response","451","2104757","0.0-451.0","bj6o9f2z","","","null","","Agent A","scrambled","FOR_REV_BLOBBY_STIM/498111.bmp_pp88_L2_V1.0_veridical_freeview_isoFalse_fps144_reversed_REAL.mp4",""
"null","","","html-keyboard-response","452","2106259","0.0-452.0","bj6o9f2z","","<span style=""color:Black; font-size:50px;"">Agent B","null","","","","",""
"null","","","video-keyboard-response","453","2108988","0.0-453.0","bj6o9f2z","","","null","","Agent B","veridical","FOR_REV_BLOBBY_STIM/498111.bmp_pp88_L2_V1.0_veridical_freeview_isoFalse_fps144.mp4",""
"","","","call-function","454","2108990","0.0-454.0","bj6o9f2z","","","","","","","",""
"1858.4499999997206","{""judgement"":0}","[0]","survey-likert","455","2110849","0.0-455.0","bj6o9f2z","","","","","","","","1"
"2483.1099999998696","{""confidence"":1}","[0]","survey-likert","456","2113335","0.0-456.0","bj6o9f2z","","","","","","","",""
"","","","call-function","457","2113336","0.0-457.0","bj6o9f2z","","","","","","","",""
"null","","","html-keyboard-response","458","2114839","0.0-458.0","bj6o9f2z","","<span style=""color:Black; font-size:50px;"">Agent A","null","","","","",""
"null","","","video-keyboard-response","459","2117432","0.0-459.0","bj6o9f2z","","","null","","Agent A","scrambled","FOR_REV_BLOBBY_STIM/1591876.bmp_pp63_L1_V1.0_veridical_freeview_isoFalse_fps144_reversed_REAL.mp4",""
"null","","","html-keyboard-response","460","2118941","0.0-460.0","bj6o9f2z","","<span style=""color:Black; font-size:50px;"">Agent B","null","","","","",""
"null","","","video-keyboard-response","461","2121510","0.0-461.0","bj6o9f2z","","","null","","Agent B","veridical","FOR_REV_BLOBBY_STIM/1591876.bmp_pp63_L1_V1.0_veridical_freeview_isoFalse_fps144.mp4",""
"","","","call-function","462","2121513","0.0-462.0","bj6o9f2z","","","","","","","",""
"2384.4799999999814","{""judgement"":0}","[0]","survey-likert","463","2123898","0.0-463.0","bj6o9f2z","","","","","","","","1"
"1629.2349999998696","{""confidence"":1}","[0]","survey-likert","464","2125530","0.0-464.0","bj6o9f2z","","","","","","","",""
"","","","call-function","465","2125533","0.0-465.0","bj6o9f2z","","","","","","","",""
"null","","","html-keyboard-response","466","2127036","0.0-466.0","bj6o9f2z","","<span style=""color:Black; font-size:50px;"">Agent A","null","","","","",""
"null","","","video-keyboard-response","467","2129761","0.0-467.0","bj6o9f2z","","","null","","Agent A","veridical","FOR_REV_BLOBBY_STIM/1592817.bmp_pp55_L3_V1.0_veridical_freeview_isoFalse_fps144.mp4",""
"null","","","html-keyboard-response","468","2131267","0.0-468.0","bj6o9f2z","","<span style=""color:Black; font-size:50px;"">Agent B","null","","","","",""
"null","","","video-keyboard-response","469","2133971","0.0-469.0","bj6o9f2z","","","null","","Agent B","scrambled","FOR_REV_BLOBBY_STIM/1592817.bmp_pp55_L3_V1.0_veridical_freeview_isoFalse_fps144_reversed_REAL.mp4",""
"","","","call-function","470","2133973","0.0-470.0","bj6o9f2z","","","","","","","",""
"1793.8050000001676","{""judgement"":0}","[0]","survey-likert","471","2135768","0.0-471.0","bj6o9f2z","","","","","","","","0"
"1683.8100000000559","{""confidence"":1}","[0]","survey-likert","472","2137454","0.0-472.0","bj6o9f2z","","","","","","","",""
"","","","call-function","473","2137456","0.0-473.0","bj6o9f2z","","","","","","","",""
"null","","","html-keyboard-response","474","2138959","0.0-474.0","bj6o9f2z","","<span style=""color:Black; font-size:50px;"">Agent A","null","","","","",""
"null","","","video-keyboard-response","475","2141692","0.0-475.0","bj6o9f2z","","","null","","Agent A","scrambled","FOR_REV_BLOBBY_STIM/1592372.bmp_pp76_L1_V1.0_veridical_freeview_isoFalse_fps144_reversed_REAL.mp4",""
"null","","","html-keyboard-response","476","2143197","0.0-476.0","bj6o9f2z","","<span style=""color:Black; font-size:50px;"">Agent B","null","","","","",""
"null","","","video-keyboard-response","477","2145926","0.0-477.0","bj6o9f2z","","","null","","Agent B","veridical","FOR_REV_BLOBBY_STIM/1592372.bmp_pp76_L1_V1.0_veridical_freeview_isoFalse_fps144.mp4",""
"","","","call-function","478","2145928","0.0-478.0","bj6o9f2z","","","","","","","",""
"1676.4599999999627","{""judgement"":0}","[0]","survey-likert","479","2147605","0.0-479.0","bj6o9f2z","","","","","","","","1"
"9544.285000000149","{""confidence"":2}","[0]","survey-likert","480","2157152","0.0-480.0","bj6o9f2z","","","","","","","",""
"","","","call-function","481","2157153","0.0-481.0","bj6o9f2z","","","","","","","",""
"null","","","html-keyboard-response","482","2158659","0.0-482.0","bj6o9f2z","","<span style=""color:Black; font-size:50px;"">Agent A","null","","","","",""
"null","","","video-keyboard-response","483","2161482","0.0-483.0","bj6o9f2z","","","null","","Agent A","scrambled","FOR_REV_BLOBBY_STIM/498175.bmp_pp154_L1_V1.0_veridical_freeview_isoFalse_fps144_reversed_REAL.mp4",""
"null","","","html-keyboard-response","484","2162987","0.0-484.0","bj6o9f2z","","<span style=""color:Black; font-size:50px;"">Agent B","null","","","","",""
"null","","","video-keyboard-response","485","2165812","0.0-485.0","bj6o9f2z","","","null","","Agent B","veridical","FOR_REV_BLOBBY_STIM/498175.bmp_pp154_L1_V1.0_veridical_freeview_isoFalse_fps144.mp4",""
"","","","call-function","486","2165813","0.0-486.0","bj6o9f2z","","","","","","","",""
"2722.589999999851","{""judgement"":1}","[0]","survey-likert","487","2168537","0.0-487.0","bj6o9f2z","","","","","","","","1"
"2158.310000000056","{""confidence"":2}","[0]","survey-likert","488","2170697","0.0-488.0","bj6o9f2z","","","","","","","",""
"","","","call-function","489","2170699","0.0-489.0","bj6o9f2z","","","","","","","",""
"null","","","html-keyboard-response","490","2172202","0.0-490.0","bj6o9f2z","","<span style=""color:Black; font-size:50px;"">Agent A","null","","","","",""
"null","","","video-keyboard-response","491","2175043","0.0-491.0","bj6o9f2z","","","null","","Agent A","veridical","FOR_REV_BLOBBY_STIM/1592362.bmp_pp95_L2_V1.0_veridical_freeview_isoFalse_fps144.mp4",""
"null","","","html-keyboard-response","492","2176549","0.0-492.0","bj6o9f2z","","<span style=""color:Black; font-size:50px;"">Agent B","null","","","","",""
"null","","","video-keyboard-response","493","2179375","0.0-493.0","bj6o9f2z","","","null","","Agent B","scrambled","FOR_REV_BLOBBY_STIM/1592362.bmp_pp95_L2_V1.0_veridical_freeview_isoFalse_fps144_reversed_REAL.mp4",""
"","","","call-function","494","2179376","0.0-494.0","bj6o9f2z","","","","","","","",""
"3111.4799999999814","{""judgement"":0}","[0]","survey-likert","495","2182489","0.0-495.0","bj6o9f2z","","","","","","","","0"
"2972.064999999944","{""confidence"":3}","[0]","survey-likert","496","2185463","0.0-496.0","bj6o9f2z","","","","","","","",""
"81138.66500000004","","","instructions","497","2266604","0.0-497.0","bj6o9f2z","[{""page_index"":0,""viewing_time"":1366.3500000000931},{""page_index"":1,""viewing_time"":79054.01000000024},{""page_index"":2,""viewing_time"":718.1149999997579}]","","","","","","",""
"2360.2599999997765","","","instructions","498","2268965","0.0-498.0","bj6o9f2z","[{""page_index"":0,""viewing_time"":897.1999999997206},{""page_index"":1,""viewing_time"":710.9350000000559},{""page_index"":2,""viewing_time"":752}]","","","","","","",""
"","","","call-function","499","2268967","0.0-499.0","bj6o9f2z","","","","","","","",""
"null","","","html-keyboard-response","500","2270473","0.0-500.0","bj6o9f2z","","<span style=""color:Black; font-size:50px;"">Agent A","null","","","","",""
"null","","","video-keyboard-response","501","2273311","0.0-501.0","bj6o9f2z","","","null","","Agent A","veridical","FOR_REV_BLOBBY_STIM/498253.bmp_pp67_L2_V1.0_veridical_freeview_isoFalse_fps144.mp4",""
"null","","","html-keyboard-response","502","2274815","0.0-502.0","bj6o9f2z","","<span style=""color:Black; font-size:50px;"">Agent B","null","","","","",""
"null","","","video-keyboard-response","503","2277652","0.0-503.0","bj6o9f2z","","","null","","Agent B","scrambled","FOR_REV_BLOBBY_STIM/498253.bmp_pp67_L2_V1.0_veridical_freeview_isoFalse_fps144_reversed_REAL.mp4",""
"","","","call-function","504","2277654","0.0-504.0","bj6o9f2z","","","","","","","",""
"2193.535000000149","{""judgement"":0}","[0]","survey-likert","505","2279848","0.0-505.0","bj6o9f2z","","","","","","","","0"
"1481.730000000447","{""confidence"":2}","[0]","survey-likert","506","2281332","0.0-506.0","bj6o9f2z","","","","","","","",""
"","","","call-function","507","2281334","0.0-507.0","bj6o9f2z","","","","","","","",""
"null","","","html-keyboard-response","508","2282839","0.0-508.0","bj6o9f2z","","<span style=""color:Black; font-size:50px;"">Agent A","null","","","","",""
"null","","","video-keyboard-response","509","2285626","0.0-509.0","bj6o9f2z","","","null","","Agent A","veridical","FOR_REV_BLOBBY_STIM/1159829.bmp_pp91_L3_V1.0_veridical_freeview_isoFalse_fps144.mp4",""
"null","","","html-keyboard-response","510","2287133","0.0-510.0","bj6o9f2z","","<span style=""color:Black; font-size:50px;"">Agent B","null","","","","",""
"null","","","video-keyboard-response","511","2289950","0.0-511.0","bj6o9f2z","","","null","","Agent B","scrambled","FOR_REV_BLOBBY_STIM/1159829.bmp_pp91_L3_V1.0_veridical_freeview_isoFalse_fps144_reversed_REAL.mp4",""
"","","","call-function","512","2289951","0.0-512.0","bj6o9f2z","","","","","","","",""
"1870.2349999998696","{""judgement"":0}","[0]","survey-likert","513","2291823","0.0-513.0","bj6o9f2z","","","","","","","","0"
"1532.5149999996647","{""confidence"":3}","[0]","survey-likert","514","2293357","0.0-514.0","bj6o9f2z","","","","","","","",""
"","","","call-function","515","2293359","0.0-515.0","bj6o9f2z","","","","","","","",""
"null","","","html-keyboard-response","516","2294862","0.0-516.0","bj6o9f2z","","<span style=""color:Black; font-size:50px;"">Agent A","null","","","","",""
"null","","","video-keyboard-response","517","2297694","0.0-517.0","bj6o9f2z","","","null","","Agent A","veridical","FOR_REV_BLOBBY_STIM/713135.bmp_pp54_L2_V1.0_veridical_freeview_isoFalse_fps144.mp4",""
"null","","","html-keyboard-response","518","2299199","0.0-518.0","bj6o9f2z","","<span style=""color:Black; font-size:50px;"">Agent B","null","","","","",""
"null","","","video-keyboard-response","519","2302014","0.0-519.0","bj6o9f2z","","","null","","Agent B","scrambled","FOR_REV_BLOBBY_STIM/713135.bmp_pp54_L2_V1.0_veridical_freeview_isoFalse_fps144_reversed_REAL.mp4",""
"","","","call-function","520","2302015","0.0-520.0","bj6o9f2z","","","","","","","",""
"2727.7700000000186","{""judgement"":0}","[0]","survey-likert","521","2304744","0.0-521.0","bj6o9f2z","","","","","","","","0"
"1923.8899999996647","{""confidence"":3}","[0]","survey-likert","522","2306670","0.0-522.0","bj6o9f2z","","","","","","","",""
"","","","call-function","523","2306672","0.0-523.0","bj6o9f2z","","","","","","","",""
"null","","","html-keyboard-response","524","2308174","0.0-524.0","bj6o9f2z","","<span style=""color:Black; font-size:50px;"">Agent A","null","","","","",""
"null","","","video-keyboard-response","525","2310978","0.0-525.0","bj6o9f2z","","","null","","Agent A","veridical","FOR_REV_BLOBBY_STIM/713620.bmp_pp65_L3_V1.0_veridical_freeview_isoFalse_fps144.mp4",""
"null","","","html-keyboard-response","526","2312487","0.0-526.0","bj6o9f2z","","<span style=""color:Black; font-size:50px;"">Agent B","null","","","","",""
"null","","","video-keyboard-response","527","2315296","0.0-527.0","bj6o9f2z","","","null","","Agent B","scrambled","FOR_REV_BLOBBY_STIM/713620.bmp_pp65_L3_V1.0_veridical_freeview_isoFalse_fps144_reversed_REAL.mp4",""
"","","","call-function","528","2315298","0.0-528.0","bj6o9f2z","","","","","","","",""
"2095.810000000056","{""judgement"":0}","[0]","survey-likert","529","2317395","0.0-529.0","bj6o9f2z","","","","","","","","0"
"2252.760000000242","{""confidence"":2}","[0]","survey-likert","530","2319650","0.0-530.0","bj6o9f2z","","","","","","","",""
"","","","call-function","531","2319653","0.0-531.0","bj6o9f2z","","","","","","","",""
"null","","","html-keyboard-response","532","2321157","0.0-532.0","bj6o9f2z","","<span style=""color:Black; font-size:50px;"">Agent A","null","","","","",""
"null","","","video-keyboard-response","533","2323964","0.0-533.0","bj6o9f2z","","","null","","Agent A","veridical","FOR_REV_BLOBBY_STIM/1159784.bmp_pp73_L3_V1.0_veridical_freeview_isoFalse_fps144.mp4",""
"null","","","html-keyboard-response","534","2325472","0.0-534.0","bj6o9f2z","","<span style=""color:Black; font-size:50px;"">Agent B","null","","","","",""
"null","","","video-keyboard-response","535","2328267","0.0-535.0","bj6o9f2z","","","null","","Agent B","scrambled","FOR_REV_BLOBBY_STIM/1159784.bmp_pp73_L3_V1.0_veridical_freeview_isoFalse_fps144_reversed_REAL.mp4",""
"","","","call-function","536","2328269","0.0-536.0","bj6o9f2z","","","","","","","",""
"1518.3849999997765","{""judgement"":0}","[0]","survey-likert","537","2329788","0.0-537.0","bj6o9f2z","","","","","","","","0"
"3201.954999999609","{""confidence"":1}","[0]","survey-likert","538","2332993","0.0-538.0","bj6o9f2z","","","","","","","",""
"","","","call-function","539","2332994","0.0-539.0","bj6o9f2z","","","","","","","",""
"null","","","html-keyboard-response","540","2334497","0.0-540.0","bj6o9f2z","","<span style=""color:Black; font-size:50px;"">Agent A","null","","","","",""
"null","","","video-keyboard-response","541","2337317","0.0-541.0","bj6o9f2z","","","null","","Agent A","veridical","FOR_REV_BLOBBY_STIM/713593.bmp_pp64_L1_V1.0_veridical_freeview_isoFalse_fps144.mp4",""
"null","","","html-keyboard-response","542","2338825","0.0-542.0","bj6o9f2z","","<span style=""color:Black; font-size:50px;"">Agent B","null","","","","",""
"null","","","video-keyboard-response","543","2341673","0.0-543.0","bj6o9f2z","","","null","","Agent B","scrambled","FOR_REV_BLOBBY_STIM/713593.bmp_pp64_L1_V1.0_veridical_freeview_isoFalse_fps144_reversed_REAL.mp4",""
"","","","call-function","544","2341675","0.0-544.0","bj6o9f2z","","","","","","","",""
"2322.2949999999255","{""judgement"":0}","[0]","survey-likert","545","2343998","0.0-545.0","bj6o9f2z","","","","","","","","0"
"4103.869999999646","{""confidence"":2}","[0]","survey-likert","546","2348105","0.0-546.0","bj6o9f2z","","","","","","","",""
"","","","call-function","547","2348106","0.0-547.0","bj6o9f2z","","","","","","","",""
"null","","","html-keyboard-response","548","2349607","0.0-548.0","bj6o9f2z","","<span style=""color:Black; font-size:50px;"">Agent A","null","","","","",""
"null","","","video-keyboard-response","549","2352484","0.0-549.0","bj6o9f2z","","","null","","Agent A","veridical","FOR_REV_BLOBBY_STIM/1159572.bmp_pp71_L1_V1.0_veridical_freeview_isoFalse_fps144.mp4",""
"null","","","html-keyboard-response","550","2353988","0.0-550.0","bj6o9f2z","","<span style=""color:Black; font-size:50px;"">Agent B","null","","","","",""
"null","","","video-keyboard-response","551","2356866","0.0-551.0","bj6o9f2z","","","null","","Agent B","scrambled","FOR_REV_BLOBBY_STIM/1159572.bmp_pp71_L1_V1.0_veridical_freeview_isoFalse_fps144_reversed_REAL.mp4",""
"","","","call-function","552","2356868","0.0-552.0","bj6o9f2z","","","","","","","",""
"9274.174999999814","{""judgement"":0}","[0]","survey-likert","553","2366144","0.0-553.0","bj6o9f2z","","","","","","","","0"
"1610.2750000003725","{""confidence"":1}","[0]","survey-likert","554","2367757","0.0-554.0","bj6o9f2z","","","","","","","",""
"","","","call-function","555","2367758","0.0-555.0","bj6o9f2z","","","","","","","",""
"null","","","html-keyboard-response","556","2369264","0.0-556.0","bj6o9f2z","","<span style=""color:Black; font-size:50px;"">Agent A","null","","","","",""
"null","","","video-keyboard-response","557","2372114","0.0-557.0","bj6o9f2z","","","null","","Agent A","scrambled","FOR_REV_BLOBBY_STIM/713403.bmp_pp80_L3_V1.0_veridical_freeview_isoFalse_fps144_reversed_REAL.mp4",""
"null","","","html-keyboard-response","558","2373622","0.0-558.0","bj6o9f2z","","<span style=""color:Black; font-size:50px;"">Agent B","null","","","","",""
"null","","","video-keyboard-response","559","2376468","0.0-559.0","bj6o9f2z","","","null","","Agent B","veridical","FOR_REV_BLOBBY_STIM/713403.bmp_pp80_L3_V1.0_veridical_freeview_isoFalse_fps144.mp4",""
"","","","call-function","560","2376470","0.0-560.0","bj6o9f2z","","","","","","","",""
"2037.4249999998137","{""judgement"":1}","[0]","survey-likert","561","2378508","0.0-561.0","bj6o9f2z","","","","","","","","1"
"2175.9550000000745","{""confidence"":1}","[0]","survey-likert","562","2380687","0.0-562.0","bj6o9f2z","","","","","","","",""
"","","","call-function","563","2380688","0.0-563.0","bj6o9f2z","","","","","","","",""
"null","","","html-keyboard-response","564","2382192","0.0-564.0","bj6o9f2z","","<span style=""color:Black; font-size:50px;"">Agent A","null","","","","",""
"null","","","video-keyboard-response","565","2385037","0.0-565.0","bj6o9f2z","","","null","","Agent A","veridical","FOR_REV_BLOBBY_STIM/1592657.bmp_pp98_L1_V1.0_veridical_freeview_isoFalse_fps144.mp4",""
"null","","","html-keyboard-response","566","2386542","0.0-566.0","bj6o9f2z","","<span style=""color:Black; font-size:50px;"">Agent B","null","","","","",""
"null","","","video-keyboard-response","567","2389367","0.0-567.0","bj6o9f2z","","","null","","Agent B","scrambled","FOR_REV_BLOBBY_STIM/1592657.bmp_pp98_L1_V1.0_veridical_freeview_isoFalse_fps144_reversed_REAL.mp4",""
"","","","call-function","568","2389368","0.0-568.0","bj6o9f2z","","","","","","","",""
"3233.8449999997392","{""judgement"":0}","[0]","survey-likert","569","2392603","0.0-569.0","bj6o9f2z","","","","","","","","0"
"1310.6800000001676","{""confidence"":2}","[0]","survey-likert","570","2393916","0.0-570.0","bj6o9f2z","","","","","","","",""
"","","","call-function","571","2393918","0.0-571.0","bj6o9f2z","","","","","","","",""
"null","","","html-keyboard-response","572","2395424","0.0-572.0","bj6o9f2z","","<span style=""color:Black; font-size:50px;"">Agent A","null","","","","",""
"null","","","video-keyboard-response","573","2398165","0.0-573.0","bj6o9f2z","","","null","","Agent A","scrambled","FOR_REV_BLOBBY_STIM/1592581.bmp_pp100_L3_V1.0_veridical_freeview_isoFalse_fps144_reversed_REAL.mp4",""
"null","","","html-keyboard-response","574","2399669","0.0-574.0","bj6o9f2z","","<span style=""color:Black; font-size:50px;"">Agent B","null","","","","",""
"null","","","video-keyboard-response","575","2402412","0.0-575.0","bj6o9f2z","","","null","","Agent B","veridical","FOR_REV_BLOBBY_STIM/1592581.bmp_pp100_L3_V1.0_veridical_freeview_isoFalse_fps144.mp4",""
"","","","call-function","576","2402413","0.0-576.0","bj6o9f2z","","","","","","","",""
"2317.0550000001676","{""judgement"":1}","[0]","survey-likert","577","2404732","0.0-577.0","bj6o9f2z","","","","","","","","1"
"2511.7949999999255","{""confidence"":2}","[0]","survey-likert","578","2407246","0.0-578.0","bj6o9f2z","","","","","","","",""
"2551.7099999999627","","","instructions","579","2409799","0.0-579.0","bj6o9f2z","[{""page_index"":0,""viewing_time"":2551.4599999999627}]","","","","","","",""
"4067.2199999997392","","","instructions","580","2413868","0.0-580.0","bj6o9f2z","[{""page_index"":0,""viewing_time"":4067.1049999999814}]","","","","","","",""
"13324.679999999702","{""post-1"":2}","[0]","survey-likert","581","2427195","0.0-581.0","bj6o9f2z","","","","","","","",""
"16487.490000000224","{""post-1"":0}","[0]","survey-likert","582","2443685","0.0-582.0","bj6o9f2z","","","","","","","",""
"36935.18000000017","{""post-2"":3}","[0]","survey-likert","583","2480624","0.0-583.0","bj6o9f2z","","","","","","","",""
"13666.289999999572","{""post-2"":1}","[0]","survey-likert","584","2494293","0.0-584.0","bj6o9f2z","","","","","","","",""
"7528.790000000037","{""post-3"":2}","[0]","survey-likert","585","2501824","0.0-585.0","bj6o9f2z","","","","","","","",""
"3459.8199999998324","{""post-3"":0}","[0]","survey-likert","586","2505286","0.0-586.0","bj6o9f2z","","","","","","","",""
"10258.634999999776","{""post-4"":2}","[0]","survey-likert","587","2515547","0.0-587.0","bj6o9f2z","","","","","","","",""
"5305.120000000112","{""post-4"":0}","[0]","survey-likert","588","2520855","0.0-588.0","bj6o9f2z","","","","","","","",""
"14716.424999999814","{""post-5"":1}","[0]","survey-likert","589","2535574","0.0-589.0","bj6o9f2z","","","","","","","",""
"5295.649999999907","{""post-5"":3}","[0]","survey-likert","590","2540872","0.0-590.0","bj6o9f2z","","","","","","","",""
"251018.15000000037","{""Q0"":""It took me a few slides - even a few chunks - to allow my eyes to relax enough to try to follow the attention spot organically, but once I got into the groove of it, the difference between the real and fake agent seemed to be clear by how naturally my vision would jump around with the spot. It was actually really neat and satisfying how obvious some agents were over others. Others with obscure lighting or inanimate objects were a bit trickier (which is probably the point!). One suggestion I would make maybe is to clarify the instructions a little? I found myself not fully understanding the request until a handful of slides in. But maybe that says more about my learning style than the experiment! :)""}","","survey-text","591","2791900","0.0-591.0","bj6o9f2z","","","","","","","",""
"46687.625","{""Q0"":""I found that if I got myself to straddle the fine line between relaxing my eyes and zoning out really helped with the task of following the spot naturally.""}","","survey-text","592","2838594","0.0-592.0","bj6o9f2z","","","","","","","",""
"68140.58000000007","{""Q0"":""Was staying focused! Sometimes, just for a nanosecond, my attention would slip and I would lose the feel for the line of vision and how it feels in my own eyes and experience.""}","","survey-text","593","2906741","0.0-593.0","bj6o9f2z","","","","","","","",""
"1786.5","","","instructions","594","2908530","0.0-594.0","bj6o9f2z","[{""page_index"":0,""viewing_time"":1786.3300000000745}]","","","","","","",""
"68831.87000000011","{""Experimenter_end"":[""Printed ID# bj6o9f2z on consent form"",""Given subject SONA credit or payment"",""Given the subject debrief form""]}","[0]","survey-multi-select","595","2977366","0.0-595.0","bj6o9f2z","","","","","","","",""
