"rt","responses","question_order","trial_type","trial_index","time_elapsed","internal_node_id","ID","view_history","stimulus","key_press","value","agent","condition","image","correct_answer"
"18110.605","{""Experimenter"":[""Confirmed subject's identity"",""Confirmed normal or corrected-to-normal vision"",""Obtained consent (signature and date)"",""Checked the test room lighting"",""Checked computer screen lighting"",""Checked distance from screen to chin rest (50cm)"",""Cleaned and adjusted chin rest"",""Counterbalanced the order of the tasks"",""Opened the experiment in Firefox"",""Made the experiment full screen"",""Encouraged subject to silence phone, put away distractors, etc.""]}","[0]","survey-multi-select","0","18119","0.0-0.0","bkd9kj0a","","","","","","","",""
"253704.55500000002","","","instructions","1","271825","0.0-1.0","bkd9kj0a","[{""page_index"":0,""viewing_time"":253704.41}]","","","","","","",""
"258567.14999999997","{""Age"":13,""Sex"":0,""Gender"":0}","[0,1,2]","survey-likert","2","530396","0.0-2.0","bkd9kj0a","","","","","","","",""
"26397.900000000023","","","instructions","3","556794","0.0-3.0","bkd9kj0a","[{""page_index"":0,""viewing_time"":6789.660000000033},{""page_index"":1,""viewing_time"":4176.030000000028},{""page_index"":2,""viewing_time"":15432.089999999967}]","","","","","","",""
"3729.2099999999627","","","instructions","4","560524","0.0-4.0","bkd9kj0a","[{""page_index"":0,""viewing_time"":3729.1049999999814}]","","","","","","",""
"null","","","video-keyboard-response","5","563629","0.0-5.0","bkd9kj0a","","","null","","","","",""
"18648.324999999953","","","instructions","6","582278","0.0-6.0","bkd9kj0a","[{""page_index"":0,""viewing_time"":5429.909999999916},{""page_index"":1,""viewing_time"":6497.9400000000605},{""page_index"":2,""viewing_time"":6720.359999999986}]","","","","","","",""
"45102.64500000002","","","instructions","7","627381","0.0-7.0","bkd9kj0a","[{""page_index"":0,""viewing_time"":45102.1050000001}]","","","","","","",""
"3027.609999999986","","","instructions","8","630410","0.0-8.0","bkd9kj0a","[{""page_index"":0,""viewing_time"":3027.5100000000093}]","","","","","","",""
"null","","","video-keyboard-response","9","633484","0.0-9.0","bkd9kj0a","","","null","","","","",""
"19103.665000000037","","","instructions","10","652588","0.0-10.0","bkd9kj0a","[{""page_index"":0,""viewing_time"":4409.0950000000885},{""page_index"":1,""viewing_time"":4089.7549999998882},{""page_index"":2,""viewing_time"":10604.685000000056}]","","","","","","",""
"11726.75","","","instructions","11","664315","0.0-11.0","bkd9kj0a","[{""page_index"":0,""viewing_time"":11726.630000000005}]","","","","","","",""
"","","","call-function","12","664316","0.0-12.0","bkd9kj0a","","","","","","","",""
"null","","","html-keyboard-response","13","665817","0.0-13.0","bkd9kj0a","","<span style=""color:Black; font-size:50px;"">Agent A","null","","","","",""
"null","","","video-keyboard-response","14","668617","0.0-14.0","bkd9kj0a","","","null","","Agent A","scrambled","FOR_REV_MAP_BLOBBY_STIM/1592530.bmp_pp75_L1_V1.0_veridical_freeview_isoTrue_fps144_reversed_REAL.mp4",""
"null","","","html-keyboard-response","15","670124","0.0-15.0","bkd9kj0a","","<span style=""color:Black; font-size:50px;"">Agent B","null","","","","",""
"null","","","video-keyboard-response","16","672927","0.0-16.0","bkd9kj0a","","","null","","Agent B","veridical","FOR_REV_MAP_BLOBBY_STIM/1592530.bmp_pp75_L1_V1.0_veridical_freeview_isoTrue_fps144.mp4",""
"","","","call-function","17","672927","0.0-17.0","bkd9kj0a","","","","","","","",""
"3073.9949999999953","{""judgement"":0}","[0]","survey-likert","18","676003","0.0-18.0","bkd9kj0a","","","","","","","","1"
"2916.8800000000047","{""confidence"":1}","[0]","survey-likert","19","678921","0.0-19.0","bkd9kj0a","","","","","","","",""
"","","","call-function","20","678921","0.0-20.0","bkd9kj0a","","","","","","","",""
"null","","","html-keyboard-response","21","680423","0.0-21.0","bkd9kj0a","","<span style=""color:Black; font-size:50px;"">Agent A","null","","","","",""
"null","","","video-keyboard-response","22","683204","0.0-22.0","bkd9kj0a","","","null","","Agent A","veridical","FOR_REV_MAP_BLOBBY_STIM/1592567.bmp_pp70_L2_V1.0_veridical_freeview_isoTrue_fps144.mp4",""
"null","","","html-keyboard-response","23","684707","0.0-23.0","bkd9kj0a","","<span style=""color:Black; font-size:50px;"">Agent B","null","","","","",""
"null","","","video-keyboard-response","24","687535","0.0-24.0","bkd9kj0a","","","null","","Agent B","scrambled","FOR_REV_MAP_BLOBBY_STIM/1592567.bmp_pp70_L2_V1.0_veridical_freeview_isoTrue_fps144_reversed_REAL.mp4",""
"","","","call-function","25","687535","0.0-25.0","bkd9kj0a","","","","","","","",""
"2853.5800000000745","{""judgement"":1}","[0]","survey-likert","26","690390","0.0-26.0","bkd9kj0a","","","","","","","","0"
"1982.969999999972","{""confidence"":1}","[0]","survey-likert","27","692374","0.0-27.0","bkd9kj0a","","","","","","","",""
"","","","call-function","28","692374","0.0-28.0","bkd9kj0a","","","","","","","",""
"null","","","html-keyboard-response","29","693879","0.0-29.0","bkd9kj0a","","<span style=""color:Black; font-size:50px;"">Agent A","null","","","","",""
"null","","","video-keyboard-response","30","696724","0.0-30.0","bkd9kj0a","","","null","","Agent A","scrambled","FOR_REV_MAP_BLOBBY_STIM/1592201.bmp_pp97_L3_V1.0_veridical_freeview_isoTrue_fps144_reversed_REAL.mp4",""
"null","","","html-keyboard-response","31","698228","0.0-31.0","bkd9kj0a","","<span style=""color:Black; font-size:50px;"">Agent B","null","","","","",""
"null","","","video-keyboard-response","32","701088","0.0-32.0","bkd9kj0a","","","null","","Agent B","veridical","FOR_REV_MAP_BLOBBY_STIM/1592201.bmp_pp97_L3_V1.0_veridical_freeview_isoTrue_fps144.mp4",""
"","","","call-function","33","701088","0.0-33.0","bkd9kj0a","","","","","","","",""
"3599.2449999999953","{""judgement"":1}","[0]","survey-likert","34","704688","0.0-34.0","bkd9kj0a","","","","","","","","1"
"3578.280000000028","{""confidence"":1}","[0]","survey-likert","35","708267","0.0-35.0","bkd9kj0a","","","","","","","",""
"","","","call-function","36","708268","0.0-36.0","bkd9kj0a","","","","","","","",""
"null","","","html-keyboard-response","37","709769","0.0-37.0","bkd9kj0a","","<span style=""color:Black; font-size:50px;"">Agent A","null","","","","",""
"null","","","video-keyboard-response","38","712553","0.0-38.0","bkd9kj0a","","","null","","Agent A","veridical","FOR_REV_MAP_BLOBBY_STIM/285932.bmp_pp64_L1_V1.0_veridical_freeview_isoTrue_fps144.mp4",""
"null","","","html-keyboard-response","39","714054","0.0-39.0","bkd9kj0a","","<span style=""color:Black; font-size:50px;"">Agent B","null","","","","",""
"null","","","video-keyboard-response","40","716837","0.0-40.0","bkd9kj0a","","","null","","Agent B","scrambled","FOR_REV_MAP_BLOBBY_STIM/285932.bmp_pp64_L1_V1.0_veridical_freeview_isoTrue_fps144_reversed_REAL.mp4",""
"","","","call-function","41","716837","0.0-41.0","bkd9kj0a","","","","","","","",""
"11870.119999999995","{""judgement"":0}","[0]","survey-likert","42","728708","0.0-42.0","bkd9kj0a","","","","","","","","0"
"1853.1899999999441","{""confidence"":1}","[0]","survey-likert","43","730562","0.0-43.0","bkd9kj0a","","","","","","","",""
"","","","call-function","44","730563","0.0-44.0","bkd9kj0a","","","","","","","",""
"null","","","html-keyboard-response","45","732066","0.0-45.0","bkd9kj0a","","<span style=""color:Black; font-size:50px;"">Agent A","null","","","","",""
"null","","","video-keyboard-response","46","734906","0.0-46.0","bkd9kj0a","","","null","","Agent A","scrambled","FOR_REV_MAP_BLOBBY_STIM/498326.bmp_pp57_L1_V1.0_veridical_freeview_isoTrue_fps144_reversed_REAL.mp4",""
"null","","","html-keyboard-response","47","736409","0.0-47.0","bkd9kj0a","","<span style=""color:Black; font-size:50px;"">Agent B","null","","","","",""
"null","","","video-keyboard-response","48","739246","0.0-48.0","bkd9kj0a","","","null","","Agent B","veridical","FOR_REV_MAP_BLOBBY_STIM/498326.bmp_pp57_L1_V1.0_veridical_freeview_isoTrue_fps144.mp4",""
"","","","call-function","49","739246","0.0-49.0","bkd9kj0a","","","","","","","",""
"2370.359999999986","{""judgement"":1}","[0]","survey-likert","50","741617","0.0-50.0","bkd9kj0a","","","","","","","","1"
"2777.0899999999674","{""confidence"":1}","[0]","survey-likert","51","744395","0.0-51.0","bkd9kj0a","","","","","","","",""
"","","","call-function","52","744396","0.0-52.0","bkd9kj0a","","","","","","","",""
"null","","","html-keyboard-response","53","745898","0.0-53.0","bkd9kj0a","","<span style=""color:Black; font-size:50px;"">Agent A","null","","","","",""
"null","","","video-keyboard-response","54","748652","0.0-54.0","bkd9kj0a","","","null","","Agent A","scrambled","FOR_REV_MAP_BLOBBY_STIM/1592017.bmp_pp154_L1_V1.0_veridical_freeview_isoTrue_fps144_reversed_REAL.mp4",""
"null","","","html-keyboard-response","55","750152","0.0-55.0","bkd9kj0a","","<span style=""color:Black; font-size:50px;"">Agent B","null","","","","",""
"null","","","video-keyboard-response","56","752931","0.0-56.0","bkd9kj0a","","","null","","Agent B","veridical","FOR_REV_MAP_BLOBBY_STIM/1592017.bmp_pp154_L1_V1.0_veridical_freeview_isoTrue_fps144.mp4",""
"","","","call-function","57","752931","0.0-57.0","bkd9kj0a","","","","","","","",""
"3881.509999999893","{""judgement"":0}","[0]","survey-likert","58","756814","0.0-58.0","bkd9kj0a","","","","","","","","1"
"2297.5449999999255","{""confidence"":1}","[0]","survey-likert","59","759113","0.0-59.0","bkd9kj0a","","","","","","","",""
"","","","call-function","60","759114","0.0-60.0","bkd9kj0a","","","","","","","",""
"null","","","html-keyboard-response","61","760619","0.0-61.0","bkd9kj0a","","<span style=""color:Black; font-size:50px;"">Agent A","null","","","","",""
"null","","","video-keyboard-response","62","763473","0.0-62.0","bkd9kj0a","","","null","","Agent A","scrambled","FOR_REV_MAP_BLOBBY_STIM/1160189.bmp_pp64_L1_V1.0_veridical_freeview_isoTrue_fps144_reversed_REAL.mp4",""
"null","","","html-keyboard-response","63","764979","0.0-63.0","bkd9kj0a","","<span style=""color:Black; font-size:50px;"">Agent B","null","","","","",""
"null","","","video-keyboard-response","64","767834","0.0-64.0","bkd9kj0a","","","null","","Agent B","veridical","FOR_REV_MAP_BLOBBY_STIM/1160189.bmp_pp64_L1_V1.0_veridical_freeview_isoTrue_fps144.mp4",""
"","","","call-function","65","767834","0.0-65.0","bkd9kj0a","","","","","","","",""
"2008.3400000000838","{""judgement"":0}","[0]","survey-likert","66","769844","0.0-66.0","bkd9kj0a","","","","","","","","1"
"1847.9249999999302","{""confidence"":1}","[0]","survey-likert","67","771693","0.0-67.0","bkd9kj0a","","","","","","","",""
"","","","call-function","68","771693","0.0-68.0","bkd9kj0a","","","","","","","",""
"null","","","html-keyboard-response","69","773195","0.0-69.0","bkd9kj0a","","<span style=""color:Black; font-size:50px;"">Agent A","null","","","","",""
"null","","","video-keyboard-response","70","775952","0.0-70.0","bkd9kj0a","","","null","","Agent A","veridical","FOR_REV_MAP_BLOBBY_STIM/1592129.bmp_pp153_L3_V1.0_veridical_freeview_isoTrue_fps144.mp4",""
"null","","","html-keyboard-response","71","777456","0.0-71.0","bkd9kj0a","","<span style=""color:Black; font-size:50px;"">Agent B","null","","","","",""
"null","","","video-keyboard-response","72","780216","0.0-72.0","bkd9kj0a","","","null","","Agent B","scrambled","FOR_REV_MAP_BLOBBY_STIM/1592129.bmp_pp153_L3_V1.0_veridical_freeview_isoTrue_fps144_reversed_REAL.mp4",""
"","","","call-function","73","780216","0.0-73.0","bkd9kj0a","","","","","","","",""
"1827.6149999999907","{""judgement"":0}","[0]","survey-likert","74","782045","0.0-74.0","bkd9kj0a","","","","","","","","0"
"1718.0649999999441","{""confidence"":1}","[0]","survey-likert","75","783764","0.0-75.0","bkd9kj0a","","","","","","","",""
"","","","call-function","76","783764","0.0-76.0","bkd9kj0a","","","","","","","",""
"null","","","html-keyboard-response","77","785266","0.0-77.0","bkd9kj0a","","<span style=""color:Black; font-size:50px;"">Agent A","null","","","","",""
"null","","","video-keyboard-response","78","788105","0.0-78.0","bkd9kj0a","","","null","","Agent A","veridical","FOR_REV_MAP_BLOBBY_STIM/713381.bmp_pp82_L2_V1.0_veridical_freeview_isoTrue_fps144.mp4",""
"null","","","html-keyboard-response","79","789607","0.0-79.0","bkd9kj0a","","<span style=""color:Black; font-size:50px;"">Agent B","null","","","","",""
"null","","","video-keyboard-response","80","792437","0.0-80.0","bkd9kj0a","","","null","","Agent B","scrambled","FOR_REV_MAP_BLOBBY_STIM/713381.bmp_pp82_L2_V1.0_veridical_freeview_isoTrue_fps144_reversed_REAL.mp4",""
"","","","call-function","81","792439","0.0-81.0","bkd9kj0a","","","","","","","",""
"3166.844999999972","{""judgement"":0}","[0]","survey-likert","82","795607","0.0-82.0","bkd9kj0a","","","","","","","","0"
"1362.109999999986","{""confidence"":1}","[0]","survey-likert","83","796970","0.0-83.0","bkd9kj0a","","","","","","","",""
"","","","call-function","84","796970","0.0-84.0","bkd9kj0a","","","","","","","",""
"null","","","html-keyboard-response","85","798472","0.0-85.0","bkd9kj0a","","<span style=""color:Black; font-size:50px;"">Agent A","null","","","","",""
"null","","","video-keyboard-response","86","801305","0.0-86.0","bkd9kj0a","","","null","","Agent A","veridical","FOR_REV_MAP_BLOBBY_STIM/107955.bmp_pp90_L2_V1.0_veridical_freeview_isoTrue_fps144.mp4",""
"null","","","html-keyboard-response","87","802811","0.0-87.0","bkd9kj0a","","<span style=""color:Black; font-size:50px;"">Agent B","null","","","","",""
"null","","","video-keyboard-response","88","805643","0.0-88.0","bkd9kj0a","","","null","","Agent B","scrambled","FOR_REV_MAP_BLOBBY_STIM/107955.bmp_pp90_L2_V1.0_veridical_freeview_isoTrue_fps144_reversed_REAL.mp4",""
"","","","call-function","89","805643","0.0-89.0","bkd9kj0a","","","","","","","",""
"2352.4949999999953","{""judgement"":1}","[0]","survey-likert","90","807996","0.0-90.0","bkd9kj0a","","","","","","","","0"
"1394.265000000014","{""confidence"":1}","[0]","survey-likert","91","809392","0.0-91.0","bkd9kj0a","","","","","","","",""
"114333.46500000008","","","instructions","92","923726","0.0-92.0","bkd9kj0a","[{""page_index"":0,""viewing_time"":1569.3600000001024},{""page_index"":1,""viewing_time"":111714.92999999993},{""page_index"":2,""viewing_time"":1049.0200000000186}]","","","","","","",""
"10124.844999999972","","","instructions","93","933851","0.0-93.0","bkd9kj0a","[{""page_index"":0,""viewing_time"":1477.765000000014},{""page_index"":1,""viewing_time"":7646.719999999972},{""page_index"":2,""viewing_time"":1000.2550000000047}]","","","","","","",""
"","","","call-function","94","933851","0.0-94.0","bkd9kj0a","","","","","","","",""
"null","","","html-keyboard-response","95","935354","0.0-95.0","bkd9kj0a","","<span style=""color:Black; font-size:50px;"">Agent A","null","","","","",""
"null","","","video-keyboard-response","96","938110","0.0-96.0","bkd9kj0a","","","null","","Agent A","scrambled","FOR_REV_MAP_BLOBBY_STIM/1592047.bmp_pp51_L1_V1.0_veridical_freeview_isoTrue_fps144_reversed_REAL.mp4",""
"null","","","html-keyboard-response","97","939617","0.0-97.0","bkd9kj0a","","<span style=""color:Black; font-size:50px;"">Agent B","null","","","","",""
"null","","","video-keyboard-response","98","942376","0.0-98.0","bkd9kj0a","","","null","","Agent B","veridical","FOR_REV_MAP_BLOBBY_STIM/1592047.bmp_pp51_L1_V1.0_veridical_freeview_isoTrue_fps144.mp4",""
"","","","call-function","99","942376","0.0-99.0","bkd9kj0a","","","","","","","",""
"2514.655000000028","{""judgement"":0}","[0]","survey-likert","100","944892","0.0-100.0","bkd9kj0a","","","","","","","","1"
"2364.3799999998882","{""confidence"":1}","[0]","survey-likert","101","947257","0.0-101.0","bkd9kj0a","","","","","","","",""
"","","","call-function","102","947257","0.0-102.0","bkd9kj0a","","","","","","","",""
"null","","","html-keyboard-response","103","948763","0.0-103.0","bkd9kj0a","","<span style=""color:Black; font-size:50px;"">Agent A","null","","","","",""
"null","","","video-keyboard-response","104","951434","0.0-104.0","bkd9kj0a","","","null","","Agent A","veridical","FOR_REV_MAP_BLOBBY_STIM/713788.bmp_pp52_L1_V1.0_veridical_freeview_isoTrue_fps144.mp4",""
"null","","","html-keyboard-response","105","952937","0.0-105.0","bkd9kj0a","","<span style=""color:Black; font-size:50px;"">Agent B","null","","","","",""
"null","","","video-keyboard-response","106","955608","0.0-106.0","bkd9kj0a","","","null","","Agent B","scrambled","FOR_REV_MAP_BLOBBY_STIM/713788.bmp_pp52_L1_V1.0_veridical_freeview_isoTrue_fps144_reversed_REAL.mp4",""
"","","","call-function","107","955609","0.0-107.0","bkd9kj0a","","","","","","","",""
"2407.9599999999627","{""judgement"":0}","[0]","survey-likert","108","958017","0.0-108.0","bkd9kj0a","","","","","","","","0"
"3983.4649999999674","{""confidence"":1}","[0]","survey-likert","109","962002","0.0-109.0","bkd9kj0a","","","","","","","",""
"","","","call-function","110","962002","0.0-110.0","bkd9kj0a","","","","","","","",""
"null","","","html-keyboard-response","111","963505","0.0-111.0","bkd9kj0a","","<span style=""color:Black; font-size:50px;"">Agent A","null","","","","",""
"null","","","video-keyboard-response","112","966256","0.0-112.0","bkd9kj0a","","","null","","Agent A","veridical","FOR_REV_MAP_BLOBBY_STIM/285959.bmp_pp93_L1_V1.0_veridical_freeview_isoTrue_fps144.mp4",""
"null","","","html-keyboard-response","113","967762","0.0-113.0","bkd9kj0a","","<span style=""color:Black; font-size:50px;"">Agent B","null","","","","",""
"null","","","video-keyboard-response","114","970505","0.0-114.0","bkd9kj0a","","","null","","Agent B","scrambled","FOR_REV_MAP_BLOBBY_STIM/285959.bmp_pp93_L1_V1.0_veridical_freeview_isoTrue_fps144_reversed_REAL.mp4",""
"","","","call-function","115","970505","0.0-115.0","bkd9kj0a","","","","","","","",""
"2625.405000000028","{""judgement"":1}","[0]","survey-likert","116","973131","0.0-116.0","bkd9kj0a","","","","","","","","0"
"2429.7850000000326","{""confidence"":1}","[0]","survey-likert","117","975562","0.0-117.0","bkd9kj0a","","","","","","","",""
"","","","call-function","118","975562","0.0-118.0","bkd9kj0a","","","","","","","",""
"null","","","html-keyboard-response","119","977063","0.0-119.0","bkd9kj0a","","<span style=""color:Black; font-size:50px;"">Agent A","null","","","","",""
"null","","","video-keyboard-response","120","979840","0.0-120.0","bkd9kj0a","","","null","","Agent A","veridical","FOR_REV_MAP_BLOBBY_STIM/150277.bmp_pp65_L3_V1.0_veridical_freeview_isoTrue_fps144.mp4",""
"null","","","html-keyboard-response","121","981346","0.0-121.0","bkd9kj0a","","<span style=""color:Black; font-size:50px;"">Agent B","null","","","","",""
"null","","","video-keyboard-response","122","984125","0.0-122.0","bkd9kj0a","","","null","","Agent B","scrambled","FOR_REV_MAP_BLOBBY_STIM/150277.bmp_pp65_L3_V1.0_veridical_freeview_isoTrue_fps144_reversed_REAL.mp4",""
"","","","call-function","123","984125","0.0-123.0","bkd9kj0a","","","","","","","",""
"1938.3649999999907","{""judgement"":1}","[0]","survey-likert","124","986065","0.0-124.0","bkd9kj0a","","","","","","","","0"
"3780.079999999958","{""confidence"":1}","[0]","survey-likert","125","989846","0.0-125.0","bkd9kj0a","","","","","","","",""
"","","","call-function","126","989846","0.0-126.0","bkd9kj0a","","","","","","","",""
"null","","","html-keyboard-response","127","991351","0.0-127.0","bkd9kj0a","","<span style=""color:Black; font-size:50px;"">Agent A","null","","","","",""
"null","","","video-keyboard-response","128","994189","0.0-128.0","bkd9kj0a","","","null","","Agent A","scrambled","FOR_REV_MAP_BLOBBY_STIM/1160204.bmp_pp54_L2_V1.0_veridical_freeview_isoTrue_fps144_reversed_REAL.mp4",""
"null","","","html-keyboard-response","129","995692","0.0-129.0","bkd9kj0a","","<span style=""color:Black; font-size:50px;"">Agent B","null","","","","",""
"null","","","video-keyboard-response","130","998534","0.0-130.0","bkd9kj0a","","","null","","Agent B","veridical","FOR_REV_MAP_BLOBBY_STIM/1160204.bmp_pp54_L2_V1.0_veridical_freeview_isoTrue_fps144.mp4",""
"","","","call-function","131","998535","0.0-131.0","bkd9kj0a","","","","","","","",""
"6432.089999999967","{""judgement"":0}","[0]","survey-likert","132","1004969","0.0-132.0","bkd9kj0a","","","","","","","","1"
"5304.635000000009","{""confidence"":1}","[0]","survey-likert","133","1010276","0.0-133.0","bkd9kj0a","","","","","","","",""
"","","","call-function","134","1010277","0.0-134.0","bkd9kj0a","","","","","","","",""
"null","","","html-keyboard-response","135","1011781","0.0-135.0","bkd9kj0a","","<span style=""color:Black; font-size:50px;"">Agent A","null","","","","",""
"null","","","video-keyboard-response","136","1014551","0.0-136.0","bkd9kj0a","","","null","","Agent A","veridical","FOR_REV_MAP_BLOBBY_STIM/498372.bmp_pp95_L2_V1.0_veridical_freeview_isoTrue_fps144.mp4",""
"null","","","html-keyboard-response","137","1016057","0.0-137.0","bkd9kj0a","","<span style=""color:Black; font-size:50px;"">Agent B","null","","","","",""
"null","","","video-keyboard-response","138","1018828","0.0-138.0","bkd9kj0a","","","null","","Agent B","scrambled","FOR_REV_MAP_BLOBBY_STIM/498372.bmp_pp95_L2_V1.0_veridical_freeview_isoTrue_fps144_reversed_REAL.mp4",""
"","","","call-function","139","1018828","0.0-139.0","bkd9kj0a","","","","","","","",""
"3358.8099999999395","{""judgement"":0}","[0]","survey-likert","140","1022188","0.0-140.0","bkd9kj0a","","","","","","","","0"
"11272.764999999898","{""confidence"":1}","[0]","survey-likert","141","1033462","0.0-141.0","bkd9kj0a","","","","","","","",""
"","","","call-function","142","1033463","0.0-142.0","bkd9kj0a","","","","","","","",""
"null","","","html-keyboard-response","143","1034965","0.0-143.0","bkd9kj0a","","<span style=""color:Black; font-size:50px;"">Agent A","null","","","","",""
"null","","","video-keyboard-response","144","1037383","0.0-144.0","bkd9kj0a","","","null","","Agent A","scrambled","FOR_REV_MAP_BLOBBY_STIM/1592951.bmp_pp80_L3_V1.0_veridical_freeview_isoTrue_fps144_reversed_REAL.mp4",""
"null","","","html-keyboard-response","145","1038885","0.0-145.0","bkd9kj0a","","<span style=""color:Black; font-size:50px;"">Agent B","null","","","","",""
"null","","","video-keyboard-response","146","1041300","0.0-146.0","bkd9kj0a","","","null","","Agent B","veridical","FOR_REV_MAP_BLOBBY_STIM/1592951.bmp_pp80_L3_V1.0_veridical_freeview_isoTrue_fps144.mp4",""
"","","","call-function","147","1041300","0.0-147.0","bkd9kj0a","","","","","","","",""
"2614.3699999999953","{""judgement"":1}","[0]","survey-likert","148","1043915","0.0-148.0","bkd9kj0a","","","","","","","","1"
"1434.8100000000559","{""confidence"":0}","[0]","survey-likert","149","1045351","0.0-149.0","bkd9kj0a","","","","","","","",""
"","","","call-function","150","1045351","0.0-150.0","bkd9kj0a","","","","","","","",""
"null","","","html-keyboard-response","151","1046855","0.0-151.0","bkd9kj0a","","<span style=""color:Black; font-size:50px;"">Agent A","null","","","","",""
"null","","","video-keyboard-response","152","1049542","0.0-152.0","bkd9kj0a","","","null","","Agent A","scrambled","FOR_REV_MAP_BLOBBY_STIM/61513.bmp_pp75_L1_V1.0_veridical_freeview_isoTrue_fps144_reversed_REAL.mp4",""
"null","","","html-keyboard-response","153","1051048","0.0-153.0","bkd9kj0a","","<span style=""color:Black; font-size:50px;"">Agent B","null","","","","",""
"null","","","video-keyboard-response","154","1053729","0.0-154.0","bkd9kj0a","","","null","","Agent B","veridical","FOR_REV_MAP_BLOBBY_STIM/61513.bmp_pp75_L1_V1.0_veridical_freeview_isoTrue_fps144.mp4",""
"","","","call-function","155","1053729","0.0-155.0","bkd9kj0a","","","","","","","",""
"2052.1999999999534","{""judgement"":1}","[0]","survey-likert","156","1055782","0.0-156.0","bkd9kj0a","","","","","","","","1"
"3346.155000000028","{""confidence"":1}","[0]","survey-likert","157","1059129","0.0-157.0","bkd9kj0a","","","","","","","",""
"","","","call-function","158","1059129","0.0-158.0","bkd9kj0a","","","","","","","",""
"null","","","html-keyboard-response","159","1060634","0.0-159.0","bkd9kj0a","","<span style=""color:Black; font-size:50px;"">Agent A","null","","","","",""
"null","","","video-keyboard-response","160","1063238","0.0-160.0","bkd9kj0a","","","null","","Agent A","veridical","FOR_REV_MAP_BLOBBY_STIM/713633.bmp_pp58_L1_V1.0_veridical_freeview_isoTrue_fps144.mp4",""
"null","","","html-keyboard-response","161","1064740","0.0-161.0","bkd9kj0a","","<span style=""color:Black; font-size:50px;"">Agent B","null","","","","",""
"null","","","video-keyboard-response","162","1067340","0.0-162.0","bkd9kj0a","","","null","","Agent B","scrambled","FOR_REV_MAP_BLOBBY_STIM/713633.bmp_pp58_L1_V1.0_veridical_freeview_isoTrue_fps144_reversed_REAL.mp4",""
"","","","call-function","163","1067340","0.0-163.0","bkd9kj0a","","","","","","","",""
"2281.0449999999255","{""judgement"":0}","[0]","survey-likert","164","1069622","0.0-164.0","bkd9kj0a","","","","","","","","0"
"3624.1400000001304","{""confidence"":2}","[0]","survey-likert","165","1073247","0.0-165.0","bkd9kj0a","","","","","","","",""
"","","","call-function","166","1073247","0.0-166.0","bkd9kj0a","","","","","","","",""
"null","","","html-keyboard-response","167","1074749","0.0-167.0","bkd9kj0a","","<span style=""color:Black; font-size:50px;"">Agent A","null","","","","",""
"null","","","video-keyboard-response","168","1077554","0.0-168.0","bkd9kj0a","","","null","","Agent A","veridical","FOR_REV_MAP_BLOBBY_STIM/1591920.bmp_pp97_L3_V1.0_veridical_freeview_isoTrue_fps144.mp4",""
"null","","","html-keyboard-response","169","1079055","0.0-169.0","bkd9kj0a","","<span style=""color:Black; font-size:50px;"">Agent B","null","","","","",""
"null","","","video-keyboard-response","170","1081860","0.0-170.0","bkd9kj0a","","","null","","Agent B","scrambled","FOR_REV_MAP_BLOBBY_STIM/1591920.bmp_pp97_L3_V1.0_veridical_freeview_isoTrue_fps144_reversed_REAL.mp4",""
"","","","call-function","171","1081861","0.0-171.0","bkd9kj0a","","","","","","","",""
"3236.159999999916","{""judgement"":0}","[0]","survey-likert","172","1085098","0.0-172.0","bkd9kj0a","","","","","","","","0"
"2461.470000000205","{""confidence"":1}","[0]","survey-likert","173","1087560","0.0-173.0","bkd9kj0a","","","","","","","",""
"25758.600000000093","","","instructions","174","1113319","0.0-174.0","bkd9kj0a","[{""page_index"":0,""viewing_time"":14138.435000000056},{""page_index"":1,""viewing_time"":2907.350000000093},{""page_index"":2,""viewing_time"":8712.564999999944}]","","","","","","",""
"29672.554999999935","","","instructions","175","1142992","0.0-175.0","bkd9kj0a","[{""page_index"":0,""viewing_time"":22937.76000000001},{""page_index"":1,""viewing_time"":5753.695000000065},{""page_index"":2,""viewing_time"":980.9949999998789}]","","","","","","",""
"","","","call-function","176","1142992","0.0-176.0","bkd9kj0a","","","","","","","",""
"null","","","html-keyboard-response","177","1144496","0.0-177.0","bkd9kj0a","","<span style=""color:Black; font-size:50px;"">Agent A","null","","","","",""
"null","","","video-keyboard-response","178","1147294","0.0-178.0","bkd9kj0a","","","null","","Agent A","veridical","FOR_REV_MAP_BLOBBY_STIM/498258.bmp_pp51_L1_V1.0_veridical_freeview_isoTrue_fps144.mp4",""
"null","","","html-keyboard-response","179","1148801","0.0-179.0","bkd9kj0a","","<span style=""color:Black; font-size:50px;"">Agent B","null","","","","",""
"null","","","video-keyboard-response","180","1151597","0.0-180.0","bkd9kj0a","","","null","","Agent B","scrambled","FOR_REV_MAP_BLOBBY_STIM/498258.bmp_pp51_L1_V1.0_veridical_freeview_isoTrue_fps144_reversed_REAL.mp4",""
"","","","call-function","181","1151597","0.0-181.0","bkd9kj0a","","","","","","","",""
"1693.6499999999069","{""judgement"":0}","[0]","survey-likert","182","1153292","0.0-182.0","bkd9kj0a","","","","","","","","0"
"1986.2649999998976","{""confidence"":1}","[0]","survey-likert","183","1155279","0.0-183.0","bkd9kj0a","","","","","","","",""
"","","","call-function","184","1155280","0.0-184.0","bkd9kj0a","","","","","","","",""
"null","","","html-keyboard-response","185","1156782","0.0-185.0","bkd9kj0a","","<span style=""color:Black; font-size:50px;"">Agent A","null","","","","",""
"null","","","video-keyboard-response","186","1159540","0.0-186.0","bkd9kj0a","","","null","","Agent A","veridical","FOR_REV_MAP_BLOBBY_STIM/1592747.bmp_pp53_L2_V1.0_veridical_freeview_isoTrue_fps144.mp4",""
"null","","","html-keyboard-response","187","1161044","0.0-187.0","bkd9kj0a","","<span style=""color:Black; font-size:50px;"">Agent B","null","","","","",""
"null","","","video-keyboard-response","188","1163798","0.0-188.0","bkd9kj0a","","","null","","Agent B","scrambled","FOR_REV_MAP_BLOBBY_STIM/1592747.bmp_pp53_L2_V1.0_veridical_freeview_isoTrue_fps144_reversed_REAL.mp4",""
"","","","call-function","189","1163799","0.0-189.0","bkd9kj0a","","","","","","","",""
"2250.5750000001863","{""judgement"":0}","[0]","survey-likert","190","1166052","0.0-190.0","bkd9kj0a","","","","","","","","0"
"1870.369999999879","{""confidence"":1}","[0]","survey-likert","191","1167924","0.0-191.0","bkd9kj0a","","","","","","","",""
"","","","call-function","192","1167925","0.0-192.0","bkd9kj0a","","","","","","","",""
"null","","","html-keyboard-response","193","1169427","0.0-193.0","bkd9kj0a","","<span style=""color:Black; font-size:50px;"">Agent A","null","","","","",""
"null","","","video-keyboard-response","194","1172342","0.0-194.0","bkd9kj0a","","","null","","Agent A","scrambled","FOR_REV_MAP_BLOBBY_STIM/498025.bmp_pp81_L1_V1.0_veridical_freeview_isoTrue_fps144_reversed_REAL.mp4",""
"null","","","html-keyboard-response","195","1173849","0.0-195.0","bkd9kj0a","","<span style=""color:Black; font-size:50px;"">Agent B","null","","","","",""
"null","","","video-keyboard-response","196","1176765","0.0-196.0","bkd9kj0a","","","null","","Agent B","veridical","FOR_REV_MAP_BLOBBY_STIM/498025.bmp_pp81_L1_V1.0_veridical_freeview_isoTrue_fps144.mp4",""
"","","","call-function","197","1176765","0.0-197.0","bkd9kj0a","","","","","","","",""
"2844.7450000001118","{""judgement"":1}","[0]","survey-likert","198","1179611","0.0-198.0","bkd9kj0a","","","","","","","","1"
"2068.2399999999907","{""confidence"":2}","[0]","survey-likert","199","1181680","0.0-199.0","bkd9kj0a","","","","","","","",""
"","","","call-function","200","1181681","0.0-200.0","bkd9kj0a","","","","","","","",""
"null","","","html-keyboard-response","201","1183182","0.0-201.0","bkd9kj0a","","<span style=""color:Black; font-size:50px;"">Agent A","null","","","","",""
"null","","","video-keyboard-response","202","1185932","0.0-202.0","bkd9kj0a","","","null","","Agent A","veridical","FOR_REV_MAP_BLOBBY_STIM/1160247.bmp_pp54_L2_V1.0_veridical_freeview_isoTrue_fps144.mp4",""
"null","","","html-keyboard-response","203","1187438","0.0-203.0","bkd9kj0a","","<span style=""color:Black; font-size:50px;"">Agent B","null","","","","",""
"null","","","video-keyboard-response","204","1190186","0.0-204.0","bkd9kj0a","","","null","","Agent B","scrambled","FOR_REV_MAP_BLOBBY_STIM/1160247.bmp_pp54_L2_V1.0_veridical_freeview_isoTrue_fps144_reversed_REAL.mp4",""
"","","","call-function","205","1190186","0.0-205.0","bkd9kj0a","","","","","","","",""
"4305.170000000158","{""judgement"":0}","[0]","survey-likert","206","1194492","0.0-206.0","bkd9kj0a","","","","","","","","0"
"2334.2649999998976","{""confidence"":0}","[0]","survey-likert","207","1196828","0.0-207.0","bkd9kj0a","","","","","","","",""
"","","","call-function","208","1196828","0.0-208.0","bkd9kj0a","","","","","","","",""
"null","","","html-keyboard-response","209","1198329","0.0-209.0","bkd9kj0a","","<span style=""color:Black; font-size:50px;"">Agent A","null","","","","",""
"null","","","video-keyboard-response","210","1201106","0.0-210.0","bkd9kj0a","","","null","","Agent A","veridical","FOR_REV_MAP_BLOBBY_STIM/1159325.bmp_pp67_L2_V1.0_veridical_freeview_isoTrue_fps144.mp4",""
"null","","","html-keyboard-response","211","1202611","0.0-211.0","bkd9kj0a","","<span style=""color:Black; font-size:50px;"">Agent B","null","","","","",""
"null","","","video-keyboard-response","212","1205373","0.0-212.0","bkd9kj0a","","","null","","Agent B","scrambled","FOR_REV_MAP_BLOBBY_STIM/1159325.bmp_pp67_L2_V1.0_veridical_freeview_isoTrue_fps144_reversed_REAL.mp4",""
"","","","call-function","213","1205374","0.0-213.0","bkd9kj0a","","","","","","","",""
"3707.7099999999627","{""judgement"":1}","[0]","survey-likert","214","1209082","0.0-214.0","bkd9kj0a","","","","","","","","0"
"2027.9849999998696","{""confidence"":0}","[0]","survey-likert","215","1211111","0.0-215.0","bkd9kj0a","","","","","","","",""
"","","","call-function","216","1211111","0.0-216.0","bkd9kj0a","","","","","","","",""
"null","","","html-keyboard-response","217","1212613","0.0-217.0","bkd9kj0a","","<span style=""color:Black; font-size:50px;"">Agent A","null","","","","",""
"null","","","video-keyboard-response","218","1215417","0.0-218.0","bkd9kj0a","","","null","","Agent A","veridical","FOR_REV_MAP_BLOBBY_STIM/1592305.bmp_pp65_L3_V1.0_veridical_freeview_isoTrue_fps144.mp4",""
"null","","","html-keyboard-response","219","1216918","0.0-219.0","bkd9kj0a","","<span style=""color:Black; font-size:50px;"">Agent B","null","","","","",""
"null","","","video-keyboard-response","220","1219721","0.0-220.0","bkd9kj0a","","","null","","Agent B","scrambled","FOR_REV_MAP_BLOBBY_STIM/1592305.bmp_pp65_L3_V1.0_veridical_freeview_isoTrue_fps144_reversed_REAL.mp4",""
"","","","call-function","221","1219721","0.0-221.0","bkd9kj0a","","","","","","","",""
"2594.344999999972","{""judgement"":1}","[0]","survey-likert","222","1222316","0.0-222.0","bkd9kj0a","","","","","","","","0"
"1882.6800000001676","{""confidence"":0}","[0]","survey-likert","223","1224200","0.0-223.0","bkd9kj0a","","","","","","","",""
"","","","call-function","224","1224201","0.0-224.0","bkd9kj0a","","","","","","","",""
"null","","","html-keyboard-response","225","1225703","0.0-225.0","bkd9kj0a","","<span style=""color:Black; font-size:50px;"">Agent A","null","","","","",""
"null","","","video-keyboard-response","226","1228477","0.0-226.0","bkd9kj0a","","","null","","Agent A","scrambled","FOR_REV_MAP_BLOBBY_STIM/1159329.bmp_pp61_L2_V1.0_veridical_freeview_isoTrue_fps144_reversed_REAL.mp4",""
"null","","","html-keyboard-response","227","1229984","0.0-227.0","bkd9kj0a","","<span style=""color:Black; font-size:50px;"">Agent B","null","","","","",""
"null","","","video-keyboard-response","228","1232762","0.0-228.0","bkd9kj0a","","","null","","Agent B","veridical","FOR_REV_MAP_BLOBBY_STIM/1159329.bmp_pp61_L2_V1.0_veridical_freeview_isoTrue_fps144.mp4",""
"","","","call-function","229","1232762","0.0-229.0","bkd9kj0a","","","","","","","",""
"2000.2699999997858","{""judgement"":0}","[0]","survey-likert","230","1234763","0.0-230.0","bkd9kj0a","","","","","","","","1"
"2327.1999999999534","{""confidence"":1}","[0]","survey-likert","231","1237091","0.0-231.0","bkd9kj0a","","","","","","","",""
"","","","call-function","232","1237092","0.0-232.0","bkd9kj0a","","","","","","","",""
"null","","","html-keyboard-response","233","1238595","0.0-233.0","bkd9kj0a","","<span style=""color:Black; font-size:50px;"">Agent A","null","","","","",""
"null","","","video-keyboard-response","234","1241156","0.0-234.0","bkd9kj0a","","","null","","Agent A","veridical","FOR_REV_MAP_BLOBBY_STIM/498398.bmp_pp81_L1_V1.0_veridical_freeview_isoTrue_fps144.mp4",""
"null","","","html-keyboard-response","235","1242658","0.0-235.0","bkd9kj0a","","<span style=""color:Black; font-size:50px;"">Agent B","null","","","","",""
"null","","","video-keyboard-response","236","1245218","0.0-236.0","bkd9kj0a","","","null","","Agent B","scrambled","FOR_REV_MAP_BLOBBY_STIM/498398.bmp_pp81_L1_V1.0_veridical_freeview_isoTrue_fps144_reversed_REAL.mp4",""
"","","","call-function","237","1245219","0.0-237.0","bkd9kj0a","","","","","","","",""
"1573.6950000000652","{""judgement"":0}","[0]","survey-likert","238","1246793","0.0-238.0","bkd9kj0a","","","","","","","","0"
"1585.0449999999255","{""confidence"":0}","[0]","survey-likert","239","1248379","0.0-239.0","bkd9kj0a","","","","","","","",""
"","","","call-function","240","1248379","0.0-240.0","bkd9kj0a","","","","","","","",""
"null","","","html-keyboard-response","241","1249883","0.0-241.0","bkd9kj0a","","<span style=""color:Black; font-size:50px;"">Agent A","null","","","","",""
"null","","","video-keyboard-response","242","1252659","0.0-242.0","bkd9kj0a","","","null","","Agent A","veridical","FOR_REV_MAP_BLOBBY_STIM/1592289.bmp_pp92_L3_V1.0_veridical_freeview_isoTrue_fps144.mp4",""
"null","","","html-keyboard-response","243","1254163","0.0-243.0","bkd9kj0a","","<span style=""color:Black; font-size:50px;"">Agent B","null","","","","",""
"null","","","video-keyboard-response","244","1256938","0.0-244.0","bkd9kj0a","","","null","","Agent B","scrambled","FOR_REV_MAP_BLOBBY_STIM/1592289.bmp_pp92_L3_V1.0_veridical_freeview_isoTrue_fps144_reversed_REAL.mp4",""
"","","","call-function","245","1256939","0.0-245.0","bkd9kj0a","","","","","","","",""
"2148.875","{""judgement"":0}","[0]","survey-likert","246","1259089","0.0-246.0","bkd9kj0a","","","","","","","","0"
"1473.3049999999348","{""confidence"":1}","[0]","survey-likert","247","1260564","0.0-247.0","bkd9kj0a","","","","","","","",""
"","","","call-function","248","1260566","0.0-248.0","bkd9kj0a","","","","","","","",""
"null","","","html-keyboard-response","249","1262071","0.0-249.0","bkd9kj0a","","<span style=""color:Black; font-size:50px;"">Agent A","null","","","","",""
"null","","","video-keyboard-response","250","1264757","0.0-250.0","bkd9kj0a","","","null","","Agent A","veridical","FOR_REV_MAP_BLOBBY_STIM/713858.bmp_pp57_L1_V1.0_veridical_freeview_isoTrue_fps144.mp4",""
"null","","","html-keyboard-response","251","1266260","0.0-251.0","bkd9kj0a","","<span style=""color:Black; font-size:50px;"">Agent B","null","","","","",""
"null","","","video-keyboard-response","252","1268950","0.0-252.0","bkd9kj0a","","","null","","Agent B","scrambled","FOR_REV_MAP_BLOBBY_STIM/713858.bmp_pp57_L1_V1.0_veridical_freeview_isoTrue_fps144_reversed_REAL.mp4",""
"","","","call-function","253","1268951","0.0-253.0","bkd9kj0a","","","","","","","",""
"2965.9249999998137","{""judgement"":1}","[0]","survey-likert","254","1271918","0.0-254.0","bkd9kj0a","","","","","","","","0"
"3139.945000000065","{""confidence"":0}","[0]","survey-likert","255","1275059","0.0-255.0","bkd9kj0a","","","","","","","",""
"21038.050000000047","","","instructions","256","1296097","0.0-256.0","bkd9kj0a","[{""page_index"":0,""viewing_time"":18301.98499999987},{""page_index"":1,""viewing_time"":2036.9250000000466},{""page_index"":2,""viewing_time"":698.9250000000466}]","","","","","","",""
"7570.625","","","instructions","257","1303668","0.0-257.0","bkd9kj0a","[{""page_index"":0,""viewing_time"":593.7050000000745},{""page_index"":1,""viewing_time"":6123.779999999795},{""page_index"":2,""viewing_time"":853.035000000149}]","","","","","","",""
"","","","call-function","258","1303669","0.0-258.0","bkd9kj0a","","","","","","","",""
"null","","","html-keyboard-response","259","1305174","0.0-259.0","bkd9kj0a","","<span style=""color:Black; font-size:50px;"">Agent A","null","","","","",""
"null","","","video-keyboard-response","260","1308014","0.0-260.0","bkd9kj0a","","","null","","Agent A","scrambled","FOR_REV_MAP_BLOBBY_STIM/498396.bmp_pp99_L2_V1.0_veridical_freeview_isoTrue_fps144_reversed_REAL.mp4",""
"null","","","html-keyboard-response","261","1309521","0.0-261.0","bkd9kj0a","","<span style=""color:Black; font-size:50px;"">Agent B","null","","","","",""
"null","","","video-keyboard-response","262","1312362","0.0-262.0","bkd9kj0a","","","null","","Agent B","veridical","FOR_REV_MAP_BLOBBY_STIM/498396.bmp_pp99_L2_V1.0_veridical_freeview_isoTrue_fps144.mp4",""
"","","","call-function","263","1312362","0.0-263.0","bkd9kj0a","","","","","","","",""
"1737.3850000000093","{""judgement"":1}","[0]","survey-likert","264","1314101","0.0-264.0","bkd9kj0a","","","","","","","","1"
"1254.8899999998976","{""confidence"":0}","[0]","survey-likert","265","1315356","0.0-265.0","bkd9kj0a","","","","","","","",""
"","","","call-function","266","1315357","0.0-266.0","bkd9kj0a","","","","","","","",""
"null","","","html-keyboard-response","267","1316859","0.0-267.0","bkd9kj0a","","<span style=""color:Black; font-size:50px;"">Agent A","null","","","","",""
"null","","","video-keyboard-response","268","1319674","0.0-268.0","bkd9kj0a","","","null","","Agent A","scrambled","FOR_REV_MAP_BLOBBY_STIM/1159392.bmp_pp96_L2_V1.0_veridical_freeview_isoTrue_fps144_reversed_REAL.mp4",""
"null","","","html-keyboard-response","269","1321176","0.0-269.0","bkd9kj0a","","<span style=""color:Black; font-size:50px;"">Agent B","null","","","","",""
"null","","","video-keyboard-response","270","1323979","0.0-270.0","bkd9kj0a","","","null","","Agent B","veridical","FOR_REV_MAP_BLOBBY_STIM/1159392.bmp_pp96_L2_V1.0_veridical_freeview_isoTrue_fps144.mp4",""
"","","","call-function","271","1323980","0.0-271.0","bkd9kj0a","","","","","","","",""
"1577.2399999999907","{""judgement"":0}","[0]","survey-likert","272","1325558","0.0-272.0","bkd9kj0a","","","","","","","","1"
"1977.1350000000093","{""confidence"":0}","[0]","survey-likert","273","1327536","0.0-273.0","bkd9kj0a","","","","","","","",""
"","","","call-function","274","1327537","0.0-274.0","bkd9kj0a","","","","","","","",""
"null","","","html-keyboard-response","275","1329042","0.0-275.0","bkd9kj0a","","<span style=""color:Black; font-size:50px;"">Agent A","null","","","","",""
"null","","","video-keyboard-response","276","1331830","0.0-276.0","bkd9kj0a","","","null","","Agent A","veridical","FOR_REV_MAP_BLOBBY_STIM/1592150.bmp_pp77_L3_V1.0_veridical_freeview_isoTrue_fps144.mp4",""
"null","","","html-keyboard-response","277","1333332","0.0-277.0","bkd9kj0a","","<span style=""color:Black; font-size:50px;"">Agent B","null","","","","",""
"null","","","video-keyboard-response","278","1336125","0.0-278.0","bkd9kj0a","","","null","","Agent B","scrambled","FOR_REV_MAP_BLOBBY_STIM/1592150.bmp_pp77_L3_V1.0_veridical_freeview_isoTrue_fps144_reversed_REAL.mp4",""
"","","","call-function","279","1336125","0.0-279.0","bkd9kj0a","","","","","","","",""
"1848.6200000001118","{""judgement"":1}","[0]","survey-likert","280","1337974","0.0-280.0","bkd9kj0a","","","","","","","","0"
"1969.0749999999534","{""confidence"":1}","[0]","survey-likert","281","1339944","0.0-281.0","bkd9kj0a","","","","","","","",""
"","","","call-function","282","1339945","0.0-282.0","bkd9kj0a","","","","","","","",""
"null","","","html-keyboard-response","283","1341448","0.0-283.0","bkd9kj0a","","<span style=""color:Black; font-size:50px;"">Agent A","null","","","","",""
"null","","","video-keyboard-response","284","1344273","0.0-284.0","bkd9kj0a","","","null","","Agent A","scrambled","FOR_REV_MAP_BLOBBY_STIM/713920.bmp_pp76_L1_V1.0_veridical_freeview_isoTrue_fps144_reversed_REAL.mp4",""
"null","","","html-keyboard-response","285","1345777","0.0-285.0","bkd9kj0a","","<span style=""color:Black; font-size:50px;"">Agent B","null","","","","",""
"null","","","video-keyboard-response","286","1348599","0.0-286.0","bkd9kj0a","","","null","","Agent B","veridical","FOR_REV_MAP_BLOBBY_STIM/713920.bmp_pp76_L1_V1.0_veridical_freeview_isoTrue_fps144.mp4",""
"","","","call-function","287","1348600","0.0-287.0","bkd9kj0a","","","","","","","",""
"3578.980000000214","{""judgement"":1}","[0]","survey-likert","288","1352179","0.0-288.0","bkd9kj0a","","","","","","","","1"
"1690.4399999999441","{""confidence"":0}","[0]","survey-likert","289","1353871","0.0-289.0","bkd9kj0a","","","","","","","",""
"","","","call-function","290","1353871","0.0-290.0","bkd9kj0a","","","","","","","",""
"null","","","html-keyboard-response","291","1355374","0.0-291.0","bkd9kj0a","","<span style=""color:Black; font-size:50px;"">Agent A","null","","","","",""
"null","","","video-keyboard-response","292","1358115","0.0-292.0","bkd9kj0a","","","null","","Agent A","veridical","FOR_REV_MAP_BLOBBY_STIM/1159956.bmp_pp59_L3_V1.0_veridical_freeview_isoTrue_fps144.mp4",""
"null","","","html-keyboard-response","293","1359616","0.0-293.0","bkd9kj0a","","<span style=""color:Black; font-size:50px;"">Agent B","null","","","","",""
"null","","","video-keyboard-response","294","1362363","0.0-294.0","bkd9kj0a","","","null","","Agent B","scrambled","FOR_REV_MAP_BLOBBY_STIM/1159956.bmp_pp59_L3_V1.0_veridical_freeview_isoTrue_fps144_reversed_REAL.mp4",""
"","","","call-function","295","1362364","0.0-295.0","bkd9kj0a","","","","","","","",""
"2452.8600000001024","{""judgement"":0}","[0]","survey-likert","296","1364817","0.0-296.0","bkd9kj0a","","","","","","","","0"
"3136.8649999999907","{""confidence"":1}","[0]","survey-likert","297","1367955","0.0-297.0","bkd9kj0a","","","","","","","",""
"","","","call-function","298","1367956","0.0-298.0","bkd9kj0a","","","","","","","",""
"null","","","html-keyboard-response","299","1369462","0.0-299.0","bkd9kj0a","","<span style=""color:Black; font-size:50px;"">Agent A","null","","","","",""
"null","","","video-keyboard-response","300","1372216","0.0-300.0","bkd9kj0a","","","null","","Agent A","veridical","FOR_REV_MAP_BLOBBY_STIM/713328.bmp_pp86_L2_V1.0_veridical_freeview_isoTrue_fps144.mp4",""
"null","","","html-keyboard-response","301","1373719","0.0-301.0","bkd9kj0a","","<span style=""color:Black; font-size:50px;"">Agent B","null","","","","",""
"null","","","video-keyboard-response","302","1376474","0.0-302.0","bkd9kj0a","","","null","","Agent B","scrambled","FOR_REV_MAP_BLOBBY_STIM/713328.bmp_pp86_L2_V1.0_veridical_freeview_isoTrue_fps144_reversed_REAL.mp4",""
"","","","call-function","303","1376476","0.0-303.0","bkd9kj0a","","","","","","","",""
"2026.6450000000186","{""judgement"":0}","[0]","survey-likert","304","1378504","0.0-304.0","bkd9kj0a","","","","","","","","0"
"2095.9899999999907","{""confidence"":0}","[0]","survey-likert","305","1380601","0.0-305.0","bkd9kj0a","","","","","","","",""
"","","","call-function","306","1380602","0.0-306.0","bkd9kj0a","","","","","","","",""
"null","","","html-keyboard-response","307","1382108","0.0-307.0","bkd9kj0a","","<span style=""color:Black; font-size:50px;"">Agent A","null","","","","",""
"null","","","video-keyboard-response","308","1384788","0.0-308.0","bkd9kj0a","","","null","","Agent A","veridical","FOR_REV_MAP_BLOBBY_STIM/1592038.bmp_pp79_L2_V1.0_veridical_freeview_isoTrue_fps144.mp4",""
"null","","","html-keyboard-response","309","1386294","0.0-309.0","bkd9kj0a","","<span style=""color:Black; font-size:50px;"">Agent B","null","","","","",""
"null","","","video-keyboard-response","310","1388972","0.0-310.0","bkd9kj0a","","","null","","Agent B","scrambled","FOR_REV_MAP_BLOBBY_STIM/1592038.bmp_pp79_L2_V1.0_veridical_freeview_isoTrue_fps144_reversed_REAL.mp4",""
"","","","call-function","311","1388972","0.0-311.0","bkd9kj0a","","","","","","","",""
"6462.5800000000745","{""judgement"":1}","[0]","survey-likert","312","1395436","0.0-312.0","bkd9kj0a","","","","","","","","0"
"1540.6049999999814","{""confidence"":1}","[0]","survey-likert","313","1396978","0.0-313.0","bkd9kj0a","","","","","","","",""
"","","","call-function","314","1396979","0.0-314.0","bkd9kj0a","","","","","","","",""
"null","","","html-keyboard-response","315","1398483","0.0-315.0","bkd9kj0a","","<span style=""color:Black; font-size:50px;"">Agent A","null","","","","",""
"null","","","video-keyboard-response","316","1401295","0.0-316.0","bkd9kj0a","","","null","","Agent A","veridical","FOR_REV_MAP_BLOBBY_STIM/1159508.bmp_pp151_L1_V1.0_veridical_freeview_isoTrue_fps144.mp4",""
"null","","","html-keyboard-response","317","1402796","0.0-317.0","bkd9kj0a","","<span style=""color:Black; font-size:50px;"">Agent B","null","","","","",""
"null","","","video-keyboard-response","318","1405634","0.0-318.0","bkd9kj0a","","","null","","Agent B","scrambled","FOR_REV_MAP_BLOBBY_STIM/1159508.bmp_pp151_L1_V1.0_veridical_freeview_isoTrue_fps144_reversed_REAL.mp4",""
"","","","call-function","319","1405634","0.0-319.0","bkd9kj0a","","","","","","","",""
"3270.439999999944","{""judgement"":0}","[0]","survey-likert","320","1408906","0.0-320.0","bkd9kj0a","","","","","","","","0"
"2242.3199999998324","{""confidence"":0}","[0]","survey-likert","321","1411149","0.0-321.0","bkd9kj0a","","","","","","","",""
"","","","call-function","322","1411149","0.0-322.0","bkd9kj0a","","","","","","","",""
"null","","","html-keyboard-response","323","1412656","0.0-323.0","bkd9kj0a","","<span style=""color:Black; font-size:50px;"">Agent A","null","","","","",""
"null","","","video-keyboard-response","324","1414757","0.0-324.0","bkd9kj0a","","","null","","Agent A","scrambled","FOR_REV_MAP_BLOBBY_STIM/1159973.bmp_pp98_L1_V1.0_veridical_freeview_isoTrue_fps144_reversed_REAL.mp4",""
"null","","","html-keyboard-response","325","1416260","0.0-325.0","bkd9kj0a","","<span style=""color:Black; font-size:50px;"">Agent B","null","","","","",""
"null","","","video-keyboard-response","326","1418365","0.0-326.0","bkd9kj0a","","","null","","Agent B","veridical","FOR_REV_MAP_BLOBBY_STIM/1159973.bmp_pp98_L1_V1.0_veridical_freeview_isoTrue_fps144.mp4",""
"","","","call-function","327","1418365","0.0-327.0","bkd9kj0a","","","","","","","",""
"2190.534999999916","{""judgement"":1}","[0]","survey-likert","328","1420556","0.0-328.0","bkd9kj0a","","","","","","","","1"
"1876.005000000121","{""confidence"":1}","[0]","survey-likert","329","1422433","0.0-329.0","bkd9kj0a","","","","","","","",""
"","","","call-function","330","1422434","0.0-330.0","bkd9kj0a","","","","","","","",""
"null","","","html-keyboard-response","331","1423935","0.0-331.0","bkd9kj0a","","<span style=""color:Black; font-size:50px;"">Agent A","null","","","","",""
"null","","","video-keyboard-response","332","1426740","0.0-332.0","bkd9kj0a","","","null","","Agent A","veridical","FOR_REV_MAP_BLOBBY_STIM/107909.bmp_pp95_L2_V1.0_veridical_freeview_isoTrue_fps144.mp4",""
"null","","","html-keyboard-response","333","1428245","0.0-333.0","bkd9kj0a","","<span style=""color:Black; font-size:50px;"">Agent B","null","","","","",""
"null","","","video-keyboard-response","334","1431050","0.0-334.0","bkd9kj0a","","","null","","Agent B","scrambled","FOR_REV_MAP_BLOBBY_STIM/107909.bmp_pp95_L2_V1.0_veridical_freeview_isoTrue_fps144_reversed_REAL.mp4",""
"","","","call-function","335","1431051","0.0-335.0","bkd9kj0a","","","","","","","",""
"3182.060000000056","{""judgement"":0}","[0]","survey-likert","336","1434234","0.0-336.0","bkd9kj0a","","","","","","","","0"
"2177.5400000000373","{""confidence"":0}","[0]","survey-likert","337","1436412","0.0-337.0","bkd9kj0a","","","","","","","",""
"12016.804999999935","","","instructions","338","1448430","0.0-338.0","bkd9kj0a","[{""page_index"":0,""viewing_time"":1717.7900000000373},{""page_index"":1,""viewing_time"":2934.189999999944},{""page_index"":2,""viewing_time"":7364.6699999999255}]","","","","","","",""
"4334.604999999981","","","instructions","339","1452765","0.0-339.0","bkd9kj0a","[{""page_index"":0,""viewing_time"":3137.4549999998417},{""page_index"":1,""viewing_time"":549.0250000001397},{""page_index"":2,""viewing_time"":648.0200000000186}]","","","","","","",""
"","","","call-function","340","1452765","0.0-340.0","bkd9kj0a","","","","","","","",""
"null","","","html-keyboard-response","341","1454269","0.0-341.0","bkd9kj0a","","<span style=""color:Black; font-size:50px;"">Agent A","null","","","","",""
"null","","","video-keyboard-response","342","1457092","0.0-342.0","bkd9kj0a","","","null","","Agent A","veridical","FOR_REV_MAP_BLOBBY_STIM/713829.bmp_pp60_L3_V1.0_veridical_freeview_isoTrue_fps144.mp4",""
"null","","","html-keyboard-response","343","1458595","0.0-343.0","bkd9kj0a","","<span style=""color:Black; font-size:50px;"">Agent B","null","","","","",""
"null","","","video-keyboard-response","344","1461418","0.0-344.0","bkd9kj0a","","","null","","Agent B","scrambled","FOR_REV_MAP_BLOBBY_STIM/713829.bmp_pp60_L3_V1.0_veridical_freeview_isoTrue_fps144_reversed_REAL.mp4",""
"","","","call-function","345","1461418","0.0-345.0","bkd9kj0a","","","","","","","",""
"1619.5749999999534","{""judgement"":1}","[0]","survey-likert","346","1463038","0.0-346.0","bkd9kj0a","","","","","","","","0"
"1337.0100000000093","{""confidence"":1}","[0]","survey-likert","347","1464376","0.0-347.0","bkd9kj0a","","","","","","","",""
"","","","call-function","348","1464377","0.0-348.0","bkd9kj0a","","","","","","","",""
"null","","","html-keyboard-response","349","1465882","0.0-349.0","bkd9kj0a","","<span style=""color:Black; font-size:50px;"">Agent A","null","","","","",""
"null","","","video-keyboard-response","350","1468804","0.0-350.0","bkd9kj0a","","","null","","Agent A","veridical","FOR_REV_MAP_BLOBBY_STIM/1592568.bmp_pp71_L1_V1.0_veridical_freeview_isoTrue_fps144.mp4",""
"null","","","html-keyboard-response","351","1470305","0.0-351.0","bkd9kj0a","","<span style=""color:Black; font-size:50px;"">Agent B","null","","","","",""
"null","","","video-keyboard-response","352","1473231","0.0-352.0","bkd9kj0a","","","null","","Agent B","scrambled","FOR_REV_MAP_BLOBBY_STIM/1592568.bmp_pp71_L1_V1.0_veridical_freeview_isoTrue_fps144_reversed_REAL.mp4",""
"","","","call-function","353","1473233","0.0-353.0","bkd9kj0a","","","","","","","",""
"1806.7600000000093","{""judgement"":0}","[0]","survey-likert","354","1475041","0.0-354.0","bkd9kj0a","","","","","","","","0"
"1180.8349999999627","{""confidence"":0}","[0]","survey-likert","355","1476223","0.0-355.0","bkd9kj0a","","","","","","","",""
"","","","call-function","356","1476224","0.0-356.0","bkd9kj0a","","","","","","","",""
"null","","","html-keyboard-response","357","1477726","0.0-357.0","bkd9kj0a","","<span style=""color:Black; font-size:50px;"">Agent A","null","","","","",""
"null","","","video-keyboard-response","358","1480428","0.0-358.0","bkd9kj0a","","","null","","Agent A","scrambled","FOR_REV_MAP_BLOBBY_STIM/1159427.bmp_pp98_L1_V1.0_veridical_freeview_isoTrue_fps144_reversed_REAL.mp4",""
"null","","","html-keyboard-response","359","1481932","0.0-359.0","bkd9kj0a","","<span style=""color:Black; font-size:50px;"">Agent B","null","","","","",""
"null","","","video-keyboard-response","360","1484631","0.0-360.0","bkd9kj0a","","","null","","Agent B","veridical","FOR_REV_MAP_BLOBBY_STIM/1159427.bmp_pp98_L1_V1.0_veridical_freeview_isoTrue_fps144.mp4",""
"","","","call-function","361","1484632","0.0-361.0","bkd9kj0a","","","","","","","",""
"1811.219999999972","{""judgement"":1}","[0]","survey-likert","362","1486444","0.0-362.0","bkd9kj0a","","","","","","","","1"
"1610.160000000149","{""confidence"":0}","[0]","survey-likert","363","1488055","0.0-363.0","bkd9kj0a","","","","","","","",""
"","","","call-function","364","1488056","0.0-364.0","bkd9kj0a","","","","","","","",""
"null","","","html-keyboard-response","365","1489562","0.0-365.0","bkd9kj0a","","<span style=""color:Black; font-size:50px;"">Agent A","null","","","","",""
"null","","","video-keyboard-response","366","1492317","0.0-366.0","bkd9kj0a","","","null","","Agent A","scrambled","FOR_REV_MAP_BLOBBY_STIM/1592298.bmp_pp56_L3_V1.0_veridical_freeview_isoTrue_fps144_reversed_REAL.mp4",""
"null","","","html-keyboard-response","367","1493824","0.0-367.0","bkd9kj0a","","<span style=""color:Black; font-size:50px;"">Agent B","null","","","","",""
"null","","","video-keyboard-response","368","1496578","0.0-368.0","bkd9kj0a","","","null","","Agent B","veridical","FOR_REV_MAP_BLOBBY_STIM/1592298.bmp_pp56_L3_V1.0_veridical_freeview_isoTrue_fps144.mp4",""
"","","","call-function","369","1496578","0.0-369.0","bkd9kj0a","","","","","","","",""
"1927.7150000000838","{""judgement"":0}","[0]","survey-likert","370","1498507","0.0-370.0","bkd9kj0a","","","","","","","","1"
"3640.8700000001118","{""confidence"":0}","[0]","survey-likert","371","1502149","0.0-371.0","bkd9kj0a","","","","","","","",""
"","","","call-function","372","1502149","0.0-372.0","bkd9kj0a","","","","","","","",""
"null","","","html-keyboard-response","373","1503651","0.0-373.0","bkd9kj0a","","<span style=""color:Black; font-size:50px;"">Agent A","null","","","","",""
"null","","","video-keyboard-response","374","1506284","0.0-374.0","bkd9kj0a","","","null","","Agent A","veridical","FOR_REV_MAP_BLOBBY_STIM/1159874.bmp_pp96_L2_V1.0_veridical_freeview_isoTrue_fps144.mp4",""
"null","","","html-keyboard-response","375","1507786","0.0-375.0","bkd9kj0a","","<span style=""color:Black; font-size:50px;"">Agent B","null","","","","",""
"null","","","video-keyboard-response","376","1510405","0.0-376.0","bkd9kj0a","","","null","","Agent B","scrambled","FOR_REV_MAP_BLOBBY_STIM/1159874.bmp_pp96_L2_V1.0_veridical_freeview_isoTrue_fps144_reversed_REAL.mp4",""
"","","","call-function","377","1510406","0.0-377.0","bkd9kj0a","","","","","","","",""
"3043.2750000001397","{""judgement"":0}","[0]","survey-likert","378","1513450","0.0-378.0","bkd9kj0a","","","","","","","","0"
"2527.155000000028","{""confidence"":0}","[0]","survey-likert","379","1515978","0.0-379.0","bkd9kj0a","","","","","","","",""
"","","","call-function","380","1515978","0.0-380.0","bkd9kj0a","","","","","","","",""
"null","","","html-keyboard-response","381","1517483","0.0-381.0","bkd9kj0a","","<span style=""color:Black; font-size:50px;"">Agent A","null","","","","",""
"null","","","video-keyboard-response","382","1520300","0.0-382.0","bkd9kj0a","","","null","","Agent A","veridical","FOR_REV_MAP_BLOBBY_STIM/1592314.bmp_pp100_L3_V1.0_veridical_freeview_isoTrue_fps144.mp4",""
"null","","","html-keyboard-response","383","1521803","0.0-383.0","bkd9kj0a","","<span style=""color:Black; font-size:50px;"">Agent B","null","","","","",""
"null","","","video-keyboard-response","384","1524622","0.0-384.0","bkd9kj0a","","","null","","Agent B","scrambled","FOR_REV_MAP_BLOBBY_STIM/1592314.bmp_pp100_L3_V1.0_veridical_freeview_isoTrue_fps144_reversed_REAL.mp4",""
"","","","call-function","385","1524622","0.0-385.0","bkd9kj0a","","","","","","","",""
"1757.8600000001024","{""judgement"":1}","[0]","survey-likert","386","1526381","0.0-386.0","bkd9kj0a","","","","","","","","0"
"3153.4150000000373","{""confidence"":0}","[0]","survey-likert","387","1529535","0.0-387.0","bkd9kj0a","","","","","","","",""
"","","","call-function","388","1529536","0.0-388.0","bkd9kj0a","","","","","","","",""
"null","","","html-keyboard-response","389","1531039","0.0-389.0","bkd9kj0a","","<span style=""color:Black; font-size:50px;"">Agent A","null","","","","",""
"null","","","video-keyboard-response","390","1533820","0.0-390.0","bkd9kj0a","","","null","","Agent A","veridical","FOR_REV_MAP_BLOBBY_STIM/1159860.bmp_pp152_L2_V1.0_veridical_freeview_isoTrue_fps144.mp4",""
"null","","","html-keyboard-response","391","1535323","0.0-391.0","bkd9kj0a","","<span style=""color:Black; font-size:50px;"">Agent B","null","","","","",""
"null","","","video-keyboard-response","392","1538105","0.0-392.0","bkd9kj0a","","","null","","Agent B","scrambled","FOR_REV_MAP_BLOBBY_STIM/1159860.bmp_pp152_L2_V1.0_veridical_freeview_isoTrue_fps144_reversed_REAL.mp4",""
"","","","call-function","393","1538105","0.0-393.0","bkd9kj0a","","","","","","","",""
"9513.875","{""judgement"":1}","[0]","survey-likert","394","1547620","0.0-394.0","bkd9kj0a","","","","","","","","0"
"2916.850000000093","{""confidence"":0}","[0]","survey-likert","395","1550538","0.0-395.0","bkd9kj0a","","","","","","","",""
"","","","call-function","396","1550538","0.0-396.0","bkd9kj0a","","","","","","","",""
"null","","","html-keyboard-response","397","1552045","0.0-397.0","bkd9kj0a","","<span style=""color:Black; font-size:50px;"">Agent A","null","","","","",""
"null","","","video-keyboard-response","398","1554842","0.0-398.0","bkd9kj0a","","","null","","Agent A","scrambled","FOR_REV_MAP_BLOBBY_STIM/1592921.bmp_pp69_L3_V1.0_veridical_freeview_isoTrue_fps144_reversed_REAL.mp4",""
"null","","","html-keyboard-response","399","1556349","0.0-399.0","bkd9kj0a","","<span style=""color:Black; font-size:50px;"">Agent B","null","","","","",""
"null","","","video-keyboard-response","400","1559148","0.0-400.0","bkd9kj0a","","","null","","Agent B","veridical","FOR_REV_MAP_BLOBBY_STIM/1592921.bmp_pp69_L3_V1.0_veridical_freeview_isoTrue_fps144.mp4",""
"","","","call-function","401","1559148","0.0-401.0","bkd9kj0a","","","","","","","",""
"3055.159999999916","{""judgement"":1}","[0]","survey-likert","402","1562204","0.0-402.0","bkd9kj0a","","","","","","","","1"
"1422.655000000028","{""confidence"":0}","[0]","survey-likert","403","1563628","0.0-403.0","bkd9kj0a","","","","","","","",""
"","","","call-function","404","1563628","0.0-404.0","bkd9kj0a","","","","","","","",""
"null","","","html-keyboard-response","405","1565131","0.0-405.0","bkd9kj0a","","<span style=""color:Black; font-size:50px;"">Agent A","null","","","","",""
"null","","","video-keyboard-response","406","1567954","0.0-406.0","bkd9kj0a","","","null","","Agent A","scrambled","FOR_REV_MAP_BLOBBY_STIM/713742.bmp_pp91_L3_V1.0_veridical_freeview_isoTrue_fps144_reversed_REAL.mp4",""
"null","","","html-keyboard-response","407","1569460","0.0-407.0","bkd9kj0a","","<span style=""color:Black; font-size:50px;"">Agent B","null","","","","",""
"null","","","video-keyboard-response","408","1572284","0.0-408.0","bkd9kj0a","","","null","","Agent B","veridical","FOR_REV_MAP_BLOBBY_STIM/713742.bmp_pp91_L3_V1.0_veridical_freeview_isoTrue_fps144.mp4",""
"","","","call-function","409","1572285","0.0-409.0","bkd9kj0a","","","","","","","",""
"1742.9749999998603","{""judgement"":0}","[0]","survey-likert","410","1574029","0.0-410.0","bkd9kj0a","","","","","","","","1"
"2303.780000000028","{""confidence"":0}","[0]","survey-likert","411","1576335","0.0-411.0","bkd9kj0a","","","","","","","",""
"","","","call-function","412","1576335","0.0-412.0","bkd9kj0a","","","","","","","",""
"null","","","html-keyboard-response","413","1577839","0.0-413.0","bkd9kj0a","","<span style=""color:Black; font-size:50px;"">Agent A","null","","","","",""
"null","","","video-keyboard-response","414","1580584","0.0-414.0","bkd9kj0a","","","null","","Agent A","scrambled","FOR_REV_MAP_BLOBBY_STIM/1159592.bmp_pp91_L3_V1.0_veridical_freeview_isoTrue_fps144_reversed_REAL.mp4",""
"null","","","html-keyboard-response","415","1582090","0.0-415.0","bkd9kj0a","","<span style=""color:Black; font-size:50px;"">Agent B","null","","","","",""
"null","","","video-keyboard-response","416","1584813","0.0-416.0","bkd9kj0a","","","null","","Agent B","veridical","FOR_REV_MAP_BLOBBY_STIM/1159592.bmp_pp91_L3_V1.0_veridical_freeview_isoTrue_fps144.mp4",""
"","","","call-function","417","1584814","0.0-417.0","bkd9kj0a","","","","","","","",""
"2401.904999999795","{""judgement"":0}","[0]","survey-likert","418","1587217","0.0-418.0","bkd9kj0a","","","","","","","","1"
"1709.1200000001118","{""confidence"":0}","[0]","survey-likert","419","1588928","0.0-419.0","bkd9kj0a","","","","","","","",""
"71065.65500000003","","","instructions","420","1659995","0.0-420.0","bkd9kj0a","[{""page_index"":0,""viewing_time"":66498.61499999999},{""page_index"":1,""viewing_time"":2630.024999999907},{""page_index"":2,""viewing_time"":1936.8649999999907}]","","","","","","",""
"1833.4899999999907","","","instructions","421","1661829","0.0-421.0","bkd9kj0a","[{""page_index"":0,""viewing_time"":506.25},{""page_index"":1,""viewing_time"":527.9699999999721},{""page_index"":2,""viewing_time"":799.1650000000373}]","","","","","","",""
"","","","call-function","422","1661830","0.0-422.0","bkd9kj0a","","","","","","","",""
"null","","","html-keyboard-response","423","1663336","0.0-423.0","bkd9kj0a","","<span style=""color:Black; font-size:50px;"">Agent A","null","","","","",""
"null","","","video-keyboard-response","424","1666129","0.0-424.0","bkd9kj0a","","","null","","Agent A","scrambled","FOR_REV_MAP_BLOBBY_STIM/1591781.bmp_pp63_L1_V1.0_veridical_freeview_isoTrue_fps144_reversed_REAL.mp4",""
"null","","","html-keyboard-response","425","1667635","0.0-425.0","bkd9kj0a","","<span style=""color:Black; font-size:50px;"">Agent B","null","","","","",""
"null","","","video-keyboard-response","426","1670426","0.0-426.0","bkd9kj0a","","","null","","Agent B","veridical","FOR_REV_MAP_BLOBBY_STIM/1591781.bmp_pp63_L1_V1.0_veridical_freeview_isoTrue_fps144.mp4",""
"","","","call-function","427","1670427","0.0-427.0","bkd9kj0a","","","","","","","",""
"3434.2750000001397","{""judgement"":1}","[0]","survey-likert","428","1673862","0.0-428.0","bkd9kj0a","","","","","","","","1"
"1682.6350000000093","{""confidence"":0}","[0]","survey-likert","429","1675546","0.0-429.0","bkd9kj0a","","","","","","","",""
"","","","call-function","430","1675547","0.0-430.0","bkd9kj0a","","","","","","","",""
"null","","","html-keyboard-response","431","1677052","0.0-431.0","bkd9kj0a","","<span style=""color:Black; font-size:50px;"">Agent A","null","","","","",""
"null","","","video-keyboard-response","432","1679780","0.0-432.0","bkd9kj0a","","","null","","Agent A","veridical","FOR_REV_MAP_BLOBBY_STIM/1591975.bmp_pp88_L2_V1.0_veridical_freeview_isoTrue_fps144.mp4",""
"null","","","html-keyboard-response","433","1681281","0.0-433.0","bkd9kj0a","","<span style=""color:Black; font-size:50px;"">Agent B","null","","","","",""
"null","","","video-keyboard-response","434","1684008","0.0-434.0","bkd9kj0a","","","null","","Agent B","scrambled","FOR_REV_MAP_BLOBBY_STIM/1591975.bmp_pp88_L2_V1.0_veridical_freeview_isoTrue_fps144_reversed_REAL.mp4",""
"","","","call-function","435","1684009","0.0-435.0","bkd9kj0a","","","","","","","",""
"2840.4899999999907","{""judgement"":0}","[0]","survey-likert","436","1686850","0.0-436.0","bkd9kj0a","","","","","","","","0"
"4296.594999999972","{""confidence"":0}","[0]","survey-likert","437","1691148","0.0-437.0","bkd9kj0a","","","","","","","",""
"","","","call-function","438","1691148","0.0-438.0","bkd9kj0a","","","","","","","",""
"null","","","html-keyboard-response","439","1692650","0.0-439.0","bkd9kj0a","","<span style=""color:Black; font-size:50px;"">Agent A","null","","","","",""
"null","","","video-keyboard-response","440","1695459","0.0-440.0","bkd9kj0a","","","null","","Agent A","scrambled","FOR_REV_MAP_BLOBBY_STIM/286034.bmp_pp69_L3_V1.0_veridical_freeview_isoTrue_fps144_reversed_REAL.mp4",""
"null","","","html-keyboard-response","441","1696964","0.0-441.0","bkd9kj0a","","<span style=""color:Black; font-size:50px;"">Agent B","null","","","","",""
"null","","","video-keyboard-response","442","1699766","0.0-442.0","bkd9kj0a","","","null","","Agent B","veridical","FOR_REV_MAP_BLOBBY_STIM/286034.bmp_pp69_L3_V1.0_veridical_freeview_isoTrue_fps144.mp4",""
"","","","call-function","443","1699766","0.0-443.0","bkd9kj0a","","","","","","","",""
"2548.9799999999814","{""judgement"":1}","[0]","survey-likert","444","1702316","0.0-444.0","bkd9kj0a","","","","","","","","1"
"3923.1149999999907","{""confidence"":2}","[0]","survey-likert","445","1706240","0.0-445.0","bkd9kj0a","","","","","","","",""
"","","","call-function","446","1706240","0.0-446.0","bkd9kj0a","","","","","","","",""
"null","","","html-keyboard-response","447","1707745","0.0-447.0","bkd9kj0a","","<span style=""color:Black; font-size:50px;"">Agent A","null","","","","",""
"null","","","video-keyboard-response","448","1710521","0.0-448.0","bkd9kj0a","","","null","","Agent A","veridical","FOR_REV_MAP_BLOBBY_STIM/1592044.bmp_pp94_L2_V1.0_veridical_freeview_isoTrue_fps144.mp4",""
"null","","","html-keyboard-response","449","1712023","0.0-449.0","bkd9kj0a","","<span style=""color:Black; font-size:50px;"">Agent B","null","","","","",""
"null","","","video-keyboard-response","450","1714806","0.0-450.0","bkd9kj0a","","","null","","Agent B","scrambled","FOR_REV_MAP_BLOBBY_STIM/1592044.bmp_pp94_L2_V1.0_veridical_freeview_isoTrue_fps144_reversed_REAL.mp4",""
"","","","call-function","451","1714807","0.0-451.0","bkd9kj0a","","","","","","","",""
"4283.834999999963","{""judgement"":0}","[0]","survey-likert","452","1719091","0.0-452.0","bkd9kj0a","","","","","","","","0"
"1378.9299999999348","{""confidence"":0}","[0]","survey-likert","453","1720472","0.0-453.0","bkd9kj0a","","","","","","","",""
"","","","call-function","454","1720472","0.0-454.0","bkd9kj0a","","","","","","","",""
"null","","","html-keyboard-response","455","1721974","0.0-455.0","bkd9kj0a","","<span style=""color:Black; font-size:50px;"">Agent A","null","","","","",""
"null","","","video-keyboard-response","456","1724791","0.0-456.0","bkd9kj0a","","","null","","Agent A","scrambled","FOR_REV_MAP_BLOBBY_STIM/1592857.bmp_pp52_L1_V1.0_veridical_freeview_isoTrue_fps144_reversed_REAL.mp4",""
"null","","","html-keyboard-response","457","1726294","0.0-457.0","bkd9kj0a","","<span style=""color:Black; font-size:50px;"">Agent B","null","","","","",""
"null","","","video-keyboard-response","458","1729110","0.0-458.0","bkd9kj0a","","","null","","Agent B","veridical","FOR_REV_MAP_BLOBBY_STIM/1592857.bmp_pp52_L1_V1.0_veridical_freeview_isoTrue_fps144.mp4",""
"","","","call-function","459","1729111","0.0-459.0","bkd9kj0a","","","","","","","",""
"2705.814999999944","{""judgement"":1}","[0]","survey-likert","460","1731818","0.0-460.0","bkd9kj0a","","","","","","","","1"
"1635.9749999998603","{""confidence"":0}","[0]","survey-likert","461","1733455","0.0-461.0","bkd9kj0a","","","","","","","",""
"","","","call-function","462","1733456","0.0-462.0","bkd9kj0a","","","","","","","",""
"null","","","html-keyboard-response","463","1734959","0.0-463.0","bkd9kj0a","","<span style=""color:Black; font-size:50px;"">Agent A","null","","","","",""
"null","","","video-keyboard-response","464","1737793","0.0-464.0","bkd9kj0a","","","null","","Agent A","scrambled","FOR_REV_MAP_BLOBBY_STIM/498261.bmp_pp84_L3_V1.0_veridical_freeview_isoTrue_fps144_reversed_REAL.mp4",""
"null","","","html-keyboard-response","465","1739295","0.0-465.0","bkd9kj0a","","<span style=""color:Black; font-size:50px;"">Agent B","null","","","","",""
"null","","","video-keyboard-response","466","1742124","0.0-466.0","bkd9kj0a","","","null","","Agent B","veridical","FOR_REV_MAP_BLOBBY_STIM/498261.bmp_pp84_L3_V1.0_veridical_freeview_isoTrue_fps144.mp4",""
"","","","call-function","467","1742125","0.0-467.0","bkd9kj0a","","","","","","","",""
"2286.399999999907","{""judgement"":0}","[0]","survey-likert","468","1744412","0.0-468.0","bkd9kj0a","","","","","","","","1"
"1664.1699999999255","{""confidence"":0}","[0]","survey-likert","469","1746077","0.0-469.0","bkd9kj0a","","","","","","","",""
"","","","call-function","470","1746078","0.0-470.0","bkd9kj0a","","","","","","","",""
"null","","","html-keyboard-response","471","1747583","0.0-471.0","bkd9kj0a","","<span style=""color:Black; font-size:50px;"">Agent A","null","","","","",""
"null","","","video-keyboard-response","472","1750367","0.0-472.0","bkd9kj0a","","","null","","Agent A","scrambled","FOR_REV_MAP_BLOBBY_STIM/285684.bmp_pp80_L3_V1.0_veridical_freeview_isoTrue_fps144_reversed_REAL.mp4",""
"null","","","html-keyboard-response","473","1751870","0.0-473.0","bkd9kj0a","","<span style=""color:Black; font-size:50px;"">Agent B","null","","","","",""
"null","","","video-keyboard-response","474","1754647","0.0-474.0","bkd9kj0a","","","null","","Agent B","veridical","FOR_REV_MAP_BLOBBY_STIM/285684.bmp_pp80_L3_V1.0_veridical_freeview_isoTrue_fps144.mp4",""
"","","","call-function","475","1754647","0.0-475.0","bkd9kj0a","","","","","","","",""
"3040.155000000028","{""judgement"":1}","[0]","survey-likert","476","1757688","0.0-476.0","bkd9kj0a","","","","","","","","1"
"1793.9650000000838","{""confidence"":0}","[0]","survey-likert","477","1759483","0.0-477.0","bkd9kj0a","","","","","","","",""
"","","","call-function","478","1759483","0.0-478.0","bkd9kj0a","","","","","","","",""
"null","","","html-keyboard-response","479","1760985","0.0-479.0","bkd9kj0a","","<span style=""color:Black; font-size:50px;"">Agent A","null","","","","",""
"null","","","video-keyboard-response","480","1763721","0.0-480.0","bkd9kj0a","","","null","","Agent A","veridical","FOR_REV_MAP_BLOBBY_STIM/285715.bmp_pp67_L2_V1.0_veridical_freeview_isoTrue_fps144.mp4",""
"null","","","html-keyboard-response","481","1765225","0.0-481.0","bkd9kj0a","","<span style=""color:Black; font-size:50px;"">Agent B","null","","","","",""
"null","","","video-keyboard-response","482","1767960","0.0-482.0","bkd9kj0a","","","null","","Agent B","scrambled","FOR_REV_MAP_BLOBBY_STIM/285715.bmp_pp67_L2_V1.0_veridical_freeview_isoTrue_fps144_reversed_REAL.mp4",""
"","","","call-function","483","1767961","0.0-483.0","bkd9kj0a","","","","","","","",""
"1832.410000000149","{""judgement"":1}","[0]","survey-likert","484","1769794","0.0-484.0","bkd9kj0a","","","","","","","","0"
"78101.81999999983","{""confidence"":0}","[0]","survey-likert","485","1847897","0.0-485.0","bkd9kj0a","","","","","","","",""
"","","","call-function","486","1847898","0.0-486.0","bkd9kj0a","","","","","","","",""
"null","","","html-keyboard-response","487","1849401","0.0-487.0","bkd9kj0a","","<span style=""color:Black; font-size:50px;"">Agent A","null","","","","",""
"null","","","video-keyboard-response","488","1852217","0.0-488.0","bkd9kj0a","","","null","","Agent A","veridical","FOR_REV_MAP_BLOBBY_STIM/1592025.bmp_pp68_L1_V1.0_veridical_freeview_isoTrue_fps144.mp4",""
"null","","","html-keyboard-response","489","1853723","0.0-489.0","bkd9kj0a","","<span style=""color:Black; font-size:50px;"">Agent B","null","","","","",""
"null","","","video-keyboard-response","490","1856540","0.0-490.0","bkd9kj0a","","","null","","Agent B","scrambled","FOR_REV_MAP_BLOBBY_STIM/1592025.bmp_pp68_L1_V1.0_veridical_freeview_isoTrue_fps144_reversed_REAL.mp4",""
"","","","call-function","491","1856540","0.0-491.0","bkd9kj0a","","","","","","","",""
"2842.6149999999907","{""judgement"":1}","[0]","survey-likert","492","1859384","0.0-492.0","bkd9kj0a","","","","","","","","0"
"3040.535000000149","{""confidence"":0}","[0]","survey-likert","493","1862425","0.0-493.0","bkd9kj0a","","","","","","","",""
"","","","call-function","494","1862426","0.0-494.0","bkd9kj0a","","","","","","","",""
"null","","","html-keyboard-response","495","1863932","0.0-495.0","bkd9kj0a","","<span style=""color:Black; font-size:50px;"">Agent A","null","","","","",""
"null","","","video-keyboard-response","496","1866668","0.0-496.0","bkd9kj0a","","","null","","Agent A","scrambled","FOR_REV_MAP_BLOBBY_STIM/1159819.bmp_pp151_L1_V1.0_veridical_freeview_isoTrue_fps144_reversed_REAL.mp4",""
"null","","","html-keyboard-response","497","1868174","0.0-497.0","bkd9kj0a","","<span style=""color:Black; font-size:50px;"">Agent B","null","","","","",""
"null","","","video-keyboard-response","498","1870910","0.0-498.0","bkd9kj0a","","","null","","Agent B","veridical","FOR_REV_MAP_BLOBBY_STIM/1159819.bmp_pp151_L1_V1.0_veridical_freeview_isoTrue_fps144.mp4",""
"","","","call-function","499","1870911","0.0-499.0","bkd9kj0a","","","","","","","",""
"1948.2349999998696","{""judgement"":0}","[0]","survey-likert","500","1872861","0.0-500.0","bkd9kj0a","","","","","","","","1"
"6086.535000000149","{""confidence"":0}","[0]","survey-likert","501","1878949","0.0-501.0","bkd9kj0a","","","","","","","",""
"15066.139999999898","","","instructions","502","1894015","0.0-502.0","bkd9kj0a","[{""page_index"":0,""viewing_time"":11469.879999999888},{""page_index"":1,""viewing_time"":1090.9300000001676},{""page_index"":2,""viewing_time"":2505.1749999998137}]","","","","","","",""
"3094.5999999998603","","","instructions","503","1897110","0.0-503.0","bkd9kj0a","[{""page_index"":0,""viewing_time"":1905.719999999972},{""page_index"":1,""viewing_time"":668.6099999998696},{""page_index"":2,""viewing_time"":520.1700000001583}]","","","","","","",""
"","","","call-function","504","1897111","0.0-504.0","bkd9kj0a","","","","","","","",""
"null","","","html-keyboard-response","505","1898614","0.0-505.0","bkd9kj0a","","<span style=""color:Black; font-size:50px;"">Agent A","null","","","","",""
"null","","","video-keyboard-response","506","1901417","0.0-506.0","bkd9kj0a","","","null","","Agent A","veridical","FOR_REV_MAP_BLOBBY_STIM/713770.bmp_pp89_L1_V1.0_veridical_freeview_isoTrue_fps144.mp4",""
"null","","","html-keyboard-response","507","1902922","0.0-507.0","bkd9kj0a","","<span style=""color:Black; font-size:50px;"">Agent B","null","","","","",""
"null","","","video-keyboard-response","508","1905730","0.0-508.0","bkd9kj0a","","","null","","Agent B","scrambled","FOR_REV_MAP_BLOBBY_STIM/713770.bmp_pp89_L1_V1.0_veridical_freeview_isoTrue_fps144_reversed_REAL.mp4",""
"","","","call-function","509","1905731","0.0-509.0","bkd9kj0a","","","","","","","",""
"3461.719999999972","{""judgement"":1}","[0]","survey-likert","510","1909193","0.0-510.0","bkd9kj0a","","","","","","","","0"
"1492.1899999999441","{""confidence"":0}","[0]","survey-likert","511","1910687","0.0-511.0","bkd9kj0a","","","","","","","",""
"","","","call-function","512","1910687","0.0-512.0","bkd9kj0a","","","","","","","",""
"null","","","html-keyboard-response","513","1912188","0.0-513.0","bkd9kj0a","","<span style=""color:Black; font-size:50px;"">Agent A","null","","","","",""
"null","","","video-keyboard-response","514","1914976","0.0-514.0","bkd9kj0a","","","null","","Agent A","veridical","FOR_REV_MAP_BLOBBY_STIM/713274.bmp_pp73_L3_V1.0_veridical_freeview_isoTrue_fps144.mp4",""
"null","","","html-keyboard-response","515","1916483","0.0-515.0","bkd9kj0a","","<span style=""color:Black; font-size:50px;"">Agent B","null","","","","",""
"null","","","video-keyboard-response","516","1919297","0.0-516.0","bkd9kj0a","","","null","","Agent B","scrambled","FOR_REV_MAP_BLOBBY_STIM/713274.bmp_pp73_L3_V1.0_veridical_freeview_isoTrue_fps144_reversed_REAL.mp4",""
"","","","call-function","517","1919298","0.0-517.0","bkd9kj0a","","","","","","","",""
"1997.7399999999907","{""judgement"":1}","[0]","survey-likert","518","1921296","0.0-518.0","bkd9kj0a","","","","","","","","0"
"1671.029999999795","{""confidence"":0}","[0]","survey-likert","519","1922969","0.0-519.0","bkd9kj0a","","","","","","","",""
"","","","call-function","520","1922969","0.0-520.0","bkd9kj0a","","","","","","","",""
"null","","","html-keyboard-response","521","1924473","0.0-521.0","bkd9kj0a","","<span style=""color:Black; font-size:50px;"">Agent A","null","","","","",""
"null","","","video-keyboard-response","522","1927266","0.0-522.0","bkd9kj0a","","","null","","Agent A","scrambled","FOR_REV_MAP_BLOBBY_STIM/713790.bmp_pp100_L3_V1.0_veridical_freeview_isoTrue_fps144_reversed_REAL.mp4",""
"null","","","html-keyboard-response","523","1928769","0.0-523.0","bkd9kj0a","","<span style=""color:Black; font-size:50px;"">Agent B","null","","","","",""
"null","","","video-keyboard-response","524","1931566","0.0-524.0","bkd9kj0a","","","null","","Agent B","veridical","FOR_REV_MAP_BLOBBY_STIM/713790.bmp_pp100_L3_V1.0_veridical_freeview_isoTrue_fps144.mp4",""
"","","","call-function","525","1931566","0.0-525.0","bkd9kj0a","","","","","","","",""
"2094.2649999998976","{""judgement"":1}","[0]","survey-likert","526","1933661","0.0-526.0","bkd9kj0a","","","","","","","","1"
"2112.840000000084","{""confidence"":0}","[0]","survey-likert","527","1935775","0.0-527.0","bkd9kj0a","","","","","","","",""
"","","","call-function","528","1935776","0.0-528.0","bkd9kj0a","","","","","","","",""
"null","","","html-keyboard-response","529","1937282","0.0-529.0","bkd9kj0a","","<span style=""color:Black; font-size:50px;"">Agent A","null","","","","",""
"null","","","video-keyboard-response","530","1939161","0.0-530.0","bkd9kj0a","","","null","","Agent A","veridical","FOR_REV_MAP_BLOBBY_STIM/285946.bmp_pp79_L2_V1.0_veridical_freeview_isoTrue_fps144.mp4",""
"null","","","html-keyboard-response","531","1940665","0.0-531.0","bkd9kj0a","","<span style=""color:Black; font-size:50px;"">Agent B","null","","","","",""
"null","","","video-keyboard-response","532","1942560","0.0-532.0","bkd9kj0a","","","null","","Agent B","scrambled","FOR_REV_MAP_BLOBBY_STIM/285946.bmp_pp79_L2_V1.0_veridical_freeview_isoTrue_fps144_reversed_REAL.mp4",""
"","","","call-function","533","1942560","0.0-533.0","bkd9kj0a","","","","","","","",""
"1915.5500000000466","{""judgement"":1}","[0]","survey-likert","534","1944476","0.0-534.0","bkd9kj0a","","","","","","","","0"
"1728.089999999851","{""confidence"":1}","[0]","survey-likert","535","1946205","0.0-535.0","bkd9kj0a","","","","","","","",""
"","","","call-function","536","1946206","0.0-536.0","bkd9kj0a","","","","","","","",""
"null","","","html-keyboard-response","537","1947712","0.0-537.0","bkd9kj0a","","<span style=""color:Black; font-size:50px;"">Agent A","null","","","","",""
"null","","","video-keyboard-response","538","1950488","0.0-538.0","bkd9kj0a","","","null","","Agent A","scrambled","FOR_REV_MAP_BLOBBY_STIM/150463.bmp_pp55_L3_V1.0_veridical_freeview_isoTrue_fps144_reversed_REAL.mp4",""
"null","","","html-keyboard-response","539","1951992","0.0-539.0","bkd9kj0a","","<span style=""color:Black; font-size:50px;"">Agent B","null","","","","",""
"null","","","video-keyboard-response","540","1954772","0.0-540.0","bkd9kj0a","","","null","","Agent B","veridical","FOR_REV_MAP_BLOBBY_STIM/150463.bmp_pp55_L3_V1.0_veridical_freeview_isoTrue_fps144.mp4",""
"","","","call-function","541","1954772","0.0-541.0","bkd9kj0a","","","","","","","",""
"3016.0849999999627","{""judgement"":0}","[0]","survey-likert","542","1957789","0.0-542.0","bkd9kj0a","","","","","","","","1"
"1354.5100000000093","{""confidence"":0}","[0]","survey-likert","543","1959145","0.0-543.0","bkd9kj0a","","","","","","","",""
"","","","call-function","544","1959145","0.0-544.0","bkd9kj0a","","","","","","","",""
"null","","","html-keyboard-response","545","1960649","0.0-545.0","bkd9kj0a","","<span style=""color:Black; font-size:50px;"">Agent A","null","","","","",""
"null","","","video-keyboard-response","546","1963349","0.0-546.0","bkd9kj0a","","","null","","Agent A","veridical","FOR_REV_MAP_BLOBBY_STIM/1592350.bmp_pp55_L3_V1.0_veridical_freeview_isoTrue_fps144.mp4",""
"null","","","html-keyboard-response","547","1964854","0.0-547.0","bkd9kj0a","","<span style=""color:Black; font-size:50px;"">Agent B","null","","","","",""
"null","","","video-keyboard-response","548","1967541","0.0-548.0","bkd9kj0a","","","null","","Agent B","scrambled","FOR_REV_MAP_BLOBBY_STIM/1592350.bmp_pp55_L3_V1.0_veridical_freeview_isoTrue_fps144_reversed_REAL.mp4",""
"","","","call-function","549","1967542","0.0-549.0","bkd9kj0a","","","","","","","",""
"5067.10999999987","{""judgement"":0}","[0]","survey-likert","550","1972611","0.0-550.0","bkd9kj0a","","","","","","","","0"
"1377.5149999998976","{""confidence"":0}","[0]","survey-likert","551","1973990","0.0-551.0","bkd9kj0a","","","","","","","",""
"","","","call-function","552","1973991","0.0-552.0","bkd9kj0a","","","","","","","",""
"null","","","html-keyboard-response","553","1975495","0.0-553.0","bkd9kj0a","","<span style=""color:Black; font-size:50px;"">Agent A","null","","","","",""
"null","","","video-keyboard-response","554","1978262","0.0-554.0","bkd9kj0a","","","null","","Agent A","scrambled","FOR_REV_MAP_BLOBBY_STIM/1160049.bmp_pp53_L2_V1.0_veridical_freeview_isoTrue_fps144_reversed_REAL.mp4",""
"null","","","html-keyboard-response","555","1979764","0.0-555.0","bkd9kj0a","","<span style=""color:Black; font-size:50px;"">Agent B","null","","","","",""
"null","","","video-keyboard-response","556","1982534","0.0-556.0","bkd9kj0a","","","null","","Agent B","veridical","FOR_REV_MAP_BLOBBY_STIM/1160049.bmp_pp53_L2_V1.0_veridical_freeview_isoTrue_fps144.mp4",""
"","","","call-function","557","1982534","0.0-557.0","bkd9kj0a","","","","","","","",""
"1656.5700000000652","{""judgement"":1}","[0]","survey-likert","558","1984192","0.0-558.0","bkd9kj0a","","","","","","","","1"
"1751.4599999999627","{""confidence"":0}","[0]","survey-likert","559","1985945","0.0-559.0","bkd9kj0a","","","","","","","",""
"","","","call-function","560","1985945","0.0-560.0","bkd9kj0a","","","","","","","",""
"null","","","html-keyboard-response","561","1987449","0.0-561.0","bkd9kj0a","","<span style=""color:Black; font-size:50px;"">Agent A","null","","","","",""
"null","","","video-keyboard-response","562","1990248","0.0-562.0","bkd9kj0a","","","null","","Agent A","veridical","FOR_REV_MAP_BLOBBY_STIM/713689.bmp_pp153_L3_V1.0_veridical_freeview_isoTrue_fps144.mp4",""
"null","","","html-keyboard-response","563","1991750","0.0-563.0","bkd9kj0a","","<span style=""color:Black; font-size:50px;"">Agent B","null","","","","",""
"null","","","video-keyboard-response","564","1994571","0.0-564.0","bkd9kj0a","","","null","","Agent B","scrambled","FOR_REV_MAP_BLOBBY_STIM/713689.bmp_pp153_L3_V1.0_veridical_freeview_isoTrue_fps144_reversed_REAL.mp4",""
"","","","call-function","565","1994571","0.0-565.0","bkd9kj0a","","","","","","","",""
"7438.709999999963","{""judgement"":1}","[0]","survey-likert","566","2002011","0.0-566.0","bkd9kj0a","","","","","","","","0"
"2869.0450000001583","{""confidence"":0}","[0]","survey-likert","567","2004881","0.0-567.0","bkd9kj0a","","","","","","","",""
"","","","call-function","568","2004881","0.0-568.0","bkd9kj0a","","","","","","","",""
"null","","","html-keyboard-response","569","2006382","0.0-569.0","bkd9kj0a","","<span style=""color:Black; font-size:50px;"">Agent A","null","","","","",""
"null","","","video-keyboard-response","570","2009146","0.0-570.0","bkd9kj0a","","","null","","Agent A","veridical","FOR_REV_MAP_BLOBBY_STIM/1592168.bmp_pp71_L1_V1.0_veridical_freeview_isoTrue_fps144.mp4",""
"null","","","html-keyboard-response","571","2010651","0.0-571.0","bkd9kj0a","","<span style=""color:Black; font-size:50px;"">Agent B","null","","","","",""
"null","","","video-keyboard-response","572","2013416","0.0-572.0","bkd9kj0a","","","null","","Agent B","scrambled","FOR_REV_MAP_BLOBBY_STIM/1592168.bmp_pp71_L1_V1.0_veridical_freeview_isoTrue_fps144_reversed_REAL.mp4",""
"","","","call-function","573","2013417","0.0-573.0","bkd9kj0a","","","","","","","",""
"5992.564999999944","{""judgement"":0}","[0]","survey-likert","574","2019410","0.0-574.0","bkd9kj0a","","","","","","","","0"
"1831.3999999999069","{""confidence"":0}","[0]","survey-likert","575","2021242","0.0-575.0","bkd9kj0a","","","","","","","",""
"","","","call-function","576","2021243","0.0-576.0","bkd9kj0a","","","","","","","",""
"null","","","html-keyboard-response","577","2022747","0.0-577.0","bkd9kj0a","","<span style=""color:Black; font-size:50px;"">Agent A","null","","","","",""
"null","","","video-keyboard-response","578","2025562","0.0-578.0","bkd9kj0a","","","null","","Agent A","veridical","FOR_REV_MAP_BLOBBY_STIM/713652.bmp_pp89_L1_V1.0_veridical_freeview_isoTrue_fps144.mp4",""
"null","","","html-keyboard-response","579","2027063","0.0-579.0","bkd9kj0a","","<span style=""color:Black; font-size:50px;"">Agent B","null","","","","",""
"null","","","video-keyboard-response","580","2029881","0.0-580.0","bkd9kj0a","","","null","","Agent B","scrambled","FOR_REV_MAP_BLOBBY_STIM/713652.bmp_pp89_L1_V1.0_veridical_freeview_isoTrue_fps144_reversed_REAL.mp4",""
"","","","call-function","581","2029881","0.0-581.0","bkd9kj0a","","","","","","","",""
"2526.090000000084","{""judgement"":1}","[0]","survey-likert","582","2032408","0.0-582.0","bkd9kj0a","","","","","","","","0"
"1431.3850000000093","{""confidence"":0}","[0]","survey-likert","583","2033841","0.0-583.0","bkd9kj0a","","","","","","","",""
"5932.5449999999255","","","instructions","584","2039774","0.0-584.0","bkd9kj0a","[{""page_index"":0,""viewing_time"":5932.405000000028}]","","","","","","",""
"1624.3149999999441","","","instructions","585","2041398","0.0-585.0","bkd9kj0a","[{""page_index"":0,""viewing_time"":1624.2099999999627}]","","","","","","",""
"52017.84499999997","{""post-1"":1}","[0]","survey-likert","586","2093418","0.0-586.0","bkd9kj0a","","","","","","","",""
"9169.250000000233","{""post-1"":1}","[0]","survey-likert","587","2102588","0.0-587.0","bkd9kj0a","","","","","","","",""
"39067.66500000004","{""post-2"":1}","[0]","survey-likert","588","2141658","0.0-588.0","bkd9kj0a","","","","","","","",""
"39883.705000000075","{""post-2"":1}","[0]","survey-likert","589","2181544","0.0-589.0","bkd9kj0a","","","","","","","",""
"27743.119999999646","{""post-3"":2}","[0]","survey-likert","590","2209289","0.0-590.0","bkd9kj0a","","","","","","","",""
"18257.975000000093","{""post-3"":1}","[0]","survey-likert","591","2227549","0.0-591.0","bkd9kj0a","","","","","","","",""
"5768.314999999944","{""post-4"":1}","[0]","survey-likert","592","2233318","0.0-592.0","bkd9kj0a","","","","","","","",""
"2489.3549999999814","{""post-4"":1}","[0]","survey-likert","593","2235809","0.0-593.0","bkd9kj0a","","","","","","","",""
"19125.075000000186","{""post-5"":0}","[0]","survey-likert","594","2254936","0.0-594.0","bkd9kj0a","","","","","","","",""
"43875.03500000015","{""post-5"":2}","[0]","survey-likert","595","2298812","0.0-595.0","bkd9kj0a","","","","","","","",""
"7818.060000000056","{""Q0"":""""}","","survey-text","596","2306639","0.0-596.0","bkd9kj0a","","","","","","","",""
"63751.60499999998","{""Q0"":""I was guessing when the spots going to all spot in the  black screen and bot in some corner. ""}","","survey-text","597","2370395","0.0-597.0","bkd9kj0a","","","","","","","",""
"97405.66000000015","{""Q0"":""you feel losing control of your answers and just guessing . it is harder with only black screen    ""}","","survey-text","598","2467804","0.0-598.0","bkd9kj0a","","","","","","","",""
"2253.7099999999627","","","instructions","599","2470060","0.0-599.0","bkd9kj0a","[{""page_index"":0,""viewing_time"":2253.5750000001863}]","","","","","","",""
"425833.41000000015","{""Experimenter_end"":[""Printed ID# bkd9kj0a on consent form"",""Given subject SONA credit or payment"",""Given the subject debrief form""]}","[0]","survey-multi-select","600","2895896","0.0-600.0","bkd9kj0a","","","","","","","",""
