"rt","responses","question_order","trial_type","trial_index","time_elapsed","internal_node_id","ID","view_history","stimulus","key_press","value","agent","condition","image","correct_answer"
"7513.01","{""Experimenter"":[""Confirmed subject's identity (ID card)"",""Confirmed normal or corrected-to-normal vision"",""Obtained consent (signature and date)"",""Checked the test room lighting"",""Checked computer screen lighting"",""Checked distance from screen to chin rest (50cm)"",""Cleaned and adjusted chin rest"",""Counterbalanced the order of the tasks"",""Opened the experiment in Firefox"",""Made the experiment full screen"",""Encouraged subject to silence phone, put away distractors, etc.""]}","[0]","survey-multi-select","0","7521","0.0-0.0","bofytzo3","","","","","","","",""
"35449.005000000005","","","instructions","1","42972","0.0-1.0","bofytzo3","[{""page_index"":0,""viewing_time"":35448.44500000001}]","","","","","","",""
"8072.010000000002","","","instructions","2","51046","0.0-2.0","bofytzo3","[{""page_index"":0,""viewing_time"":1105.6100000000006},{""page_index"":1,""viewing_time"":2946.230000000003},{""page_index"":2,""viewing_time"":4020.0449999999983}]","","","","","","",""
"11226.800000000003","","","instructions","3","62273","0.0-3.0","bofytzo3","[{""page_index"":0,""viewing_time"":11226.695}]","","","","","","",""
"null","","","video-keyboard-response","4","65347","0.0-4.0","bofytzo3","","","null","","","","",""
"7744.064999999995","","","instructions","5","73091","0.0-5.0","bofytzo3","[{""page_index"":0,""viewing_time"":3391.1400000000067},{""page_index"":1,""viewing_time"":1030.9199999999983},{""page_index"":2,""viewing_time"":770.1349999999948},{""page_index"":3,""viewing_time"":857.1750000000029},{""page_index"":4,""viewing_time"":1694.5599999999977}]","","","","","","",""
"4700.625","","","instructions","6","77792","0.0-6.0","bofytzo3","[{""page_index"":0,""viewing_time"":4700.494999999995}]","","","","","","",""
"","","","call-function","7","77793","0.0-7.0","bofytzo3","","","","","","","",""
"null","","","html-keyboard-response","8","79294","0.0-8.0","bofytzo3","","<span style=""color:Black; font-size:50px;"">Agent A","null","","","","",""
"null","","","video-keyboard-response","9","82375","0.0-9.0","bofytzo3","","","null","","Agent A","veridical","STIM_SET_1/1591876.bmp_pp63_L1_V1.0_veridical_freeview_isoFalse.mp4",""
"null","","","html-keyboard-response","10","83880","0.0-10.0","bofytzo3","","<span style=""color:Black; font-size:50px;"">Agent B","null","","","","",""
"null","","","video-keyboard-response","11","86960","0.0-11.0","bofytzo3","","","null","","Agent B","scrambled","STIM_SET_1/1591876.bmp_pp63_L1_V1.0_scrambled_freeview_isoFalse.mp4",""
"","","","call-function","12","86961","0.0-12.0","bofytzo3","","","","","","","",""
"2093.5550000000076","{""judgement"":0}","[0]","survey-likert","13","89055","0.0-13.0","bofytzo3","","","","","","","","0"
"1326.9850000000006","{""confidence"":2}","[0]","survey-likert","14","90384","0.0-14.0","bofytzo3","","","","","","","",""
"","","","call-function","15","90384","0.0-15.0","bofytzo3","","","","","","","",""
"null","","","html-keyboard-response","16","91886","0.0-16.0","bofytzo3","","<span style=""color:Black; font-size:50px;"">Agent A","null","","","","",""
"null","","","video-keyboard-response","17","94961","0.0-17.0","bofytzo3","","","null","","Agent A","veridical","STIM_SET_1/1592397.bmp_pp85_L3_V1.0_veridical_freeview_isoFalse.mp4",""
"null","","","html-keyboard-response","18","96467","0.0-18.0","bofytzo3","","<span style=""color:Black; font-size:50px;"">Agent B","null","","","","",""
"null","","","video-keyboard-response","19","99579","0.0-19.0","bofytzo3","","","null","","Agent B","scrambled","STIM_SET_1/1592397.bmp_pp85_L3_V1.0_scrambled_freeview_isoFalse.mp4",""
"","","","call-function","20","99579","0.0-20.0","bofytzo3","","","","","","","",""
"4416.819999999992","{""judgement"":0}","[0]","survey-likert","21","103998","0.0-21.0","bofytzo3","","","","","","","","0"
"1627.8300000000017","{""confidence"":2}","[0]","survey-likert","22","105627","0.0-22.0","bofytzo3","","","","","","","",""
"","","","call-function","23","105628","0.0-23.0","bofytzo3","","","","","","","",""
"null","","","html-keyboard-response","24","107132","0.0-24.0","bofytzo3","","<span style=""color:Black; font-size:50px;"">Agent A","null","","","","",""
"null","","","video-keyboard-response","25","110246","0.0-25.0","bofytzo3","","","null","","Agent A","scrambled","STIM_SET_1/1592499.bmp_pp96_L2_V1.0_scrambled_freeview_isoFalse.mp4",""
"null","","","html-keyboard-response","26","111748","0.0-26.0","bofytzo3","","<span style=""color:Black; font-size:50px;"">Agent B","null","","","","",""
"null","","","video-keyboard-response","27","114860","0.0-27.0","bofytzo3","","","null","","Agent B","veridical","STIM_SET_1/1592499.bmp_pp96_L2_V1.0_veridical_freeview_isoFalse.mp4",""
"","","","call-function","28","114860","0.0-28.0","bofytzo3","","","","","","","",""
"2309.270000000004","{""judgement"":0}","[0]","survey-likert","29","117170","0.0-29.0","bofytzo3","","","","","","","","1"
"1913.25","{""confidence"":0}","[0]","survey-likert","30","119084","0.0-30.0","bofytzo3","","","","","","","",""
"","","","call-function","31","119085","0.0-31.0","bofytzo3","","","","","","","",""
"null","","","html-keyboard-response","32","120590","0.0-32.0","bofytzo3","","<span style=""color:Black; font-size:50px;"">Agent A","null","","","","",""
"null","","","video-keyboard-response","33","123702","0.0-33.0","bofytzo3","","","null","","Agent A","veridical","STIM_SET_1/713760.bmp_pp81_L1_V1.0_veridical_freeview_isoFalse.mp4",""
"null","","","html-keyboard-response","34","125203","0.0-34.0","bofytzo3","","<span style=""color:Black; font-size:50px;"">Agent B","null","","","","",""
"null","","","video-keyboard-response","35","128310","0.0-35.0","bofytzo3","","","null","","Agent B","scrambled","STIM_SET_1/713760.bmp_pp81_L1_V1.0_scrambled_freeview_isoFalse.mp4",""
"","","","call-function","36","128310","0.0-36.0","bofytzo3","","","","","","","",""
"1482.3450000000012","{""judgement"":0}","[0]","survey-likert","37","129793","0.0-37.0","bofytzo3","","","","","","","","0"
"1019.8600000000006","{""confidence"":2}","[0]","survey-likert","38","130814","0.0-38.0","bofytzo3","","","","","","","",""
"","","","call-function","39","130815","0.0-39.0","bofytzo3","","","","","","","",""
"null","","","html-keyboard-response","40","132321","0.0-40.0","bofytzo3","","<span style=""color:Black; font-size:50px;"">Agent A","null","","","","",""
"null","","","video-keyboard-response","41","135390","0.0-41.0","bofytzo3","","","null","","Agent A","scrambled","STIM_SET_1/1592727.bmp_pp59_L3_V1.0_scrambled_freeview_isoFalse.mp4",""
"null","","","html-keyboard-response","42","136895","0.0-42.0","bofytzo3","","<span style=""color:Black; font-size:50px;"">Agent B","null","","","","",""
"null","","","video-keyboard-response","43","139994","0.0-43.0","bofytzo3","","","null","","Agent B","veridical","STIM_SET_1/1592727.bmp_pp59_L3_V1.0_veridical_freeview_isoFalse.mp4",""
"","","","call-function","44","139995","0.0-44.0","bofytzo3","","","","","","","",""
"3296.2449999999953","{""judgement"":1}","[0]","survey-likert","45","143292","0.0-45.0","bofytzo3","","","","","","","","1"
"1939.429999999993","{""confidence"":1}","[0]","survey-likert","46","145234","0.0-46.0","bofytzo3","","","","","","","",""
"","","","call-function","47","145234","0.0-47.0","bofytzo3","","","","","","","",""
"null","","","html-keyboard-response","48","146738","0.0-48.0","bofytzo3","","<span style=""color:Black; font-size:50px;"">Agent A","null","","","","",""
"null","","","video-keyboard-response","49","149808","0.0-49.0","bofytzo3","","","null","","Agent A","scrambled","STIM_SET_1/713135.bmp_pp54_L2_V1.0_scrambled_freeview_isoFalse.mp4",""
"null","","","html-keyboard-response","50","151314","0.0-50.0","bofytzo3","","<span style=""color:Black; font-size:50px;"">Agent B","null","","","","",""
"null","","","video-keyboard-response","51","154386","0.0-51.0","bofytzo3","","","null","","Agent B","veridical","STIM_SET_1/713135.bmp_pp54_L2_V1.0_veridical_freeview_isoFalse.mp4",""
"","","","call-function","52","154386","0.0-52.0","bofytzo3","","","","","","","",""
"2298.0349999999744","{""judgement"":1}","[0]","survey-likert","53","156685","0.0-53.0","bofytzo3","","","","","","","","1"
"790.8250000000116","{""confidence"":1}","[0]","survey-likert","54","157478","0.0-54.0","bofytzo3","","","","","","","",""
"","","","call-function","55","157478","0.0-55.0","bofytzo3","","","","","","","",""
"null","","","html-keyboard-response","56","158980","0.0-56.0","bofytzo3","","<span style=""color:Black; font-size:50px;"">Agent A","null","","","","",""
"null","","","video-keyboard-response","57","162061","0.0-57.0","bofytzo3","","","null","","Agent A","veridical","STIM_SET_1/713211.bmp_pp100_L3_V1.0_veridical_freeview_isoFalse.mp4",""
"null","","","html-keyboard-response","58","163564","0.0-58.0","bofytzo3","","<span style=""color:Black; font-size:50px;"">Agent B","null","","","","",""
"null","","","video-keyboard-response","59","166684","0.0-59.0","bofytzo3","","","null","","Agent B","scrambled","STIM_SET_1/713211.bmp_pp100_L3_V1.0_scrambled_freeview_isoFalse.mp4",""
"","","","call-function","60","166684","0.0-60.0","bofytzo3","","","","","","","",""
"1518.3349999999919","{""judgement"":0}","[0]","survey-likert","61","168203","0.0-61.0","bofytzo3","","","","","","","","0"
"1102.2550000000047","{""confidence"":2}","[0]","survey-likert","62","169307","0.0-62.0","bofytzo3","","","","","","","",""
"","","","call-function","63","169307","0.0-63.0","bofytzo3","","","","","","","",""
"null","","","html-keyboard-response","64","170810","0.0-64.0","bofytzo3","","<span style=""color:Black; font-size:50px;"">Agent A","null","","","","",""
"null","","","video-keyboard-response","65","173917","0.0-65.0","bofytzo3","","","null","","Agent A","veridical","STIM_SET_1/713796.bmp_pp84_L3_V1.0_veridical_freeview_isoFalse.mp4",""
"null","","","html-keyboard-response","66","175423","0.0-66.0","bofytzo3","","<span style=""color:Black; font-size:50px;"">Agent B","null","","","","",""
"null","","","video-keyboard-response","67","178528","0.0-67.0","bofytzo3","","","null","","Agent B","scrambled","STIM_SET_1/713796.bmp_pp84_L3_V1.0_scrambled_freeview_isoFalse.mp4",""
"","","","call-function","68","178528","0.0-68.0","bofytzo3","","","","","","","",""
"1467.6549999999988","{""judgement"":0}","[0]","survey-likert","69","179997","0.0-69.0","bofytzo3","","","","","","","","0"
"2054.5500000000175","{""confidence"":0}","[0]","survey-likert","70","182052","0.0-70.0","bofytzo3","","","","","","","",""
"","","","call-function","71","182053","0.0-71.0","bofytzo3","","","","","","","",""
"null","","","html-keyboard-response","72","183558","0.0-72.0","bofytzo3","","<span style=""color:Black; font-size:50px;"">Agent A","null","","","","",""
"null","","","video-keyboard-response","73","186684","0.0-73.0","bofytzo3","","","null","","Agent A","veridical","STIM_SET_1/1159440.bmp_pp98_L1_V1.0_veridical_freeview_isoFalse.mp4",""
"null","","","html-keyboard-response","74","188187","0.0-74.0","bofytzo3","","<span style=""color:Black; font-size:50px;"">Agent B","null","","","","",""
"null","","","video-keyboard-response","75","191311","0.0-75.0","bofytzo3","","","null","","Agent B","scrambled","STIM_SET_1/1159440.bmp_pp98_L1_V1.0_scrambled_freeview_isoFalse.mp4",""
"","","","call-function","76","191311","0.0-76.0","bofytzo3","","","","","","","",""
"1474.1399999999849","{""judgement"":0}","[0]","survey-likert","77","192786","0.0-77.0","bofytzo3","","","","","","","","0"
"1369.25","{""confidence"":1}","[0]","survey-likert","78","194157","0.0-78.0","bofytzo3","","","","","","","",""
"","","","call-function","79","194158","0.0-79.0","bofytzo3","","","","","","","",""
"null","","","html-keyboard-response","80","195659","0.0-80.0","bofytzo3","","<span style=""color:Black; font-size:50px;"">Agent A","null","","","","",""
"null","","","video-keyboard-response","81","198730","0.0-81.0","bofytzo3","","","null","","Agent A","veridical","STIM_SET_1/285905.bmp_pp57_L1_V1.0_veridical_freeview_isoFalse.mp4",""
"null","","","html-keyboard-response","82","200236","0.0-82.0","bofytzo3","","<span style=""color:Black; font-size:50px;"">Agent B","null","","","","",""
"null","","","video-keyboard-response","83","203362","0.0-83.0","bofytzo3","","","null","","Agent B","scrambled","STIM_SET_1/285905.bmp_pp57_L1_V1.0_scrambled_freeview_isoFalse.mp4",""
"","","","call-function","84","203362","0.0-84.0","bofytzo3","","","","","","","",""
"1407.4100000000035","{""judgement"":0}","[0]","survey-likert","85","204771","0.0-85.0","bofytzo3","","","","","","","","0"
"1048.8099999999977","{""confidence"":2}","[0]","survey-likert","86","205821","0.0-86.0","bofytzo3","","","","","","","",""
"1620.7149999999965","","","instructions","87","207442","0.0-87.0","bofytzo3","[{""page_index"":0,""viewing_time"":701.0599999999977},{""page_index"":1,""viewing_time"":510.5350000000035},{""page_index"":2,""viewing_time"":408.9649999999965}]","","","","","","",""
"2221.570000000007","","","instructions","88","209664","0.0-88.0","bofytzo3","[{""page_index"":0,""viewing_time"":744.3450000000012},{""page_index"":1,""viewing_time"":981.0500000000175},{""page_index"":2,""viewing_time"":496.0650000000023}]","","","","","","",""
"","","","call-function","89","209664","0.0-89.0","bofytzo3","","","","","","","",""
"null","","","html-keyboard-response","90","211166","0.0-90.0","bofytzo3","","<span style=""color:Black; font-size:50px;"">Agent A","null","","","","",""
"null","","","video-keyboard-response","91","214244","0.0-91.0","bofytzo3","","","null","","Agent A","scrambled","STIM_SET_1/1159675.bmp_pp77_L3_V1.0_scrambled_freeview_isoFalse.mp4",""
"null","","","html-keyboard-response","92","215748","0.0-92.0","bofytzo3","","<span style=""color:Black; font-size:50px;"">Agent B","null","","","","",""
"null","","","video-keyboard-response","93","218828","0.0-93.0","bofytzo3","","","null","","Agent B","veridical","STIM_SET_1/1159675.bmp_pp77_L3_V1.0_veridical_freeview_isoFalse.mp4",""
"","","","call-function","94","218829","0.0-94.0","bofytzo3","","","","","","","",""
"1420.8149999999732","{""judgement"":0}","[0]","survey-likert","95","220251","0.0-95.0","bofytzo3","","","","","","","","1"
"1954.835000000021","{""confidence"":2}","[0]","survey-likert","96","222207","0.0-96.0","bofytzo3","","","","","","","",""
"","","","call-function","97","222207","0.0-97.0","bofytzo3","","","","","","","",""
"null","","","html-keyboard-response","98","223710","0.0-98.0","bofytzo3","","<span style=""color:Black; font-size:50px;"">Agent A","null","","","","",""
"null","","","video-keyboard-response","99","226782","0.0-99.0","bofytzo3","","","null","","Agent A","scrambled","STIM_SET_1/1592286.bmp_pp52_L1_V1.0_scrambled_freeview_isoFalse.mp4",""
"null","","","html-keyboard-response","100","228289","0.0-100.0","bofytzo3","","<span style=""color:Black; font-size:50px;"">Agent B","null","","","","",""
"null","","","video-keyboard-response","101","231404","0.0-101.0","bofytzo3","","","null","","Agent B","veridical","STIM_SET_1/1592286.bmp_pp52_L1_V1.0_veridical_freeview_isoFalse.mp4",""
"","","","call-function","102","231405","0.0-102.0","bofytzo3","","","","","","","",""
"1754.7350000000151","{""judgement"":0}","[0]","survey-likert","103","233160","0.0-103.0","bofytzo3","","","","","","","","1"
"1017.2200000000012","{""confidence"":1}","[0]","survey-likert","104","234179","0.0-104.0","bofytzo3","","","","","","","",""
"","","","call-function","105","234179","0.0-105.0","bofytzo3","","","","","","","",""
"null","","","html-keyboard-response","106","235685","0.0-106.0","bofytzo3","","<span style=""color:Black; font-size:50px;"">Agent A","null","","","","",""
"null","","","video-keyboard-response","107","238793","0.0-107.0","bofytzo3","","","null","","Agent A","scrambled","STIM_SET_1/1592351.bmp_pp51_L1_V1.0_scrambled_freeview_isoFalse.mp4",""
"null","","","html-keyboard-response","108","240296","0.0-108.0","bofytzo3","","<span style=""color:Black; font-size:50px;"">Agent B","null","","","","",""
"null","","","video-keyboard-response","109","243407","0.0-109.0","bofytzo3","","","null","","Agent B","veridical","STIM_SET_1/1592351.bmp_pp51_L1_V1.0_veridical_freeview_isoFalse.mp4",""
"","","","call-function","110","243408","0.0-110.0","bofytzo3","","","","","","","",""
"2118.8150000000023","{""judgement"":1}","[0]","survey-likert","111","245527","0.0-111.0","bofytzo3","","","","","","","","1"
"1207.070000000007","{""confidence"":1}","[0]","survey-likert","112","246736","0.0-112.0","bofytzo3","","","","","","","",""
"","","","call-function","113","246736","0.0-113.0","bofytzo3","","","","","","","",""
"null","","","html-keyboard-response","114","248240","0.0-114.0","bofytzo3","","<span style=""color:Black; font-size:50px;"">Agent A","null","","","","",""
"null","","","video-keyboard-response","115","251359","0.0-115.0","bofytzo3","","","null","","Agent A","scrambled","STIM_SET_1/713749.bmp_pp88_L2_V1.0_scrambled_freeview_isoFalse.mp4",""
"null","","","html-keyboard-response","116","252865","0.0-116.0","bofytzo3","","<span style=""color:Black; font-size:50px;"">Agent B","null","","","","",""
"null","","","video-keyboard-response","117","255980","0.0-117.0","bofytzo3","","","null","","Agent B","veridical","STIM_SET_1/713749.bmp_pp88_L2_V1.0_veridical_freeview_isoFalse.mp4",""
"","","","call-function","118","255981","0.0-118.0","bofytzo3","","","","","","","",""
"3098.189999999973","{""judgement"":0}","[0]","survey-likert","119","259081","0.0-119.0","bofytzo3","","","","","","","","1"
"1200.3000000000175","{""confidence"":0}","[0]","survey-likert","120","260284","0.0-120.0","bofytzo3","","","","","","","",""
"","","","call-function","121","260285","0.0-121.0","bofytzo3","","","","","","","",""
"null","","","html-keyboard-response","122","261788","0.0-122.0","bofytzo3","","<span style=""color:Black; font-size:50px;"">Agent A","null","","","","",""
"null","","","video-keyboard-response","123","264863","0.0-123.0","bofytzo3","","","null","","Agent A","veridical","STIM_SET_1/61537.bmp_pp73_L3_V1.0_veridical_freeview_isoFalse.mp4",""
"null","","","html-keyboard-response","124","266364","0.0-124.0","bofytzo3","","<span style=""color:Black; font-size:50px;"">Agent B","null","","","","",""
"null","","","video-keyboard-response","125","269442","0.0-125.0","bofytzo3","","","null","","Agent B","scrambled","STIM_SET_1/61537.bmp_pp73_L3_V1.0_scrambled_freeview_isoFalse.mp4",""
"","","","call-function","126","269443","0.0-126.0","bofytzo3","","","","","","","",""
"1347.320000000007","{""judgement"":0}","[0]","survey-likert","127","270791","0.0-127.0","bofytzo3","","","","","","","","0"
"2085.6199999999953","{""confidence"":2}","[0]","survey-likert","128","272878","0.0-128.0","bofytzo3","","","","","","","",""
"","","","call-function","129","272879","0.0-129.0","bofytzo3","","","","","","","",""
"null","","","html-keyboard-response","130","274381","0.0-130.0","bofytzo3","","<span style=""color:Black; font-size:50px;"">Agent A","null","","","","",""
"null","","","video-keyboard-response","131","277457","0.0-131.0","bofytzo3","","","null","","Agent A","veridical","STIM_SET_1/1159515.bmp_pp84_L3_V1.0_veridical_freeview_isoFalse.mp4",""
"null","","","html-keyboard-response","132","278959","0.0-132.0","bofytzo3","","<span style=""color:Black; font-size:50px;"">Agent B","null","","","","",""
"null","","","video-keyboard-response","133","282035","0.0-133.0","bofytzo3","","","null","","Agent B","scrambled","STIM_SET_1/1159515.bmp_pp84_L3_V1.0_scrambled_freeview_isoFalse.mp4",""
"","","","call-function","134","282035","0.0-134.0","bofytzo3","","","","","","","",""
"3435.9400000000023","{""judgement"":0}","[0]","survey-likert","135","285472","0.0-135.0","bofytzo3","","","","","","","","0"
"1731.304999999993","{""confidence"":0}","[0]","survey-likert","136","287205","0.0-136.0","bofytzo3","","","","","","","",""
"","","","call-function","137","287205","0.0-137.0","bofytzo3","","","","","","","",""
"null","","","html-keyboard-response","138","288710","0.0-138.0","bofytzo3","","<span style=""color:Black; font-size:50px;"">Agent A","null","","","","",""
"null","","","video-keyboard-response","139","291810","0.0-139.0","bofytzo3","","","null","","Agent A","veridical","STIM_SET_1/1159813.bmp_pp79_L2_V1.0_veridical_freeview_isoFalse.mp4",""
"null","","","html-keyboard-response","140","293313","0.0-140.0","bofytzo3","","<span style=""color:Black; font-size:50px;"">Agent B","null","","","","",""
"null","","","video-keyboard-response","141","296411","0.0-141.0","bofytzo3","","","null","","Agent B","scrambled","STIM_SET_1/1159813.bmp_pp79_L2_V1.0_scrambled_freeview_isoFalse.mp4",""
"","","","call-function","142","296411","0.0-142.0","bofytzo3","","","","","","","",""
"2271.670000000042","{""judgement"":0}","[0]","survey-likert","143","298684","0.0-143.0","bofytzo3","","","","","","","","0"
"1471.75","{""confidence"":0}","[0]","survey-likert","144","300157","0.0-144.0","bofytzo3","","","","","","","",""
"","","","call-function","145","300157","0.0-145.0","bofytzo3","","","","","","","",""
"null","","","html-keyboard-response","146","301661","0.0-146.0","bofytzo3","","<span style=""color:Black; font-size:50px;"">Agent A","null","","","","",""
"null","","","video-keyboard-response","147","304742","0.0-147.0","bofytzo3","","","null","","Agent A","scrambled","STIM_SET_1/713707.bmp_pp154_L1_V1.0_scrambled_freeview_isoFalse.mp4",""
"null","","","html-keyboard-response","148","306244","0.0-148.0","bofytzo3","","<span style=""color:Black; font-size:50px;"">Agent B","null","","","","",""
"null","","","video-keyboard-response","149","309327","0.0-149.0","bofytzo3","","","null","","Agent B","veridical","STIM_SET_1/713707.bmp_pp154_L1_V1.0_veridical_freeview_isoFalse.mp4",""
"","","","call-function","150","309328","0.0-150.0","bofytzo3","","","","","","","",""
"1781.6199999999953","{""judgement"":0}","[0]","survey-likert","151","311110","0.0-151.0","bofytzo3","","","","","","","","1"
"1782.585000000021","{""confidence"":0}","[0]","survey-likert","152","312894","0.0-152.0","bofytzo3","","","","","","","",""
"","","","call-function","153","312894","0.0-153.0","bofytzo3","","","","","","","",""
"null","","","html-keyboard-response","154","314396","0.0-154.0","bofytzo3","","<span style=""color:Black; font-size:50px;"">Agent A","null","","","","",""
"null","","","video-keyboard-response","155","317514","0.0-155.0","bofytzo3","","","null","","Agent A","scrambled","STIM_SET_1/1159784.bmp_pp73_L3_V1.0_scrambled_freeview_isoFalse.mp4",""
"null","","","html-keyboard-response","156","319020","0.0-156.0","bofytzo3","","<span style=""color:Black; font-size:50px;"">Agent B","null","","","","",""
"null","","","video-keyboard-response","157","322131","0.0-157.0","bofytzo3","","","null","","Agent B","veridical","STIM_SET_1/1159784.bmp_pp73_L3_V1.0_veridical_freeview_isoFalse.mp4",""
"","","","call-function","158","322132","0.0-158.0","bofytzo3","","","","","","","",""
"1213.9500000000116","{""judgement"":0}","[0]","survey-likert","159","323347","0.0-159.0","bofytzo3","","","","","","","","1"
"1677.265000000014","{""confidence"":2}","[0]","survey-likert","160","325025","0.0-160.0","bofytzo3","","","","","","","",""
"","","","call-function","161","325026","0.0-161.0","bofytzo3","","","","","","","",""
"null","","","html-keyboard-response","162","326528","0.0-162.0","bofytzo3","","<span style=""color:Black; font-size:50px;"">Agent A","null","","","","",""
"null","","","video-keyboard-response","163","329595","0.0-163.0","bofytzo3","","","null","","Agent A","veridical","STIM_SET_1/285994.bmp_pp92_L3_V1.0_veridical_freeview_isoFalse.mp4",""
"null","","","html-keyboard-response","164","331101","0.0-164.0","bofytzo3","","<span style=""color:Black; font-size:50px;"">Agent B","null","","","","",""
"null","","","video-keyboard-response","165","334169","0.0-165.0","bofytzo3","","","null","","Agent B","scrambled","STIM_SET_1/285994.bmp_pp92_L3_V1.0_scrambled_freeview_isoFalse.mp4",""
"","","","call-function","166","334169","0.0-166.0","bofytzo3","","","","","","","",""
"1329.804999999993","{""judgement"":0}","[0]","survey-likert","167","335500","0.0-167.0","bofytzo3","","","","","","","","0"
"1474.8450000000303","{""confidence"":2}","[0]","survey-likert","168","336976","0.0-168.0","bofytzo3","","","","","","","",""
"3825.8249999999534","","","instructions","169","340802","0.0-169.0","bofytzo3","[{""page_index"":0,""viewing_time"":813.1300000000047},{""page_index"":1,""viewing_time"":1426.5199999999604},{""page_index"":2,""viewing_time"":1586.0200000000186}]","","","","","","",""
"2113.4000000000233","","","instructions","170","342916","0.0-170.0","bofytzo3","[{""page_index"":0,""viewing_time"":546.2900000000373},{""page_index"":1,""viewing_time"":1047.039999999979},{""page_index"":2,""viewing_time"":519.9650000000256}]","","","","","","",""
"","","","call-function","171","342917","0.0-171.0","bofytzo3","","","","","","","",""
"null","","","html-keyboard-response","172","344418","0.0-172.0","bofytzo3","","<span style=""color:Black; font-size:50px;"">Agent A","null","","","","",""
"null","","","video-keyboard-response","173","347495","0.0-173.0","bofytzo3","","","null","","Agent A","veridical","STIM_SET_1/285751.bmp_pp55_L3_V1.0_veridical_freeview_isoFalse.mp4",""
"null","","","html-keyboard-response","174","349000","0.0-174.0","bofytzo3","","<span style=""color:Black; font-size:50px;"">Agent B","null","","","","",""
"null","","","video-keyboard-response","175","352079","0.0-175.0","bofytzo3","","","null","","Agent B","scrambled","STIM_SET_1/285751.bmp_pp55_L3_V1.0_scrambled_freeview_isoFalse.mp4",""
"","","","call-function","176","352079","0.0-176.0","bofytzo3","","","","","","","",""
"1519.875","{""judgement"":0}","[0]","survey-likert","177","353600","0.0-177.0","bofytzo3","","","","","","","","0"
"1447.570000000007","{""confidence"":0}","[0]","survey-likert","178","355049","0.0-178.0","bofytzo3","","","","","","","",""
"","","","call-function","179","355050","0.0-179.0","bofytzo3","","","","","","","",""
"null","","","html-keyboard-response","180","356554","0.0-180.0","bofytzo3","","<span style=""color:Black; font-size:50px;"">Agent A","null","","","","",""
"null","","","video-keyboard-response","181","359669","0.0-181.0","bofytzo3","","","null","","Agent A","veridical","STIM_SET_1/1592934.bmp_pp63_L1_V1.0_veridical_freeview_isoFalse.mp4",""
"null","","","html-keyboard-response","182","361172","0.0-182.0","bofytzo3","","<span style=""color:Black; font-size:50px;"">Agent B","null","","","","",""
"null","","","video-keyboard-response","183","364287","0.0-183.0","bofytzo3","","","null","","Agent B","scrambled","STIM_SET_1/1592934.bmp_pp63_L1_V1.0_scrambled_freeview_isoFalse.mp4",""
"","","","call-function","184","364287","0.0-184.0","bofytzo3","","","","","","","",""
"1435.539999999979","{""judgement"":0}","[0]","survey-likert","185","365724","0.0-185.0","bofytzo3","","","","","","","","0"
"1036.8649999999907","{""confidence"":0}","[0]","survey-likert","186","366762","0.0-186.0","bofytzo3","","","","","","","",""
"","","","call-function","187","366763","0.0-187.0","bofytzo3","","","","","","","",""
"null","","","html-keyboard-response","188","368269","0.0-188.0","bofytzo3","","<span style=""color:Black; font-size:50px;"">Agent A","null","","","","",""
"null","","","video-keyboard-response","189","371371","0.0-189.0","bofytzo3","","","null","","Agent A","scrambled","STIM_SET_1/286001.bmp_pp54_L2_V1.0_scrambled_freeview_isoFalse.mp4",""
"null","","","html-keyboard-response","190","372875","0.0-190.0","bofytzo3","","<span style=""color:Black; font-size:50px;"">Agent B","null","","","","",""
"null","","","video-keyboard-response","191","375978","0.0-191.0","bofytzo3","","","null","","Agent B","veridical","STIM_SET_1/286001.bmp_pp54_L2_V1.0_veridical_freeview_isoFalse.mp4",""
"","","","call-function","192","375979","0.0-192.0","bofytzo3","","","","","","","",""
"4140.375","{""judgement"":0}","[0]","survey-likert","193","380120","0.0-193.0","bofytzo3","","","","","","","","1"
"1715.2050000000163","{""confidence"":0}","[0]","survey-likert","194","381837","0.0-194.0","bofytzo3","","","","","","","",""
"","","","call-function","195","381837","0.0-195.0","bofytzo3","","","","","","","",""
"null","","","html-keyboard-response","196","383339","0.0-196.0","bofytzo3","","<span style=""color:Black; font-size:50px;"">Agent A","null","","","","",""
"null","","","video-keyboard-response","197","386459","0.0-197.0","bofytzo3","","","null","","Agent A","veridical","STIM_SET_1/1592619.bmp_pp56_L3_V1.0_veridical_freeview_isoFalse.mp4",""
"null","","","html-keyboard-response","198","387962","0.0-198.0","bofytzo3","","<span style=""color:Black; font-size:50px;"">Agent B","null","","","","",""
"null","","","video-keyboard-response","199","391028","0.0-199.0","bofytzo3","","","null","","Agent B","scrambled","STIM_SET_1/1592619.bmp_pp56_L3_V1.0_scrambled_freeview_isoFalse.mp4",""
"","","","call-function","200","391030","0.0-200.0","bofytzo3","","","","","","","",""
"1758.6149999999907","{""judgement"":0}","[0]","survey-likert","201","392790","0.0-201.0","bofytzo3","","","","","","","","0"
"1573.8000000000466","{""confidence"":2}","[0]","survey-likert","202","394365","0.0-202.0","bofytzo3","","","","","","","",""
"","","","call-function","203","394366","0.0-203.0","bofytzo3","","","","","","","",""
"null","","","html-keyboard-response","204","395866","0.0-204.0","bofytzo3","","<span style=""color:Black; font-size:50px;"">Agent A","null","","","","",""
"null","","","video-keyboard-response","205","398947","0.0-205.0","bofytzo3","","","null","","Agent A","scrambled","STIM_SET_1/713620.bmp_pp65_L3_V1.0_scrambled_freeview_isoFalse.mp4",""
"null","","","html-keyboard-response","206","400454","0.0-206.0","bofytzo3","","<span style=""color:Black; font-size:50px;"">Agent B","null","","","","",""
"null","","","video-keyboard-response","207","403532","0.0-207.0","bofytzo3","","","null","","Agent B","veridical","STIM_SET_1/713620.bmp_pp65_L3_V1.0_veridical_freeview_isoFalse.mp4",""
"","","","call-function","208","403533","0.0-208.0","bofytzo3","","","","","","","",""
"1993.4250000000466","{""judgement"":1}","[0]","survey-likert","209","405527","0.0-209.0","bofytzo3","","","","","","","","1"
"1269.3099999999977","{""confidence"":0}","[0]","survey-likert","210","406798","0.0-210.0","bofytzo3","","","","","","","",""
"","","","call-function","211","406799","0.0-211.0","bofytzo3","","","","","","","",""
"null","","","html-keyboard-response","212","408305","0.0-212.0","bofytzo3","","<span style=""color:Black; font-size:50px;"">Agent A","null","","","","",""
"null","","","video-keyboard-response","213","411382","0.0-213.0","bofytzo3","","","null","","Agent A","veridical","STIM_SET_1/713513.bmp_pp62_L2_V1.0_veridical_freeview_isoFalse.mp4",""
"null","","","html-keyboard-response","214","412885","0.0-214.0","bofytzo3","","<span style=""color:Black; font-size:50px;"">Agent B","null","","","","",""
"null","","","video-keyboard-response","215","416002","0.0-215.0","bofytzo3","","","null","","Agent B","scrambled","STIM_SET_1/713513.bmp_pp62_L2_V1.0_scrambled_freeview_isoFalse.mp4",""
"","","","call-function","216","416003","0.0-216.0","bofytzo3","","","","","","","",""
"2390.8300000000163","{""judgement"":0}","[0]","survey-likert","217","418394","0.0-217.0","bofytzo3","","","","","","","","0"
"1261.5800000000163","{""confidence"":0}","[0]","survey-likert","218","419657","0.0-218.0","bofytzo3","","","","","","","",""
"","","","call-function","219","419658","0.0-219.0","bofytzo3","","","","","","","",""
"null","","","html-keyboard-response","220","421159","0.0-220.0","bofytzo3","","<span style=""color:Black; font-size:50px;"">Agent A","null","","","","",""
"null","","","video-keyboard-response","221","424275","0.0-221.0","bofytzo3","","","null","","Agent A","scrambled","STIM_SET_1/498155.bmp_pp61_L2_V1.0_scrambled_freeview_isoFalse.mp4",""
"null","","","html-keyboard-response","222","425777","0.0-222.0","bofytzo3","","<span style=""color:Black; font-size:50px;"">Agent B","null","","","","",""
"null","","","video-keyboard-response","223","428898","0.0-223.0","bofytzo3","","","null","","Agent B","veridical","STIM_SET_1/498155.bmp_pp61_L2_V1.0_veridical_freeview_isoFalse.mp4",""
"","","","call-function","224","428898","0.0-224.0","bofytzo3","","","","","","","",""
"6075.094999999972","{""judgement"":0}","[0]","survey-likert","225","434974","0.0-225.0","bofytzo3","","","","","","","","1"
"924.9500000000116","{""confidence"":0}","[0]","survey-likert","226","435901","0.0-226.0","bofytzo3","","","","","","","",""
"","","","call-function","227","435901","0.0-227.0","bofytzo3","","","","","","","",""
"null","","","html-keyboard-response","228","437404","0.0-228.0","bofytzo3","","<span style=""color:Black; font-size:50px;"">Agent A","null","","","","",""
"null","","","video-keyboard-response","229","440522","0.0-229.0","bofytzo3","","","null","","Agent A","scrambled","STIM_SET_1/498253.bmp_pp67_L2_V1.0_scrambled_freeview_isoFalse.mp4",""
"null","","","html-keyboard-response","230","442028","0.0-230.0","bofytzo3","","<span style=""color:Black; font-size:50px;"">Agent B","null","","","","",""
"null","","","video-keyboard-response","231","445146","0.0-231.0","bofytzo3","","","null","","Agent B","veridical","STIM_SET_1/498253.bmp_pp67_L2_V1.0_veridical_freeview_isoFalse.mp4",""
"","","","call-function","232","445147","0.0-232.0","bofytzo3","","","","","","","",""
"1700.655000000028","{""judgement"":1}","[0]","survey-likert","233","446849","0.0-233.0","bofytzo3","","","","","","","","1"
"1582.734999999986","{""confidence"":0}","[0]","survey-likert","234","448432","0.0-234.0","bofytzo3","","","","","","","",""
"","","","call-function","235","448433","0.0-235.0","bofytzo3","","","","","","","",""
"null","","","html-keyboard-response","236","449937","0.0-236.0","bofytzo3","","<span style=""color:Black; font-size:50px;"">Agent A","null","","","","",""
"null","","","video-keyboard-response","237","453024","0.0-237.0","bofytzo3","","","null","","Agent A","veridical","STIM_SET_1/713779.bmp_pp152_L2_V1.0_veridical_freeview_isoFalse.mp4",""
"null","","","html-keyboard-response","238","454528","0.0-238.0","bofytzo3","","<span style=""color:Black; font-size:50px;"">Agent B","null","","","","",""
"null","","","video-keyboard-response","239","457593","0.0-239.0","bofytzo3","","","null","","Agent B","scrambled","STIM_SET_1/713779.bmp_pp152_L2_V1.0_scrambled_freeview_isoFalse.mp4",""
"","","","call-function","240","457594","0.0-240.0","bofytzo3","","","","","","","",""
"2765.2300000000396","{""judgement"":0}","[0]","survey-likert","241","460360","0.0-241.0","bofytzo3","","","","","","","","0"
"1119.594999999972","{""confidence"":0}","[0]","survey-likert","242","461481","0.0-242.0","bofytzo3","","","","","","","",""
"","","","call-function","243","461481","0.0-243.0","bofytzo3","","","","","","","",""
"null","","","html-keyboard-response","244","462983","0.0-244.0","bofytzo3","","<span style=""color:Black; font-size:50px;"">Agent A","null","","","","",""
"null","","","video-keyboard-response","245","466062","0.0-245.0","bofytzo3","","","null","","Agent A","scrambled","STIM_SET_1/712977.bmp_pp51_L1_V1.0_scrambled_freeview_isoFalse.mp4",""
"null","","","html-keyboard-response","246","467569","0.0-246.0","bofytzo3","","<span style=""color:Black; font-size:50px;"">Agent B","null","","","","",""
"null","","","video-keyboard-response","247","470646","0.0-247.0","bofytzo3","","","null","","Agent B","veridical","STIM_SET_1/712977.bmp_pp51_L1_V1.0_veridical_freeview_isoFalse.mp4",""
"","","","call-function","248","470647","0.0-248.0","bofytzo3","","","","","","","",""
"2097.8300000000163","{""judgement"":1}","[0]","survey-likert","249","472746","0.0-249.0","bofytzo3","","","","","","","","1"
"1213.6450000000186","{""confidence"":0}","[0]","survey-likert","250","473961","0.0-250.0","bofytzo3","","","","","","","",""
"11394.719999999972","","","instructions","251","485356","0.0-251.0","bofytzo3","[{""page_index"":0,""viewing_time"":10097.815000000002},{""page_index"":1,""viewing_time"":589.8449999999721},{""page_index"":2,""viewing_time"":706.9000000000233}]","","","","","","",""
"1740.539999999979","","","instructions","252","487097","0.0-252.0","bofytzo3","[{""page_index"":0,""viewing_time"":596.4049999999697},{""page_index"":1,""viewing_time"":601.1500000000233},{""page_index"":2,""viewing_time"":542.8800000000047}]","","","","","","",""
"","","","call-function","253","487098","0.0-253.0","bofytzo3","","","","","","","",""
"null","","","html-keyboard-response","254","488600","0.0-254.0","bofytzo3","","<span style=""color:Black; font-size:50px;"">Agent A","null","","","","",""
"null","","","video-keyboard-response","255","491668","0.0-255.0","bofytzo3","","","null","","Agent A","scrambled","STIM_SET_1/498170.bmp_pp153_L3_V1.0_scrambled_freeview_isoFalse.mp4",""
"null","","","html-keyboard-response","256","493172","0.0-256.0","bofytzo3","","<span style=""color:Black; font-size:50px;"">Agent B","null","","","","",""
"null","","","video-keyboard-response","257","496243","0.0-257.0","bofytzo3","","","null","","Agent B","veridical","STIM_SET_1/498170.bmp_pp153_L3_V1.0_veridical_freeview_isoFalse.mp4",""
"","","","call-function","258","496244","0.0-258.0","bofytzo3","","","","","","","",""
"1593.1149999999907","{""judgement"":1}","[0]","survey-likert","259","497838","0.0-259.0","bofytzo3","","","","","","","","1"
"1083.1149999999907","{""confidence"":0}","[0]","survey-likert","260","498922","0.0-260.0","bofytzo3","","","","","","","",""
"","","","call-function","261","498922","0.0-261.0","bofytzo3","","","","","","","",""
"null","","","html-keyboard-response","262","500426","0.0-262.0","bofytzo3","","<span style=""color:Black; font-size:50px;"">Agent A","null","","","","",""
"null","","","video-keyboard-response","263","503538","0.0-263.0","bofytzo3","","","null","","Agent A","scrambled","STIM_SET_1/1159572.bmp_pp71_L1_V1.0_scrambled_freeview_isoFalse.mp4",""
"null","","","html-keyboard-response","264","505040","0.0-264.0","bofytzo3","","<span style=""color:Black; font-size:50px;"">Agent B","null","","","","",""
"null","","","video-keyboard-response","265","508150","0.0-265.0","bofytzo3","","","null","","Agent B","veridical","STIM_SET_1/1159572.bmp_pp71_L1_V1.0_veridical_freeview_isoFalse.mp4",""
"","","","call-function","266","508151","0.0-266.0","bofytzo3","","","","","","","",""
"2678.8099999999977","{""judgement"":0}","[0]","survey-likert","267","510831","0.0-267.0","bofytzo3","","","","","","","","1"
"1219.9400000000023","{""confidence"":0}","[0]","survey-likert","268","512052","0.0-268.0","bofytzo3","","","","","","","",""
"","","","call-function","269","512053","0.0-269.0","bofytzo3","","","","","","","",""
"null","","","html-keyboard-response","270","513556","0.0-270.0","bofytzo3","","<span style=""color:Black; font-size:50px;"">Agent A","null","","","","",""
"null","","","video-keyboard-response","271","516633","0.0-271.0","bofytzo3","","","null","","Agent A","scrambled","STIM_SET_1/713681.bmp_pp86_L2_V1.0_scrambled_freeview_isoFalse.mp4",""
"null","","","html-keyboard-response","272","518135","0.0-272.0","bofytzo3","","<span style=""color:Black; font-size:50px;"">Agent B","null","","","","",""
"null","","","video-keyboard-response","273","521205","0.0-273.0","bofytzo3","","","null","","Agent B","veridical","STIM_SET_1/713681.bmp_pp86_L2_V1.0_veridical_freeview_isoFalse.mp4",""
"","","","call-function","274","521206","0.0-274.0","bofytzo3","","","","","","","",""
"1852.5650000000023","{""judgement"":0}","[0]","survey-likert","275","523060","0.0-275.0","bofytzo3","","","","","","","","1"
"1003.179999999993","{""confidence"":0}","[0]","survey-likert","276","524065","0.0-276.0","bofytzo3","","","","","","","",""
"","","","call-function","277","524066","0.0-277.0","bofytzo3","","","","","","","",""
"null","","","html-keyboard-response","278","525571","0.0-278.0","bofytzo3","","<span style=""color:Black; font-size:50px;"">Agent A","null","","","","",""
"null","","","video-keyboard-response","279","528635","0.0-279.0","bofytzo3","","","null","","Agent A","scrambled","STIM_SET_1/713684.bmp_pp85_L3_V1.0_scrambled_freeview_isoFalse.mp4",""
"null","","","html-keyboard-response","280","530142","0.0-280.0","bofytzo3","","<span style=""color:Black; font-size:50px;"">Agent B","null","","","","",""
"null","","","video-keyboard-response","281","533203","0.0-281.0","bofytzo3","","","null","","Agent B","veridical","STIM_SET_1/713684.bmp_pp85_L3_V1.0_veridical_freeview_isoFalse.mp4",""
"","","","call-function","282","533204","0.0-282.0","bofytzo3","","","","","","","",""
"2238.1199999999953","{""judgement"":0}","[0]","survey-likert","283","535443","0.0-283.0","bofytzo3","","","","","","","","1"
"1255.5549999999348","{""confidence"":0}","[0]","survey-likert","284","536700","0.0-284.0","bofytzo3","","","","","","","",""
"","","","call-function","285","536701","0.0-285.0","bofytzo3","","","","","","","",""
"null","","","html-keyboard-response","286","538204","0.0-286.0","bofytzo3","","<span style=""color:Black; font-size:50px;"">Agent A","null","","","","",""
"null","","","video-keyboard-response","287","541287","0.0-287.0","bofytzo3","","","null","","Agent A","scrambled","STIM_SET_1/713371.bmp_pp68_L1_V1.0_scrambled_freeview_isoFalse.mp4",""
"null","","","html-keyboard-response","288","542789","0.0-288.0","bofytzo3","","<span style=""color:Black; font-size:50px;"">Agent B","null","","","","",""
"null","","","video-keyboard-response","289","545870","0.0-289.0","bofytzo3","","","null","","Agent B","veridical","STIM_SET_1/713371.bmp_pp68_L1_V1.0_veridical_freeview_isoFalse.mp4",""
"","","","call-function","290","545871","0.0-290.0","bofytzo3","","","","","","","",""
"3840.875","{""judgement"":0}","[0]","survey-likert","291","549713","0.0-291.0","bofytzo3","","","","","","","","1"
"2463.355000000098","{""confidence"":1}","[0]","survey-likert","292","552177","0.0-292.0","bofytzo3","","","","","","","",""
"","","","call-function","293","552178","0.0-293.0","bofytzo3","","","","","","","",""
"null","","","html-keyboard-response","294","553679","0.0-294.0","bofytzo3","","<span style=""color:Black; font-size:50px;"">Agent A","null","","","","",""
"null","","","video-keyboard-response","295","556783","0.0-295.0","bofytzo3","","","null","","Agent A","scrambled","STIM_SET_1/1159446.bmp_pp60_L3_V1.0_scrambled_freeview_isoFalse.mp4",""
"null","","","html-keyboard-response","296","558287","0.0-296.0","bofytzo3","","<span style=""color:Black; font-size:50px;"">Agent B","null","","","","",""
"null","","","video-keyboard-response","297","561391","0.0-297.0","bofytzo3","","","null","","Agent B","veridical","STIM_SET_1/1159446.bmp_pp60_L3_V1.0_veridical_freeview_isoFalse.mp4",""
"","","","call-function","298","561391","0.0-298.0","bofytzo3","","","","","","","",""
"2442.8499999999767","{""judgement"":1}","[0]","survey-likert","299","563835","0.0-299.0","bofytzo3","","","","","","","","1"
"1870.125","{""confidence"":0}","[0]","survey-likert","300","565707","0.0-300.0","bofytzo3","","","","","","","",""
"","","","call-function","301","565708","0.0-301.0","bofytzo3","","","","","","","",""
"null","","","html-keyboard-response","302","567213","0.0-302.0","bofytzo3","","<span style=""color:Black; font-size:50px;"">Agent A","null","","","","",""
"null","","","video-keyboard-response","303","570323","0.0-303.0","bofytzo3","","","null","","Agent A","veridical","STIM_SET_1/1159447.bmp_pp70_L2_V1.0_veridical_freeview_isoFalse.mp4",""
"null","","","html-keyboard-response","304","571828","0.0-304.0","bofytzo3","","<span style=""color:Black; font-size:50px;"">Agent B","null","","","","",""
"null","","","video-keyboard-response","305","574937","0.0-305.0","bofytzo3","","","null","","Agent B","scrambled","STIM_SET_1/1159447.bmp_pp70_L2_V1.0_scrambled_freeview_isoFalse.mp4",""
"","","","call-function","306","574937","0.0-306.0","bofytzo3","","","","","","","",""
"2570.340000000084","{""judgement"":0}","[0]","survey-likert","307","577509","0.0-307.0","bofytzo3","","","","","","","","0"
"1538.0050000000047","{""confidence"":2}","[0]","survey-likert","308","579048","0.0-308.0","bofytzo3","","","","","","","",""
"","","","call-function","309","579049","0.0-309.0","bofytzo3","","","","","","","",""
"null","","","html-keyboard-response","310","580550","0.0-310.0","bofytzo3","","<span style=""color:Black; font-size:50px;"">Agent A","null","","","","",""
"null","","","video-keyboard-response","311","583670","0.0-311.0","bofytzo3","","","null","","Agent A","scrambled","STIM_SET_1/1592657.bmp_pp98_L1_V1.0_scrambled_freeview_isoFalse.mp4",""
"null","","","html-keyboard-response","312","585175","0.0-312.0","bofytzo3","","<span style=""color:Black; font-size:50px;"">Agent B","null","","","","",""
"null","","","video-keyboard-response","313","588292","0.0-313.0","bofytzo3","","","null","","Agent B","veridical","STIM_SET_1/1592657.bmp_pp98_L1_V1.0_veridical_freeview_isoFalse.mp4",""
"","","","call-function","314","588293","0.0-314.0","bofytzo3","","","","","","","",""
"1597.579999999958","{""judgement"":0}","[0]","survey-likert","315","589891","0.0-315.0","bofytzo3","","","","","","","","1"
"2256.289999999921","{""confidence"":1}","[0]","survey-likert","316","592149","0.0-316.0","bofytzo3","","","","","","","",""
"","","","call-function","317","592150","0.0-317.0","bofytzo3","","","","","","","",""
"null","","","html-keyboard-response","318","593652","0.0-318.0","bofytzo3","","<span style=""color:Black; font-size:50px;"">Agent A","null","","","","",""
"null","","","video-keyboard-response","319","596722","0.0-319.0","bofytzo3","","","null","","Agent A","veridical","STIM_SET_1/1592817.bmp_pp55_L3_V1.0_veridical_freeview_isoFalse.mp4",""
"null","","","html-keyboard-response","320","598227","0.0-320.0","bofytzo3","","<span style=""color:Black; font-size:50px;"">Agent B","null","","","","",""
"null","","","video-keyboard-response","321","601293","0.0-321.0","bofytzo3","","","null","","Agent B","scrambled","STIM_SET_1/1592817.bmp_pp55_L3_V1.0_scrambled_freeview_isoFalse.mp4",""
"","","","call-function","322","601294","0.0-322.0","bofytzo3","","","","","","","",""
"1136.3500000000931","{""judgement"":0}","[0]","survey-likert","323","602431","0.0-323.0","bofytzo3","","","","","","","","0"
"951.6700000000419","{""confidence"":1}","[0]","survey-likert","324","603384","0.0-324.0","bofytzo3","","","","","","","",""
"","","","call-function","325","603385","0.0-325.0","bofytzo3","","","","","","","",""
"null","","","html-keyboard-response","326","604887","0.0-326.0","bofytzo3","","<span style=""color:Black; font-size:50px;"">Agent A","null","","","","",""
"null","","","video-keyboard-response","327","607959","0.0-327.0","bofytzo3","","","null","","Agent A","veridical","STIM_SET_1/1159829.bmp_pp91_L3_V1.0_veridical_freeview_isoFalse.mp4",""
"null","","","html-keyboard-response","328","609460","0.0-328.0","bofytzo3","","<span style=""color:Black; font-size:50px;"">Agent B","null","","","","",""
"null","","","video-keyboard-response","329","612534","0.0-329.0","bofytzo3","","","null","","Agent B","scrambled","STIM_SET_1/1159829.bmp_pp91_L3_V1.0_scrambled_freeview_isoFalse.mp4",""
"","","","call-function","330","612535","0.0-330.0","bofytzo3","","","","","","","",""
"1979.170000000042","{""judgement"":0}","[0]","survey-likert","331","614515","0.0-331.0","bofytzo3","","","","","","","","0"
"1638.844999999972","{""confidence"":0}","[0]","survey-likert","332","616155","0.0-332.0","bofytzo3","","","","","","","",""
"2025.859999999986","","","instructions","333","618182","0.0-333.0","bofytzo3","[{""page_index"":0,""viewing_time"":1064.4899999999907},{""page_index"":1,""viewing_time"":487.16499999992084},{""page_index"":2,""viewing_time"":474.0550000000512}]","","","","","","",""
"1628.5100000000093","","","instructions","334","619811","0.0-334.0","bofytzo3","[{""page_index"":0,""viewing_time"":445.42500000004657},{""page_index"":1,""viewing_time"":653.9599999999627},{""page_index"":2,""viewing_time"":529.0200000000186}]","","","","","","",""
"","","","call-function","335","619812","0.0-335.0","bofytzo3","","","","","","","",""
"null","","","html-keyboard-response","336","621314","0.0-336.0","bofytzo3","","<span style=""color:Black; font-size:50px;"">Agent A","null","","","","",""
"null","","","video-keyboard-response","337","624429","0.0-337.0","bofytzo3","","","null","","Agent A","veridical","STIM_SET_1/1159621.bmp_pp92_L3_V1.0_veridical_freeview_isoFalse.mp4",""
"null","","","html-keyboard-response","338","625936","0.0-338.0","bofytzo3","","<span style=""color:Black; font-size:50px;"">Agent B","null","","","","",""
"null","","","video-keyboard-response","339","629052","0.0-339.0","bofytzo3","","","null","","Agent B","scrambled","STIM_SET_1/1159621.bmp_pp92_L3_V1.0_scrambled_freeview_isoFalse.mp4",""
"","","","call-function","340","629052","0.0-340.0","bofytzo3","","","","","","","",""
"1417.1649999999208","{""judgement"":0}","[0]","survey-likert","341","630470","0.0-341.0","bofytzo3","","","","","","","","0"
"1334.7750000000233","{""confidence"":2}","[0]","survey-likert","342","631806","0.0-342.0","bofytzo3","","","","","","","",""
"","","","call-function","343","631807","0.0-343.0","bofytzo3","","","","","","","",""
"null","","","html-keyboard-response","344","633311","0.0-344.0","bofytzo3","","<span style=""color:Black; font-size:50px;"">Agent A","null","","","","",""
"null","","","video-keyboard-response","345","636401","0.0-345.0","bofytzo3","","","null","","Agent A","veridical","STIM_SET_1/1593041.bmp_pp58_L1_V1.0_veridical_freeview_isoFalse.mp4",""
"null","","","html-keyboard-response","346","637905","0.0-346.0","bofytzo3","","<span style=""color:Black; font-size:50px;"">Agent B","null","","","","",""
"null","","","video-keyboard-response","347","640996","0.0-347.0","bofytzo3","","","null","","Agent B","scrambled","STIM_SET_1/1593041.bmp_pp58_L1_V1.0_scrambled_freeview_isoFalse.mp4",""
"","","","call-function","348","640997","0.0-348.0","bofytzo3","","","","","","","",""
"1486.9450000000652","{""judgement"":0}","[0]","survey-likert","349","642485","0.0-349.0","bofytzo3","","","","","","","","0"
"1873.9000000000233","{""confidence"":2}","[0]","survey-likert","350","644361","0.0-350.0","bofytzo3","","","","","","","",""
"","","","call-function","351","644362","0.0-351.0","bofytzo3","","","","","","","",""
"null","","","html-keyboard-response","352","645864","0.0-352.0","bofytzo3","","<span style=""color:Black; font-size:50px;"">Agent A","null","","","","",""
"null","","","video-keyboard-response","353","648941","0.0-353.0","bofytzo3","","","null","","Agent A","scrambled","STIM_SET_1/1159855.bmp_pp99_L2_V1.0_scrambled_freeview_isoFalse.mp4",""
"null","","","html-keyboard-response","354","650444","0.0-354.0","bofytzo3","","<span style=""color:Black; font-size:50px;"">Agent B","null","","","","",""
"null","","","video-keyboard-response","355","653524","0.0-355.0","bofytzo3","","","null","","Agent B","veridical","STIM_SET_1/1159855.bmp_pp99_L2_V1.0_veridical_freeview_isoFalse.mp4",""
"","","","call-function","356","653525","0.0-356.0","bofytzo3","","","","","","","",""
"1932.7550000000047","{""judgement"":1}","[0]","survey-likert","357","655459","0.0-357.0","bofytzo3","","","","","","","","1"
"1397.5749999999534","{""confidence"":3}","[0]","survey-likert","358","656858","0.0-358.0","bofytzo3","","","","","","","",""
"","","","call-function","359","656859","0.0-359.0","bofytzo3","","","","","","","",""
"null","","","html-keyboard-response","360","658361","0.0-360.0","bofytzo3","","<span style=""color:Black; font-size:50px;"">Agent A","null","","","","",""
"null","","","video-keyboard-response","361","661443","0.0-361.0","bofytzo3","","","null","","Agent A","veridical","STIM_SET_1/713593.bmp_pp64_L1_V1.0_veridical_freeview_isoFalse.mp4",""
"null","","","html-keyboard-response","362","662949","0.0-362.0","bofytzo3","","<span style=""color:Black; font-size:50px;"">Agent B","null","","","","",""
"null","","","video-keyboard-response","363","666028","0.0-363.0","bofytzo3","","","null","","Agent B","scrambled","STIM_SET_1/713593.bmp_pp64_L1_V1.0_scrambled_freeview_isoFalse.mp4",""
"","","","call-function","364","666029","0.0-364.0","bofytzo3","","","","","","","",""
"1421.0299999999115","{""judgement"":0}","[0]","survey-likert","365","667450","0.0-365.0","bofytzo3","","","","","","","","0"
"962.2199999999721","{""confidence"":2}","[0]","survey-likert","366","668414","0.0-366.0","bofytzo3","","","","","","","",""
"","","","call-function","367","668414","0.0-367.0","bofytzo3","","","","","","","",""
"null","","","html-keyboard-response","368","669917","0.0-368.0","bofytzo3","","<span style=""color:Black; font-size:50px;"">Agent A","null","","","","",""
"null","","","video-keyboard-response","369","673023","0.0-369.0","bofytzo3","","","null","","Agent A","scrambled","STIM_SET_1/1592133.bmp_pp75_L1_V1.0_scrambled_freeview_isoFalse.mp4",""
"null","","","html-keyboard-response","370","674526","0.0-370.0","bofytzo3","","<span style=""color:Black; font-size:50px;"">Agent B","null","","","","",""
"null","","","video-keyboard-response","371","677630","0.0-371.0","bofytzo3","","","null","","Agent B","veridical","STIM_SET_1/1592133.bmp_pp75_L1_V1.0_veridical_freeview_isoFalse.mp4",""
"","","","call-function","372","677631","0.0-372.0","bofytzo3","","","","","","","",""
"2130.5100000000093","{""judgement"":1}","[0]","survey-likert","373","679762","0.0-373.0","bofytzo3","","","","","","","","1"
"1225.8050000000512","{""confidence"":1}","[0]","survey-likert","374","680990","0.0-374.0","bofytzo3","","","","","","","",""
"","","","call-function","375","680990","0.0-375.0","bofytzo3","","","","","","","",""
"null","","","html-keyboard-response","376","682496","0.0-376.0","bofytzo3","","<span style=""color:Black; font-size:50px;"">Agent A","null","","","","",""
"null","","","video-keyboard-response","377","685606","0.0-377.0","bofytzo3","","","null","","Agent A","scrambled","STIM_SET_1/498111.bmp_pp88_L2_V1.0_scrambled_freeview_isoFalse.mp4",""
"null","","","html-keyboard-response","378","687107","0.0-378.0","bofytzo3","","<span style=""color:Black; font-size:50px;"">Agent B","null","","","","",""
"null","","","video-keyboard-response","379","690212","0.0-379.0","bofytzo3","","","null","","Agent B","veridical","STIM_SET_1/498111.bmp_pp88_L2_V1.0_veridical_freeview_isoFalse.mp4",""
"","","","call-function","380","690213","0.0-380.0","bofytzo3","","","","","","","",""
"1336.0499999999302","{""judgement"":1}","[0]","survey-likert","381","691550","0.0-381.0","bofytzo3","","","","","","","","1"
"2437.844999999972","{""confidence"":1}","[0]","survey-likert","382","693989","0.0-382.0","bofytzo3","","","","","","","",""
"","","","call-function","383","693989","0.0-383.0","bofytzo3","","","","","","","",""
"null","","","html-keyboard-response","384","695495","0.0-384.0","bofytzo3","","<span style=""color:Black; font-size:50px;"">Agent A","null","","","","",""
"null","","","video-keyboard-response","385","698572","0.0-385.0","bofytzo3","","","null","","Agent A","scrambled","STIM_SET_1/1592581.bmp_pp100_L3_V1.0_scrambled_freeview_isoFalse.mp4",""
"null","","","html-keyboard-response","386","700078","0.0-386.0","bofytzo3","","<span style=""color:Black; font-size:50px;"">Agent B","null","","","","",""
"null","","","video-keyboard-response","387","703152","0.0-387.0","bofytzo3","","","null","","Agent B","veridical","STIM_SET_1/1592581.bmp_pp100_L3_V1.0_veridical_freeview_isoFalse.mp4",""
"","","","call-function","388","703153","0.0-388.0","bofytzo3","","","","","","","",""
"3069.9100000000326","{""judgement"":0}","[0]","survey-likert","389","706224","0.0-389.0","bofytzo3","","","","","","","","1"
"1327.6149999999907","{""confidence"":0}","[0]","survey-likert","390","707553","0.0-390.0","bofytzo3","","","","","","","",""
"","","","call-function","391","707553","0.0-391.0","bofytzo3","","","","","","","",""
"null","","","html-keyboard-response","392","709057","0.0-392.0","bofytzo3","","<span style=""color:Black; font-size:50px;"">Agent A","null","","","","",""
"null","","","video-keyboard-response","393","712128","0.0-393.0","bofytzo3","","","null","","Agent A","scrambled","STIM_SET_1/1159768.bmp_pp89_L1_V1.0_scrambled_freeview_isoFalse.mp4",""
"null","","","html-keyboard-response","394","713631","0.0-394.0","bofytzo3","","<span style=""color:Black; font-size:50px;"">Agent B","null","","","","",""
"null","","","video-keyboard-response","395","716701","0.0-395.0","bofytzo3","","","null","","Agent B","veridical","STIM_SET_1/1159768.bmp_pp89_L1_V1.0_veridical_freeview_isoFalse.mp4",""
"","","","call-function","396","716701","0.0-396.0","bofytzo3","","","","","","","",""
"2250.6750000000466","{""judgement"":0}","[0]","survey-likert","397","718953","0.0-397.0","bofytzo3","","","","","","","","1"
"1319.6199999999953","{""confidence"":1}","[0]","survey-likert","398","720273","0.0-398.0","bofytzo3","","","","","","","",""
"","","","call-function","399","720274","0.0-399.0","bofytzo3","","","","","","","",""
"null","","","html-keyboard-response","400","721779","0.0-400.0","bofytzo3","","<span style=""color:Black; font-size:50px;"">Agent A","null","","","","",""
"null","","","video-keyboard-response","401","724847","0.0-401.0","bofytzo3","","","null","","Agent A","scrambled","STIM_SET_1/1159882.bmp_pp61_L2_V1.0_scrambled_freeview_isoFalse.mp4",""
"null","","","html-keyboard-response","402","726348","0.0-402.0","bofytzo3","","<span style=""color:Black; font-size:50px;"">Agent B","null","","","","",""
"null","","","video-keyboard-response","403","729418","0.0-403.0","bofytzo3","","","null","","Agent B","veridical","STIM_SET_1/1159882.bmp_pp61_L2_V1.0_veridical_freeview_isoFalse.mp4",""
"","","","call-function","404","729418","0.0-404.0","bofytzo3","","","","","","","",""
"1671.6149999999907","{""judgement"":0}","[0]","survey-likert","405","731091","0.0-405.0","bofytzo3","","","","","","","","1"
"1332.259999999893","{""confidence"":0}","[0]","survey-likert","406","732424","0.0-406.0","bofytzo3","","","","","","","",""
"","","","call-function","407","732425","0.0-407.0","bofytzo3","","","","","","","",""
"null","","","html-keyboard-response","408","733928","0.0-408.0","bofytzo3","","<span style=""color:Black; font-size:50px;"">Agent A","null","","","","",""
"null","","","video-keyboard-response","409","737035","0.0-409.0","bofytzo3","","","null","","Agent A","scrambled","STIM_SET_1/713403.bmp_pp80_L3_V1.0_scrambled_freeview_isoFalse.mp4",""
"null","","","html-keyboard-response","410","738537","0.0-410.0","bofytzo3","","<span style=""color:Black; font-size:50px;"">Agent B","null","","","","",""
"null","","","video-keyboard-response","411","741646","0.0-411.0","bofytzo3","","","null","","Agent B","veridical","STIM_SET_1/713403.bmp_pp80_L3_V1.0_veridical_freeview_isoFalse.mp4",""
"","","","call-function","412","741646","0.0-412.0","bofytzo3","","","","","","","",""
"1846.5050000000047","{""judgement"":1}","[0]","survey-likert","413","743494","0.0-413.0","bofytzo3","","","","","","","","1"
"1588.0350000000326","{""confidence"":0}","[0]","survey-likert","414","745084","0.0-414.0","bofytzo3","","","","","","","",""
"2066.6600000000326","","","instructions","415","747151","0.0-415.0","bofytzo3","[{""page_index"":0,""viewing_time"":1172.6149999999907},{""page_index"":1,""viewing_time"":467.0200000000186},{""page_index"":2,""viewing_time"":426.86999999999534}]","","","","","","",""
"1641.375","","","instructions","416","748793","0.0-416.0","bofytzo3","[{""page_index"":0,""viewing_time"":481.2799999999115},{""page_index"":1,""viewing_time"":665.390000000014},{""page_index"":2,""viewing_time"":494.5999999999767}]","","","","","","",""
"","","","call-function","417","748793","0.0-417.0","bofytzo3","","","","","","","",""
"null","","","html-keyboard-response","418","750295","0.0-418.0","bofytzo3","","<span style=""color:Black; font-size:50px;"">Agent A","null","","","","",""
"null","","","video-keyboard-response","419","753416","0.0-419.0","bofytzo3","","","null","","Agent A","veridical","STIM_SET_1/713017.bmp_pp152_L2_V1.0_veridical_freeview_isoFalse.mp4",""
"null","","","html-keyboard-response","420","754923","0.0-420.0","bofytzo3","","<span style=""color:Black; font-size:50px;"">Agent B","null","","","","",""
"null","","","video-keyboard-response","421","757999","0.0-421.0","bofytzo3","","","null","","Agent B","scrambled","STIM_SET_1/713017.bmp_pp152_L2_V1.0_scrambled_freeview_isoFalse.mp4",""
"","","","call-function","422","758000","0.0-422.0","bofytzo3","","","","","","","",""
"1353.765000000014","{""judgement"":0}","[0]","survey-likert","423","759355","0.0-423.0","bofytzo3","","","","","","","","0"
"1064.8349999999627","{""confidence"":2}","[0]","survey-likert","424","760421","0.0-424.0","bofytzo3","","","","","","","",""
"","","","call-function","425","760422","0.0-425.0","bofytzo3","","","","","","","",""
"null","","","html-keyboard-response","426","761925","0.0-426.0","bofytzo3","","<span style=""color:Black; font-size:50px;"">Agent A","null","","","","",""
"null","","","video-keyboard-response","427","765008","0.0-427.0","bofytzo3","","","null","","Agent A","veridical","STIM_SET_1/1591961.bmp_pp67_L2_V1.0_veridical_freeview_isoFalse.mp4",""
"null","","","html-keyboard-response","428","766511","0.0-428.0","bofytzo3","","<span style=""color:Black; font-size:50px;"">Agent B","null","","","","",""
"null","","","video-keyboard-response","429","769596","0.0-429.0","bofytzo3","","","null","","Agent B","scrambled","STIM_SET_1/1591961.bmp_pp67_L2_V1.0_scrambled_freeview_isoFalse.mp4",""
"","","","call-function","430","769596","0.0-430.0","bofytzo3","","","","","","","",""
"1716.0749999999534","{""judgement"":0}","[0]","survey-likert","431","771314","0.0-431.0","bofytzo3","","","","","","","","0"
"1135.3399999999674","{""confidence"":1}","[0]","survey-likert","432","772452","0.0-432.0","bofytzo3","","","","","","","",""
"","","","call-function","433","772453","0.0-433.0","bofytzo3","","","","","","","",""
"null","","","html-keyboard-response","434","773957","0.0-434.0","bofytzo3","","<span style=""color:Black; font-size:50px;"">Agent A","null","","","","",""
"null","","","video-keyboard-response","435","777026","0.0-435.0","bofytzo3","","","null","","Agent A","scrambled","STIM_SET_1/497950.bmp_pp151_L1_V1.0_scrambled_freeview_isoFalse.mp4",""
"null","","","html-keyboard-response","436","778532","0.0-436.0","bofytzo3","","<span style=""color:Black; font-size:50px;"">Agent B","null","","","","",""
"null","","","video-keyboard-response","437","781602","0.0-437.0","bofytzo3","","","null","","Agent B","veridical","STIM_SET_1/497950.bmp_pp151_L1_V1.0_veridical_freeview_isoFalse.mp4",""
"","","","call-function","438","781603","0.0-438.0","bofytzo3","","","","","","","",""
"2364.3549999999814","{""judgement"":0}","[0]","survey-likert","439","783968","0.0-439.0","bofytzo3","","","","","","","","1"
"1562.9299999999348","{""confidence"":0}","[0]","survey-likert","440","785532","0.0-440.0","bofytzo3","","","","","","","",""
"","","","call-function","441","785533","0.0-441.0","bofytzo3","","","","","","","",""
"null","","","html-keyboard-response","442","787040","0.0-442.0","bofytzo3","","<span style=""color:Black; font-size:50px;"">Agent A","null","","","","",""
"null","","","video-keyboard-response","443","790117","0.0-443.0","bofytzo3","","","null","","Agent A","scrambled","STIM_SET_1/1591954.bmp_pp62_L2_V1.0_scrambled_freeview_isoFalse.mp4",""
"null","","","html-keyboard-response","444","791623","0.0-444.0","bofytzo3","","<span style=""color:Black; font-size:50px;"">Agent B","null","","","","",""
"null","","","video-keyboard-response","445","794706","0.0-445.0","bofytzo3","","","null","","Agent B","veridical","STIM_SET_1/1591954.bmp_pp62_L2_V1.0_veridical_freeview_isoFalse.mp4",""
"","","","call-function","446","794707","0.0-446.0","bofytzo3","","","","","","","",""
"2701.2550000000047","{""judgement"":1}","[0]","survey-likert","447","797409","0.0-447.0","bofytzo3","","","","","","","","1"
"1239.8550000000978","{""confidence"":0}","[0]","survey-likert","448","798650","0.0-448.0","bofytzo3","","","","","","","",""
"","","","call-function","449","798651","0.0-449.0","bofytzo3","","","","","","","",""
"null","","","html-keyboard-response","450","800155","0.0-450.0","bofytzo3","","<span style=""color:Black; font-size:50px;"">Agent A","null","","","","",""
"null","","","video-keyboard-response","451","803266","0.0-451.0","bofytzo3","","","null","","Agent A","veridical","STIM_SET_1/1593035.bmp_pp94_L2_V1.0_veridical_freeview_isoFalse.mp4",""
"null","","","html-keyboard-response","452","804768","0.0-452.0","bofytzo3","","<span style=""color:Black; font-size:50px;"">Agent B","null","","","","",""
"null","","","video-keyboard-response","453","807875","0.0-453.0","bofytzo3","","","null","","Agent B","scrambled","STIM_SET_1/1593035.bmp_pp94_L2_V1.0_scrambled_freeview_isoFalse.mp4",""
"","","","call-function","454","807875","0.0-454.0","bofytzo3","","","","","","","",""
"1394.5999999999767","{""judgement"":0}","[0]","survey-likert","455","809271","0.0-455.0","bofytzo3","","","","","","","","0"
"1326.8149999999441","{""confidence"":3}","[0]","survey-likert","456","810599","0.0-456.0","bofytzo3","","","","","","","",""
"","","","call-function","457","810600","0.0-457.0","bofytzo3","","","","","","","",""
"null","","","html-keyboard-response","458","812105","0.0-458.0","bofytzo3","","<span style=""color:Black; font-size:50px;"">Agent A","null","","","","",""
"null","","","video-keyboard-response","459","815215","0.0-459.0","bofytzo3","","","null","","Agent A","veridical","STIM_SET_1/1592362.bmp_pp95_L2_V1.0_veridical_freeview_isoFalse.mp4",""
"null","","","html-keyboard-response","460","816717","0.0-460.0","bofytzo3","","<span style=""color:Black; font-size:50px;"">Agent B","null","","","","",""
"null","","","video-keyboard-response","461","819828","0.0-461.0","bofytzo3","","","null","","Agent B","scrambled","STIM_SET_1/1592362.bmp_pp95_L2_V1.0_scrambled_freeview_isoFalse.mp4",""
"","","","call-function","462","819828","0.0-462.0","bofytzo3","","","","","","","",""
"1548.8199999999488","{""judgement"":0}","[0]","survey-likert","463","821378","0.0-463.0","bofytzo3","","","","","","","","0"
"1043.734999999986","{""confidence"":2}","[0]","survey-likert","464","822423","0.0-464.0","bofytzo3","","","","","","","",""
"","","","call-function","465","822424","0.0-465.0","bofytzo3","","","","","","","",""
"null","","","html-keyboard-response","466","823926","0.0-466.0","bofytzo3","","<span style=""color:Black; font-size:50px;"">Agent A","null","","","","",""
"null","","","video-keyboard-response","467","827002","0.0-467.0","bofytzo3","","","null","","Agent A","veridical","STIM_SET_1/1592890.bmp_pp82_L2_V1.0_veridical_freeview_isoFalse.mp4",""
"null","","","html-keyboard-response","468","828503","0.0-468.0","bofytzo3","","<span style=""color:Black; font-size:50px;"">Agent B","null","","","","",""
"null","","","video-keyboard-response","469","831619","0.0-469.0","bofytzo3","","","null","","Agent B","scrambled","STIM_SET_1/1592890.bmp_pp82_L2_V1.0_scrambled_freeview_isoFalse.mp4",""
"","","","call-function","470","831619","0.0-470.0","bofytzo3","","","","","","","",""
"1109.8000000000466","{""judgement"":0}","[0]","survey-likert","471","832730","0.0-471.0","bofytzo3","","","","","","","","0"
"921.859999999986","{""confidence"":1}","[0]","survey-likert","472","833653","0.0-472.0","bofytzo3","","","","","","","",""
"","","","call-function","473","833654","0.0-473.0","bofytzo3","","","","","","","",""
"null","","","html-keyboard-response","474","835156","0.0-474.0","bofytzo3","","<span style=""color:Black; font-size:50px;"">Agent A","null","","","","",""
"null","","","video-keyboard-response","475","838287","0.0-475.0","bofytzo3","","","null","","Agent A","veridical","STIM_SET_1/1160168.bmp_pp53_L2_V1.0_veridical_freeview_isoFalse.mp4",""
"null","","","html-keyboard-response","476","839792","0.0-476.0","bofytzo3","","<span style=""color:Black; font-size:50px;"">Agent B","null","","","","",""
"null","","","video-keyboard-response","477","842862","0.0-477.0","bofytzo3","","","null","","Agent B","scrambled","STIM_SET_1/1160168.bmp_pp53_L2_V1.0_scrambled_freeview_isoFalse.mp4",""
"","","","call-function","478","842863","0.0-478.0","bofytzo3","","","","","","","",""
"1373.4499999999534","{""judgement"":0}","[0]","survey-likert","479","844237","0.0-479.0","bofytzo3","","","","","","","","0"
"1311.5400000000373","{""confidence"":1}","[0]","survey-likert","480","845550","0.0-480.0","bofytzo3","","","","","","","",""
"","","","call-function","481","845551","0.0-481.0","bofytzo3","","","","","","","",""
"null","","","html-keyboard-response","482","847054","0.0-482.0","bofytzo3","","<span style=""color:Black; font-size:50px;"">Agent A","null","","","","",""
"null","","","video-keyboard-response","483","850124","0.0-483.0","bofytzo3","","","null","","Agent A","veridical","STIM_SET_1/713089.bmp_pp60_L3_V1.0_veridical_freeview_isoFalse.mp4",""
"null","","","html-keyboard-response","484","851627","0.0-484.0","bofytzo3","","<span style=""color:Black; font-size:50px;"">Agent B","null","","","","",""
"null","","","video-keyboard-response","485","854696","0.0-485.0","bofytzo3","","","null","","Agent B","scrambled","STIM_SET_1/713089.bmp_pp60_L3_V1.0_scrambled_freeview_isoFalse.mp4",""
"","","","call-function","486","854697","0.0-486.0","bofytzo3","","","","","","","",""
"1786.8150000000605","{""judgement"":0}","[0]","survey-likert","487","856484","0.0-487.0","bofytzo3","","","","","","","","0"
"1850.469999999972","{""confidence"":2}","[0]","survey-likert","488","858336","0.0-488.0","bofytzo3","","","","","","","",""
"","","","call-function","489","858337","0.0-489.0","bofytzo3","","","","","","","",""
"null","","","html-keyboard-response","490","859840","0.0-490.0","bofytzo3","","<span style=""color:Black; font-size:50px;"">Agent A","null","","","","",""
"null","","","video-keyboard-response","491","862917","0.0-491.0","bofytzo3","","","null","","Agent A","veridical","STIM_SET_1/713666.bmp_pp97_L3_V1.0_veridical_freeview_isoFalse.mp4",""
"null","","","html-keyboard-response","492","864420","0.0-492.0","bofytzo3","","<span style=""color:Black; font-size:50px;"">Agent B","null","","","","",""
"null","","","video-keyboard-response","493","867544","0.0-493.0","bofytzo3","","","null","","Agent B","scrambled","STIM_SET_1/713666.bmp_pp97_L3_V1.0_scrambled_freeview_isoFalse.mp4",""
"","","","call-function","494","867545","0.0-494.0","bofytzo3","","","","","","","",""
"1998.0699999999488","{""judgement"":0}","[0]","survey-likert","495","869544","0.0-495.0","bofytzo3","","","","","","","","0"
"1031.5850000000792","{""confidence"":2}","[0]","survey-likert","496","870577","0.0-496.0","bofytzo3","","","","","","","",""
"9864.359999999986","","","instructions","497","880442","0.0-497.0","bofytzo3","[{""page_index"":0,""viewing_time"":739.0350000000326},{""page_index"":1,""viewing_time"":6960.614999999991},{""page_index"":0,""viewing_time"":1151.1699999999255},{""page_index"":1,""viewing_time"":438.95000000006985},{""page_index"":2,""viewing_time"":574.4249999999302}]","","","","","","",""
"2120.7600000000093","","","instructions","498","882563","0.0-498.0","bofytzo3","[{""page_index"":0,""viewing_time"":897.015000000014},{""page_index"":1,""viewing_time"":752.6599999999162},{""page_index"":2,""viewing_time"":470.98500000010245}]","","","","","","",""
"","","","call-function","499","882564","0.0-499.0","bofytzo3","","","","","","","",""
"null","","","html-keyboard-response","500","884066","0.0-500.0","bofytzo3","","<span style=""color:Black; font-size:50px;"">Agent A","null","","","","",""
"null","","","video-keyboard-response","501","887187","0.0-501.0","bofytzo3","","","null","","Agent A","veridical","STIM_SET_1/1592807.bmp_pp68_L1_V1.0_veridical_freeview_isoFalse.mp4",""
"null","","","html-keyboard-response","502","888691","0.0-502.0","bofytzo3","","<span style=""color:Black; font-size:50px;"">Agent B","null","","","","",""
"null","","","video-keyboard-response","503","891812","0.0-503.0","bofytzo3","","","null","","Agent B","scrambled","STIM_SET_1/1592807.bmp_pp68_L1_V1.0_scrambled_freeview_isoFalse.mp4",""
"","","","call-function","504","891814","0.0-504.0","bofytzo3","","","","","","","",""
"1600.1049999999814","{""judgement"":0}","[0]","survey-likert","505","893416","0.0-505.0","bofytzo3","","","","","","","","0"
"3459.944999999949","{""confidence"":1}","[0]","survey-likert","506","896878","0.0-506.0","bofytzo3","","","","","","","",""
"","","","call-function","507","896879","0.0-507.0","bofytzo3","","","","","","","",""
"null","","","html-keyboard-response","508","898385","0.0-508.0","bofytzo3","","<span style=""color:Black; font-size:50px;"">Agent A","null","","","","",""
"null","","","video-keyboard-response","509","901465","0.0-509.0","bofytzo3","","","null","","Agent A","veridical","STIM_SET_1/1591994.bmp_pp69_L3_V1.0_veridical_freeview_isoFalse.mp4",""
"null","","","html-keyboard-response","510","902968","0.0-510.0","bofytzo3","","<span style=""color:Black; font-size:50px;"">Agent B","null","","","","",""
"null","","","video-keyboard-response","511","906047","0.0-511.0","bofytzo3","","","null","","Agent B","scrambled","STIM_SET_1/1591994.bmp_pp69_L3_V1.0_scrambled_freeview_isoFalse.mp4",""
"","","","call-function","512","906048","0.0-512.0","bofytzo3","","","","","","","",""
"3491.1500000000233","{""judgement"":0}","[0]","survey-likert","513","909540","0.0-513.0","bofytzo3","","","","","","","","0"
"1237.954999999958","{""confidence"":0}","[0]","survey-likert","514","910780","0.0-514.0","bofytzo3","","","","","","","",""
"","","","call-function","515","910780","0.0-515.0","bofytzo3","","","","","","","",""
"null","","","html-keyboard-response","516","912283","0.0-516.0","bofytzo3","","<span style=""color:Black; font-size:50px;"">Agent A","null","","","","",""
"null","","","video-keyboard-response","517","915356","0.0-517.0","bofytzo3","","","null","","Agent A","veridical","STIM_SET_1/285933.bmp_pp81_L1_V1.0_veridical_freeview_isoFalse.mp4",""
"null","","","html-keyboard-response","518","916860","0.0-518.0","bofytzo3","","<span style=""color:Black; font-size:50px;"">Agent B","null","","","","",""
"null","","","video-keyboard-response","519","919932","0.0-519.0","bofytzo3","","","null","","Agent B","scrambled","STIM_SET_1/285933.bmp_pp81_L1_V1.0_scrambled_freeview_isoFalse.mp4",""
"","","","call-function","520","919932","0.0-520.0","bofytzo3","","","","","","","",""
"1340.1450000000186","{""judgement"":0}","[0]","survey-likert","521","921274","0.0-521.0","bofytzo3","","","","","","","","0"
"1238.594999999972","{""confidence"":0}","[0]","survey-likert","522","922514","0.0-522.0","bofytzo3","","","","","","","",""
"","","","call-function","523","922514","0.0-523.0","bofytzo3","","","","","","","",""
"null","","","html-keyboard-response","524","924016","0.0-524.0","bofytzo3","","<span style=""color:Black; font-size:50px;"">Agent A","null","","","","",""
"null","","","video-keyboard-response","525","927131","0.0-525.0","bofytzo3","","","null","","Agent A","scrambled","STIM_SET_1/1592804.bmp_pp91_L3_V1.0_scrambled_freeview_isoFalse.mp4",""
"null","","","html-keyboard-response","526","928637","0.0-526.0","bofytzo3","","<span style=""color:Black; font-size:50px;"">Agent B","null","","","","",""
"null","","","video-keyboard-response","527","931751","0.0-527.0","bofytzo3","","","null","","Agent B","veridical","STIM_SET_1/1592804.bmp_pp91_L3_V1.0_veridical_freeview_isoFalse.mp4",""
"","","","call-function","528","931752","0.0-528.0","bofytzo3","","","","","","","",""
"1279.6049999999814","{""judgement"":1}","[0]","survey-likert","529","933033","0.0-529.0","bofytzo3","","","","","","","","1"
"922.0350000000326","{""confidence"":1}","[0]","survey-likert","530","933957","0.0-530.0","bofytzo3","","","","","","","",""
"","","","call-function","531","933957","0.0-531.0","bofytzo3","","","","","","","",""
"null","","","html-keyboard-response","532","935460","0.0-532.0","bofytzo3","","<span style=""color:Black; font-size:50px;"">Agent A","null","","","","",""
"null","","","video-keyboard-response","533","938568","0.0-533.0","bofytzo3","","","null","","Agent A","veridical","STIM_SET_1/1160127.bmp_pp90_L2_V1.0_veridical_freeview_isoFalse.mp4",""
"null","","","html-keyboard-response","534","940073","0.0-534.0","bofytzo3","","<span style=""color:Black; font-size:50px;"">Agent B","null","","","","",""
"null","","","video-keyboard-response","535","943178","0.0-535.0","bofytzo3","","","null","","Agent B","scrambled","STIM_SET_1/1160127.bmp_pp90_L2_V1.0_scrambled_freeview_isoFalse.mp4",""
"","","","call-function","536","943178","0.0-536.0","bofytzo3","","","","","","","",""
"1366.1049999999814","{""judgement"":0}","[0]","survey-likert","537","944545","0.0-537.0","bofytzo3","","","","","","","","0"
"1036.7249999999767","{""confidence"":1}","[0]","survey-likert","538","945583","0.0-538.0","bofytzo3","","","","","","","",""
"","","","call-function","539","945584","0.0-539.0","bofytzo3","","","","","","","",""
"null","","","html-keyboard-response","540","947086","0.0-540.0","bofytzo3","","<span style=""color:Black; font-size:50px;"">Agent A","null","","","","",""
"null","","","video-keyboard-response","541","950205","0.0-541.0","bofytzo3","","","null","","Agent A","scrambled","STIM_SET_1/498175.bmp_pp154_L1_V1.0_scrambled_freeview_isoFalse.mp4",""
"null","","","html-keyboard-response","542","951712","0.0-542.0","bofytzo3","","<span style=""color:Black; font-size:50px;"">Agent B","null","","","","",""
"null","","","video-keyboard-response","543","954829","0.0-543.0","bofytzo3","","","null","","Agent B","veridical","STIM_SET_1/498175.bmp_pp154_L1_V1.0_veridical_freeview_isoFalse.mp4",""
"","","","call-function","544","954829","0.0-544.0","bofytzo3","","","","","","","",""
"4293.675000000047","{""judgement"":0}","[0]","survey-likert","545","959124","0.0-545.0","bofytzo3","","","","","","","","1"
"1558.3350000000792","{""confidence"":0}","[0]","survey-likert","546","960684","0.0-546.0","bofytzo3","","","","","","","",""
"","","","call-function","547","960684","0.0-547.0","bofytzo3","","","","","","","",""
"null","","","html-keyboard-response","548","962190","0.0-548.0","bofytzo3","","<span style=""color:Black; font-size:50px;"">Agent A","null","","","","",""
"null","","","video-keyboard-response","549","965268","0.0-549.0","bofytzo3","","","null","","Agent A","scrambled","STIM_SET_1/1593146.bmp_pp93_L1_V1.0_scrambled_freeview_isoFalse.mp4",""
"null","","","html-keyboard-response","550","966774","0.0-550.0","bofytzo3","","<span style=""color:Black; font-size:50px;"">Agent B","null","","","","",""
"null","","","video-keyboard-response","551","969854","0.0-551.0","bofytzo3","","","null","","Agent B","veridical","STIM_SET_1/1593146.bmp_pp93_L1_V1.0_veridical_freeview_isoFalse.mp4",""
"","","","call-function","552","969855","0.0-552.0","bofytzo3","","","","","","","",""
"1497.4349999999395","{""judgement"":0}","[0]","survey-likert","553","971353","0.0-553.0","bofytzo3","","","","","","","","1"
"2720.8850000000093","{""confidence"":1}","[0]","survey-likert","554","974076","0.0-554.0","bofytzo3","","","","","","","",""
"","","","call-function","555","974076","0.0-555.0","bofytzo3","","","","","","","",""
"null","","","html-keyboard-response","556","975579","0.0-556.0","bofytzo3","","<span style=""color:Black; font-size:50px;"">Agent A","null","","","","",""
"null","","","video-keyboard-response","557","978658","0.0-557.0","bofytzo3","","","null","","Agent A","veridical","STIM_SET_1/1159777.bmp_pp77_L3_V1.0_veridical_freeview_isoFalse.mp4",""
"null","","","html-keyboard-response","558","980162","0.0-558.0","bofytzo3","","<span style=""color:Black; font-size:50px;"">Agent B","null","","","","",""
"null","","","video-keyboard-response","559","983238","0.0-559.0","bofytzo3","","","null","","Agent B","scrambled","STIM_SET_1/1159777.bmp_pp77_L3_V1.0_scrambled_freeview_isoFalse.mp4",""
"","","","call-function","560","983239","0.0-560.0","bofytzo3","","","","","","","",""
"1516.9049999999115","{""judgement"":0}","[0]","survey-likert","561","984757","0.0-561.0","bofytzo3","","","","","","","","0"
"1198.9899999999907","{""confidence"":1}","[0]","survey-likert","562","985957","0.0-562.0","bofytzo3","","","","","","","",""
"","","","call-function","563","985958","0.0-563.0","bofytzo3","","","","","","","",""
"null","","","html-keyboard-response","564","987462","0.0-564.0","bofytzo3","","<span style=""color:Black; font-size:50px;"">Agent A","null","","","","",""
"null","","","video-keyboard-response","565","990566","0.0-565.0","bofytzo3","","","null","","Agent A","veridical","STIM_SET_1/498149.bmp_pp99_L2_V1.0_veridical_freeview_isoFalse.mp4",""
"null","","","html-keyboard-response","566","992071","0.0-566.0","bofytzo3","","<span style=""color:Black; font-size:50px;"">Agent B","null","","","","",""
"null","","","video-keyboard-response","567","995179","0.0-567.0","bofytzo3","","","null","","Agent B","scrambled","STIM_SET_1/498149.bmp_pp99_L2_V1.0_scrambled_freeview_isoFalse.mp4",""
"","","","call-function","568","995179","0.0-568.0","bofytzo3","","","","","","","",""
"2556.265000000014","{""judgement"":0}","[0]","survey-likert","569","997737","0.0-569.0","bofytzo3","","","","","","","","0"
"1532.7699999999022","{""confidence"":1}","[0]","survey-likert","570","999271","0.0-570.0","bofytzo3","","","","","","","",""
"","","","call-function","571","999271","0.0-571.0","bofytzo3","","","","","","","",""
"null","","","html-keyboard-response","572","1000772","0.0-572.0","bofytzo3","","<span style=""color:Black; font-size:50px;"">Agent A","null","","","","",""
"null","","","video-keyboard-response","573","1003894","0.0-573.0","bofytzo3","","","null","","Agent A","veridical","STIM_SET_1/1592372.bmp_pp76_L1_V1.0_veridical_freeview_isoFalse.mp4",""
"null","","","html-keyboard-response","574","1005397","0.0-574.0","bofytzo3","","<span style=""color:Black; font-size:50px;"">Agent B","null","","","","",""
"null","","","video-keyboard-response","575","1008518","0.0-575.0","bofytzo3","","","null","","Agent B","scrambled","STIM_SET_1/1592372.bmp_pp76_L1_V1.0_scrambled_freeview_isoFalse.mp4",""
"","","","call-function","576","1008519","0.0-576.0","bofytzo3","","","","","","","",""
"2774.2850000000326","{""judgement"":0}","[0]","survey-likert","577","1011294","0.0-577.0","bofytzo3","","","","","","","","0"
"1386.4500000000698","{""confidence"":0}","[0]","survey-likert","578","1012682","0.0-578.0","bofytzo3","","","","","","","",""
"1169.7900000000373","","","instructions","579","1013852","0.0-579.0","bofytzo3","[{""page_index"":0,""viewing_time"":1169.655000000028}]","","","","","","",""
"1007.4399999999441","","","instructions","580","1014860","0.0-580.0","bofytzo3","[{""page_index"":0,""viewing_time"":1007.3349999999627}]","","","","","","",""
"4268.795000000042","{""post-1"":0}","[0]","survey-likert","581","1019131","0.0-581.0","bofytzo3","","","","","","","",""
"2676.9150000000373","{""post-1"":0}","[0]","survey-likert","582","1021810","0.0-582.0","bofytzo3","","","","","","","",""
"7800.159999999916","{""post-2"":1}","[0]","survey-likert","583","1029612","0.0-583.0","bofytzo3","","","","","","","",""
"4137.699999999953","{""post-2"":1}","[0]","survey-likert","584","1033753","0.0-584.0","bofytzo3","","","","","","","",""
"2987.6849999999395","{""post-3"":0}","[0]","survey-likert","585","1036742","0.0-585.0","bofytzo3","","","","","","","",""
"1916.1599999999162","{""post-3"":0}","[0]","survey-likert","586","1038660","0.0-586.0","bofytzo3","","","","","","","",""
"2990.969999999972","{""post-4"":0}","[0]","survey-likert","587","1041652","0.0-587.0","bofytzo3","","","","","","","",""
"1477.9599999999627","{""post-4"":0}","[0]","survey-likert","588","1043131","0.0-588.0","bofytzo3","","","","","","","",""
"5844.0449999999255","{""post-5"":3}","[0]","survey-likert","589","1048977","0.0-589.0","bofytzo3","","","","","","","",""
"2892.909999999916","{""post-5"":3}","[0]","survey-likert","590","1051871","0.0-590.0","bofytzo3","","","","","","","",""
"78898.02500000014","{""Q0"":""It's quite odd to first see the image at the same time that we should be following the hotspots around the screen. A lot of the time I simply think the generated pattern is quite odd for what it chooses to focus on... ""}","","survey-text","591","1130775","0.0-591.0","bofytzo3","","","","","","","",""
"107812.17999999993","{""Q0"":""It was easier to follow/analyze what the hotspot pattern is like when the image is either quite clearly a face (few faces, large part of the screen, in focus) or there's words in the picture. It's weird for someone to look at the same word twice, and I thought it was more robotic to look at the faces very very briefly. This experiment is more interesting than the one with a blank background, but it's also way more distracting. ""}","","survey-text","592","1238592","0.0-592.0","bofytzo3","","","","","","","",""
"61691.60499999998","{""Q0"":""The images themselves and not being able to see them in advance before the hotspots start moving. It was very hard to relate to any of the generated patterns (I just wonder why someone would ever want to focus on the corner of the image or a blank spot on a random part of the wall, etc.). ""}","","survey-text","593","1300288","0.0-593.0","bofytzo3","","","","","","","",""
"1458","","","instructions","594","1301748","0.0-594.0","bofytzo3","[{""page_index"":0,""viewing_time"":1457.8600000001024}]","","","","","","",""
"146126.65500000003","{""Experimenter_end"":[""Printed ID# bofytzo3 on consent form"",""Given subject SONA credit or payment"",""Given the subject debrief form""]}","[0]","survey-multi-select","595","1447878","0.0-595.0","bofytzo3","","","","","","","",""
