"rt","responses","question_order","trial_type","trial_index","time_elapsed","internal_node_id","ID","view_history","stimulus","key_press","value","agent","condition","image","correct_answer"
"21682.65","{""Experimenter"":[""Confirmed subject's identity"",""Confirmed normal or corrected-to-normal vision"",""Obtained consent (signature and date)"",""Checked the test room lighting"",""Checked computer screen lighting"",""Checked distance from screen to chin rest (50cm)"",""Cleaned and adjusted chin rest"",""Counterbalanced the order of the tasks"",""Opened the experiment in Firefox"",""Made the experiment full screen"",""Encouraged subject to silence phone, put away distractors, etc.""]}","[0]","survey-multi-select","0","21689","0.0-0.0","c0vzcj91","","","","","","","",""
"286640.08","","","instructions","1","308331","0.0-1.0","c0vzcj91","[{""page_index"":0,""viewing_time"":286639.92500000005}]","","","","","","",""
"13563.75","","","instructions","2","321896","0.0-2.0","c0vzcj91","[{""page_index"":0,""viewing_time"":6442.164999999979},{""page_index"":1,""viewing_time"":1178.8800000000047},{""page_index"":2,""viewing_time"":5942.109999999986}]","","","","","","",""
"3312.1300000000047","","","instructions","3","325210","0.0-3.0","c0vzcj91","[{""page_index"":0,""viewing_time"":3312.0299999999697}]","","","","","","",""
"null","","","video-keyboard-response","4","328304","0.0-4.0","c0vzcj91","","","null","","","","",""
"12764.059999999998","","","instructions","5","341068","0.0-5.0","c0vzcj91","[{""page_index"":0,""viewing_time"":5013.899999999965},{""page_index"":1,""viewing_time"":4337.035000000033},{""page_index"":2,""viewing_time"":3413.0250000000233}]","","","","","","",""
"2755.7299999999814","","","instructions","6","343824","0.0-6.0","c0vzcj91","[{""page_index"":0,""viewing_time"":2755.6300000000047}]","","","","","","",""
"1572.719999999972","","","instructions","7","345397","0.0-7.0","c0vzcj91","[{""page_index"":0,""viewing_time"":1572.6199999999953}]","","","","","","",""
"null","","","video-keyboard-response","8","348475","0.0-8.0","c0vzcj91","","","null","","","","",""
"14010.954999999958","","","instructions","9","362486","0.0-9.0","c0vzcj91","[{""page_index"":0,""viewing_time"":1426.7550000000047},{""page_index"":1,""viewing_time"":5233.954999999958},{""page_index"":2,""viewing_time"":7349.989999999991}]","","","","","","",""
"4497","","","instructions","10","366984","0.0-10.0","c0vzcj91","[{""page_index"":0,""viewing_time"":4496.875}]","","","","","","",""
"","","","call-function","11","366984","0.0-11.0","c0vzcj91","","","","","","","",""
"null","","","html-keyboard-response","12","368489","0.0-12.0","c0vzcj91","","<span style=""color:Black; font-size:50px;"">Agent A","null","","","","",""
"null","","","video-keyboard-response","13","371570","0.0-13.0","c0vzcj91","","","null","","Agent A","veridical","STIM_SET_2_144/498372.bmp_pp95_L2_V1_veridical_freeview_isoTrue_fps144.mp4",""
"null","","","html-keyboard-response","14","373072","0.0-14.0","c0vzcj91","","<span style=""color:Black; font-size:50px;"">Agent B","null","","","","",""
"null","","","video-keyboard-response","15","376152","0.0-15.0","c0vzcj91","","","null","","Agent B","scrambled","STIM_SET_5/498372.bmp_pp95_L2_V1_veridical_freeview_isoTrue_Hflip_fps144.mp4",""
"","","","call-function","16","376152","0.0-16.0","c0vzcj91","","","","","","","",""
"4899.570000000007","{""judgement"":1}","[0]","survey-likert","17","381053","0.0-17.0","c0vzcj91","","","","","","","","0"
"3066.7000000000116","{""confidence"":1}","[0]","survey-likert","18","384121","0.0-18.0","c0vzcj91","","","","","","","",""
"","","","call-function","19","384121","0.0-19.0","c0vzcj91","","","","","","","",""
"null","","","html-keyboard-response","20","385623","0.0-20.0","c0vzcj91","","<span style=""color:Black; font-size:50px;"">Agent A","null","","","","",""
"null","","","video-keyboard-response","21","388754","0.0-21.0","c0vzcj91","","","null","","Agent A","scrambled","STIM_SET_5/1592298.bmp_pp56_L3_V1.0_veridical_freeview_isoTrue_Hflip_fps144.mp4",""
"null","","","html-keyboard-response","22","390258","0.0-22.0","c0vzcj91","","<span style=""color:Black; font-size:50px;"">Agent B","null","","","","",""
"null","","","video-keyboard-response","23","393325","0.0-23.0","c0vzcj91","","","null","","Agent B","veridical","STIM_SET_2_144/1592298.bmp_pp56_L3_V1.0_veridical_freeview_isoTrue_fps144.mp4",""
"","","","call-function","24","393325","0.0-24.0","c0vzcj91","","","","","","","",""
"2801.9400000000023","{""judgement"":0}","[0]","survey-likert","25","396128","0.0-25.0","c0vzcj91","","","","","","","","1"
"3369.5100000000093","{""confidence"":2}","[0]","survey-likert","26","399498","0.0-26.0","c0vzcj91","","","","","","","",""
"","","","call-function","27","399499","0.0-27.0","c0vzcj91","","","","","","","",""
"null","","","html-keyboard-response","28","401000","0.0-28.0","c0vzcj91","","<span style=""color:Black; font-size:50px;"">Agent A","null","","","","",""
"null","","","video-keyboard-response","29","404084","0.0-29.0","c0vzcj91","","","null","","Agent A","scrambled","STIM_SET_5/1159956.bmp_pp59_L3_V1.0_veridical_freeview_isoTrue_Hflip_fps144.mp4",""
"null","","","html-keyboard-response","30","405588","0.0-30.0","c0vzcj91","","<span style=""color:Black; font-size:50px;"">Agent B","null","","","","",""
"null","","","video-keyboard-response","31","408674","0.0-31.0","c0vzcj91","","","null","","Agent B","veridical","STIM_SET_2_144/1159956.bmp_pp59_L3_V1.0_veridical_freeview_isoTrue_fps144.mp4",""
"","","","call-function","32","408674","0.0-32.0","c0vzcj91","","","","","","","",""
"6581.744999999995","{""judgement"":0}","[0]","survey-likert","33","415257","0.0-33.0","c0vzcj91","","","","","","","","1"
"1700.6149999999907","{""confidence"":1}","[0]","survey-likert","34","416958","0.0-34.0","c0vzcj91","","","","","","","",""
"","","","call-function","35","416958","0.0-35.0","c0vzcj91","","","","","","","",""
"null","","","html-keyboard-response","36","418463","0.0-36.0","c0vzcj91","","<span style=""color:Black; font-size:50px;"">Agent A","null","","","","",""
"null","","","video-keyboard-response","37","421521","0.0-37.0","c0vzcj91","","","null","","Agent A","veridical","STIM_SET_2_144/1159860.bmp_pp152_L2_V1.0_veridical_freeview_isoTrue_fps144.mp4",""
"null","","","html-keyboard-response","38","423027","0.0-38.0","c0vzcj91","","<span style=""color:Black; font-size:50px;"">Agent B","null","","","","",""
"null","","","video-keyboard-response","39","426103","0.0-39.0","c0vzcj91","","","null","","Agent B","scrambled","STIM_SET_5/1159860.bmp_pp152_L2_V1.0_veridical_freeview_isoTrue_Hflip_fps144.mp4",""
"","","","call-function","40","426103","0.0-40.0","c0vzcj91","","","","","","","",""
"5322.679999999993","{""judgement"":1}","[0]","survey-likert","41","431427","0.0-41.0","c0vzcj91","","","","","","","","0"
"1727.1549999999697","{""confidence"":1}","[0]","survey-likert","42","433156","0.0-42.0","c0vzcj91","","","","","","","",""
"","","","call-function","43","433157","0.0-43.0","c0vzcj91","","","","","","","",""
"null","","","html-keyboard-response","44","434659","0.0-44.0","c0vzcj91","","<span style=""color:Black; font-size:50px;"">Agent A","null","","","","",""
"null","","","video-keyboard-response","45","437720","0.0-45.0","c0vzcj91","","","null","","Agent A","veridical","STIM_SET_2_144/713689.bmp_pp153_L3_V1.0_veridical_freeview_isoTrue_fps144.mp4",""
"null","","","html-keyboard-response","46","439221","0.0-46.0","c0vzcj91","","<span style=""color:Black; font-size:50px;"">Agent B","null","","","","",""
"null","","","video-keyboard-response","47","442283","0.0-47.0","c0vzcj91","","","null","","Agent B","scrambled","STIM_SET_5/713689.bmp_pp153_L3_V1.0_veridical_freeview_isoTrue_Hflip_fps144.mp4",""
"","","","call-function","48","442284","0.0-48.0","c0vzcj91","","","","","","","",""
"2030.1999999999534","{""judgement"":1}","[0]","survey-likert","49","444315","0.0-49.0","c0vzcj91","","","","","","","","0"
"3111.0199999999604","{""confidence"":2}","[0]","survey-likert","50","447427","0.0-50.0","c0vzcj91","","","","","","","",""
"","","","call-function","51","447427","0.0-51.0","c0vzcj91","","","","","","","",""
"null","","","html-keyboard-response","52","448928","0.0-52.0","c0vzcj91","","<span style=""color:Black; font-size:50px;"">Agent A","null","","","","",""
"null","","","video-keyboard-response","53","452004","0.0-53.0","c0vzcj91","","","null","","Agent A","scrambled","STIM_SET_5/713742.bmp_pp91_L3_V1.0_veridical_freeview_isoTrue_Hflip_fps144.mp4",""
"null","","","html-keyboard-response","54","453510","0.0-54.0","c0vzcj91","","<span style=""color:Black; font-size:50px;"">Agent B","null","","","","",""
"null","","","video-keyboard-response","55","456586","0.0-55.0","c0vzcj91","","","null","","Agent B","veridical","STIM_SET_2_144/713742.bmp_pp91_L3_V1.0_veridical_freeview_isoTrue_fps144.mp4",""
"","","","call-function","56","456586","0.0-56.0","c0vzcj91","","","","","","","",""
"2270.359999999986","{""judgement"":1}","[0]","survey-likert","57","458857","0.0-57.0","c0vzcj91","","","","","","","","1"
"3226.679999999993","{""confidence"":2}","[0]","survey-likert","58","462085","0.0-58.0","c0vzcj91","","","","","","","",""
"","","","call-function","59","462085","0.0-59.0","c0vzcj91","","","","","","","",""
"null","","","html-keyboard-response","60","463588","0.0-60.0","c0vzcj91","","<span style=""color:Black; font-size:50px;"">Agent A","null","","","","",""
"null","","","video-keyboard-response","61","466672","0.0-61.0","c0vzcj91","","","null","","Agent A","veridical","STIM_SET_2_144/498396.bmp_pp99_L2_V1.0_veridical_freeview_isoTrue_fps144.mp4",""
"null","","","html-keyboard-response","62","468179","0.0-62.0","c0vzcj91","","<span style=""color:Black; font-size:50px;"">Agent B","null","","","","",""
"null","","","video-keyboard-response","63","471248","0.0-63.0","c0vzcj91","","","null","","Agent B","scrambled","STIM_SET_5/498396.bmp_pp99_L2_V1.0_veridical_freeview_isoTrue_Hflip_fps144.mp4",""
"","","","call-function","64","471249","0.0-64.0","c0vzcj91","","","","","","","",""
"3520.945000000007","{""judgement"":0}","[0]","survey-likert","65","474771","0.0-65.0","c0vzcj91","","","","","","","","0"
"2497.8950000000186","{""confidence"":1}","[0]","survey-likert","66","477270","0.0-66.0","c0vzcj91","","","","","","","",""
"","","","call-function","67","477271","0.0-67.0","c0vzcj91","","","","","","","",""
"null","","","html-keyboard-response","68","478772","0.0-68.0","c0vzcj91","","<span style=""color:Black; font-size:50px;"">Agent A","null","","","","",""
"null","","","video-keyboard-response","69","481849","0.0-69.0","c0vzcj91","","","null","","Agent A","scrambled","STIM_SET_5/1160247.bmp_pp54_L2_V1.0_veridical_freeview_isoTrue_Hflip_fps144.mp4",""
"null","","","html-keyboard-response","70","483351","0.0-70.0","c0vzcj91","","<span style=""color:Black; font-size:50px;"">Agent B","null","","","","",""
"null","","","video-keyboard-response","71","486424","0.0-71.0","c0vzcj91","","","null","","Agent B","veridical","STIM_SET_2_144/1160247.bmp_pp54_L2_V1.0_veridical_freeview_isoTrue_fps144.mp4",""
"","","","call-function","72","486424","0.0-72.0","c0vzcj91","","","","","","","",""
"2402.2700000000186","{""judgement"":0}","[0]","survey-likert","73","488828","0.0-73.0","c0vzcj91","","","","","","","","1"
"4321.159999999974","{""confidence"":1}","[0]","survey-likert","74","493150","0.0-74.0","c0vzcj91","","","","","","","",""
"","","","call-function","75","493150","0.0-75.0","c0vzcj91","","","","","","","",""
"null","","","html-keyboard-response","76","494653","0.0-76.0","c0vzcj91","","<span style=""color:Black; font-size:50px;"">Agent A","null","","","","",""
"null","","","video-keyboard-response","77","497713","0.0-77.0","c0vzcj91","","","null","","Agent A","veridical","STIM_SET_2_144/285684.bmp_pp80_L3_V1.0_veridical_freeview_isoTrue_fps144.mp4",""
"null","","","html-keyboard-response","78","499215","0.0-78.0","c0vzcj91","","<span style=""color:Black; font-size:50px;"">Agent B","null","","","","",""
"null","","","video-keyboard-response","79","502297","0.0-79.0","c0vzcj91","","","null","","Agent B","scrambled","STIM_SET_5/285684.bmp_pp80_L3_V1.0_veridical_freeview_isoTrue_Hflip_fps144.mp4",""
"","","","call-function","80","502297","0.0-80.0","c0vzcj91","","","","","","","",""
"1779.2449999999953","{""judgement"":0}","[0]","survey-likert","81","504077","0.0-81.0","c0vzcj91","","","","","","","","0"
"1303.929999999993","{""confidence"":1}","[0]","survey-likert","82","505382","0.0-82.0","c0vzcj91","","","","","","","",""
"","","","call-function","83","505382","0.0-83.0","c0vzcj91","","","","","","","",""
"null","","","html-keyboard-response","84","506884","0.0-84.0","c0vzcj91","","<span style=""color:Black; font-size:50px;"">Agent A","null","","","","",""
"null","","","video-keyboard-response","85","509965","0.0-85.0","c0vzcj91","","","null","","Agent A","scrambled","STIM_SET_5/1592025.bmp_pp68_L1_V1.0_veridical_freeview_isoTrue_Hflip_fps144.mp4",""
"null","","","html-keyboard-response","86","511468","0.0-86.0","c0vzcj91","","<span style=""color:Black; font-size:50px;"">Agent B","null","","","","",""
"null","","","video-keyboard-response","87","514547","0.0-87.0","c0vzcj91","","","null","","Agent B","veridical","STIM_SET_2_144/1592025.bmp_pp68_L1_V1.0_veridical_freeview_isoTrue_fps144.mp4",""
"","","","call-function","88","514547","0.0-88.0","c0vzcj91","","","","","","","",""
"1459.5999999999767","{""judgement"":1}","[0]","survey-likert","89","516007","0.0-89.0","c0vzcj91","","","","","","","","1"
"2164.3649999999907","{""confidence"":1}","[0]","survey-likert","90","518173","0.0-90.0","c0vzcj91","","","","","","","",""
"3592.0999999999767","","","instructions","91","521765","0.0-91.0","c0vzcj91","[{""page_index"":0,""viewing_time"":1395.554999999993},{""page_index"":1,""viewing_time"":1307.460000000021},{""page_index"":2,""viewing_time"":888.8699999999953}]","","","","","","",""
"4765.214999999967","","","instructions","92","526531","0.0-92.0","c0vzcj91","[{""page_index"":0,""viewing_time"":864.2050000000163},{""page_index"":1,""viewing_time"":3140.9349999999977},{""page_index"":2,""viewing_time"":759.9599999999627}]","","","","","","",""
"","","","call-function","93","526531","0.0-93.0","c0vzcj91","","","","","","","",""
"null","","","html-keyboard-response","94","528033","0.0-94.0","c0vzcj91","","<span style=""color:Black; font-size:50px;"">Agent A","null","","","","",""
"null","","","video-keyboard-response","95","531122","0.0-95.0","c0vzcj91","","","null","","Agent A","scrambled","STIM_SET_5/1592350.bmp_pp55_L3_V1.0_veridical_freeview_isoTrue_Hflip_fps144.mp4",""
"null","","","html-keyboard-response","96","532626","0.0-96.0","c0vzcj91","","<span style=""color:Black; font-size:50px;"">Agent B","null","","","","",""
"null","","","video-keyboard-response","97","535692","0.0-97.0","c0vzcj91","","","null","","Agent B","veridical","STIM_SET_2_144/1592350.bmp_pp55_L3_V1.0_veridical_freeview_isoTrue_fps144.mp4",""
"","","","call-function","98","535692","0.0-98.0","c0vzcj91","","","","","","","",""
"1858.579999999958","{""judgement"":0}","[0]","survey-likert","99","537551","0.0-99.0","c0vzcj91","","","","","","","","1"
"1816.0999999999767","{""confidence"":1}","[0]","survey-likert","100","539368","0.0-100.0","c0vzcj91","","","","","","","",""
"","","","call-function","101","539369","0.0-101.0","c0vzcj91","","","","","","","",""
"null","","","html-keyboard-response","102","540875","0.0-102.0","c0vzcj91","","<span style=""color:Black; font-size:50px;"">Agent A","null","","","","",""
"null","","","video-keyboard-response","103","543959","0.0-103.0","c0vzcj91","","","null","","Agent A","scrambled","STIM_SET_5/1592305.bmp_pp65_L3_V1.0_veridical_freeview_isoTrue_Hflip_fps144.mp4",""
"null","","","html-keyboard-response","104","545461","0.0-104.0","c0vzcj91","","<span style=""color:Black; font-size:50px;"">Agent B","null","","","","",""
"null","","","video-keyboard-response","105","548528","0.0-105.0","c0vzcj91","","","null","","Agent B","veridical","STIM_SET_2_144/1592305.bmp_pp65_L3_V1.0_veridical_freeview_isoTrue_fps144.mp4",""
"","","","call-function","106","548529","0.0-106.0","c0vzcj91","","","","","","","",""
"2463.2799999999115","{""judgement"":1}","[0]","survey-likert","107","550993","0.0-107.0","c0vzcj91","","","","","","","","1"
"3424.20000000007","{""confidence"":2}","[0]","survey-likert","108","554420","0.0-108.0","c0vzcj91","","","","","","","",""
"","","","call-function","109","554421","0.0-109.0","c0vzcj91","","","","","","","",""
"null","","","html-keyboard-response","110","555924","0.0-110.0","c0vzcj91","","<span style=""color:Black; font-size:50px;"">Agent A","null","","","","",""
"null","","","video-keyboard-response","111","558986","0.0-111.0","c0vzcj91","","","null","","Agent A","veridical","STIM_SET_2_144/1592129.bmp_pp153_L3_V1.0_veridical_freeview_isoTrue_fps144.mp4",""
"null","","","html-keyboard-response","112","560488","0.0-112.0","c0vzcj91","","<span style=""color:Black; font-size:50px;"">Agent B","null","","","","",""
"null","","","video-keyboard-response","113","563551","0.0-113.0","c0vzcj91","","","null","","Agent B","scrambled","STIM_SET_5/1592129.bmp_pp153_L3_V1.0_veridical_freeview_isoTrue_Hflip_fps144.mp4",""
"","","","call-function","114","563551","0.0-114.0","c0vzcj91","","","","","","","",""
"2782.064999999944","{""judgement"":0}","[0]","survey-likert","115","566334","0.0-115.0","c0vzcj91","","","","","","","","0"
"2323.0999999999767","{""confidence"":2}","[0]","survey-likert","116","568658","0.0-116.0","c0vzcj91","","","","","","","",""
"","","","call-function","117","568659","0.0-117.0","c0vzcj91","","","","","","","",""
"null","","","html-keyboard-response","118","570160","0.0-118.0","c0vzcj91","","<span style=""color:Black; font-size:50px;"">Agent A","null","","","","",""
"null","","","video-keyboard-response","119","573234","0.0-119.0","c0vzcj91","","","null","","Agent A","veridical","STIM_SET_2_144/107909.bmp_pp95_L2_V1.0_veridical_freeview_isoTrue_fps144.mp4",""
"null","","","html-keyboard-response","120","574737","0.0-120.0","c0vzcj91","","<span style=""color:Black; font-size:50px;"">Agent B","null","","","","",""
"null","","","video-keyboard-response","121","577811","0.0-121.0","c0vzcj91","","","null","","Agent B","scrambled","STIM_SET_5/107909.bmp_pp95_L2_V1.0_veridical_freeview_isoTrue_Hflip_fps144.mp4",""
"","","","call-function","122","577812","0.0-122.0","c0vzcj91","","","","","","","",""
"3283.844999999972","{""judgement"":1}","[0]","survey-likert","123","581097","0.0-123.0","c0vzcj91","","","","","","","","0"
"1450.9299999999348","{""confidence"":1}","[0]","survey-likert","124","582549","0.0-124.0","c0vzcj91","","","","","","","",""
"","","","call-function","125","582549","0.0-125.0","c0vzcj91","","","","","","","",""
"null","","","html-keyboard-response","126","584054","0.0-126.0","c0vzcj91","","<span style=""color:Black; font-size:50px;"">Agent A","null","","","","",""
"null","","","video-keyboard-response","127","587145","0.0-127.0","c0vzcj91","","","null","","Agent A","veridical","STIM_SET_2_144/285959.bmp_pp93_L1_V1.0_veridical_freeview_isoTrue_fps144.mp4",""
"null","","","html-keyboard-response","128","588651","0.0-128.0","c0vzcj91","","<span style=""color:Black; font-size:50px;"">Agent B","null","","","","",""
"null","","","video-keyboard-response","129","591741","0.0-129.0","c0vzcj91","","","null","","Agent B","scrambled","STIM_SET_5/285959.bmp_pp93_L1_V1.0_veridical_freeview_isoTrue_Hflip_fps144.mp4",""
"","","","call-function","130","591741","0.0-130.0","c0vzcj91","","","","","","","",""
"1852.9350000000559","{""judgement"":0}","[0]","survey-likert","131","593595","0.0-131.0","c0vzcj91","","","","","","","","0"
"1179.969999999972","{""confidence"":1}","[0]","survey-likert","132","594776","0.0-132.0","c0vzcj91","","","","","","","",""
"","","","call-function","133","594776","0.0-133.0","c0vzcj91","","","","","","","",""
"null","","","html-keyboard-response","134","596278","0.0-134.0","c0vzcj91","","<span style=""color:Black; font-size:50px;"">Agent A","null","","","","",""
"null","","","video-keyboard-response","135","599353","0.0-135.0","c0vzcj91","","","null","","Agent A","veridical","STIM_SET_2_144/285715.bmp_pp67_L2_V1.0_veridical_freeview_isoTrue_fps144.mp4",""
"null","","","html-keyboard-response","136","600857","0.0-136.0","c0vzcj91","","<span style=""color:Black; font-size:50px;"">Agent B","null","","","","",""
"null","","","video-keyboard-response","137","603935","0.0-137.0","c0vzcj91","","","null","","Agent B","scrambled","STIM_SET_5/285715.bmp_pp67_L2_V1.0_veridical_freeview_isoTrue_Hflip_fps144.mp4",""
"","","","call-function","138","603935","0.0-138.0","c0vzcj91","","","","","","","",""
"1454.155000000028","{""judgement"":1}","[0]","survey-likert","139","605390","0.0-139.0","c0vzcj91","","","","","","","","0"
"1210.4799999999814","{""confidence"":1}","[0]","survey-likert","140","606601","0.0-140.0","c0vzcj91","","","","","","","",""
"","","","call-function","141","606602","0.0-141.0","c0vzcj91","","","","","","","",""
"null","","","html-keyboard-response","142","608106","0.0-142.0","c0vzcj91","","<span style=""color:Black; font-size:50px;"">Agent A","null","","","","",""
"null","","","video-keyboard-response","143","611191","0.0-143.0","c0vzcj91","","","null","","Agent A","scrambled","STIM_SET_5/1159508.bmp_pp151_L1_V1.0_veridical_freeview_isoTrue_Hflip_fps144.mp4",""
"null","","","html-keyboard-response","144","612694","0.0-144.0","c0vzcj91","","<span style=""color:Black; font-size:50px;"">Agent B","null","","","","",""
"null","","","video-keyboard-response","145","615781","0.0-145.0","c0vzcj91","","","null","","Agent B","veridical","STIM_SET_2_144/1159508.bmp_pp151_L1_V1.0_veridical_freeview_isoTrue_fps144.mp4",""
"","","","call-function","146","615782","0.0-146.0","c0vzcj91","","","","","","","",""
"2823.634999999893","{""judgement"":0}","[0]","survey-likert","147","618606","0.0-147.0","c0vzcj91","","","","","","","","1"
"4840.6849999999395","{""confidence"":1}","[0]","survey-likert","148","623448","0.0-148.0","c0vzcj91","","","","","","","",""
"","","","call-function","149","623448","0.0-149.0","c0vzcj91","","","","","","","",""
"null","","","html-keyboard-response","150","624951","0.0-150.0","c0vzcj91","","<span style=""color:Black; font-size:50px;"">Agent A","null","","","","",""
"null","","","video-keyboard-response","151","628018","0.0-151.0","c0vzcj91","","","null","","Agent A","veridical","STIM_SET_2_144/61513.bmp_pp75_L1_V1.0_veridical_freeview_isoTrue_fps144.mp4",""
"null","","","html-keyboard-response","152","629522","0.0-152.0","c0vzcj91","","<span style=""color:Black; font-size:50px;"">Agent B","null","","","","",""
"null","","","video-keyboard-response","153","632593","0.0-153.0","c0vzcj91","","","null","","Agent B","scrambled","STIM_SET_5/61513.bmp_pp75_L1_V1.0_veridical_freeview_isoTrue_Hflip_fps144.mp4",""
"","","","call-function","154","632593","0.0-154.0","c0vzcj91","","","","","","","",""
"1597.4500000000698","{""judgement"":1}","[0]","survey-likert","155","634192","0.0-155.0","c0vzcj91","","","","","","","","0"
"1169.045000000042","{""confidence"":1}","[0]","survey-likert","156","635362","0.0-156.0","c0vzcj91","","","","","","","",""
"","","","call-function","157","635362","0.0-157.0","c0vzcj91","","","","","","","",""
"null","","","html-keyboard-response","158","636868","0.0-158.0","c0vzcj91","","<span style=""color:Black; font-size:50px;"">Agent A","null","","","","",""
"null","","","video-keyboard-response","159","639930","0.0-159.0","c0vzcj91","","","null","","Agent A","scrambled","STIM_SET_5/1592017.bmp_pp154_L1_V1.0_veridical_freeview_isoTrue_Hflip_fps144.mp4",""
"null","","","html-keyboard-response","160","641431","0.0-160.0","c0vzcj91","","<span style=""color:Black; font-size:50px;"">Agent B","null","","","","",""
"null","","","video-keyboard-response","161","644495","0.0-161.0","c0vzcj91","","","null","","Agent B","veridical","STIM_SET_2_144/1592017.bmp_pp154_L1_V1.0_veridical_freeview_isoTrue_fps144.mp4",""
"","","","call-function","162","644495","0.0-162.0","c0vzcj91","","","","","","","",""
"2810.9799999999814","{""judgement"":1}","[0]","survey-likert","163","647307","0.0-163.0","c0vzcj91","","","","","","","","1"
"3250.5050000000047","{""confidence"":1}","[0]","survey-likert","164","650559","0.0-164.0","c0vzcj91","","","","","","","",""
"","","","call-function","165","650559","0.0-165.0","c0vzcj91","","","","","","","",""
"null","","","html-keyboard-response","166","652061","0.0-166.0","c0vzcj91","","<span style=""color:Black; font-size:50px;"">Agent A","null","","","","",""
"null","","","video-keyboard-response","167","655147","0.0-167.0","c0vzcj91","","","null","","Agent A","scrambled","STIM_SET_5/1159819.bmp_pp151_L1_V1.0_veridical_freeview_isoTrue_Hflip_fps144.mp4",""
"null","","","html-keyboard-response","168","656651","0.0-168.0","c0vzcj91","","<span style=""color:Black; font-size:50px;"">Agent B","null","","","","",""
"null","","","video-keyboard-response","169","659734","0.0-169.0","c0vzcj91","","","null","","Agent B","veridical","STIM_SET_2_144/1159819.bmp_pp151_L1_V1.0_veridical_freeview_isoTrue_fps144.mp4",""
"","","","call-function","170","659735","0.0-170.0","c0vzcj91","","","","","","","",""
"2390.069999999949","{""judgement"":0}","[0]","survey-likert","171","662126","0.0-171.0","c0vzcj91","","","","","","","","1"
"1935.1900000000605","{""confidence"":0}","[0]","survey-likert","172","664063","0.0-172.0","c0vzcj91","","","","","","","",""
"8117.45000000007","","","instructions","173","672181","0.0-173.0","c0vzcj91","[{""page_index"":0,""viewing_time"":1342.7750000000233},{""page_index"":1,""viewing_time"":5667.415000000037},{""page_index"":2,""viewing_time"":1107.0550000000512}]","","","","","","",""
"3310.814999999944","","","instructions","174","675493","0.0-174.0","c0vzcj91","[{""page_index"":0,""viewing_time"":907.7099999999627},{""page_index"":1,""viewing_time"":1809.3699999999953},{""page_index"":2,""viewing_time"":593.6049999999814}]","","","","","","",""
"","","","call-function","175","675494","0.0-175.0","c0vzcj91","","","","","","","",""
"null","","","html-keyboard-response","176","676994","0.0-176.0","c0vzcj91","","<span style=""color:Black; font-size:50px;"">Agent A","null","","","","",""
"null","","","video-keyboard-response","177","680061","0.0-177.0","c0vzcj91","","","null","","Agent A","veridical","STIM_SET_2_144/498258.bmp_pp51_L1_V1.0_veridical_freeview_isoTrue_fps144.mp4",""
"null","","","html-keyboard-response","178","681567","0.0-178.0","c0vzcj91","","<span style=""color:Black; font-size:50px;"">Agent B","null","","","","",""
"null","","","video-keyboard-response","179","684634","0.0-179.0","c0vzcj91","","","null","","Agent B","scrambled","STIM_SET_5/498258.bmp_pp51_L1_V1.0_veridical_freeview_isoTrue_Hflip_fps144.mp4",""
"","","","call-function","180","684635","0.0-180.0","c0vzcj91","","","","","","","",""
"3635.2550000000047","{""judgement"":0}","[0]","survey-likert","181","688271","0.0-181.0","c0vzcj91","","","","","","","","0"
"1345.545000000042","{""confidence"":1}","[0]","survey-likert","182","689618","0.0-182.0","c0vzcj91","","","","","","","",""
"","","","call-function","183","689618","0.0-183.0","c0vzcj91","","","","","","","",""
"null","","","html-keyboard-response","184","691120","0.0-184.0","c0vzcj91","","<span style=""color:Black; font-size:50px;"">Agent A","null","","","","",""
"null","","","video-keyboard-response","185","694184","0.0-185.0","c0vzcj91","","","null","","Agent A","veridical","STIM_SET_2_144/1591920.bmp_pp97_L3_V1_veridical_freeview_isoTrue_fps144.mp4",""
"null","","","html-keyboard-response","186","695687","0.0-186.0","c0vzcj91","","<span style=""color:Black; font-size:50px;"">Agent B","null","","","","",""
"null","","","video-keyboard-response","187","698749","0.0-187.0","c0vzcj91","","","null","","Agent B","scrambled","STIM_SET_5/1591920.bmp_pp97_L3_V1_veridical_freeview_isoTrue_Hflip_fps144.mp4",""
"","","","call-function","188","698749","0.0-188.0","c0vzcj91","","","","","","","",""
"2382.4799999999814","{""judgement"":1}","[0]","survey-likert","189","701133","0.0-189.0","c0vzcj91","","","","","","","","0"
"5887.435000000056","{""confidence"":0}","[0]","survey-likert","190","707021","0.0-190.0","c0vzcj91","","","","","","","",""
"","","","call-function","191","707022","0.0-191.0","c0vzcj91","","","","","","","",""
"null","","","html-keyboard-response","192","708527","0.0-192.0","c0vzcj91","","<span style=""color:Black; font-size:50px;"">Agent A","null","","","","",""
"null","","","video-keyboard-response","193","711603","0.0-193.0","c0vzcj91","","","null","","Agent A","veridical","STIM_SET_2_144/1592951.bmp_pp80_L3_V1.0_veridical_freeview_isoTrue_fps144.mp4",""
"null","","","html-keyboard-response","194","713106","0.0-194.0","c0vzcj91","","<span style=""color:Black; font-size:50px;"">Agent B","null","","","","",""
"null","","","video-keyboard-response","195","716181","0.0-195.0","c0vzcj91","","","null","","Agent B","scrambled","STIM_SET_5/1592951.bmp_pp80_L3_V1.0_veridical_freeview_isoTrue_Hflip_fps144.mp4",""
"","","","call-function","196","716181","0.0-196.0","c0vzcj91","","","","","","","",""
"2180.0650000000605","{""judgement"":1}","[0]","survey-likert","197","718362","0.0-197.0","c0vzcj91","","","","","","","","0"
"2205.2900000000373","{""confidence"":2}","[0]","survey-likert","198","720568","0.0-198.0","c0vzcj91","","","","","","","",""
"","","","call-function","199","720568","0.0-199.0","c0vzcj91","","","","","","","",""
"null","","","html-keyboard-response","200","722076","0.0-200.0","c0vzcj91","","<span style=""color:Black; font-size:50px;"">Agent A","null","","","","",""
"null","","","video-keyboard-response","201","725159","0.0-201.0","c0vzcj91","","","null","","Agent A","scrambled","STIM_SET_5/713274.bmp_pp73_L3_V1.0_veridical_freeview_isoTrue_Hflip_fps144.mp4",""
"null","","","html-keyboard-response","202","726660","0.0-202.0","c0vzcj91","","<span style=""color:Black; font-size:50px;"">Agent B","null","","","","",""
"null","","","video-keyboard-response","203","729745","0.0-203.0","c0vzcj91","","","null","","Agent B","veridical","STIM_SET_2_144/713274.bmp_pp73_L3_V1.0_veridical_freeview_isoTrue_fps144.mp4",""
"","","","call-function","204","729745","0.0-204.0","c0vzcj91","","","","","","","",""
"1672.6149999999907","{""judgement"":0}","[0]","survey-likert","205","731419","0.0-205.0","c0vzcj91","","","","","","","","1"
"1533.045000000042","{""confidence"":0}","[0]","survey-likert","206","732954","0.0-206.0","c0vzcj91","","","","","","","",""
"","","","call-function","207","732955","0.0-207.0","c0vzcj91","","","","","","","",""
"null","","","html-keyboard-response","208","734459","0.0-208.0","c0vzcj91","","<span style=""color:Black; font-size:50px;"">Agent A","null","","","","",""
"null","","","video-keyboard-response","209","737521","0.0-209.0","c0vzcj91","","","null","","Agent A","veridical","STIM_SET_2_144/107955.bmp_pp90_L2_V1.0_veridical_freeview_isoTrue_fps144.mp4",""
"null","","","html-keyboard-response","210","739025","0.0-210.0","c0vzcj91","","<span style=""color:Black; font-size:50px;"">Agent B","null","","","","",""
"null","","","video-keyboard-response","211","742089","0.0-211.0","c0vzcj91","","","null","","Agent B","scrambled","STIM_SET_5/107955.bmp_pp90_L2_V1.0_veridical_freeview_isoTrue_Hflip_fps144.mp4",""
"","","","call-function","212","742089","0.0-212.0","c0vzcj91","","","","","","","",""
"3924.3800000000047","{""judgement"":0}","[0]","survey-likert","213","746015","0.0-213.0","c0vzcj91","","","","","","","","0"
"1850.1600000000326","{""confidence"":1}","[0]","survey-likert","214","747866","0.0-214.0","c0vzcj91","","","","","","","",""
"","","","call-function","215","747867","0.0-215.0","c0vzcj91","","","","","","","",""
"null","","","html-keyboard-response","216","749369","0.0-216.0","c0vzcj91","","<span style=""color:Black; font-size:50px;"">Agent A","null","","","","",""
"null","","","video-keyboard-response","217","752432","0.0-217.0","c0vzcj91","","","null","","Agent A","scrambled","STIM_SET_5/285932.bmp_pp64_L1_V1.0_veridical_freeview_isoTrue_Hflip_fps144.mp4",""
"null","","","html-keyboard-response","218","753934","0.0-218.0","c0vzcj91","","<span style=""color:Black; font-size:50px;"">Agent B","null","","","","",""
"null","","","video-keyboard-response","219","756996","0.0-219.0","c0vzcj91","","","null","","Agent B","veridical","STIM_SET_2_144/285932.bmp_pp64_L1_V1.0_veridical_freeview_isoTrue_fps144.mp4",""
"","","","call-function","220","756996","0.0-220.0","c0vzcj91","","","","","","","",""
"3816.9899999999907","{""judgement"":1}","[0]","survey-likert","221","760814","0.0-221.0","c0vzcj91","","","","","","","","1"
"2029.2849999999162","{""confidence"":1}","[0]","survey-likert","222","762845","0.0-222.0","c0vzcj91","","","","","","","",""
"","","","call-function","223","762845","0.0-223.0","c0vzcj91","","","","","","","",""
"null","","","html-keyboard-response","224","764348","0.0-224.0","c0vzcj91","","<span style=""color:Black; font-size:50px;"">Agent A","null","","","","",""
"null","","","video-keyboard-response","225","767440","0.0-225.0","c0vzcj91","","","null","","Agent A","veridical","STIM_SET_2_144/1592568.bmp_pp71_L1_V1.0_veridical_freeview_isoTrue_fps144.mp4",""
"null","","","html-keyboard-response","226","768945","0.0-226.0","c0vzcj91","","<span style=""color:Black; font-size:50px;"">Agent B","null","","","","",""
"null","","","video-keyboard-response","227","772037","0.0-227.0","c0vzcj91","","","null","","Agent B","scrambled","STIM_SET_5/1592568.bmp_pp71_L1_V1.0_veridical_freeview_isoTrue_Hflip_fps144.mp4",""
"","","","call-function","228","772037","0.0-228.0","c0vzcj91","","","","","","","",""
"3029.8000000000466","{""judgement"":0}","[0]","survey-likert","229","775068","0.0-229.0","c0vzcj91","","","","","","","","0"
"2597.1699999999255","{""confidence"":1}","[0]","survey-likert","230","777666","0.0-230.0","c0vzcj91","","","","","","","",""
"","","","call-function","231","777666","0.0-231.0","c0vzcj91","","","","","","","",""
"null","","","html-keyboard-response","232","779168","0.0-232.0","c0vzcj91","","<span style=""color:Black; font-size:50px;"">Agent A","null","","","","",""
"null","","","video-keyboard-response","233","782257","0.0-233.0","c0vzcj91","","","null","","Agent A","veridical","STIM_SET_2_144/1591781.bmp_pp63_L1_V1.0_veridical_freeview_isoTrue_fps144.mp4",""
"null","","","html-keyboard-response","234","783759","0.0-234.0","c0vzcj91","","<span style=""color:Black; font-size:50px;"">Agent B","null","","","","",""
"null","","","video-keyboard-response","235","786849","0.0-235.0","c0vzcj91","","","null","","Agent B","scrambled","STIM_SET_5/1591781.bmp_pp63_L1_V1.0_veridical_freeview_isoTrue_Hflip_fps144.mp4",""
"","","","call-function","236","786849","0.0-236.0","c0vzcj91","","","","","","","",""
"2320.5299999999115","{""judgement"":0}","[0]","survey-likert","237","789171","0.0-237.0","c0vzcj91","","","","","","","","0"
"1486.7900000000373","{""confidence"":1}","[0]","survey-likert","238","790658","0.0-238.0","c0vzcj91","","","","","","","",""
"","","","call-function","239","790659","0.0-239.0","c0vzcj91","","","","","","","",""
"null","","","html-keyboard-response","240","792160","0.0-240.0","c0vzcj91","","<span style=""color:Black; font-size:50px;"">Agent A","null","","","","",""
"null","","","video-keyboard-response","241","795251","0.0-241.0","c0vzcj91","","","null","","Agent A","veridical","STIM_SET_2_144/1592168.bmp_pp71_L1_V1.0_veridical_freeview_isoTrue_fps144.mp4",""
"null","","","html-keyboard-response","242","796753","0.0-242.0","c0vzcj91","","<span style=""color:Black; font-size:50px;"">Agent B","null","","","","",""
"null","","","video-keyboard-response","243","799842","0.0-243.0","c0vzcj91","","","null","","Agent B","scrambled","STIM_SET_5/1592168.bmp_pp71_L1_V1.0_veridical_freeview_isoTrue_Hflip_fps144.mp4",""
"","","","call-function","244","799842","0.0-244.0","c0vzcj91","","","","","","","",""
"2154.8649999999907","{""judgement"":1}","[0]","survey-likert","245","801998","0.0-245.0","c0vzcj91","","","","","","","","0"
"1694.9099999999162","{""confidence"":1}","[0]","survey-likert","246","803694","0.0-246.0","c0vzcj91","","","","","","","",""
"","","","call-function","247","803695","0.0-247.0","c0vzcj91","","","","","","","",""
"null","","","html-keyboard-response","248","805196","0.0-248.0","c0vzcj91","","<span style=""color:Black; font-size:50px;"">Agent A","null","","","","",""
"null","","","video-keyboard-response","249","808257","0.0-249.0","c0vzcj91","","","null","","Agent A","veridical","STIM_SET_2_144/1591975.bmp_pp88_L2_V1.0_veridical_freeview_isoTrue_fps144.mp4",""
"null","","","html-keyboard-response","250","809758","0.0-250.0","c0vzcj91","","<span style=""color:Black; font-size:50px;"">Agent B","null","","","","",""
"null","","","video-keyboard-response","251","812818","0.0-251.0","c0vzcj91","","","null","","Agent B","scrambled","STIM_SET_5/1591975.bmp_pp88_L2_V1.0_veridical_freeview_isoTrue_Hflip_fps144.mp4",""
"","","","call-function","252","812818","0.0-252.0","c0vzcj91","","","","","","","",""
"2882.5899999999674","{""judgement"":1}","[0]","survey-likert","253","815702","0.0-253.0","c0vzcj91","","","","","","","","0"
"1422.140000000014","{""confidence"":1}","[0]","survey-likert","254","817125","0.0-254.0","c0vzcj91","","","","","","","",""
"70557.06000000006","","","instructions","255","887683","0.0-255.0","c0vzcj91","[{""page_index"":0,""viewing_time"":1054.8350000000792},{""page_index"":1,""viewing_time"":68622.10999999999},{""page_index"":2,""viewing_time"":879.9100000000326}]","","","","","","",""
"2018.5700000000652","","","instructions","256","889703","0.0-256.0","c0vzcj91","[{""page_index"":0,""viewing_time"":696.9749999999767},{""page_index"":1,""viewing_time"":750.4749999999767},{""page_index"":2,""viewing_time"":571.015000000014}]","","","","","","",""
"","","","call-function","257","889704","0.0-257.0","c0vzcj91","","","","","","","",""
"null","","","html-keyboard-response","258","891204","0.0-258.0","c0vzcj91","","<span style=""color:Black; font-size:50px;"">Agent A","null","","","","",""
"null","","","video-keyboard-response","259","894267","0.0-259.0","c0vzcj91","","","null","","Agent A","veridical","STIM_SET_2_144/1592857.bmp_pp52_L1_V1_veridical_freeview_isoTrue_fps144.mp4",""
"null","","","html-keyboard-response","260","895773","0.0-260.0","c0vzcj91","","<span style=""color:Black; font-size:50px;"">Agent B","null","","","","",""
"null","","","video-keyboard-response","261","898848","0.0-261.0","c0vzcj91","","","null","","Agent B","scrambled","STIM_SET_5/1592857.bmp_pp52_L1_V1_veridical_freeview_isoTrue_Hflip_fps144.mp4",""
"","","","call-function","262","898848","0.0-262.0","c0vzcj91","","","","","","","",""
"2669.8300000000745","{""judgement"":1}","[0]","survey-likert","263","901519","0.0-263.0","c0vzcj91","","","","","","","","0"
"1189.0549999999348","{""confidence"":1}","[0]","survey-likert","264","902709","0.0-264.0","c0vzcj91","","","","","","","",""
"","","","call-function","265","902709","0.0-265.0","c0vzcj91","","","","","","","",""
"null","","","html-keyboard-response","266","904211","0.0-266.0","c0vzcj91","","<span style=""color:Black; font-size:50px;"">Agent A","null","","","","",""
"null","","","video-keyboard-response","267","907286","0.0-267.0","c0vzcj91","","","null","","Agent A","scrambled","STIM_SET_5/1592038.bmp_pp79_L2_V1.0_veridical_freeview_isoTrue_Hflip_fps144.mp4",""
"null","","","html-keyboard-response","268","908787","0.0-268.0","c0vzcj91","","<span style=""color:Black; font-size:50px;"">Agent B","null","","","","",""
"null","","","video-keyboard-response","269","911863","0.0-269.0","c0vzcj91","","","null","","Agent B","veridical","STIM_SET_2_144/1592038.bmp_pp79_L2_V1.0_veridical_freeview_isoTrue_fps144.mp4",""
"","","","call-function","270","911864","0.0-270.0","c0vzcj91","","","","","","","",""
"4019.6199999999953","{""judgement"":0}","[0]","survey-likert","271","915885","0.0-271.0","c0vzcj91","","","","","","","","1"
"3979.4949999999953","{""confidence"":0}","[0]","survey-likert","272","919865","0.0-272.0","c0vzcj91","","","","","","","",""
"","","","call-function","273","919866","0.0-273.0","c0vzcj91","","","","","","","",""
"null","","","html-keyboard-response","274","921370","0.0-274.0","c0vzcj91","","<span style=""color:Black; font-size:50px;"">Agent A","null","","","","",""
"null","","","video-keyboard-response","275","924449","0.0-275.0","c0vzcj91","","","null","","Agent A","veridical","STIM_SET_2_144/1159427.bmp_pp98_L1_V1.0_veridical_freeview_isoTrue_fps144.mp4",""
"null","","","html-keyboard-response","276","925953","0.0-276.0","c0vzcj91","","<span style=""color:Black; font-size:50px;"">Agent B","null","","","","",""
"null","","","video-keyboard-response","277","929034","0.0-277.0","c0vzcj91","","","null","","Agent B","scrambled","STIM_SET_5/1159427.bmp_pp98_L1_V1.0_veridical_freeview_isoTrue_Hflip_fps144.mp4",""
"","","","call-function","278","929034","0.0-278.0","c0vzcj91","","","","","","","",""
"2535.4899999999907","{""judgement"":0}","[0]","survey-likert","279","931571","0.0-279.0","c0vzcj91","","","","","","","","0"
"1658.9799999999814","{""confidence"":1}","[0]","survey-likert","280","933231","0.0-280.0","c0vzcj91","","","","","","","",""
"","","","call-function","281","933231","0.0-281.0","c0vzcj91","","","","","","","",""
"null","","","html-keyboard-response","282","934734","0.0-282.0","c0vzcj91","","<span style=""color:Black; font-size:50px;"">Agent A","null","","","","",""
"null","","","video-keyboard-response","283","937810","0.0-283.0","c0vzcj91","","","null","","Agent A","scrambled","STIM_SET_5/1159392.bmp_pp96_L2_V1.0_veridical_freeview_isoTrue_Hflip_fps144.mp4",""
"null","","","html-keyboard-response","284","939317","0.0-284.0","c0vzcj91","","<span style=""color:Black; font-size:50px;"">Agent B","null","","","","",""
"null","","","video-keyboard-response","285","942390","0.0-285.0","c0vzcj91","","","null","","Agent B","veridical","STIM_SET_2_144/1159392.bmp_pp96_L2_V1.0_veridical_freeview_isoTrue_fps144.mp4",""
"","","","call-function","286","942390","0.0-286.0","c0vzcj91","","","","","","","",""
"2639.3950000000186","{""judgement"":1}","[0]","survey-likert","287","945031","0.0-287.0","c0vzcj91","","","","","","","","1"
"1948.8149999999441","{""confidence"":1}","[0]","survey-likert","288","946981","0.0-288.0","c0vzcj91","","","","","","","",""
"","","","call-function","289","946981","0.0-289.0","c0vzcj91","","","","","","","",""
"null","","","html-keyboard-response","290","948487","0.0-290.0","c0vzcj91","","<span style=""color:Black; font-size:50px;"">Agent A","null","","","","",""
"null","","","video-keyboard-response","291","951573","0.0-291.0","c0vzcj91","","","null","","Agent A","veridical","STIM_SET_2_144/1160189.bmp_pp64_L1_V1.0_veridical_freeview_isoTrue_fps144.mp4",""
"null","","","html-keyboard-response","292","953076","0.0-292.0","c0vzcj91","","<span style=""color:Black; font-size:50px;"">Agent B","null","","","","",""
"null","","","video-keyboard-response","293","956160","0.0-293.0","c0vzcj91","","","null","","Agent B","scrambled","STIM_SET_5/1160189.bmp_pp64_L1_V1.0_veridical_freeview_isoTrue_Hflip_fps144.mp4",""
"","","","call-function","294","956160","0.0-294.0","c0vzcj91","","","","","","","",""
"3234.42499999993","{""judgement"":1}","[0]","survey-likert","295","959395","0.0-295.0","c0vzcj91","","","","","","","","0"
"2050.8950000000186","{""confidence"":1}","[0]","survey-likert","296","961447","0.0-296.0","c0vzcj91","","","","","","","",""
"","","","call-function","297","961447","0.0-297.0","c0vzcj91","","","","","","","",""
"null","","","html-keyboard-response","298","962949","0.0-298.0","c0vzcj91","","<span style=""color:Black; font-size:50px;"">Agent A","null","","","","",""
"null","","","video-keyboard-response","299","966033","0.0-299.0","c0vzcj91","","","null","","Agent A","veridical","STIM_SET_2_144/285946.bmp_pp79_L2_V1.0_veridical_freeview_isoTrue_fps144.mp4",""
"null","","","html-keyboard-response","300","967539","0.0-300.0","c0vzcj91","","<span style=""color:Black; font-size:50px;"">Agent B","null","","","","",""
"null","","","video-keyboard-response","301","970622","0.0-301.0","c0vzcj91","","","null","","Agent B","scrambled","STIM_SET_5/285946.bmp_pp79_L2_V1.0_veridical_freeview_isoTrue_Hflip_fps144.mp4",""
"","","","call-function","302","970623","0.0-302.0","c0vzcj91","","","","","","","",""
"5866.429999999935","{""judgement"":0}","[0]","survey-likert","303","976492","0.0-303.0","c0vzcj91","","","","","","","","0"
"2519.4150000000373","{""confidence"":2}","[0]","survey-likert","304","979014","0.0-304.0","c0vzcj91","","","","","","","",""
"","","","call-function","305","979015","0.0-305.0","c0vzcj91","","","","","","","",""
"null","","","html-keyboard-response","306","980518","0.0-306.0","c0vzcj91","","<span style=""color:Black; font-size:50px;"">Agent A","null","","","","",""
"null","","","video-keyboard-response","307","983588","0.0-307.0","c0vzcj91","","","null","","Agent A","scrambled","STIM_SET_5/1592747.bmp_pp53_L2_V1.0_veridical_freeview_isoTrue_Hflip_fps144.mp4",""
"null","","","html-keyboard-response","308","985093","0.0-308.0","c0vzcj91","","<span style=""color:Black; font-size:50px;"">Agent B","null","","","","",""
"null","","","video-keyboard-response","309","988165","0.0-309.0","c0vzcj91","","","null","","Agent B","veridical","STIM_SET_2_144/1592747.bmp_pp53_L2_V1.0_veridical_freeview_isoTrue_fps144.mp4",""
"","","","call-function","310","988165","0.0-310.0","c0vzcj91","","","","","","","",""
"2185.8000000000466","{""judgement"":1}","[0]","survey-likert","311","990352","0.0-311.0","c0vzcj91","","","","","","","","1"
"2946.3699999999953","{""confidence"":0}","[0]","survey-likert","312","993300","0.0-312.0","c0vzcj91","","","","","","","",""
"","","","call-function","313","993300","0.0-313.0","c0vzcj91","","","","","","","",""
"null","","","html-keyboard-response","314","994804","0.0-314.0","c0vzcj91","","<span style=""color:Black; font-size:50px;"">Agent A","null","","","","",""
"null","","","video-keyboard-response","315","997872","0.0-315.0","c0vzcj91","","","null","","Agent A","scrambled","STIM_SET_5/1592530.bmp_pp75_L1_V1.0_veridical_freeview_isoTrue_Hflip_fps144.mp4",""
"null","","","html-keyboard-response","316","999376","0.0-316.0","c0vzcj91","","<span style=""color:Black; font-size:50px;"">Agent B","null","","","","",""
"null","","","video-keyboard-response","317","1002443","0.0-317.0","c0vzcj91","","","null","","Agent B","veridical","STIM_SET_2_144/1592530.bmp_pp75_L1_V1.0_veridical_freeview_isoTrue_fps144.mp4",""
"","","","call-function","318","1002444","0.0-318.0","c0vzcj91","","","","","","","",""
"6057.415000000037","{""judgement"":0}","[0]","survey-likert","319","1008502","0.0-319.0","c0vzcj91","","","","","","","","1"
"2070.1849999999395","{""confidence"":1}","[0]","survey-likert","320","1010573","0.0-320.0","c0vzcj91","","","","","","","",""
"","","","call-function","321","1010573","0.0-321.0","c0vzcj91","","","","","","","",""
"null","","","html-keyboard-response","322","1012075","0.0-322.0","c0vzcj91","","<span style=""color:Black; font-size:50px;"">Agent A","null","","","","",""
"null","","","video-keyboard-response","323","1015155","0.0-323.0","c0vzcj91","","","null","","Agent A","scrambled","STIM_SET_5/1592150.bmp_pp77_L3_V1.0_veridical_freeview_isoTrue_Hflip_fps144.mp4",""
"null","","","html-keyboard-response","324","1016658","0.0-324.0","c0vzcj91","","<span style=""color:Black; font-size:50px;"">Agent B","null","","","","",""
"null","","","video-keyboard-response","325","1019733","0.0-325.0","c0vzcj91","","","null","","Agent B","veridical","STIM_SET_2_144/1592150.bmp_pp77_L3_V1.0_veridical_freeview_isoTrue_fps144.mp4",""
"","","","call-function","326","1019733","0.0-326.0","c0vzcj91","","","","","","","",""
"1720.7850000000326","{""judgement"":1}","[0]","survey-likert","327","1021455","0.0-327.0","c0vzcj91","","","","","","","","1"
"2291.115000000107","{""confidence"":1}","[0]","survey-likert","328","1023748","0.0-328.0","c0vzcj91","","","","","","","",""
"","","","call-function","329","1023748","0.0-329.0","c0vzcj91","","","","","","","",""
"null","","","html-keyboard-response","330","1025253","0.0-330.0","c0vzcj91","","<span style=""color:Black; font-size:50px;"">Agent A","null","","","","",""
"null","","","video-keyboard-response","331","1028329","0.0-331.0","c0vzcj91","","","null","","Agent A","veridical","STIM_SET_2_144/1160049.bmp_pp53_L2_V1.0_veridical_freeview_isoTrue_fps144.mp4",""
"null","","","html-keyboard-response","332","1029833","0.0-332.0","c0vzcj91","","<span style=""color:Black; font-size:50px;"">Agent B","null","","","","",""
"null","","","video-keyboard-response","333","1032906","0.0-333.0","c0vzcj91","","","null","","Agent B","scrambled","STIM_SET_5/1160049.bmp_pp53_L2_V1.0_veridical_freeview_isoTrue_Hflip_fps144.mp4",""
"","","","call-function","334","1032907","0.0-334.0","c0vzcj91","","","","","","","",""
"1775.9499999999534","{""judgement"":0}","[0]","survey-likert","335","1034683","0.0-335.0","c0vzcj91","","","","","","","","0"
"1755.5849999999627","{""confidence"":1}","[0]","survey-likert","336","1036440","0.0-336.0","c0vzcj91","","","","","","","",""
"2573.9250000000466","","","instructions","337","1039014","0.0-337.0","c0vzcj91","[{""page_index"":0,""viewing_time"":1022.2449999999953},{""page_index"":1,""viewing_time"":796.0500000000466},{""page_index"":2,""viewing_time"":755.4649999999674}]","","","","","","",""
"2809.1049999999814","","","instructions","338","1041824","0.0-338.0","c0vzcj91","[{""page_index"":0,""viewing_time"":695.015000000014},{""page_index"":1,""viewing_time"":1469.3649999999907},{""page_index"":2,""viewing_time"":644.6199999999953}]","","","","","","",""
"","","","call-function","339","1041824","0.0-339.0","c0vzcj91","","","","","","","",""
"null","","","html-keyboard-response","340","1043327","0.0-340.0","c0vzcj91","","<span style=""color:Black; font-size:50px;"">Agent A","null","","","","",""
"null","","","video-keyboard-response","341","1046404","0.0-341.0","c0vzcj91","","","null","","Agent A","veridical","STIM_SET_2_144/286034.bmp_pp69_L3_V1.0_veridical_freeview_isoTrue_fps144.mp4",""
"null","","","html-keyboard-response","342","1047905","0.0-342.0","c0vzcj91","","<span style=""color:Black; font-size:50px;"">Agent B","null","","","","",""
"null","","","video-keyboard-response","343","1050967","0.0-343.0","c0vzcj91","","","null","","Agent B","scrambled","STIM_SET_5/286034.bmp_pp69_L3_V1.0_veridical_freeview_isoTrue_Hflip_fps144.mp4",""
"","","","call-function","344","1050967","0.0-344.0","c0vzcj91","","","","","","","",""
"3157.530000000028","{""judgement"":1}","[0]","survey-likert","345","1054126","0.0-345.0","c0vzcj91","","","","","","","","0"
"1614.8950000000186","{""confidence"":1}","[0]","survey-likert","346","1055743","0.0-346.0","c0vzcj91","","","","","","","",""
"","","","call-function","347","1055744","0.0-347.0","c0vzcj91","","","","","","","",""
"null","","","html-keyboard-response","348","1057258","0.0-348.0","c0vzcj91","","<span style=""color:Black; font-size:50px;"">Agent A","null","","","","",""
"null","","","video-keyboard-response","349","1060321","0.0-349.0","c0vzcj91","","","null","","Agent A","scrambled","STIM_SET_5/713829.bmp_pp60_L3_V1.0_veridical_freeview_isoTrue_Hflip_fps144.mp4",""
"null","","","html-keyboard-response","350","1061826","0.0-350.0","c0vzcj91","","<span style=""color:Black; font-size:50px;"">Agent B","null","","","","",""
"null","","","video-keyboard-response","351","1064890","0.0-351.0","c0vzcj91","","","null","","Agent B","veridical","STIM_SET_2_144/713829.bmp_pp60_L3_V1.0_veridical_freeview_isoTrue_fps144.mp4",""
"","","","call-function","352","1064891","0.0-352.0","c0vzcj91","","","","","","","",""
"2302.625","{""judgement"":0}","[0]","survey-likert","353","1067194","0.0-353.0","c0vzcj91","","","","","","","","1"
"2807.8300000000745","{""confidence"":0}","[0]","survey-likert","354","1070003","0.0-354.0","c0vzcj91","","","","","","","",""
"","","","call-function","355","1070004","0.0-355.0","c0vzcj91","","","","","","","",""
"null","","","html-keyboard-response","356","1071506","0.0-356.0","c0vzcj91","","<span style=""color:Black; font-size:50px;"">Agent A","null","","","","",""
"null","","","video-keyboard-response","357","1074583","0.0-357.0","c0vzcj91","","","null","","Agent A","scrambled","STIM_SET_5/713633.bmp_pp58_L1_V1.0_veridical_freeview_isoTrue_Hflip_fps144.mp4",""
"null","","","html-keyboard-response","358","1076087","0.0-358.0","c0vzcj91","","<span style=""color:Black; font-size:50px;"">Agent B","null","","","","",""
"null","","","video-keyboard-response","359","1079166","0.0-359.0","c0vzcj91","","","null","","Agent B","veridical","STIM_SET_2_144/713633.bmp_pp58_L1_V1.0_veridical_freeview_isoTrue_fps144.mp4",""
"","","","call-function","360","1079167","0.0-360.0","c0vzcj91","","","","","","","",""
"3310.9799999999814","{""judgement"":0}","[0]","survey-likert","361","1082479","0.0-361.0","c0vzcj91","","","","","","","","1"
"3466.524999999907","{""confidence"":0}","[0]","survey-likert","362","1085946","0.0-362.0","c0vzcj91","","","","","","","",""
"","","","call-function","363","1085947","0.0-363.0","c0vzcj91","","","","","","","",""
"null","","","html-keyboard-response","364","1087452","0.0-364.0","c0vzcj91","","<span style=""color:Black; font-size:50px;"">Agent A","null","","","","",""
"null","","","video-keyboard-response","365","1090541","0.0-365.0","c0vzcj91","","","null","","Agent A","veridical","STIM_SET_2_144/1592201.bmp_pp97_L3_V1.0_veridical_freeview_isoTrue_fps144.mp4",""
"null","","","html-keyboard-response","366","1092048","0.0-366.0","c0vzcj91","","<span style=""color:Black; font-size:50px;"">Agent B","null","","","","",""
"null","","","video-keyboard-response","367","1095132","0.0-367.0","c0vzcj91","","","null","","Agent B","scrambled","STIM_SET_5/1592201.bmp_pp97_L3_V1.0_veridical_freeview_isoTrue_Hflip_fps144.mp4",""
"","","","call-function","368","1095132","0.0-368.0","c0vzcj91","","","","","","","",""
"1752.9750000000931","{""judgement"":0}","[0]","survey-likert","369","1096886","0.0-369.0","c0vzcj91","","","","","","","","0"
"2042.2949999999255","{""confidence"":2}","[0]","survey-likert","370","1098929","0.0-370.0","c0vzcj91","","","","","","","",""
"","","","call-function","371","1098930","0.0-371.0","c0vzcj91","","","","","","","",""
"null","","","html-keyboard-response","372","1100434","0.0-372.0","c0vzcj91","","<span style=""color:Black; font-size:50px;"">Agent A","null","","","","",""
"null","","","video-keyboard-response","373","1103517","0.0-373.0","c0vzcj91","","","null","","Agent A","veridical","STIM_SET_2_144/498261.bmp_pp84_L3_V1.0_veridical_freeview_isoTrue_fps144.mp4",""
"null","","","html-keyboard-response","374","1105018","0.0-374.0","c0vzcj91","","<span style=""color:Black; font-size:50px;"">Agent B","null","","","","",""
"null","","","video-keyboard-response","375","1108102","0.0-375.0","c0vzcj91","","","null","","Agent B","scrambled","STIM_SET_5/498261.bmp_pp84_L3_V1.0_veridical_freeview_isoTrue_Hflip_fps144.mp4",""
"","","","call-function","376","1108102","0.0-376.0","c0vzcj91","","","","","","","",""
"4307.979999999981","{""judgement"":1}","[0]","survey-likert","377","1112411","0.0-377.0","c0vzcj91","","","","","","","","0"
"2928.784999999916","{""confidence"":1}","[0]","survey-likert","378","1115341","0.0-378.0","c0vzcj91","","","","","","","",""
"","","","call-function","379","1115341","0.0-379.0","c0vzcj91","","","","","","","",""
"null","","","html-keyboard-response","380","1116846","0.0-380.0","c0vzcj91","","<span style=""color:Black; font-size:50px;"">Agent A","null","","","","",""
"null","","","video-keyboard-response","381","1119930","0.0-381.0","c0vzcj91","","","null","","Agent A","veridical","STIM_SET_2_144/1592921.bmp_pp69_L3_V1.0_veridical_freeview_isoTrue_fps144.mp4",""
"null","","","html-keyboard-response","382","1121434","0.0-382.0","c0vzcj91","","<span style=""color:Black; font-size:50px;"">Agent B","null","","","","",""
"null","","","video-keyboard-response","383","1124501","0.0-383.0","c0vzcj91","","","null","","Agent B","scrambled","STIM_SET_5/1592921.bmp_pp69_L3_V1.0_veridical_freeview_isoTrue_Hflip_fps144.mp4",""
"","","","call-function","384","1124502","0.0-384.0","c0vzcj91","","","","","","","",""
"2346.625","{""judgement"":0}","[0]","survey-likert","385","1126849","0.0-385.0","c0vzcj91","","","","","","","","0"
"1601.0200000000186","{""confidence"":1}","[0]","survey-likert","386","1128451","0.0-386.0","c0vzcj91","","","","","","","",""
"","","","call-function","387","1128452","0.0-387.0","c0vzcj91","","","","","","","",""
"null","","","html-keyboard-response","388","1129957","0.0-388.0","c0vzcj91","","<span style=""color:Black; font-size:50px;"">Agent A","null","","","","",""
"null","","","video-keyboard-response","389","1133032","0.0-389.0","c0vzcj91","","","null","","Agent A","scrambled","STIM_SET_5/713770.bmp_pp89_L1_V1.0_veridical_freeview_isoTrue_Hflip_fps144.mp4",""
"null","","","html-keyboard-response","390","1134538","0.0-390.0","c0vzcj91","","<span style=""color:Black; font-size:50px;"">Agent B","null","","","","",""
"null","","","video-keyboard-response","391","1137635","0.0-391.0","c0vzcj91","","","null","","Agent B","veridical","STIM_SET_2_144/713770.bmp_pp89_L1_V1.0_veridical_freeview_isoTrue_fps144.mp4",""
"","","","call-function","392","1137635","0.0-392.0","c0vzcj91","","","","","","","",""
"1844.4250000000466","{""judgement"":1}","[0]","survey-likert","393","1139481","0.0-393.0","c0vzcj91","","","","","","","","1"
"1590.5100000000093","{""confidence"":1}","[0]","survey-likert","394","1141072","0.0-394.0","c0vzcj91","","","","","","","",""
"","","","call-function","395","1141072","0.0-395.0","c0vzcj91","","","","","","","",""
"null","","","html-keyboard-response","396","1142574","0.0-396.0","c0vzcj91","","<span style=""color:Black; font-size:50px;"">Agent A","null","","","","",""
"null","","","video-keyboard-response","397","1145639","0.0-397.0","c0vzcj91","","","null","","Agent A","veridical","STIM_SET_2_144/498326.bmp_pp57_L1_V1.0_veridical_freeview_isoTrue_fps144.mp4",""
"null","","","html-keyboard-response","398","1147143","0.0-398.0","c0vzcj91","","<span style=""color:Black; font-size:50px;"">Agent B","null","","","","",""
"null","","","video-keyboard-response","399","1150205","0.0-399.0","c0vzcj91","","","null","","Agent B","scrambled","STIM_SET_5/498326.bmp_pp57_L1_V1.0_veridical_freeview_isoTrue_Hflip_fps144.mp4",""
"","","","call-function","400","1150205","0.0-400.0","c0vzcj91","","","","","","","",""
"3817.475000000093","{""judgement"":0}","[0]","survey-likert","401","1154024","0.0-401.0","c0vzcj91","","","","","","","","0"
"2130.4550000000745","{""confidence"":1}","[0]","survey-likert","402","1156157","0.0-402.0","c0vzcj91","","","","","","","",""
"","","","call-function","403","1156158","0.0-403.0","c0vzcj91","","","","","","","",""
"null","","","html-keyboard-response","404","1157661","0.0-404.0","c0vzcj91","","<span style=""color:Black; font-size:50px;"">Agent A","null","","","","",""
"null","","","video-keyboard-response","405","1160725","0.0-405.0","c0vzcj91","","","null","","Agent A","scrambled","STIM_SET_5/1592047.bmp_pp51_L1_V1.0_veridical_freeview_isoTrue_Hflip_fps144.mp4",""
"null","","","html-keyboard-response","406","1162227","0.0-406.0","c0vzcj91","","<span style=""color:Black; font-size:50px;"">Agent B","null","","","","",""
"null","","","video-keyboard-response","407","1165292","0.0-407.0","c0vzcj91","","","null","","Agent B","veridical","STIM_SET_2_144/1592047.bmp_pp51_L1_V1.0_veridical_freeview_isoTrue_fps144.mp4",""
"","","","call-function","408","1165293","0.0-408.0","c0vzcj91","","","","","","","",""
"1800.779999999795","{""judgement"":1}","[0]","survey-likert","409","1167095","0.0-409.0","c0vzcj91","","","","","","","","1"
"1591.7350000001024","{""confidence"":1}","[0]","survey-likert","410","1168688","0.0-410.0","c0vzcj91","","","","","","","",""
"","","","call-function","411","1168689","0.0-411.0","c0vzcj91","","","","","","","",""
"null","","","html-keyboard-response","412","1170191","0.0-412.0","c0vzcj91","","<span style=""color:Black; font-size:50px;"">Agent A","null","","","","",""
"null","","","video-keyboard-response","413","1173254","0.0-413.0","c0vzcj91","","","null","","Agent A","scrambled","STIM_SET_5/713328.bmp_pp86_L2_V1.0_veridical_freeview_isoTrue_Hflip_fps144.mp4",""
"null","","","html-keyboard-response","414","1174757","0.0-414.0","c0vzcj91","","<span style=""color:Black; font-size:50px;"">Agent B","null","","","","",""
"null","","","video-keyboard-response","415","1177822","0.0-415.0","c0vzcj91","","","null","","Agent B","veridical","STIM_SET_2_144/713328.bmp_pp86_L2_V1.0_veridical_freeview_isoTrue_fps144.mp4",""
"","","","call-function","416","1177823","0.0-416.0","c0vzcj91","","","","","","","",""
"3119.8899999998976","{""judgement"":0}","[0]","survey-likert","417","1180943","0.0-417.0","c0vzcj91","","","","","","","","1"
"3244.0849999999627","{""confidence"":1}","[0]","survey-likert","418","1184188","0.0-418.0","c0vzcj91","","","","","","","",""
"5620.110000000102","","","instructions","419","1189809","0.0-419.0","c0vzcj91","[{""page_index"":0,""viewing_time"":2137.060000000056},{""page_index"":1,""viewing_time"":2284.1299999998882},{""page_index"":2,""viewing_time"":1198.7650000001304}]","","","","","","",""
"2968.0750000001863","","","instructions","420","1192777","0.0-420.0","c0vzcj91","[{""page_index"":0,""viewing_time"":1083.5750000001863},{""page_index"":1,""viewing_time"":1116.7849999999162},{""page_index"":2,""viewing_time"":767.5999999998603}]","","","","","","",""
"","","","call-function","421","1192778","0.0-421.0","c0vzcj91","","","","","","","",""
"null","","","html-keyboard-response","422","1194279","0.0-422.0","c0vzcj91","","<span style=""color:Black; font-size:50px;"">Agent A","null","","","","",""
"null","","","video-keyboard-response","423","1197370","0.0-423.0","c0vzcj91","","","null","","Agent A","scrambled","STIM_SET_5/713790.bmp_pp100_L3_V1_veridical_freeview_isoTrue_Hflip_fps144.mp4",""
"null","","","html-keyboard-response","424","1198875","0.0-424.0","c0vzcj91","","<span style=""color:Black; font-size:50px;"">Agent B","null","","","","",""
"null","","","video-keyboard-response","425","1201964","0.0-425.0","c0vzcj91","","","null","","Agent B","veridical","STIM_SET_2_144/713790.bmp_pp100_L3_V1_veridical_freeview_isoTrue_fps144.mp4",""
"","","","call-function","426","1201964","0.0-426.0","c0vzcj91","","","","","","","",""
"2948.4150000000373","{""judgement"":0}","[0]","survey-likert","427","1204913","0.0-427.0","c0vzcj91","","","","","","","","1"
"2736.480000000214","{""confidence"":1}","[0]","survey-likert","428","1207651","0.0-428.0","c0vzcj91","","","","","","","",""
"","","","call-function","429","1207651","0.0-429.0","c0vzcj91","","","","","","","",""
"null","","","html-keyboard-response","430","1209154","0.0-430.0","c0vzcj91","","<span style=""color:Black; font-size:50px;"">Agent A","null","","","","",""
"null","","","video-keyboard-response","431","1212237","0.0-431.0","c0vzcj91","","","null","","Agent A","scrambled","STIM_SET_5/1160204.bmp_pp54_L2_V1.0_veridical_freeview_isoTrue_Hflip_fps144.mp4",""
"null","","","html-keyboard-response","432","1213742","0.0-432.0","c0vzcj91","","<span style=""color:Black; font-size:50px;"">Agent B","null","","","","",""
"null","","","video-keyboard-response","433","1216827","0.0-433.0","c0vzcj91","","","null","","Agent B","veridical","STIM_SET_2_144/1160204.bmp_pp54_L2_V1.0_veridical_freeview_isoTrue_fps144.mp4",""
"","","","call-function","434","1216827","0.0-434.0","c0vzcj91","","","","","","","",""
"2202.5500000000466","{""judgement"":1}","[0]","survey-likert","435","1219031","0.0-435.0","c0vzcj91","","","","","","","","1"
"3090.6099999998696","{""confidence"":1}","[0]","survey-likert","436","1222122","0.0-436.0","c0vzcj91","","","","","","","",""
"","","","call-function","437","1222123","0.0-437.0","c0vzcj91","","","","","","","",""
"null","","","html-keyboard-response","438","1223625","0.0-438.0","c0vzcj91","","<span style=""color:Black; font-size:50px;"">Agent A","null","","","","",""
"null","","","video-keyboard-response","439","1226694","0.0-439.0","c0vzcj91","","","null","","Agent A","veridical","STIM_SET_2_144/1592289.bmp_pp92_L3_V1.0_veridical_freeview_isoTrue_fps144.mp4",""
"null","","","html-keyboard-response","440","1228199","0.0-440.0","c0vzcj91","","<span style=""color:Black; font-size:50px;"">Agent B","null","","","","",""
"null","","","video-keyboard-response","441","1231265","0.0-441.0","c0vzcj91","","","null","","Agent B","scrambled","STIM_SET_5/1592289.bmp_pp92_L3_V1.0_veridical_freeview_isoTrue_Hflip_fps144.mp4",""
"","","","call-function","442","1231266","0.0-442.0","c0vzcj91","","","","","","","",""
"1992.7399999999907","{""judgement"":0}","[0]","survey-likert","443","1233260","0.0-443.0","c0vzcj91","","","","","","","","0"
"3534.155000000028","{""confidence"":0}","[0]","survey-likert","444","1236795","0.0-444.0","c0vzcj91","","","","","","","",""
"","","","call-function","445","1236796","0.0-445.0","c0vzcj91","","","","","","","",""
"null","","","html-keyboard-response","446","1238301","0.0-446.0","c0vzcj91","","<span style=""color:Black; font-size:50px;"">Agent A","null","","","","",""
"null","","","video-keyboard-response","447","1241364","0.0-447.0","c0vzcj91","","","null","","Agent A","scrambled","STIM_SET_5/1592314.bmp_pp100_L3_V1.0_veridical_freeview_isoTrue_Hflip_fps144.mp4",""
"null","","","html-keyboard-response","448","1242868","0.0-448.0","c0vzcj91","","<span style=""color:Black; font-size:50px;"">Agent B","null","","","","",""
"null","","","video-keyboard-response","449","1245928","0.0-449.0","c0vzcj91","","","null","","Agent B","veridical","STIM_SET_2_144/1592314.bmp_pp100_L3_V1.0_veridical_freeview_isoTrue_fps144.mp4",""
"","","","call-function","450","1245929","0.0-450.0","c0vzcj91","","","","","","","",""
"2977.405000000028","{""judgement"":1}","[0]","survey-likert","451","1248907","0.0-451.0","c0vzcj91","","","","","","","","1"
"3116.7299999999814","{""confidence"":1}","[0]","survey-likert","452","1252025","0.0-452.0","c0vzcj91","","","","","","","",""
"","","","call-function","453","1252025","0.0-453.0","c0vzcj91","","","","","","","",""
"null","","","html-keyboard-response","454","1253527","0.0-454.0","c0vzcj91","","<span style=""color:Black; font-size:50px;"">Agent A","null","","","","",""
"null","","","video-keyboard-response","455","1256609","0.0-455.0","c0vzcj91","","","null","","Agent A","scrambled","STIM_SET_5/1159973.bmp_pp98_L1_V1.0_veridical_freeview_isoTrue_Hflip_fps144.mp4",""
"null","","","html-keyboard-response","456","1258116","0.0-456.0","c0vzcj91","","<span style=""color:Black; font-size:50px;"">Agent B","null","","","","",""
"null","","","video-keyboard-response","457","1261199","0.0-457.0","c0vzcj91","","","null","","Agent B","veridical","STIM_SET_2_144/1159973.bmp_pp98_L1_V1.0_veridical_freeview_isoTrue_fps144.mp4",""
"","","","call-function","458","1261199","0.0-458.0","c0vzcj91","","","","","","","",""
"2352.189999999944","{""judgement"":0}","[0]","survey-likert","459","1263552","0.0-459.0","c0vzcj91","","","","","","","","1"
"4057.1400000001304","{""confidence"":1}","[0]","survey-likert","460","1267610","0.0-460.0","c0vzcj91","","","","","","","",""
"","","","call-function","461","1267611","0.0-461.0","c0vzcj91","","","","","","","",""
"null","","","html-keyboard-response","462","1269114","0.0-462.0","c0vzcj91","","<span style=""color:Black; font-size:50px;"">Agent A","null","","","","",""
"null","","","video-keyboard-response","463","1272199","0.0-463.0","c0vzcj91","","","null","","Agent A","veridical","STIM_SET_2_144/1592567.bmp_pp70_L2_V1.0_veridical_freeview_isoTrue_fps144.mp4",""
"null","","","html-keyboard-response","464","1273706","0.0-464.0","c0vzcj91","","<span style=""color:Black; font-size:50px;"">Agent B","null","","","","",""
"null","","","video-keyboard-response","465","1276768","0.0-465.0","c0vzcj91","","","null","","Agent B","scrambled","STIM_SET_5/1592567.bmp_pp70_L2_V1.0_veridical_freeview_isoTrue_Hflip_fps144.mp4",""
"","","","call-function","466","1276770","0.0-466.0","c0vzcj91","","","","","","","",""
"2327.935000000056","{""judgement"":0}","[0]","survey-likert","467","1279099","0.0-467.0","c0vzcj91","","","","","","","","0"
"2634.3850000000093","{""confidence"":0}","[0]","survey-likert","468","1281735","0.0-468.0","c0vzcj91","","","","","","","",""
"","","","call-function","469","1281735","0.0-469.0","c0vzcj91","","","","","","","",""
"null","","","html-keyboard-response","470","1283236","0.0-470.0","c0vzcj91","","<span style=""color:Black; font-size:50px;"">Agent A","null","","","","",""
"null","","","video-keyboard-response","471","1286309","0.0-471.0","c0vzcj91","","","null","","Agent A","scrambled","STIM_SET_5/150463.bmp_pp55_L3_V1.0_veridical_freeview_isoTrue_Hflip_fps144.mp4",""
"null","","","html-keyboard-response","472","1287813","0.0-472.0","c0vzcj91","","<span style=""color:Black; font-size:50px;"">Agent B","null","","","","",""
"null","","","video-keyboard-response","473","1290886","0.0-473.0","c0vzcj91","","","null","","Agent B","veridical","STIM_SET_2_144/150463.bmp_pp55_L3_V1.0_veridical_freeview_isoTrue_fps144.mp4",""
"","","","call-function","474","1290886","0.0-474.0","c0vzcj91","","","","","","","",""
"2893.1400000001304","{""judgement"":1}","[0]","survey-likert","475","1293780","0.0-475.0","c0vzcj91","","","","","","","","1"
"1377.9099999999162","{""confidence"":1}","[0]","survey-likert","476","1295160","0.0-476.0","c0vzcj91","","","","","","","",""
"","","","call-function","477","1295160","0.0-477.0","c0vzcj91","","","","","","","",""
"null","","","html-keyboard-response","478","1296662","0.0-478.0","c0vzcj91","","<span style=""color:Black; font-size:50px;"">Agent A","null","","","","",""
"null","","","video-keyboard-response","479","1299741","0.0-479.0","c0vzcj91","","","null","","Agent A","scrambled","STIM_SET_5/713381.bmp_pp82_L2_V1.0_veridical_freeview_isoTrue_Hflip_fps144.mp4",""
"null","","","html-keyboard-response","480","1301247","0.0-480.0","c0vzcj91","","<span style=""color:Black; font-size:50px;"">Agent B","null","","","","",""
"null","","","video-keyboard-response","481","1304336","0.0-481.0","c0vzcj91","","","null","","Agent B","veridical","STIM_SET_2_144/713381.bmp_pp82_L2_V1.0_veridical_freeview_isoTrue_fps144.mp4",""
"","","","call-function","482","1304336","0.0-482.0","c0vzcj91","","","","","","","",""
"1703.8049999999348","{""judgement"":1}","[0]","survey-likert","483","1306041","0.0-483.0","c0vzcj91","","","","","","","","1"
"2331.505000000121","{""confidence"":1}","[0]","survey-likert","484","1308373","0.0-484.0","c0vzcj91","","","","","","","",""
"","","","call-function","485","1308374","0.0-485.0","c0vzcj91","","","","","","","",""
"null","","","html-keyboard-response","486","1309876","0.0-486.0","c0vzcj91","","<span style=""color:Black; font-size:50px;"">Agent A","null","","","","",""
"null","","","video-keyboard-response","487","1312967","0.0-487.0","c0vzcj91","","","null","","Agent A","scrambled","STIM_SET_5/1159874.bmp_pp96_L2_V1.0_veridical_freeview_isoTrue_Hflip_fps144.mp4",""
"null","","","html-keyboard-response","488","1314474","0.0-488.0","c0vzcj91","","<span style=""color:Black; font-size:50px;"">Agent B","null","","","","",""
"null","","","video-keyboard-response","489","1317562","0.0-489.0","c0vzcj91","","","null","","Agent B","veridical","STIM_SET_2_144/1159874.bmp_pp96_L2_V1.0_veridical_freeview_isoTrue_fps144.mp4",""
"","","","call-function","490","1317563","0.0-490.0","c0vzcj91","","","","","","","",""
"2920.8599999998696","{""judgement"":1}","[0]","survey-likert","491","1320484","0.0-491.0","c0vzcj91","","","","","","","","1"
"1618.1299999998882","{""confidence"":1}","[0]","survey-likert","492","1322104","0.0-492.0","c0vzcj91","","","","","","","",""
"","","","call-function","493","1322104","0.0-493.0","c0vzcj91","","","","","","","",""
"null","","","html-keyboard-response","494","1323608","0.0-494.0","c0vzcj91","","<span style=""color:Black; font-size:50px;"">Agent A","null","","","","",""
"null","","","video-keyboard-response","495","1326704","0.0-495.0","c0vzcj91","","","null","","Agent A","scrambled","STIM_SET_5/498025.bmp_pp81_L1_V1.0_veridical_freeview_isoTrue_Hflip_fps144.mp4",""
"null","","","html-keyboard-response","496","1328206","0.0-496.0","c0vzcj91","","<span style=""color:Black; font-size:50px;"">Agent B","null","","","","",""
"null","","","video-keyboard-response","497","1331300","0.0-497.0","c0vzcj91","","","null","","Agent B","veridical","STIM_SET_2_144/498025.bmp_pp81_L1_V1.0_veridical_freeview_isoTrue_fps144.mp4",""
"","","","call-function","498","1331300","0.0-498.0","c0vzcj91","","","","","","","",""
"5702.470000000205","{""judgement"":0}","[0]","survey-likert","499","1337004","0.0-499.0","c0vzcj91","","","","","","","","1"
"3899.7450000001118","{""confidence"":2}","[0]","survey-likert","500","1340904","0.0-500.0","c0vzcj91","","","","","","","",""
"123388.52500000014","","","instructions","501","1464294","0.0-501.0","c0vzcj91","[{""page_index"":0,""viewing_time"":1762.0150000001304},{""page_index"":1,""viewing_time"":911.3850000000093},{""page_index"":2,""viewing_time"":120714.93499999982}]","","","","","","",""
"2070.6399999998976","","","instructions","502","1466365","0.0-502.0","c0vzcj91","[{""page_index"":0,""viewing_time"":659.5100000000093},{""page_index"":1,""viewing_time"":931.4049999997951},{""page_index"":2,""viewing_time"":479.61000000010245}]","","","","","","",""
"","","","call-function","503","1466365","0.0-503.0","c0vzcj91","","","","","","","",""
"null","","","html-keyboard-response","504","1467869","0.0-504.0","c0vzcj91","","<span style=""color:Black; font-size:50px;"">Agent A","null","","","","",""
"null","","","video-keyboard-response","505","1470929","0.0-505.0","c0vzcj91","","","null","","Agent A","scrambled","STIM_SET_5/713652.bmp_pp89_L1_V1_veridical_freeview_isoTrue_Hflip_fps144.mp4",""
"null","","","html-keyboard-response","506","1472432","0.0-506.0","c0vzcj91","","<span style=""color:Black; font-size:50px;"">Agent B","null","","","","",""
"null","","","video-keyboard-response","507","1475493","0.0-507.0","c0vzcj91","","","null","","Agent B","veridical","STIM_SET_2_144/713652.bmp_pp89_L1_V1_veridical_freeview_isoTrue_fps144.mp4",""
"","","","call-function","508","1475493","0.0-508.0","c0vzcj91","","","","","","","",""
"1806.6099999998696","{""judgement"":1}","[0]","survey-likert","509","1477300","0.0-509.0","c0vzcj91","","","","","","","","1"
"3005.4199999999255","{""confidence"":2}","[0]","survey-likert","510","1480307","0.0-510.0","c0vzcj91","","","","","","","",""
"","","","call-function","511","1480309","0.0-511.0","c0vzcj91","","","","","","","",""
"null","","","html-keyboard-response","512","1481814","0.0-512.0","c0vzcj91","","<span style=""color:Black; font-size:50px;"">Agent A","null","","","","",""
"null","","","video-keyboard-response","513","1484889","0.0-513.0","c0vzcj91","","","null","","Agent A","veridical","STIM_SET_2_144/713858.bmp_pp57_L1_V1.0_veridical_freeview_isoTrue_fps144.mp4",""
"null","","","html-keyboard-response","514","1486395","0.0-514.0","c0vzcj91","","<span style=""color:Black; font-size:50px;"">Agent B","null","","","","",""
"null","","","video-keyboard-response","515","1489470","0.0-515.0","c0vzcj91","","","null","","Agent B","scrambled","STIM_SET_5/713858.bmp_pp57_L1_V1.0_veridical_freeview_isoTrue_Hflip_fps144.mp4",""
"","","","call-function","516","1489471","0.0-516.0","c0vzcj91","","","","","","","",""
"1437.2549999998882","{""judgement"":0}","[0]","survey-likert","517","1490910","0.0-517.0","c0vzcj91","","","","","","","","0"
"1955.0400000000373","{""confidence"":1}","[0]","survey-likert","518","1492866","0.0-518.0","c0vzcj91","","","","","","","",""
"","","","call-function","519","1492866","0.0-519.0","c0vzcj91","","","","","","","",""
"null","","","html-keyboard-response","520","1494368","0.0-520.0","c0vzcj91","","<span style=""color:Black; font-size:50px;"">Agent A","null","","","","",""
"null","","","video-keyboard-response","521","1497437","0.0-521.0","c0vzcj91","","","null","","Agent A","veridical","STIM_SET_2_144/1159329.bmp_pp61_L2_V1.0_veridical_freeview_isoTrue_fps144.mp4",""
"null","","","html-keyboard-response","522","1498943","0.0-522.0","c0vzcj91","","<span style=""color:Black; font-size:50px;"">Agent B","null","","","","",""
"null","","","video-keyboard-response","523","1502014","0.0-523.0","c0vzcj91","","","null","","Agent B","scrambled","STIM_SET_5/1159329.bmp_pp61_L2_V1.0_veridical_freeview_isoTrue_Hflip_fps144.mp4",""
"","","","call-function","524","1502014","0.0-524.0","c0vzcj91","","","","","","","",""
"1552.9749999998603","{""judgement"":0}","[0]","survey-likert","525","1503568","0.0-525.0","c0vzcj91","","","","","","","","0"
"1195.7050000000745","{""confidence"":0}","[0]","survey-likert","526","1504765","0.0-526.0","c0vzcj91","","","","","","","",""
"","","","call-function","527","1504766","0.0-527.0","c0vzcj91","","","","","","","",""
"null","","","html-keyboard-response","528","1506271","0.0-528.0","c0vzcj91","","<span style=""color:Black; font-size:50px;"">Agent A","null","","","","",""
"null","","","video-keyboard-response","529","1509340","0.0-529.0","c0vzcj91","","","null","","Agent A","veridical","STIM_SET_2_144/713788.bmp_pp52_L1_V1.0_veridical_freeview_isoTrue_fps144.mp4",""
"null","","","html-keyboard-response","530","1510847","0.0-530.0","c0vzcj91","","<span style=""color:Black; font-size:50px;"">Agent B","null","","","","",""
"null","","","video-keyboard-response","531","1513933","0.0-531.0","c0vzcj91","","","null","","Agent B","scrambled","STIM_SET_5/713788.bmp_pp52_L1_V1.0_veridical_freeview_isoTrue_Hflip_fps144.mp4",""
"","","","call-function","532","1513934","0.0-532.0","c0vzcj91","","","","","","","",""
"2174.340000000084","{""judgement"":0}","[0]","survey-likert","533","1516109","0.0-533.0","c0vzcj91","","","","","","","","0"
"1321.244999999879","{""confidence"":1}","[0]","survey-likert","534","1517431","0.0-534.0","c0vzcj91","","","","","","","",""
"","","","call-function","535","1517432","0.0-535.0","c0vzcj91","","","","","","","",""
"null","","","html-keyboard-response","536","1518935","0.0-536.0","c0vzcj91","","<span style=""color:Black; font-size:50px;"">Agent A","null","","","","",""
"null","","","video-keyboard-response","537","1522028","0.0-537.0","c0vzcj91","","","null","","Agent A","veridical","STIM_SET_2_144/1159592.bmp_pp91_L3_V1.0_veridical_freeview_isoTrue_fps144.mp4",""
"null","","","html-keyboard-response","538","1523531","0.0-538.0","c0vzcj91","","<span style=""color:Black; font-size:50px;"">Agent B","null","","","","",""
"null","","","video-keyboard-response","539","1526622","0.0-539.0","c0vzcj91","","","null","","Agent B","scrambled","STIM_SET_5/1159592.bmp_pp91_L3_V1.0_veridical_freeview_isoTrue_Hflip_fps144.mp4",""
"","","","call-function","540","1526622","0.0-540.0","c0vzcj91","","","","","","","",""
"1760.7750000001397","{""judgement"":1}","[0]","survey-likert","541","1528384","0.0-541.0","c0vzcj91","","","","","","","","0"
"3610","{""confidence"":1}","[0]","survey-likert","542","1531995","0.0-542.0","c0vzcj91","","","","","","","",""
"","","","call-function","543","1531996","0.0-543.0","c0vzcj91","","","","","","","",""
"null","","","html-keyboard-response","544","1533497","0.0-544.0","c0vzcj91","","<span style=""color:Black; font-size:50px;"">Agent A","null","","","","",""
"null","","","video-keyboard-response","545","1536573","0.0-545.0","c0vzcj91","","","null","","Agent A","veridical","STIM_SET_2_144/1159325.bmp_pp67_L2_V1.0_veridical_freeview_isoTrue_fps144.mp4",""
"null","","","html-keyboard-response","546","1538075","0.0-546.0","c0vzcj91","","<span style=""color:Black; font-size:50px;"">Agent B","null","","","","",""
"null","","","video-keyboard-response","547","1541149","0.0-547.0","c0vzcj91","","","null","","Agent B","scrambled","STIM_SET_5/1159325.bmp_pp67_L2_V1.0_veridical_freeview_isoTrue_Hflip_fps144.mp4",""
"","","","call-function","548","1541150","0.0-548.0","c0vzcj91","","","","","","","",""
"5689.4550000000745","{""judgement"":0}","[0]","survey-likert","549","1546840","0.0-549.0","c0vzcj91","","","","","","","","0"
"4415.094999999972","{""confidence"":1}","[0]","survey-likert","550","1551257","0.0-550.0","c0vzcj91","","","","","","","",""
"","","","call-function","551","1551257","0.0-551.0","c0vzcj91","","","","","","","",""
"null","","","html-keyboard-response","552","1552763","0.0-552.0","c0vzcj91","","<span style=""color:Black; font-size:50px;"">Agent A","null","","","","",""
"null","","","video-keyboard-response","553","1555823","0.0-553.0","c0vzcj91","","","null","","Agent A","scrambled","STIM_SET_5/1592044.bmp_pp94_L2_V1.0_veridical_freeview_isoTrue_Hflip_fps144.mp4",""
"null","","","html-keyboard-response","554","1557328","0.0-554.0","c0vzcj91","","<span style=""color:Black; font-size:50px;"">Agent B","null","","","","",""
"null","","","video-keyboard-response","555","1560405","0.0-555.0","c0vzcj91","","","null","","Agent B","veridical","STIM_SET_2_144/1592044.bmp_pp94_L2_V1.0_veridical_freeview_isoTrue_fps144.mp4",""
"","","","call-function","556","1560406","0.0-556.0","c0vzcj91","","","","","","","",""
"1474.1399999998976","{""judgement"":1}","[0]","survey-likert","557","1561881","0.0-557.0","c0vzcj91","","","","","","","","1"
"1909.3349999999627","{""confidence"":1}","[0]","survey-likert","558","1563791","0.0-558.0","c0vzcj91","","","","","","","",""
"","","","call-function","559","1563792","0.0-559.0","c0vzcj91","","","","","","","",""
"null","","","html-keyboard-response","560","1565295","0.0-560.0","c0vzcj91","","<span style=""color:Black; font-size:50px;"">Agent A","null","","","","",""
"null","","","video-keyboard-response","561","1568356","0.0-561.0","c0vzcj91","","","null","","Agent A","veridical","STIM_SET_2_144/498398.bmp_pp81_L1_V1.0_veridical_freeview_isoTrue_fps144.mp4",""
"null","","","html-keyboard-response","562","1569858","0.0-562.0","c0vzcj91","","<span style=""color:Black; font-size:50px;"">Agent B","null","","","","",""
"null","","","video-keyboard-response","563","1572920","0.0-563.0","c0vzcj91","","","null","","Agent B","scrambled","STIM_SET_5/498398.bmp_pp81_L1_V1.0_veridical_freeview_isoTrue_Hflip_fps144.mp4",""
"","","","call-function","564","1572920","0.0-564.0","c0vzcj91","","","","","","","",""
"2095.1450000000186","{""judgement"":0}","[0]","survey-likert","565","1575016","0.0-565.0","c0vzcj91","","","","","","","","0"
"1379.2750000001397","{""confidence"":1}","[0]","survey-likert","566","1576396","0.0-566.0","c0vzcj91","","","","","","","",""
"","","","call-function","567","1576397","0.0-567.0","c0vzcj91","","","","","","","",""
"null","","","html-keyboard-response","568","1577898","0.0-568.0","c0vzcj91","","<span style=""color:Black; font-size:50px;"">Agent A","null","","","","",""
"null","","","video-keyboard-response","569","1580968","0.0-569.0","c0vzcj91","","","null","","Agent A","veridical","STIM_SET_2_144/713920.bmp_pp76_L1_V1.0_veridical_freeview_isoTrue_fps144.mp4",""
"null","","","html-keyboard-response","570","1582475","0.0-570.0","c0vzcj91","","<span style=""color:Black; font-size:50px;"">Agent B","null","","","","",""
"null","","","video-keyboard-response","571","1585544","0.0-571.0","c0vzcj91","","","null","","Agent B","scrambled","STIM_SET_5/713920.bmp_pp76_L1_V1.0_veridical_freeview_isoTrue_Hflip_fps144.mp4",""
"","","","call-function","572","1585545","0.0-572.0","c0vzcj91","","","","","","","",""
"1999.1899999999441","{""judgement"":1}","[0]","survey-likert","573","1587545","0.0-573.0","c0vzcj91","","","","","","","","0"
"1731.4450000000652","{""confidence"":1}","[0]","survey-likert","574","1589279","0.0-574.0","c0vzcj91","","","","","","","",""
"","","","call-function","575","1589280","0.0-575.0","c0vzcj91","","","","","","","",""
"null","","","html-keyboard-response","576","1590784","0.0-576.0","c0vzcj91","","<span style=""color:Black; font-size:50px;"">Agent A","null","","","","",""
"null","","","video-keyboard-response","577","1593853","0.0-577.0","c0vzcj91","","","null","","Agent A","scrambled","STIM_SET_5/150277.bmp_pp65_L3_V1.0_veridical_freeview_isoTrue_Hflip_fps144.mp4",""
"null","","","html-keyboard-response","578","1595355","0.0-578.0","c0vzcj91","","<span style=""color:Black; font-size:50px;"">Agent B","null","","","","",""
"null","","","video-keyboard-response","579","1598422","0.0-579.0","c0vzcj91","","","null","","Agent B","veridical","STIM_SET_2_144/150277.bmp_pp65_L3_V1.0_veridical_freeview_isoTrue_fps144.mp4",""
"","","","call-function","580","1598422","0.0-580.0","c0vzcj91","","","","","","","",""
"2839.815000000177","{""judgement"":1}","[0]","survey-likert","581","1601263","0.0-581.0","c0vzcj91","","","","","","","","1"
"1659.255000000121","{""confidence"":1}","[0]","survey-likert","582","1602924","0.0-582.0","c0vzcj91","","","","","","","",""
"50999.74499999988","","","instructions","583","1653924","0.0-583.0","c0vzcj91","[{""page_index"":0,""viewing_time"":50999.61499999999}]","","","","","","",""
"10449.26000000001","","","instructions","584","1664374","0.0-584.0","c0vzcj91","[{""page_index"":0,""viewing_time"":10449.159999999916}]","","","","","","",""
"7611.354999999981","{""post-1"":1}","[0]","survey-likert","585","1671987","0.0-585.0","c0vzcj91","","","","","","","",""
"5240.779999999795","{""post-1"":1}","[0]","survey-likert","586","1677229","0.0-586.0","c0vzcj91","","","","","","","",""
"8372.770000000019","{""post-2"":0}","[0]","survey-likert","587","1685602","0.0-587.0","c0vzcj91","","","","","","","",""
"7704.369999999879","{""post-2"":0}","[0]","survey-likert","588","1693308","0.0-588.0","c0vzcj91","","","","","","","",""
"6675.994999999879","{""post-3"":1}","[0]","survey-likert","589","1699985","0.0-589.0","c0vzcj91","","","","","","","",""
"8099.364999999991","{""post-3"":1}","[0]","survey-likert","590","1708087","0.0-590.0","c0vzcj91","","","","","","","",""
"9347.479999999981","{""post-4"":0}","[0]","survey-likert","591","1717436","0.0-591.0","c0vzcj91","","","","","","","",""
"2352.7650000001304","{""post-4"":0}","[0]","survey-likert","592","1719790","0.0-592.0","c0vzcj91","","","","","","","",""
"9171.659999999916","{""post-5"":0}","[0]","survey-likert","593","1728962","0.0-593.0","c0vzcj91","","","","","","","",""
"5991.244999999879","{""post-5"":1}","[0]","survey-likert","594","1734955","0.0-594.0","c0vzcj91","","","","","","","",""
"69220.51000000001","{""Q0"":""It was interesting to see what traits of eye movement seemed more human or not. There's not much I have to say in terms of feedback. ""}","","survey-text","595","1804182","0.0-595.0","c0vzcj91","","","","","","","",""
"26581.64000000013","{""Q0"":""The easiest part of the experiment was rating my confidence. I didn't really use any strategies for this part. ""}","","survey-text","596","1830768","0.0-596.0","c0vzcj91","","","","","","","",""
"30859.985000000102","{""Q0"":""The most difficult part of the experiment was determining which agent was the real human.""}","","survey-text","597","1861631","0.0-597.0","c0vzcj91","","","","","","","",""
"1968.8799999998882","","","instructions","598","1863601","0.0-598.0","c0vzcj91","[{""page_index"":0,""viewing_time"":1968.744999999879}]","","","","","","",""
"35971.284999999916","{""Experimenter_end"":[""Printed ID# c0vzcj91 on consent form"",""Given subject SONA credit or payment"",""Given the subject debrief form""]}","[0]","survey-multi-select","599","1899574","0.0-599.0","c0vzcj91","","","","","","","",""
