"rt","responses","question_order","trial_type","trial_index","time_elapsed","internal_node_id","ID","view_history","stimulus","key_press","value","agent","condition","image","correct_answer"
"158353.30000000002","{""Experimenter"":[""Confirmed subject's identity (ID card)"",""Confirmed normal or corrected-to-normal vision"",""Obtained consent (signature and date)"",""Checked the test room lighting"",""Checked computer screen lighting"",""Checked distance from screen to chin rest (50cm)"",""Cleaned and adjusted chin rest"",""Counterbalanced the order of the tasks"",""Opened the experiment in Firefox"",""Made the experiment full screen"",""Encouraged subject to silence phone, put away distractors, etc.""]}","[0]","survey-multi-select","0","158362","0.0-0.0","cofr3f5u","","","","","","","",""
"29710.39500000002","","","instructions","1","188075","0.0-1.0","cofr3f5u","[{""page_index"":0,""viewing_time"":29710.244999999995}]","","","","","","",""
"21440.329999999987","","","instructions","2","209517","0.0-2.0","cofr3f5u","[{""page_index"":0,""viewing_time"":1154.2299999999814},{""page_index"":1,""viewing_time"":4613.120000000024},{""page_index"":2,""viewing_time"":15672.854999999981}]","","","","","","",""
"2009.9899999999907","","","instructions","3","211527","0.0-3.0","cofr3f5u","[{""page_index"":0,""viewing_time"":2009.8849999999802}]","","","","","","",""
"null","","","video-keyboard-response","4","214607","0.0-4.0","cofr3f5u","","","null","","","","",""
"19574.419999999984","","","instructions","5","234183","0.0-5.0","cofr3f5u","[{""page_index"":0,""viewing_time"":2533.109999999986},{""page_index"":1,""viewing_time"":2233.345000000001},{""page_index"":2,""viewing_time"":812.5849999999919},{""page_index"":3,""viewing_time"":3129.0500000000175},{""page_index"":4,""viewing_time"":10866.184999999998}]","","","","","","",""
"9495.815000000002","","","instructions","6","243680","0.0-6.0","cofr3f5u","[{""page_index"":0,""viewing_time"":9495.690000000002}]","","","","","","",""
"","","","call-function","7","243681","0.0-7.0","cofr3f5u","","","","","","","",""
"null","","","html-keyboard-response","8","245184","0.0-8.0","cofr3f5u","","<span style=""color:Black; font-size:50px;"">Agent A","null","","","","",""
"null","","","video-keyboard-response","9","248256","0.0-9.0","cofr3f5u","","","null","","Agent A","scrambled","STIM_SET_3/1159973.bmp_pp98_L1_V2_veridical_freeview_isoFalsemismatch_285933.bmp_L1_fps90.mp4",""
"null","","","html-keyboard-response","10","249761","0.0-10.0","cofr3f5u","","<span style=""color:Black; font-size:50px;"">Agent B","null","","","","",""
"null","","","video-keyboard-response","11","252834","0.0-11.0","cofr3f5u","","","null","","Agent B","veridical","STIM_SET_1_REAL/285933.bmp_pp81_L1_V1.0_veridical_freeview_isoFalse_fps144.mp4",""
"","","","call-function","12","252835","0.0-12.0","cofr3f5u","","","","","","","",""
"7924.670000000013","{""judgement"":1}","[0]","survey-likert","13","260761","0.0-13.0","cofr3f5u","","","","","","","","1"
"3568.6449999999895","{""confidence"":1}","[0]","survey-likert","14","264332","0.0-14.0","cofr3f5u","","","","","","","",""
"","","","call-function","15","264334","0.0-15.0","cofr3f5u","","","","","","","",""
"null","","","html-keyboard-response","16","265839","0.0-16.0","cofr3f5u","","<span style=""color:Black; font-size:50px;"">Agent A","null","","","","",""
"null","","","video-keyboard-response","17","268908","0.0-17.0","cofr3f5u","","","null","","Agent A","veridical","STIM_SET_1_REAL/1159829.bmp_pp91_L3_V1.0_veridical_freeview_isoFalse_fps144.mp4",""
"null","","","html-keyboard-response","18","270410","0.0-18.0","cofr3f5u","","<span style=""color:Black; font-size:50px;"">Agent B","null","","","","",""
"null","","","video-keyboard-response","19","273482","0.0-19.0","cofr3f5u","","","null","","Agent B","scrambled","STIM_SET_3/1159956.bmp_pp59_L3_V2_veridical_freeview_isoFalsemismatch_1159829.bmp_L3_fps90.mp4",""
"","","","call-function","20","273483","0.0-20.0","cofr3f5u","","","","","","","",""
"2486.4000000000233","{""judgement"":0}","[0]","survey-likert","21","275971","0.0-21.0","cofr3f5u","","","","","","","","0"
"4060.634999999951","{""confidence"":2}","[0]","survey-likert","22","280033","0.0-22.0","cofr3f5u","","","","","","","",""
"","","","call-function","23","280034","0.0-23.0","cofr3f5u","","","","","","","",""
"null","","","html-keyboard-response","24","281536","0.0-24.0","cofr3f5u","","<span style=""color:Black; font-size:50px;"">Agent A","null","","","","",""
"null","","","video-keyboard-response","25","284600","0.0-25.0","cofr3f5u","","","null","","Agent A","veridical","STIM_SET_1_REAL/1159572.bmp_pp71_L1_V1.0_veridical_freeview_isoFalse_fps144.mp4",""
"null","","","html-keyboard-response","26","286107","0.0-26.0","cofr3f5u","","<span style=""color:Black; font-size:50px;"">Agent B","null","","","","",""
"null","","","video-keyboard-response","27","289185","0.0-27.0","cofr3f5u","","","null","","Agent B","scrambled","STIM_SET_3/713381.bmp_pp82_L2_V2_veridical_freeview_isoFalsemismatch_1159572.bmp_L1_fps90.mp4",""
"","","","call-function","28","289186","0.0-28.0","cofr3f5u","","","","","","","",""
"3181.5100000000093","{""judgement"":0}","[0]","survey-likert","29","292368","0.0-29.0","cofr3f5u","","","","","","","","0"
"4783.340000000026","{""confidence"":2}","[0]","survey-likert","30","297153","0.0-30.0","cofr3f5u","","","","","","","",""
"","","","call-function","31","297154","0.0-31.0","cofr3f5u","","","","","","","",""
"null","","","html-keyboard-response","32","298657","0.0-32.0","cofr3f5u","","<span style=""color:Black; font-size:50px;"">Agent A","null","","","","",""
"null","","","video-keyboard-response","33","301752","0.0-33.0","cofr3f5u","","","null","","Agent A","veridical","STIM_SET_1_REAL/1592499.bmp_pp96_L2_V1.0_veridical_freeview_isoFalse_fps144.mp4",""
"null","","","html-keyboard-response","34","303260","0.0-34.0","cofr3f5u","","<span style=""color:Black; font-size:50px;"">Agent B","null","","","","",""
"null","","","video-keyboard-response","35","306357","0.0-35.0","cofr3f5u","","","null","","Agent B","scrambled","STIM_SET_3/1159819.bmp_pp151_L1_V2_veridical_freeview_isoFalsemismatch_1592499.bmp_L2_fps90.mp4",""
"","","","call-function","36","306358","0.0-36.0","cofr3f5u","","","","","","","",""
"4644.815000000002","{""judgement"":0}","[0]","survey-likert","37","311004","0.0-37.0","cofr3f5u","","","","","","","","0"
"1965.3150000000023","{""confidence"":3}","[0]","survey-likert","38","312971","0.0-38.0","cofr3f5u","","","","","","","",""
"","","","call-function","39","312972","0.0-39.0","cofr3f5u","","","","","","","",""
"null","","","html-keyboard-response","40","314473","0.0-40.0","cofr3f5u","","<span style=""color:Black; font-size:50px;"">Agent A","null","","","","",""
"null","","","video-keyboard-response","41","317567","0.0-41.0","cofr3f5u","","","null","","Agent A","scrambled","STIM_SET_3/498258.bmp_pp51_L1_V2_veridical_freeview_isoFalsemismatch_498155.bmp_L2_fps90.mp4",""
"null","","","html-keyboard-response","42","319071","0.0-42.0","cofr3f5u","","<span style=""color:Black; font-size:50px;"">Agent B","null","","","","",""
"null","","","video-keyboard-response","43","322176","0.0-43.0","cofr3f5u","","","null","","Agent B","veridical","STIM_SET_1_REAL/498155.bmp_pp61_L2_V1.0_veridical_freeview_isoFalse_fps144.mp4",""
"","","","call-function","44","322177","0.0-44.0","cofr3f5u","","","","","","","",""
"3003.25","{""judgement"":0}","[0]","survey-likert","45","325182","0.0-45.0","cofr3f5u","","","","","","","","1"
"2366.280000000028","{""confidence"":2}","[0]","survey-likert","46","327550","0.0-46.0","cofr3f5u","","","","","","","",""
"","","","call-function","47","327550","0.0-47.0","cofr3f5u","","","","","","","",""
"null","","","html-keyboard-response","48","329054","0.0-48.0","cofr3f5u","","<span style=""color:Black; font-size:50px;"">Agent A","null","","","","",""
"null","","","video-keyboard-response","49","332131","0.0-49.0","cofr3f5u","","","null","","Agent A","veridical","STIM_SET_1_REAL/713749.bmp_pp88_L2_V1.0_veridical_freeview_isoFalse_fps144.mp4",""
"null","","","html-keyboard-response","50","333633","0.0-50.0","cofr3f5u","","<span style=""color:Black; font-size:50px;"">Agent B","null","","","","",""
"null","","","video-keyboard-response","51","336707","0.0-51.0","cofr3f5u","","","null","","Agent B","scrambled","STIM_SET_3/713858.bmp_pp57_L1_V2_veridical_freeview_isoFalsemismatch_713749.bmp_L2_fps90.mp4",""
"","","","call-function","52","336708","0.0-52.0","cofr3f5u","","","","","","","",""
"3262.0599999999977","{""judgement"":0}","[0]","survey-likert","53","339971","0.0-53.0","cofr3f5u","","","","","","","","0"
"2163.6999999999534","{""confidence"":3}","[0]","survey-likert","54","342137","0.0-54.0","cofr3f5u","","","","","","","",""
"","","","call-function","55","342138","0.0-55.0","cofr3f5u","","","","","","","",""
"null","","","html-keyboard-response","56","343641","0.0-56.0","cofr3f5u","","<span style=""color:Black; font-size:50px;"">Agent A","null","","","","",""
"null","","","video-keyboard-response","57","346744","0.0-57.0","cofr3f5u","","","null","","Agent A","scrambled","STIM_SET_3/285959.bmp_pp93_L1_V2_veridical_freeview_isoFalsemismatch_498253.bmp_L2_fps90.mp4",""
"null","","","html-keyboard-response","58","348247","0.0-58.0","cofr3f5u","","<span style=""color:Black; font-size:50px;"">Agent B","null","","","","",""
"null","","","video-keyboard-response","59","351325","0.0-59.0","cofr3f5u","","","null","","Agent B","veridical","STIM_SET_1_REAL/498253.bmp_pp67_L2_V1.0_veridical_freeview_isoFalse_fps144.mp4",""
"","","","call-function","60","351326","0.0-60.0","cofr3f5u","","","","","","","",""
"6165.039999999979","{""judgement"":0}","[0]","survey-likert","61","357492","0.0-61.0","cofr3f5u","","","","","","","","1"
"2074.8499999999767","{""confidence"":2}","[0]","survey-likert","62","359568","0.0-62.0","cofr3f5u","","","","","","","",""
"","","","call-function","63","359569","0.0-63.0","cofr3f5u","","","","","","","",""
"null","","","html-keyboard-response","64","361070","0.0-64.0","cofr3f5u","","<span style=""color:Black; font-size:50px;"">Agent A","null","","","","",""
"null","","","video-keyboard-response","65","364145","0.0-65.0","cofr3f5u","","","null","","Agent A","scrambled","STIM_SET_3/713920.bmp_pp76_L1_V2_veridical_freeview_isoFalsemismatch_713684.bmp_L3_fps90.mp4",""
"null","","","html-keyboard-response","66","365648","0.0-66.0","cofr3f5u","","<span style=""color:Black; font-size:50px;"">Agent B","null","","","","",""
"null","","","video-keyboard-response","67","368747","0.0-67.0","cofr3f5u","","","null","","Agent B","veridical","STIM_SET_1_REAL/713684.bmp_pp85_L3_V1.0_veridical_freeview_isoFalse_fps144.mp4",""
"","","","call-function","68","368748","0.0-68.0","cofr3f5u","","","","","","","",""
"2562.3699999999953","{""judgement"":1}","[0]","survey-likert","69","371311","0.0-69.0","cofr3f5u","","","","","","","","1"
"3292.4650000000256","{""confidence"":2}","[0]","survey-likert","70","374605","0.0-70.0","cofr3f5u","","","","","","","",""
"","","","call-function","71","374606","0.0-71.0","cofr3f5u","","","","","","","",""
"null","","","html-keyboard-response","72","376108","0.0-72.0","cofr3f5u","","<span style=""color:Black; font-size:50px;"">Agent A","null","","","","",""
"null","","","video-keyboard-response","73","379200","0.0-73.0","cofr3f5u","","","null","","Agent A","scrambled","STIM_SET_3/498326.bmp_pp57_L1_V2_veridical_freeview_isoFalsemismatch_1592286.bmp_L1_fps90.mp4",""
"null","","","html-keyboard-response","74","380706","0.0-74.0","cofr3f5u","","<span style=""color:Black; font-size:50px;"">Agent B","null","","","","",""
"null","","","video-keyboard-response","75","383777","0.0-75.0","cofr3f5u","","","null","","Agent B","veridical","STIM_SET_1_REAL/1592286.bmp_pp52_L1_V1.0_veridical_freeview_isoFalse_fps144.mp4",""
"","","","call-function","76","383778","0.0-76.0","cofr3f5u","","","","","","","",""
"1952.9000000000233","{""judgement"":1}","[0]","survey-likert","77","385733","0.0-77.0","cofr3f5u","","","","","","","","1"
"1817.164999999979","{""confidence"":2}","[0]","survey-likert","78","387553","0.0-78.0","cofr3f5u","","","","","","","",""
"","","","call-function","79","387554","0.0-79.0","cofr3f5u","","","","","","","",""
"null","","","html-keyboard-response","80","389061","0.0-80.0","cofr3f5u","","<span style=""color:Black; font-size:50px;"">Agent A","null","","","","",""
"null","","","video-keyboard-response","81","392131","0.0-81.0","cofr3f5u","","","null","","Agent A","scrambled","STIM_SET_3/1592921.bmp_pp69_L3_V2_veridical_freeview_isoFalsemismatch_713211.bmp_L3_fps90.mp4",""
"null","","","html-keyboard-response","82","393635","0.0-82.0","cofr3f5u","","<span style=""color:Black; font-size:50px;"">Agent B","null","","","","",""
"null","","","video-keyboard-response","83","396713","0.0-83.0","cofr3f5u","","","null","","Agent B","veridical","STIM_SET_1_REAL/713211.bmp_pp100_L3_V1.0_veridical_freeview_isoFalse_fps144.mp4",""
"","","","call-function","84","396714","0.0-84.0","cofr3f5u","","","","","","","",""
"5703.580000000016","{""judgement"":1}","[0]","survey-likert","85","402418","0.0-85.0","cofr3f5u","","","","","","","","1"
"4181.304999999993","{""confidence"":1}","[0]","survey-likert","86","406602","0.0-86.0","cofr3f5u","","","","","","","",""
"11447.815000000002","","","instructions","87","418051","0.0-87.0","cofr3f5u","[{""page_index"":0,""viewing_time"":1419.7000000000116},{""page_index"":1,""viewing_time"":9043.704999999958},{""page_index"":2,""viewing_time"":984.2050000000163}]","","","","","","",""
"5887.305000000051","","","instructions","88","423939","0.0-88.0","cofr3f5u","[{""page_index"":0,""viewing_time"":1326.365000000049},{""page_index"":1,""viewing_time"":3593.9049999999697},{""page_index"":2,""viewing_time"":966.9199999999837}]","","","","","","",""
"","","","call-function","89","423940","0.0-89.0","cofr3f5u","","","","","","","",""
"null","","","html-keyboard-response","90","425442","0.0-90.0","cofr3f5u","","<span style=""color:Black; font-size:50px;"">Agent A","null","","","","",""
"null","","","video-keyboard-response","91","428506","0.0-91.0","cofr3f5u","","","null","","Agent A","scrambled","STIM_SET_3/1159325.bmp_pp67_L2_V2_veridical_freeview_isoFalsemismatch_1593035.bmp_L2_fps90.mp4",""
"null","","","html-keyboard-response","92","430012","0.0-92.0","cofr3f5u","","<span style=""color:Black; font-size:50px;"">Agent B","null","","","","",""
"null","","","video-keyboard-response","93","433101","0.0-93.0","cofr3f5u","","","null","","Agent B","veridical","STIM_SET_1_REAL/1593035.bmp_pp94_L2_V1.0_veridical_freeview_isoFalse_fps144.mp4",""
"","","","call-function","94","433102","0.0-94.0","cofr3f5u","","","","","","","",""
"2142.5449999999837","{""judgement"":1}","[0]","survey-likert","95","435245","0.0-95.0","cofr3f5u","","","","","","","","1"
"1418.445000000007","{""confidence"":2}","[0]","survey-likert","96","436665","0.0-96.0","cofr3f5u","","","","","","","",""
"","","","call-function","97","436666","0.0-97.0","cofr3f5u","","","","","","","",""
"null","","","html-keyboard-response","98","438168","0.0-98.0","cofr3f5u","","<span style=""color:Black; font-size:50px;"">Agent A","null","","","","",""
"null","","","video-keyboard-response","99","441264","0.0-99.0","cofr3f5u","","","null","","Agent A","scrambled","STIM_SET_3/1592350.bmp_pp55_L3_V2_veridical_freeview_isoFalsemismatch_498111.bmp_L2_fps90.mp4",""
"null","","","html-keyboard-response","100","442767","0.0-100.0","cofr3f5u","","<span style=""color:Black; font-size:50px;"">Agent B","null","","","","",""
"null","","","video-keyboard-response","101","445875","0.0-101.0","cofr3f5u","","","null","","Agent B","veridical","STIM_SET_1_REAL/498111.bmp_pp88_L2_V1.0_veridical_freeview_isoFalse_fps144.mp4",""
"","","","call-function","102","445876","0.0-102.0","cofr3f5u","","","","","","","",""
"3099.530000000028","{""judgement"":0}","[0]","survey-likert","103","448976","0.0-103.0","cofr3f5u","","","","","","","","1"
"1283.3050000000512","{""confidence"":2}","[0]","survey-likert","104","450261","0.0-104.0","cofr3f5u","","","","","","","",""
"","","","call-function","105","450262","0.0-105.0","cofr3f5u","","","","","","","",""
"null","","","html-keyboard-response","106","451764","0.0-106.0","cofr3f5u","","<span style=""color:Black; font-size:50px;"">Agent A","null","","","","",""
"null","","","video-keyboard-response","107","454841","0.0-107.0","cofr3f5u","","","null","","Agent A","veridical","STIM_SET_1_REAL/1591994.bmp_pp69_L3_V1.0_veridical_freeview_isoFalse_fps144.mp4",""
"null","","","html-keyboard-response","108","456344","0.0-108.0","cofr3f5u","","<span style=""color:Black; font-size:50px;"">Agent B","null","","","","",""
"null","","","video-keyboard-response","109","459411","0.0-109.0","cofr3f5u","","","null","","Agent B","scrambled","STIM_SET_3/713328.bmp_pp86_L2_V2_veridical_freeview_isoFalsemismatch_1591994.bmp_L3_fps90.mp4",""
"","","","call-function","110","459412","0.0-110.0","cofr3f5u","","","","","","","",""
"2257.155000000028","{""judgement"":0}","[0]","survey-likert","111","461670","0.0-111.0","cofr3f5u","","","","","","","","0"
"1987.4199999999837","{""confidence"":3}","[0]","survey-likert","112","463659","0.0-112.0","cofr3f5u","","","","","","","",""
"","","","call-function","113","463660","0.0-113.0","cofr3f5u","","","","","","","",""
"null","","","html-keyboard-response","114","465164","0.0-114.0","cofr3f5u","","<span style=""color:Black; font-size:50px;"">Agent A","null","","","","",""
"null","","","video-keyboard-response","115","468242","0.0-115.0","cofr3f5u","","","null","","Agent A","veridical","STIM_SET_1_REAL/1159675.bmp_pp77_L3_V1.0_veridical_freeview_isoFalse_fps144.mp4",""
"null","","","html-keyboard-response","116","469745","0.0-116.0","cofr3f5u","","<span style=""color:Black; font-size:50px;"">Agent B","null","","","","",""
"null","","","video-keyboard-response","117","472842","0.0-117.0","cofr3f5u","","","null","","Agent B","scrambled","STIM_SET_3/1159508.bmp_pp151_L1_V2_veridical_freeview_isoFalsemismatch_1159675.bmp_L3_fps90.mp4",""
"","","","call-function","118","472843","0.0-118.0","cofr3f5u","","","","","","","",""
"2751.1599999999744","{""judgement"":0}","[0]","survey-likert","119","475595","0.0-119.0","cofr3f5u","","","","","","","","0"
"1689.1500000000233","{""confidence"":3}","[0]","survey-likert","120","477285","0.0-120.0","cofr3f5u","","","","","","","",""
"","","","call-function","121","477286","0.0-121.0","cofr3f5u","","","","","","","",""
"null","","","html-keyboard-response","122","478790","0.0-122.0","cofr3f5u","","<span style=""color:Black; font-size:50px;"">Agent A","null","","","","",""
"null","","","video-keyboard-response","123","481883","0.0-123.0","cofr3f5u","","","null","","Agent A","scrambled","STIM_SET_3/1592201.bmp_pp97_L3_V2_veridical_freeview_isoFalsemismatch_713089.bmp_L3_fps90.mp4",""
"null","","","html-keyboard-response","124","483385","0.0-124.0","cofr3f5u","","<span style=""color:Black; font-size:50px;"">Agent B","null","","","","",""
"null","","","video-keyboard-response","125","486473","0.0-125.0","cofr3f5u","","","null","","Agent B","veridical","STIM_SET_1_REAL/713089.bmp_pp60_L3_V1.0_veridical_freeview_isoFalse_fps144.mp4",""
"","","","call-function","126","486474","0.0-126.0","cofr3f5u","","","","","","","",""
"1557.5849999999627","{""judgement"":1}","[0]","survey-likert","127","488032","0.0-127.0","cofr3f5u","","","","","","","","1"
"1652.5900000000256","{""confidence"":3}","[0]","survey-likert","128","489687","0.0-128.0","cofr3f5u","","","","","","","",""
"","","","call-function","129","489688","0.0-129.0","cofr3f5u","","","","","","","",""
"null","","","html-keyboard-response","130","491189","0.0-130.0","cofr3f5u","","<span style=""color:Black; font-size:50px;"">Agent A","null","","","","",""
"null","","","video-keyboard-response","131","494257","0.0-131.0","cofr3f5u","","","null","","Agent A","veridical","STIM_SET_1_REAL/1592727.bmp_pp59_L3_V1.0_veridical_freeview_isoFalse_fps144.mp4",""
"null","","","html-keyboard-response","132","495762","0.0-132.0","cofr3f5u","","<span style=""color:Black; font-size:50px;"">Agent B","null","","","","",""
"null","","","video-keyboard-response","133","498863","0.0-133.0","cofr3f5u","","","null","","Agent B","scrambled","STIM_SET_3/1592038.bmp_pp79_L2_V2_veridical_freeview_isoFalsemismatch_1592727.bmp_L3_fps90.mp4",""
"","","","call-function","134","498864","0.0-134.0","cofr3f5u","","","","","","","",""
"2495.789999999979","{""judgement"":0}","[0]","survey-likert","135","501360","0.0-135.0","cofr3f5u","","","","","","","","0"
"1729.3549999999814","{""confidence"":2}","[0]","survey-likert","136","503091","0.0-136.0","cofr3f5u","","","","","","","",""
"","","","call-function","137","503092","0.0-137.0","cofr3f5u","","","","","","","",""
"null","","","html-keyboard-response","138","504598","0.0-138.0","cofr3f5u","","<span style=""color:Black; font-size:50px;"">Agent A","null","","","","",""
"null","","","video-keyboard-response","139","507697","0.0-139.0","cofr3f5u","","","null","","Agent A","veridical","STIM_SET_1_REAL/1592934.bmp_pp63_L1_V1.0_veridical_freeview_isoFalse_fps144.mp4",""
"null","","","html-keyboard-response","140","509201","0.0-140.0","cofr3f5u","","<span style=""color:Black; font-size:50px;"">Agent B","null","","","","",""
"null","","","video-keyboard-response","141","512263","0.0-141.0","cofr3f5u","","","null","","Agent B","scrambled","STIM_SET_3/1159392.bmp_pp96_L2_V2_veridical_freeview_isoFalsemismatch_1592934.bmp_L1_fps90.mp4",""
"","","","call-function","142","512264","0.0-142.0","cofr3f5u","","","","","","","",""
"8871.109999999986","{""judgement"":0}","[0]","survey-likert","143","521137","0.0-143.0","cofr3f5u","","","","","","","","0"
"1755.2550000000047","{""confidence"":1}","[0]","survey-likert","144","522895","0.0-144.0","cofr3f5u","","","","","","","",""
"","","","call-function","145","522896","0.0-145.0","cofr3f5u","","","","","","","",""
"null","","","html-keyboard-response","146","524398","0.0-146.0","cofr3f5u","","<span style=""color:Black; font-size:50px;"">Agent A","null","","","","",""
"null","","","video-keyboard-response","147","527468","0.0-147.0","cofr3f5u","","","null","","Agent A","scrambled","STIM_SET_3/1160189.bmp_pp64_L1_V2_veridical_freeview_isoFalsemismatch_1592581.bmp_L3_fps90.mp4",""
"null","","","html-keyboard-response","148","528971","0.0-148.0","cofr3f5u","","<span style=""color:Black; font-size:50px;"">Agent B","null","","","","",""
"null","","","video-keyboard-response","149","532040","0.0-149.0","cofr3f5u","","","null","","Agent B","veridical","STIM_SET_1_REAL/1592581.bmp_pp100_L3_V1.0_veridical_freeview_isoFalse_fps144.mp4",""
"","","","call-function","150","532041","0.0-150.0","cofr3f5u","","","","","","","",""
"2236.0250000000233","{""judgement"":1}","[0]","survey-likert","151","534278","0.0-151.0","cofr3f5u","","","","","","","","1"
"2383.6600000000326","{""confidence"":1}","[0]","survey-likert","152","536664","0.0-152.0","cofr3f5u","","","","","","","",""
"","","","call-function","153","536665","0.0-153.0","cofr3f5u","","","","","","","",""
"null","","","html-keyboard-response","154","538167","0.0-154.0","cofr3f5u","","<span style=""color:Black; font-size:50px;"">Agent A","null","","","","",""
"null","","","video-keyboard-response","155","541244","0.0-155.0","cofr3f5u","","","null","","Agent A","veridical","STIM_SET_1_REAL/1592657.bmp_pp98_L1_V1.0_veridical_freeview_isoFalse_fps144.mp4",""
"null","","","html-keyboard-response","156","542747","0.0-156.0","cofr3f5u","","<span style=""color:Black; font-size:50px;"">Agent B","null","","","","",""
"null","","","video-keyboard-response","157","545839","0.0-157.0","cofr3f5u","","","null","","Agent B","scrambled","STIM_SET_3/498261.bmp_pp84_L3_V2_veridical_freeview_isoFalsemismatch_1592657.bmp_L1_fps90.mp4",""
"","","","call-function","158","545840","0.0-158.0","cofr3f5u","","","","","","","",""
"2166.8000000000466","{""judgement"":0}","[0]","survey-likert","159","548008","0.0-159.0","cofr3f5u","","","","","","","","0"
"1962.094999999972","{""confidence"":2}","[0]","survey-likert","160","549972","0.0-160.0","cofr3f5u","","","","","","","",""
"","","","call-function","161","549973","0.0-161.0","cofr3f5u","","","","","","","",""
"null","","","html-keyboard-response","162","551475","0.0-162.0","cofr3f5u","","<span style=""color:Black; font-size:50px;"">Agent A","null","","","","",""
"null","","","video-keyboard-response","163","554566","0.0-163.0","cofr3f5u","","","null","","Agent A","scrambled","STIM_SET_3/1592129.bmp_pp153_L3_V2_veridical_freeview_isoFalsemismatch_1159813.bmp_L2_fps90.mp4",""
"null","","","html-keyboard-response","164","556073","0.0-164.0","cofr3f5u","","<span style=""color:Black; font-size:50px;"">Agent B","null","","","","",""
"null","","","video-keyboard-response","165","559193","0.0-165.0","cofr3f5u","","","null","","Agent B","veridical","STIM_SET_1_REAL/1159813.bmp_pp79_L2_V1.0_veridical_freeview_isoFalse_fps144.mp4",""
"","","","call-function","166","559194","0.0-166.0","cofr3f5u","","","","","","","",""
"3183.859999999986","{""judgement"":1}","[0]","survey-likert","167","562379","0.0-167.0","cofr3f5u","","","","","","","","1"
"1766.5","{""confidence"":2}","[0]","survey-likert","168","564147","0.0-168.0","cofr3f5u","","","","","","","",""
"7898.055000000051","","","instructions","169","572046","0.0-169.0","cofr3f5u","[{""page_index"":0,""viewing_time"":2441.7449999999953},{""page_index"":1,""viewing_time"":3981.810000000056},{""page_index"":2,""viewing_time"":1474.25}]","","","","","","",""
"7199.464999999967","","","instructions","170","579246","0.0-170.0","cofr3f5u","[{""page_index"":0,""viewing_time"":1240.6450000000186},{""page_index"":1,""viewing_time"":5374.889999999898},{""page_index"":2,""viewing_time"":583.8250000000698}]","","","","","","",""
"","","","call-function","171","579247","0.0-171.0","cofr3f5u","","","","","","","",""
"null","","","html-keyboard-response","172","580752","0.0-172.0","cofr3f5u","","<span style=""color:Black; font-size:50px;"">Agent A","null","","","","",""
"null","","","video-keyboard-response","173","583815","0.0-173.0","cofr3f5u","","","null","","Agent A","veridical","STIM_SET_1_REAL/1159882.bmp_pp61_L2_V1.0_veridical_freeview_isoFalse_fps144.mp4",""
"null","","","html-keyboard-response","174","585318","0.0-174.0","cofr3f5u","","<span style=""color:Black; font-size:50px;"">Agent B","null","","","","",""
"null","","","video-keyboard-response","175","588409","0.0-175.0","cofr3f5u","","","null","","Agent B","scrambled","STIM_SET_3/285715.bmp_pp67_L2_V2_veridical_freeview_isoFalsemismatch_1159882.bmp_L2_fps90.mp4",""
"","","","call-function","176","588410","0.0-176.0","cofr3f5u","","","","","","","",""
"4454.710000000079","{""judgement"":0}","[0]","survey-likert","177","592866","0.0-177.0","cofr3f5u","","","","","","","","0"
"1696.4499999999534","{""confidence"":0}","[0]","survey-likert","178","594564","0.0-178.0","cofr3f5u","","","","","","","",""
"","","","call-function","179","594565","0.0-179.0","cofr3f5u","","","","","","","",""
"null","","","html-keyboard-response","180","596068","0.0-180.0","cofr3f5u","","<span style=""color:Black; font-size:50px;"">Agent A","null","","","","",""
"null","","","video-keyboard-response","181","599129","0.0-181.0","cofr3f5u","","","null","","Agent A","scrambled","STIM_SET_3/1592044.bmp_pp94_L2_V2_veridical_freeview_isoFalsemismatch_1159446.bmp_L3_fps90.mp4",""
"null","","","html-keyboard-response","182","600631","0.0-182.0","cofr3f5u","","<span style=""color:Black; font-size:50px;"">Agent B","null","","","","",""
"null","","","video-keyboard-response","183","603696","0.0-183.0","cofr3f5u","","","null","","Agent B","veridical","STIM_SET_1_REAL/1159446.bmp_pp60_L3_V1.0_veridical_freeview_isoFalse_fps144.mp4",""
"","","","call-function","184","603697","0.0-184.0","cofr3f5u","","","","","","","",""
"2643.6149999999907","{""judgement"":1}","[0]","survey-likert","185","606342","0.0-185.0","cofr3f5u","","","","","","","","1"
"2889.6199999999953","{""confidence"":2}","[0]","survey-likert","186","609233","0.0-186.0","cofr3f5u","","","","","","","",""
"","","","call-function","187","609234","0.0-187.0","cofr3f5u","","","","","","","",""
"null","","","html-keyboard-response","188","610738","0.0-188.0","cofr3f5u","","<span style=""color:Black; font-size:50px;"">Agent A","null","","","","",""
"null","","","video-keyboard-response","189","613807","0.0-189.0","cofr3f5u","","","null","","Agent A","veridical","STIM_SET_1_REAL/713513.bmp_pp62_L2_V1.0_veridical_freeview_isoFalse_fps144.mp4",""
"null","","","html-keyboard-response","190","615311","0.0-190.0","cofr3f5u","","<span style=""color:Black; font-size:50px;"">Agent B","null","","","","",""
"null","","","video-keyboard-response","191","618400","0.0-191.0","cofr3f5u","","","null","","Agent B","scrambled","STIM_SET_3/1592047.bmp_pp51_L1_V2_veridical_freeview_isoFalsemismatch_713513.bmp_L2_fps90.mp4",""
"","","","call-function","192","618401","0.0-192.0","cofr3f5u","","","","","","","",""
"2357.1199999999953","{""judgement"":0}","[0]","survey-likert","193","620758","0.0-193.0","cofr3f5u","","","","","","","","0"
"6143.479999999981","{""confidence"":1}","[0]","survey-likert","194","626904","0.0-194.0","cofr3f5u","","","","","","","",""
"","","","call-function","195","626904","0.0-195.0","cofr3f5u","","","","","","","",""
"null","","","html-keyboard-response","196","628410","0.0-196.0","cofr3f5u","","<span style=""color:Black; font-size:50px;"">Agent A","null","","","","",""
"null","","","video-keyboard-response","197","631504","0.0-197.0","cofr3f5u","","","null","","Agent A","scrambled","STIM_SET_3/713652.bmp_pp89_L1_V2_veridical_freeview_isoFalsemismatch_1592807.bmp_L1_fps90.mp4",""
"null","","","html-keyboard-response","198","633008","0.0-198.0","cofr3f5u","","<span style=""color:Black; font-size:50px;"">Agent B","null","","","","",""
"null","","","video-keyboard-response","199","636084","0.0-199.0","cofr3f5u","","","null","","Agent B","veridical","STIM_SET_1_REAL/1592807.bmp_pp68_L1_V1.0_veridical_freeview_isoFalse_fps144.mp4",""
"","","","call-function","200","636086","0.0-200.0","cofr3f5u","","","","","","","",""
"8671.390000000014","{""judgement"":0}","[0]","survey-likert","201","644759","0.0-201.0","cofr3f5u","","","","","","","","1"
"1747.2249999999767","{""confidence"":0}","[0]","survey-likert","202","646508","0.0-202.0","cofr3f5u","","","","","","","",""
"","","","call-function","203","646509","0.0-203.0","cofr3f5u","","","","","","","",""
"null","","","html-keyboard-response","204","648012","0.0-204.0","cofr3f5u","","<span style=""color:Black; font-size:50px;"">Agent A","null","","","","",""
"null","","","video-keyboard-response","205","651092","0.0-205.0","cofr3f5u","","","null","","Agent A","scrambled","STIM_SET_3/713742.bmp_pp91_L3_V2_veridical_freeview_isoFalsemismatch_498170.bmp_L3_fps90.mp4",""
"null","","","html-keyboard-response","206","652597","0.0-206.0","cofr3f5u","","<span style=""color:Black; font-size:50px;"">Agent B","null","","","","",""
"null","","","video-keyboard-response","207","655659","0.0-207.0","cofr3f5u","","","null","","Agent B","veridical","STIM_SET_1_REAL/498170.bmp_pp153_L3_V1.0_veridical_freeview_isoFalse_fps144.mp4",""
"","","","call-function","208","655660","0.0-208.0","cofr3f5u","","","","","","","",""
"2624.1450000000186","{""judgement"":0}","[0]","survey-likert","209","658285","0.0-209.0","cofr3f5u","","","","","","","","1"
"1623.9399999999441","{""confidence"":0}","[0]","survey-likert","210","659911","0.0-210.0","cofr3f5u","","","","","","","",""
"","","","call-function","211","659912","0.0-211.0","cofr3f5u","","","","","","","",""
"null","","","html-keyboard-response","212","661413","0.0-212.0","cofr3f5u","","<span style=""color:Black; font-size:50px;"">Agent A","null","","","","",""
"null","","","video-keyboard-response","213","664480","0.0-213.0","cofr3f5u","","","null","","Agent A","veridical","STIM_SET_1_REAL/497950.bmp_pp151_L1_V1.0_veridical_freeview_isoFalse_fps144.mp4",""
"null","","","html-keyboard-response","214","665985","0.0-214.0","cofr3f5u","","<span style=""color:Black; font-size:50px;"">Agent B","null","","","","",""
"null","","","video-keyboard-response","215","669082","0.0-215.0","cofr3f5u","","","null","","Agent B","scrambled","STIM_SET_3/713274.bmp_pp73_L3_V2_veridical_freeview_isoFalsemismatch_497950.bmp_L1_fps90.mp4",""
"","","","call-function","216","669083","0.0-216.0","cofr3f5u","","","","","","","",""
"1960.109999999986","{""judgement"":0}","[0]","survey-likert","217","671044","0.0-217.0","cofr3f5u","","","","","","","","0"
"2328.140000000014","{""confidence"":2}","[0]","survey-likert","218","673374","0.0-218.0","cofr3f5u","","","","","","","",""
"","","","call-function","219","673376","0.0-219.0","cofr3f5u","","","","","","","",""
"null","","","html-keyboard-response","220","674878","0.0-220.0","cofr3f5u","","<span style=""color:Black; font-size:50px;"">Agent A","null","","","","",""
"null","","","video-keyboard-response","221","677967","0.0-221.0","cofr3f5u","","","null","","Agent A","scrambled","STIM_SET_3/498398.bmp_pp81_L1_V2_veridical_freeview_isoFalsemismatch_713620.bmp_L3_fps90.mp4",""
"null","","","html-keyboard-response","222","679471","0.0-222.0","cofr3f5u","","<span style=""color:Black; font-size:50px;"">Agent B","null","","","","",""
"null","","","video-keyboard-response","223","682573","0.0-223.0","cofr3f5u","","","null","","Agent B","veridical","STIM_SET_1_REAL/713620.bmp_pp65_L3_V1.0_veridical_freeview_isoFalse_fps144.mp4",""
"","","","call-function","224","682574","0.0-224.0","cofr3f5u","","","","","","","",""
"6360.685000000056","{""judgement"":1}","[0]","survey-likert","225","688936","0.0-225.0","cofr3f5u","","","","","","","","1"
"2882.32500000007","{""confidence"":1}","[0]","survey-likert","226","691820","0.0-226.0","cofr3f5u","","","","","","","",""
"","","","call-function","227","691821","0.0-227.0","cofr3f5u","","","","","","","",""
"null","","","html-keyboard-response","228","693324","0.0-228.0","cofr3f5u","","<span style=""color:Black; font-size:50px;"">Agent A","null","","","","",""
"null","","","video-keyboard-response","229","696436","0.0-229.0","cofr3f5u","","","null","","Agent A","scrambled","STIM_SET_3/285946.bmp_pp79_L2_V2_veridical_freeview_isoFalsemismatch_285751.bmp_L3_fps90.mp4",""
"null","","","html-keyboard-response","230","697939","0.0-230.0","cofr3f5u","","<span style=""color:Black; font-size:50px;"">Agent B","null","","","","",""
"null","","","video-keyboard-response","231","701018","0.0-231.0","cofr3f5u","","","null","","Agent B","veridical","STIM_SET_1_REAL/285751.bmp_pp55_L3_V1.0_veridical_freeview_isoFalse_fps144.mp4",""
"","","","call-function","232","701019","0.0-232.0","cofr3f5u","","","","","","","",""
"2214.9749999999767","{""judgement"":1}","[0]","survey-likert","233","703235","0.0-233.0","cofr3f5u","","","","","","","","1"
"2163.859999999986","{""confidence"":2}","[0]","survey-likert","234","705400","0.0-234.0","cofr3f5u","","","","","","","",""
"","","","call-function","235","705401","0.0-235.0","cofr3f5u","","","","","","","",""
"null","","","html-keyboard-response","236","706907","0.0-236.0","cofr3f5u","","<span style=""color:Black; font-size:50px;"">Agent A","null","","","","",""
"null","","","video-keyboard-response","237","709999","0.0-237.0","cofr3f5u","","","null","","Agent A","scrambled","STIM_SET_3/61513.bmp_pp75_L1_V2_veridical_freeview_isoFalsemismatch_1159784.bmp_L3_fps90.mp4",""
"null","","","html-keyboard-response","238","711502","0.0-238.0","cofr3f5u","","<span style=""color:Black; font-size:50px;"">Agent B","null","","","","",""
"null","","","video-keyboard-response","239","714578","0.0-239.0","cofr3f5u","","","null","","Agent B","veridical","STIM_SET_1_REAL/1159784.bmp_pp73_L3_V1.0_veridical_freeview_isoFalse_fps144.mp4",""
"","","","call-function","240","714579","0.0-240.0","cofr3f5u","","","","","","","",""
"2599.5500000000466","{""judgement"":0}","[0]","survey-likert","241","717180","0.0-241.0","cofr3f5u","","","","","","","","1"
"2097.655000000028","{""confidence"":1}","[0]","survey-likert","242","719279","0.0-242.0","cofr3f5u","","","","","","","",""
"","","","call-function","243","719280","0.0-243.0","cofr3f5u","","","","","","","",""
"null","","","html-keyboard-response","244","720781","0.0-244.0","cofr3f5u","","<span style=""color:Black; font-size:50px;"">Agent A","null","","","","",""
"null","","","video-keyboard-response","245","723843","0.0-245.0","cofr3f5u","","","null","","Agent A","veridical","STIM_SET_1_REAL/1159447.bmp_pp70_L2_V1.0_veridical_freeview_isoFalse_fps144.mp4",""
"null","","","html-keyboard-response","246","725349","0.0-246.0","cofr3f5u","","<span style=""color:Black; font-size:50px;"">Agent B","null","","","","",""
"null","","","video-keyboard-response","247","728412","0.0-247.0","cofr3f5u","","","null","","Agent B","scrambled","STIM_SET_3/1592150.bmp_pp77_L3_V2_veridical_freeview_isoFalsemismatch_1159447.bmp_L2_fps90.mp4",""
"","","","call-function","248","728413","0.0-248.0","cofr3f5u","","","","","","","",""
"2141.6149999999907","{""judgement"":0}","[0]","survey-likert","249","730556","0.0-249.0","cofr3f5u","","","","","","","","0"
"1966.4899999999907","{""confidence"":2}","[0]","survey-likert","250","732524","0.0-250.0","cofr3f5u","","","","","","","",""
"8544.974999999977","","","instructions","251","741070","0.0-251.0","cofr3f5u","[{""page_index"":0,""viewing_time"":1009.765000000014},{""page_index"":1,""viewing_time"":5915.875},{""page_index"":2,""viewing_time"":1619.1199999999953}]","","","","","","",""
"25042.244999999995","","","instructions","252","766113","0.0-252.0","cofr3f5u","[{""page_index"":0,""viewing_time"":12797.79999999993},{""page_index"":1,""viewing_time"":11620.959999999963},{""page_index"":2,""viewing_time"":623.3699999999953}]","","","","","","",""
"","","","call-function","253","766114","0.0-253.0","cofr3f5u","","","","","","","",""
"null","","","html-keyboard-response","254","767617","0.0-254.0","cofr3f5u","","<span style=""color:Black; font-size:50px;"">Agent A","null","","","","",""
"null","","","video-keyboard-response","255","770688","0.0-255.0","cofr3f5u","","","null","","Agent A","scrambled","STIM_SET_3/1592305.bmp_pp65_L3_V2_veridical_freeview_isoFalsemismatch_713779.bmp_L2_fps90.mp4",""
"null","","","html-keyboard-response","256","772195","0.0-256.0","cofr3f5u","","<span style=""color:Black; font-size:50px;"">Agent B","null","","","","",""
"null","","","video-keyboard-response","257","775284","0.0-257.0","cofr3f5u","","","null","","Agent B","veridical","STIM_SET_1_REAL/713779.bmp_pp152_L2_V1.0_veridical_freeview_isoFalse_fps144.mp4",""
"","","","call-function","258","775285","0.0-258.0","cofr3f5u","","","","","","","",""
"5045.675000000047","{""judgement"":0}","[0]","survey-likert","259","780332","0.0-259.0","cofr3f5u","","","","","","","","1"
"2278.5200000000186","{""confidence"":0}","[0]","survey-likert","260","782612","0.0-260.0","cofr3f5u","","","","","","","",""
"","","","call-function","261","782613","0.0-261.0","cofr3f5u","","","","","","","",""
"null","","","html-keyboard-response","262","784119","0.0-262.0","cofr3f5u","","<span style=""color:Black; font-size:50px;"">Agent A","null","","","","",""
"null","","","video-keyboard-response","263","787197","0.0-263.0","cofr3f5u","","","null","","Agent A","scrambled","STIM_SET_3/1591781.bmp_pp63_L1_V2_veridical_freeview_isoFalsemismatch_1593041.bmp_L1_fps90.mp4",""
"null","","","html-keyboard-response","264","788700","0.0-264.0","cofr3f5u","","<span style=""color:Black; font-size:50px;"">Agent B","null","","","","",""
"null","","","video-keyboard-response","265","791783","0.0-265.0","cofr3f5u","","","null","","Agent B","veridical","STIM_SET_1_REAL/1593041.bmp_pp58_L1_V1.0_veridical_freeview_isoFalse_fps144.mp4",""
"","","","call-function","266","791785","0.0-266.0","cofr3f5u","","","","","","","",""
"4504.785000000033","{""judgement"":1}","[0]","survey-likert","267","796292","0.0-267.0","cofr3f5u","","","","","","","","1"
"1520.9899999999907","{""confidence"":0}","[0]","survey-likert","268","797815","0.0-268.0","cofr3f5u","","","","","","","",""
"","","","call-function","269","797816","0.0-269.0","cofr3f5u","","","","","","","",""
"null","","","html-keyboard-response","270","799321","0.0-270.0","cofr3f5u","","<span style=""color:Black; font-size:50px;"">Agent A","null","","","","",""
"null","","","video-keyboard-response","271","802398","0.0-271.0","cofr3f5u","","","null","","Agent A","veridical","STIM_SET_1_REAL/1160127.bmp_pp90_L2_V1.0_veridical_freeview_isoFalse_fps144.mp4",""
"null","","","html-keyboard-response","272","803902","0.0-272.0","cofr3f5u","","<span style=""color:Black; font-size:50px;"">Agent B","null","","","","",""
"null","","","video-keyboard-response","273","806980","0.0-273.0","cofr3f5u","","","null","","Agent B","scrambled","STIM_SET_3/498372.bmp_pp95_L2_V2_veridical_freeview_isoFalsemismatch_1160127.bmp_L2_fps90.mp4",""
"","","","call-function","274","806981","0.0-274.0","cofr3f5u","","","","","","","",""
"2196.414999999921","{""judgement"":0}","[0]","survey-likert","275","809179","0.0-275.0","cofr3f5u","","","","","","","","0"
"3124.17499999993","{""confidence"":1}","[0]","survey-likert","276","812305","0.0-276.0","cofr3f5u","","","","","","","",""
"","","","call-function","277","812306","0.0-277.0","cofr3f5u","","","","","","","",""
"null","","","html-keyboard-response","278","813811","0.0-278.0","cofr3f5u","","<span style=""color:Black; font-size:50px;"">Agent A","null","","","","",""
"null","","","video-keyboard-response","279","816888","0.0-279.0","cofr3f5u","","","null","","Agent A","veridical","STIM_SET_1_REAL/713371.bmp_pp68_L1_V1.0_veridical_freeview_isoFalse_fps144.mp4",""
"null","","","html-keyboard-response","280","818390","0.0-280.0","cofr3f5u","","<span style=""color:Black; font-size:50px;"">Agent B","null","","","","",""
"null","","","video-keyboard-response","281","821490","0.0-281.0","cofr3f5u","","","null","","Agent B","scrambled","STIM_SET_3/498396.bmp_pp99_L2_V2_veridical_freeview_isoFalsemismatch_713371.bmp_L1_fps90.mp4",""
"","","","call-function","282","821491","0.0-282.0","cofr3f5u","","","","","","","",""
"3203.0500000000466","{""judgement"":1}","[0]","survey-likert","283","824695","0.0-283.0","cofr3f5u","","","","","","","","0"
"1879.1049999999814","{""confidence"":0}","[0]","survey-likert","284","826575","0.0-284.0","cofr3f5u","","","","","","","",""
"","","","call-function","285","826577","0.0-285.0","cofr3f5u","","","","","","","",""
"null","","","html-keyboard-response","286","828079","0.0-286.0","cofr3f5u","","<span style=""color:Black; font-size:50px;"">Agent A","null","","","","",""
"null","","","video-keyboard-response","287","831173","0.0-287.0","cofr3f5u","","","null","","Agent A","veridical","STIM_SET_1_REAL/1592890.bmp_pp82_L2_V1.0_veridical_freeview_isoFalse_fps144.mp4",""
"null","","","html-keyboard-response","288","832676","0.0-288.0","cofr3f5u","","<span style=""color:Black; font-size:50px;"">Agent B","null","","","","",""
"null","","","video-keyboard-response","289","835786","0.0-289.0","cofr3f5u","","","null","","Agent B","scrambled","STIM_SET_3/1592168.bmp_pp71_L1_V2_veridical_freeview_isoFalsemismatch_1592890.bmp_L2_fps90.mp4",""
"","","","call-function","290","835787","0.0-290.0","cofr3f5u","","","","","","","",""
"2771.5350000000326","{""judgement"":0}","[0]","survey-likert","291","838560","0.0-291.0","cofr3f5u","","","","","","","","0"
"3032.4150000000373","{""confidence"":3}","[0]","survey-likert","292","841594","0.0-292.0","cofr3f5u","","","","","","","",""
"","","","call-function","293","841595","0.0-293.0","cofr3f5u","","","","","","","",""
"null","","","html-keyboard-response","294","843099","0.0-294.0","cofr3f5u","","<span style=""color:Black; font-size:50px;"">Agent A","null","","","","",""
"null","","","video-keyboard-response","295","846189","0.0-295.0","cofr3f5u","","","null","","Agent A","veridical","STIM_SET_1_REAL/285994.bmp_pp92_L3_V1.0_veridical_freeview_isoFalse_fps144.mp4",""
"null","","","html-keyboard-response","296","847691","0.0-296.0","cofr3f5u","","<span style=""color:Black; font-size:50px;"">Agent B","null","","","","",""
"null","","","video-keyboard-response","297","850795","0.0-297.0","cofr3f5u","","","null","","Agent B","scrambled","STIM_SET_3/1159592.bmp_pp91_L3_V2_veridical_freeview_isoFalsemismatch_285994.bmp_L3_fps90.mp4",""
"","","","call-function","298","850796","0.0-298.0","cofr3f5u","","","","","","","",""
"1749.6650000000373","{""judgement"":0}","[0]","survey-likert","299","852546","0.0-299.0","cofr3f5u","","","","","","","","0"
"1399.0699999999488","{""confidence"":2}","[0]","survey-likert","300","853947","0.0-300.0","cofr3f5u","","","","","","","",""
"","","","call-function","301","853948","0.0-301.0","cofr3f5u","","","","","","","",""
"null","","","html-keyboard-response","302","855454","0.0-302.0","cofr3f5u","","<span style=""color:Black; font-size:50px;"">Agent A","null","","","","",""
"null","","","video-keyboard-response","303","858517","0.0-303.0","cofr3f5u","","","null","","Agent A","scrambled","STIM_SET_3/1592567.bmp_pp70_L2_V2_veridical_freeview_isoFalsemismatch_713135.bmp_L2_fps90.mp4",""
"null","","","html-keyboard-response","304","860019","0.0-304.0","cofr3f5u","","<span style=""color:Black; font-size:50px;"">Agent B","null","","","","",""
"null","","","video-keyboard-response","305","863129","0.0-305.0","cofr3f5u","","","null","","Agent B","veridical","STIM_SET_1_REAL/713135.bmp_pp54_L2_V1.0_veridical_freeview_isoFalse_fps144.mp4",""
"","","","call-function","306","863130","0.0-306.0","cofr3f5u","","","","","","","",""
"5414.560000000056","{""judgement"":0}","[0]","survey-likert","307","868546","0.0-307.0","cofr3f5u","","","","","","","","1"
"1891.1450000000186","{""confidence"":1}","[0]","survey-likert","308","870438","0.0-308.0","cofr3f5u","","","","","","","",""
"","","","call-function","309","870439","0.0-309.0","cofr3f5u","","","","","","","",""
"null","","","html-keyboard-response","310","871946","0.0-310.0","cofr3f5u","","<span style=""color:Black; font-size:50px;"">Agent A","null","","","","",""
"null","","","video-keyboard-response","311","875015","0.0-311.0","cofr3f5u","","","null","","Agent A","scrambled","STIM_SET_3/1592747.bmp_pp53_L2_V2_veridical_freeview_isoFalsemismatch_713593.bmp_L1_fps90.mp4",""
"null","","","html-keyboard-response","312","876521","0.0-312.0","cofr3f5u","","<span style=""color:Black; font-size:50px;"">Agent B","null","","","","",""
"null","","","video-keyboard-response","313","879597","0.0-313.0","cofr3f5u","","","null","","Agent B","veridical","STIM_SET_1_REAL/713593.bmp_pp64_L1_V1.0_veridical_freeview_isoFalse_fps144.mp4",""
"","","","call-function","314","879598","0.0-314.0","cofr3f5u","","","","","","","",""
"2176.1750000000466","{""judgement"":1}","[0]","survey-likert","315","881775","0.0-315.0","cofr3f5u","","","","","","","","1"
"1439.3549999999814","{""confidence"":1}","[0]","survey-likert","316","883216","0.0-316.0","cofr3f5u","","","","","","","",""
"","","","call-function","317","883217","0.0-317.0","cofr3f5u","","","","","","","",""
"null","","","html-keyboard-response","318","884719","0.0-318.0","cofr3f5u","","<span style=""color:Black; font-size:50px;"">Agent A","null","","","","",""
"null","","","video-keyboard-response","319","887786","0.0-319.0","cofr3f5u","","","null","","Agent A","scrambled","STIM_SET_3/1592951.bmp_pp80_L3_V2_veridical_freeview_isoFalsemismatch_712977.bmp_L1_fps90.mp4",""
"null","","","html-keyboard-response","320","889290","0.0-320.0","cofr3f5u","","<span style=""color:Black; font-size:50px;"">Agent B","null","","","","",""
"null","","","video-keyboard-response","321","892390","0.0-321.0","cofr3f5u","","","null","","Agent B","veridical","STIM_SET_1_REAL/712977.bmp_pp51_L1_V1.0_veridical_freeview_isoFalse_fps144.mp4",""
"","","","call-function","322","892391","0.0-322.0","cofr3f5u","","","","","","","",""
"2071.625","{""judgement"":1}","[0]","survey-likert","323","894463","0.0-323.0","cofr3f5u","","","","","","","","1"
"1328.4249999999302","{""confidence"":1}","[0]","survey-likert","324","895793","0.0-324.0","cofr3f5u","","","","","","","",""
"","","","call-function","325","895794","0.0-325.0","cofr3f5u","","","","","","","",""
"null","","","html-keyboard-response","326","897298","0.0-326.0","cofr3f5u","","<span style=""color:Black; font-size:50px;"">Agent A","null","","","","",""
"null","","","video-keyboard-response","327","900386","0.0-327.0","cofr3f5u","","","null","","Agent A","veridical","STIM_SET_1_REAL/713403.bmp_pp80_L3_V1.0_veridical_freeview_isoFalse_fps144.mp4",""
"null","","","html-keyboard-response","328","901890","0.0-328.0","cofr3f5u","","<span style=""color:Black; font-size:50px;"">Agent B","null","","","","",""
"null","","","video-keyboard-response","329","904978","0.0-329.0","cofr3f5u","","","null","","Agent B","scrambled","STIM_SET_3/286034.bmp_pp69_L3_V2_veridical_freeview_isoFalsemismatch_713403.bmp_L3_fps90.mp4",""
"","","","call-function","330","904980","0.0-330.0","cofr3f5u","","","","","","","",""
"1213.530000000028","{""judgement"":0}","[0]","survey-likert","331","906195","0.0-331.0","cofr3f5u","","","","","","","","0"
"1822.2850000000326","{""confidence"":3}","[0]","survey-likert","332","908019","0.0-332.0","cofr3f5u","","","","","","","",""
"16633.024999999907","","","instructions","333","924654","0.0-333.0","cofr3f5u","[{""page_index"":0,""viewing_time"":13968.329999999958},{""page_index"":1,""viewing_time"":1813.5200000000186},{""page_index"":2,""viewing_time"":851.0050000000047}]","","","","","","",""
"3205.2850000000326","","","instructions","334","927861","0.0-334.0","cofr3f5u","[{""page_index"":0,""viewing_time"":615.8699999999953},{""page_index"":1,""viewing_time"":2160.0749999999534},{""page_index"":2,""viewing_time"":429.2300000000978}]","","","","","","",""
"","","","call-function","335","927863","0.0-335.0","cofr3f5u","","","","","","","",""
"null","","","html-keyboard-response","336","929366","0.0-336.0","cofr3f5u","","<span style=""color:Black; font-size:50px;"">Agent A","null","","","","",""
"null","","","video-keyboard-response","337","932428","0.0-337.0","cofr3f5u","","","null","","Agent A","veridical","STIM_SET_1_REAL/713681.bmp_pp86_L2_V1.0_veridical_freeview_isoFalse_fps144.mp4",""
"null","","","html-keyboard-response","338","933935","0.0-338.0","cofr3f5u","","<span style=""color:Black; font-size:50px;"">Agent B","null","","","","",""
"null","","","video-keyboard-response","339","937035","0.0-339.0","cofr3f5u","","","null","","Agent B","scrambled","STIM_SET_3/498025.bmp_pp81_L1_V2_veridical_freeview_isoFalsemismatch_713681.bmp_L2_fps90.mp4",""
"","","","call-function","340","937036","0.0-340.0","cofr3f5u","","","","","","","",""
"1481.125","{""judgement"":0}","[0]","survey-likert","341","938518","0.0-341.0","cofr3f5u","","","","","","","","0"
"1418.3099999999395","{""confidence"":2}","[0]","survey-likert","342","939938","0.0-342.0","cofr3f5u","","","","","","","",""
"","","","call-function","343","939939","0.0-343.0","cofr3f5u","","","","","","","",""
"null","","","html-keyboard-response","344","941443","0.0-344.0","cofr3f5u","","<span style=""color:Black; font-size:50px;"">Agent A","null","","","","",""
"null","","","video-keyboard-response","345","944508","0.0-345.0","cofr3f5u","","","null","","Agent A","scrambled","STIM_SET_3/1159427.bmp_pp98_L1_V2_veridical_freeview_isoFalsemismatch_1591876.bmp_L1_fps90.mp4",""
"null","","","html-keyboard-response","346","946013","0.0-346.0","cofr3f5u","","<span style=""color:Black; font-size:50px;"">Agent B","null","","","","",""
"null","","","video-keyboard-response","347","949088","0.0-347.0","cofr3f5u","","","null","","Agent B","veridical","STIM_SET_1_REAL/1591876.bmp_pp63_L1_V1.0_veridical_freeview_isoFalse_fps144.mp4",""
"","","","call-function","348","949089","0.0-348.0","cofr3f5u","","","","","","","",""
"3538.189999999944","{""judgement"":0}","[0]","survey-likert","349","952628","0.0-349.0","cofr3f5u","","","","","","","","1"
"1152.9150000000373","{""confidence"":0}","[0]","survey-likert","350","953783","0.0-350.0","cofr3f5u","","","","","","","",""
"","","","call-function","351","953784","0.0-351.0","cofr3f5u","","","","","","","",""
"null","","","html-keyboard-response","352","955287","0.0-352.0","cofr3f5u","","<span style=""color:Black; font-size:50px;"">Agent A","null","","","","",""
"null","","","video-keyboard-response","353","958393","0.0-353.0","cofr3f5u","","","null","","Agent A","veridical","STIM_SET_1_REAL/1593146.bmp_pp93_L1_V1.0_veridical_freeview_isoFalse_fps144.mp4",""
"null","","","html-keyboard-response","354","959897","0.0-354.0","cofr3f5u","","<span style=""color:Black; font-size:50px;"">Agent B","null","","","","",""
"null","","","video-keyboard-response","355","963001","0.0-355.0","cofr3f5u","","","null","","Agent B","scrambled","STIM_SET_3/1592298.bmp_pp56_L3_V2_veridical_freeview_isoFalsemismatch_1593146.bmp_L1_fps90.mp4",""
"","","","call-function","356","963002","0.0-356.0","cofr3f5u","","","","","","","",""
"5035.744999999995","{""judgement"":1}","[0]","survey-likert","357","968039","0.0-357.0","cofr3f5u","","","","","","","","0"
"2228.689999999944","{""confidence"":1}","[0]","survey-likert","358","970269","0.0-358.0","cofr3f5u","","","","","","","",""
"","","","call-function","359","970270","0.0-359.0","cofr3f5u","","","","","","","",""
"null","","","html-keyboard-response","360","971775","0.0-360.0","cofr3f5u","","<span style=""color:Black; font-size:50px;"">Agent A","null","","","","",""
"null","","","video-keyboard-response","361","974868","0.0-361.0","cofr3f5u","","","null","","Agent A","veridical","STIM_SET_1_REAL/1592133.bmp_pp75_L1_V1.0_veridical_freeview_isoFalse_fps144.mp4",""
"null","","","html-keyboard-response","362","976371","0.0-362.0","cofr3f5u","","<span style=""color:Black; font-size:50px;"">Agent B","null","","","","",""
"null","","","video-keyboard-response","363","979479","0.0-363.0","cofr3f5u","","","null","","Agent B","scrambled","STIM_SET_3/1160247.bmp_pp54_L2_V2_veridical_freeview_isoFalsemismatch_1592133.bmp_L1_fps90.mp4",""
"","","","call-function","364","979480","0.0-364.0","cofr3f5u","","","","","","","",""
"2135.2799999999115","{""judgement"":0}","[0]","survey-likert","365","981616","0.0-365.0","cofr3f5u","","","","","","","","0"
"1351.8649999999907","{""confidence"":2}","[0]","survey-likert","366","982970","0.0-366.0","cofr3f5u","","","","","","","",""
"","","","call-function","367","982971","0.0-367.0","cofr3f5u","","","","","","","",""
"null","","","html-keyboard-response","368","984476","0.0-368.0","cofr3f5u","","<span style=""color:Black; font-size:50px;"">Agent A","null","","","","",""
"null","","","video-keyboard-response","369","987579","0.0-369.0","cofr3f5u","","","null","","Agent A","veridical","STIM_SET_1_REAL/1160168.bmp_pp53_L2_V1.0_veridical_freeview_isoFalse_fps144.mp4",""
"null","","","html-keyboard-response","370","989085","0.0-370.0","cofr3f5u","","<span style=""color:Black; font-size:50px;"">Agent B","null","","","","",""
"null","","","video-keyboard-response","371","992183","0.0-371.0","cofr3f5u","","","null","","Agent B","scrambled","STIM_SET_3/1592857.bmp_pp52_L1_V2_veridical_freeview_isoFalsemismatch_1160168.bmp_L2_fps90.mp4",""
"","","","call-function","372","992185","0.0-372.0","cofr3f5u","","","","","","","",""
"1654.9799999999814","{""judgement"":0}","[0]","survey-likert","373","993841","0.0-373.0","cofr3f5u","","","","","","","","0"
"2344.7399999999907","{""confidence"":2}","[0]","survey-likert","374","996187","0.0-374.0","cofr3f5u","","","","","","","",""
"","","","call-function","375","996188","0.0-375.0","cofr3f5u","","","","","","","",""
"null","","","html-keyboard-response","376","997691","0.0-376.0","cofr3f5u","","<span style=""color:Black; font-size:50px;"">Agent A","null","","","","",""
"null","","","video-keyboard-response","377","1000759","0.0-377.0","cofr3f5u","","","null","","Agent A","veridical","STIM_SET_1_REAL/1159440.bmp_pp98_L1_V1.0_veridical_freeview_isoFalse_fps144.mp4",""
"null","","","html-keyboard-response","378","1002263","0.0-378.0","cofr3f5u","","<span style=""color:Black; font-size:50px;"">Agent B","null","","","","",""
"null","","","video-keyboard-response","379","1005342","0.0-379.0","cofr3f5u","","","null","","Agent B","scrambled","STIM_SET_3/713829.bmp_pp60_L3_V2_veridical_freeview_isoFalsemismatch_1159440.bmp_L1_fps90.mp4",""
"","","","call-function","380","1005343","0.0-380.0","cofr3f5u","","","","","","","",""
"2152.045000000042","{""judgement"":0}","[0]","survey-likert","381","1007496","0.0-381.0","cofr3f5u","","","","","","","","0"
"1483.6500000000233","{""confidence"":2}","[0]","survey-likert","382","1008982","0.0-382.0","cofr3f5u","","","","","","","",""
"","","","call-function","383","1008983","0.0-383.0","cofr3f5u","","","","","","","",""
"null","","","html-keyboard-response","384","1010485","0.0-384.0","cofr3f5u","","<span style=""color:Black; font-size:50px;"">Agent A","null","","","","",""
"null","","","video-keyboard-response","385","1013547","0.0-385.0","cofr3f5u","","","null","","Agent A","scrambled","STIM_SET_3/285932.bmp_pp64_L1_V2_veridical_freeview_isoFalsemismatch_1159855.bmp_L2_fps90.mp4",""
"null","","","html-keyboard-response","386","1015051","0.0-386.0","cofr3f5u","","<span style=""color:Black; font-size:50px;"">Agent B","null","","","","",""
"null","","","video-keyboard-response","387","1018127","0.0-387.0","cofr3f5u","","","null","","Agent B","veridical","STIM_SET_1_REAL/1159855.bmp_pp99_L2_V1.0_veridical_freeview_isoFalse_fps144.mp4",""
"","","","call-function","388","1018128","0.0-388.0","cofr3f5u","","","","","","","",""
"1989.9399999999441","{""judgement"":1}","[0]","survey-likert","389","1020119","0.0-389.0","cofr3f5u","","","","","","","","1"
"3055.0100000000093","{""confidence"":2}","[0]","survey-likert","390","1023176","0.0-390.0","cofr3f5u","","","","","","","",""
"","","","call-function","391","1023177","0.0-391.0","cofr3f5u","","","","","","","",""
"null","","","html-keyboard-response","392","1024680","0.0-392.0","cofr3f5u","","<span style=""color:Black; font-size:50px;"">Agent A","null","","","","",""
"null","","","video-keyboard-response","393","1027783","0.0-393.0","cofr3f5u","","","null","","Agent A","scrambled","STIM_SET_3/713689.bmp_pp153_L3_V2_veridical_freeview_isoFalsemismatch_498175.bmp_L1_fps90.mp4",""
"null","","","html-keyboard-response","394","1029286","0.0-394.0","cofr3f5u","","<span style=""color:Black; font-size:50px;"">Agent B","null","","","","",""
"null","","","video-keyboard-response","395","1032384","0.0-395.0","cofr3f5u","","","null","","Agent B","veridical","STIM_SET_1_REAL/498175.bmp_pp154_L1_V1.0_veridical_freeview_isoFalse_fps144.mp4",""
"","","","call-function","396","1032386","0.0-396.0","cofr3f5u","","","","","","","",""
"2887.0350000000326","{""judgement"":1}","[0]","survey-likert","397","1035274","0.0-397.0","cofr3f5u","","","","","","","","1"
"2542.4400000000605","{""confidence"":2}","[0]","survey-likert","398","1037818","0.0-398.0","cofr3f5u","","","","","","","",""
"","","","call-function","399","1037818","0.0-399.0","cofr3f5u","","","","","","","",""
"null","","","html-keyboard-response","400","1039320","0.0-400.0","cofr3f5u","","<span style=""color:Black; font-size:50px;"">Agent A","null","","","","",""
"null","","","video-keyboard-response","401","1042423","0.0-401.0","cofr3f5u","","","null","","Agent A","scrambled","STIM_SET_3/285684.bmp_pp80_L3_V2_veridical_freeview_isoFalsemismatch_713760.bmp_L1_fps90.mp4",""
"null","","","html-keyboard-response","402","1043927","0.0-402.0","cofr3f5u","","<span style=""color:Black; font-size:50px;"">Agent B","null","","","","",""
"null","","","video-keyboard-response","403","1047005","0.0-403.0","cofr3f5u","","","null","","Agent B","veridical","STIM_SET_1_REAL/713760.bmp_pp81_L1_V1.0_veridical_freeview_isoFalse_fps144.mp4",""
"","","","call-function","404","1047007","0.0-404.0","cofr3f5u","","","","","","","",""
"1596.9149999999208","{""judgement"":1}","[0]","survey-likert","405","1048605","0.0-405.0","cofr3f5u","","","","","","","","1"
"1312.9750000000931","{""confidence"":2}","[0]","survey-likert","406","1049920","0.0-406.0","cofr3f5u","","","","","","","",""
"","","","call-function","407","1049921","0.0-407.0","cofr3f5u","","","","","","","",""
"null","","","html-keyboard-response","408","1051423","0.0-408.0","cofr3f5u","","<span style=""color:Black; font-size:50px;"">Agent A","null","","","","",""
"null","","","video-keyboard-response","409","1054506","0.0-409.0","cofr3f5u","","","null","","Agent A","scrambled","STIM_SET_3/1592025.bmp_pp68_L1_V2_veridical_freeview_isoFalsemismatch_1592351.bmp_L1_fps90.mp4",""
"null","","","html-keyboard-response","410","1056013","0.0-410.0","cofr3f5u","","<span style=""color:Black; font-size:50px;"">Agent B","null","","","","",""
"null","","","video-keyboard-response","411","1059080","0.0-411.0","cofr3f5u","","","null","","Agent B","veridical","STIM_SET_1_REAL/1592351.bmp_pp51_L1_V1.0_veridical_freeview_isoFalse_fps144.mp4",""
"","","","call-function","412","1059081","0.0-412.0","cofr3f5u","","","","","","","",""
"2265.2600000000093","{""judgement"":1}","[0]","survey-likert","413","1061348","0.0-413.0","cofr3f5u","","","","","","","","1"
"1576.9299999999348","{""confidence"":2}","[0]","survey-likert","414","1062927","0.0-414.0","cofr3f5u","","","","","","","",""
"26857.00500000012","","","instructions","415","1089785","0.0-415.0","cofr3f5u","[{""page_index"":0,""viewing_time"":2010.6750000000466},{""page_index"":1,""viewing_time"":23494.040000000037},{""page_index"":2,""viewing_time"":1352.1299999998882}]","","","","","","",""
"4158.005000000121","","","instructions","416","1093944","0.0-416.0","cofr3f5u","[{""page_index"":0,""viewing_time"":1251.7250000000931},{""page_index"":1,""viewing_time"":2124.929999999935},{""page_index"":2,""viewing_time"":781.2450000001118}]","","","","","","",""
"","","","call-function","417","1093945","0.0-417.0","cofr3f5u","","","","","","","",""
"null","","","html-keyboard-response","418","1095448","0.0-418.0","cofr3f5u","","<span style=""color:Black; font-size:50px;"">Agent A","null","","","","",""
"null","","","video-keyboard-response","419","1098534","0.0-419.0","cofr3f5u","","","null","","Agent A","scrambled","STIM_SET_3/713770.bmp_pp89_L1_V2_veridical_freeview_isoFalsemismatch_61537.bmp_L3_fps90.mp4",""
"null","","","html-keyboard-response","420","1100036","0.0-420.0","cofr3f5u","","<span style=""color:Black; font-size:50px;"">Agent B","null","","","","",""
"null","","","video-keyboard-response","421","1103137","0.0-421.0","cofr3f5u","","","null","","Agent B","veridical","STIM_SET_1_REAL/61537.bmp_pp73_L3_V1.0_veridical_freeview_isoFalse_fps144.mp4",""
"","","","call-function","422","1103138","0.0-422.0","cofr3f5u","","","","","","","",""
"2726.394999999786","{""judgement"":1}","[0]","survey-likert","423","1105865","0.0-423.0","cofr3f5u","","","","","","","","1"
"1415.8199999998324","{""confidence"":0}","[0]","survey-likert","424","1107283","0.0-424.0","cofr3f5u","","","","","","","",""
"","","","call-function","425","1107284","0.0-425.0","cofr3f5u","","","","","","","",""
"null","","","html-keyboard-response","426","1108787","0.0-426.0","cofr3f5u","","<span style=""color:Black; font-size:50px;"">Agent A","null","","","","",""
"null","","","video-keyboard-response","427","1111875","0.0-427.0","cofr3f5u","","","null","","Agent A","scrambled","STIM_SET_3/107909.bmp_pp95_L2_V2_veridical_freeview_isoFalsemismatch_1592372.bmp_L1_fps90.mp4",""
"null","","","html-keyboard-response","428","1113377","0.0-428.0","cofr3f5u","","<span style=""color:Black; font-size:50px;"">Agent B","null","","","","",""
"null","","","video-keyboard-response","429","1116479","0.0-429.0","cofr3f5u","","","null","","Agent B","veridical","STIM_SET_1_REAL/1592372.bmp_pp76_L1_V1.0_veridical_freeview_isoFalse_fps144.mp4",""
"","","","call-function","430","1116480","0.0-430.0","cofr3f5u","","","","","","","",""
"3355.5500000000466","{""judgement"":1}","[0]","survey-likert","431","1119837","0.0-431.0","cofr3f5u","","","","","","","","1"
"1742.7749999999069","{""confidence"":0}","[0]","survey-likert","432","1121581","0.0-432.0","cofr3f5u","","","","","","","",""
"","","","call-function","433","1121582","0.0-433.0","cofr3f5u","","","","","","","",""
"null","","","html-keyboard-response","434","1123083","0.0-434.0","cofr3f5u","","<span style=""color:Black; font-size:50px;"">Agent A","null","","","","",""
"null","","","video-keyboard-response","435","1126161","0.0-435.0","cofr3f5u","","","null","","Agent A","scrambled","STIM_SET_3/1159874.bmp_pp96_L2_V2_veridical_freeview_isoFalsemismatch_1159515.bmp_L3_fps90.mp4",""
"null","","","html-keyboard-response","436","1127666","0.0-436.0","cofr3f5u","","<span style=""color:Black; font-size:50px;"">Agent B","null","","","","",""
"null","","","video-keyboard-response","437","1130733","0.0-437.0","cofr3f5u","","","null","","Agent B","veridical","STIM_SET_1_REAL/1159515.bmp_pp84_L3_V1.0_veridical_freeview_isoFalse_fps144.mp4",""
"","","","call-function","438","1130734","0.0-438.0","cofr3f5u","","","","","","","",""
"1810.719999999972","{""judgement"":1}","[0]","survey-likert","439","1132546","0.0-439.0","cofr3f5u","","","","","","","","1"
"1406.9099999999162","{""confidence"":2}","[0]","survey-likert","440","1133954","0.0-440.0","cofr3f5u","","","","","","","",""
"","","","call-function","441","1133955","0.0-441.0","cofr3f5u","","","","","","","",""
"null","","","html-keyboard-response","442","1135461","0.0-442.0","cofr3f5u","","<span style=""color:Black; font-size:50px;"">Agent A","null","","","","",""
"null","","","video-keyboard-response","443","1138568","0.0-443.0","cofr3f5u","","","null","","Agent A","veridical","STIM_SET_1_REAL/1592804.bmp_pp91_L3_V1.0_veridical_freeview_isoFalse_fps144.mp4",""
"null","","","html-keyboard-response","444","1140070","0.0-444.0","cofr3f5u","","<span style=""color:Black; font-size:50px;"">Agent B","null","","","","",""
"null","","","video-keyboard-response","445","1143176","0.0-445.0","cofr3f5u","","","null","","Agent B","scrambled","STIM_SET_3/1591920.bmp_pp97_L3_V2_veridical_freeview_isoFalsemismatch_1592804.bmp_L3_fps90.mp4",""
"","","","call-function","446","1143177","0.0-446.0","cofr3f5u","","","","","","","",""
"4187.935000000056","{""judgement"":0}","[0]","survey-likert","447","1147366","0.0-447.0","cofr3f5u","","","","","","","","0"
"1201.5399999998044","{""confidence"":2}","[0]","survey-likert","448","1148569","0.0-448.0","cofr3f5u","","","","","","","",""
"","","","call-function","449","1148570","0.0-449.0","cofr3f5u","","","","","","","",""
"null","","","html-keyboard-response","450","1150071","0.0-450.0","cofr3f5u","","<span style=""color:Black; font-size:50px;"">Agent A","null","","","","",""
"null","","","video-keyboard-response","451","1153182","0.0-451.0","cofr3f5u","","","null","","Agent A","scrambled","STIM_SET_3/1159329.bmp_pp61_L2_V2_veridical_freeview_isoFalsemismatch_1592817.bmp_L3_fps90.mp4",""
"null","","","html-keyboard-response","452","1154688","0.0-452.0","cofr3f5u","","<span style=""color:Black; font-size:50px;"">Agent B","null","","","","",""
"null","","","video-keyboard-response","453","1157777","0.0-453.0","cofr3f5u","","","null","","Agent B","veridical","STIM_SET_1_REAL/1592817.bmp_pp55_L3_V1.0_veridical_freeview_isoFalse_fps144.mp4",""
"","","","call-function","454","1157778","0.0-454.0","cofr3f5u","","","","","","","",""
"4216.485000000102","{""judgement"":0}","[0]","survey-likert","455","1161996","0.0-455.0","cofr3f5u","","","","","","","","1"
"1349.0200000000186","{""confidence"":1}","[0]","survey-likert","456","1163346","0.0-456.0","cofr3f5u","","","","","","","",""
"","","","call-function","457","1163347","0.0-457.0","cofr3f5u","","","","","","","",""
"null","","","html-keyboard-response","458","1164849","0.0-458.0","cofr3f5u","","<span style=""color:Black; font-size:50px;"">Agent A","null","","","","",""
"null","","","video-keyboard-response","459","1167931","0.0-459.0","cofr3f5u","","","null","","Agent A","scrambled","STIM_SET_3/1592289.bmp_pp92_L3_V2_veridical_freeview_isoFalsemismatch_713666.bmp_L3_fps90.mp4",""
"null","","","html-keyboard-response","460","1169438","0.0-460.0","cofr3f5u","","<span style=""color:Black; font-size:50px;"">Agent B","null","","","","",""
"null","","","video-keyboard-response","461","1172549","0.0-461.0","cofr3f5u","","","null","","Agent B","veridical","STIM_SET_1_REAL/713666.bmp_pp97_L3_V1.0_veridical_freeview_isoFalse_fps144.mp4",""
"","","","call-function","462","1172550","0.0-462.0","cofr3f5u","","","","","","","",""
"1942.0349999999162","{""judgement"":1}","[0]","survey-likert","463","1174493","0.0-463.0","cofr3f5u","","","","","","","","1"
"2282.564999999944","{""confidence"":2}","[0]","survey-likert","464","1176778","0.0-464.0","cofr3f5u","","","","","","","",""
"","","","call-function","465","1176779","0.0-465.0","cofr3f5u","","","","","","","",""
"null","","","html-keyboard-response","466","1178280","0.0-466.0","cofr3f5u","","<span style=""color:Black; font-size:50px;"">Agent A","null","","","","",""
"null","","","video-keyboard-response","467","1181364","0.0-467.0","cofr3f5u","","","null","","Agent A","veridical","STIM_SET_1_REAL/1591954.bmp_pp62_L2_V1.0_veridical_freeview_isoFalse_fps144.mp4",""
"null","","","html-keyboard-response","468","1182869","0.0-468.0","cofr3f5u","","<span style=""color:Black; font-size:50px;"">Agent B","null","","","","",""
"null","","","video-keyboard-response","469","1186067","0.0-469.0","cofr3f5u","","","null","","Agent B","scrambled","STIM_SET_3/1160049.bmp_pp53_L2_V2_veridical_freeview_isoFalsemismatch_1591954.bmp_L2_fps90.mp4",""
"","","","call-function","470","1186069","0.0-470.0","cofr3f5u","","","","","","","",""
"2866.4550000000745","{""judgement"":1}","[0]","survey-likert","471","1188937","0.0-471.0","cofr3f5u","","","","","","","","0"
"1987.535000000149","{""confidence"":2}","[0]","survey-likert","472","1190927","0.0-472.0","cofr3f5u","","","","","","","",""
"","","","call-function","473","1190928","0.0-473.0","cofr3f5u","","","","","","","",""
"null","","","html-keyboard-response","474","1192431","0.0-474.0","cofr3f5u","","<span style=""color:Black; font-size:50px;"">Agent A","null","","","","",""
"null","","","video-keyboard-response","475","1195499","0.0-475.0","cofr3f5u","","","null","","Agent A","veridical","STIM_SET_1_REAL/1591961.bmp_pp67_L2_V1.0_veridical_freeview_isoFalse_fps144.mp4",""
"null","","","html-keyboard-response","476","1197001","0.0-476.0","cofr3f5u","","<span style=""color:Black; font-size:50px;"">Agent B","null","","","","",""
"null","","","video-keyboard-response","477","1200089","0.0-477.0","cofr3f5u","","","null","","Agent B","scrambled","STIM_SET_3/1592530.bmp_pp75_L1_V2_veridical_freeview_isoFalsemismatch_1591961.bmp_L2_fps90.mp4",""
"","","","call-function","478","1200090","0.0-478.0","cofr3f5u","","","","","","","",""
"2120.814999999944","{""judgement"":0}","[0]","survey-likert","479","1202212","0.0-479.0","cofr3f5u","","","","","","","","0"
"1246.9499999999534","{""confidence"":1}","[0]","survey-likert","480","1203461","0.0-480.0","cofr3f5u","","","","","","","",""
"","","","call-function","481","1203462","0.0-481.0","cofr3f5u","","","","","","","",""
"null","","","html-keyboard-response","482","1204965","0.0-482.0","cofr3f5u","","<span style=""color:Black; font-size:50px;"">Agent A","null","","","","",""
"null","","","video-keyboard-response","483","1208032","0.0-483.0","cofr3f5u","","","null","","Agent A","veridical","STIM_SET_1_REAL/1592362.bmp_pp95_L2_V1.0_veridical_freeview_isoFalse_fps144.mp4",""
"null","","","html-keyboard-response","484","1209536","0.0-484.0","cofr3f5u","","<span style=""color:Black; font-size:50px;"">Agent B","null","","","","",""
"null","","","video-keyboard-response","485","1212651","0.0-485.0","cofr3f5u","","","null","","Agent B","scrambled","STIM_SET_3/150277.bmp_pp65_L3_V2_veridical_freeview_isoFalsemismatch_1592362.bmp_L2_fps90.mp4",""
"","","","call-function","486","1212652","0.0-486.0","cofr3f5u","","","","","","","",""
"10012.794999999925","{""judgement"":0}","[0]","survey-likert","487","1222666","0.0-487.0","cofr3f5u","","","","","","","","0"
"1155.2649999998976","{""confidence"":1}","[0]","survey-likert","488","1223823","0.0-488.0","cofr3f5u","","","","","","","",""
"","","","call-function","489","1223824","0.0-489.0","cofr3f5u","","","","","","","",""
"null","","","html-keyboard-response","490","1225327","0.0-490.0","cofr3f5u","","<span style=""color:Black; font-size:50px;"">Agent A","null","","","","",""
"null","","","video-keyboard-response","491","1228436","0.0-491.0","cofr3f5u","","","null","","Agent A","scrambled","STIM_SET_3/150463.bmp_pp55_L3_V2_veridical_freeview_isoFalsemismatch_1592619.bmp_L3_fps90.mp4",""
"null","","","html-keyboard-response","492","1229938","0.0-492.0","cofr3f5u","","<span style=""color:Black; font-size:50px;"">Agent B","null","","","","",""
"null","","","video-keyboard-response","493","1233029","0.0-493.0","cofr3f5u","","","null","","Agent B","veridical","STIM_SET_1_REAL/1592619.bmp_pp56_L3_V1.0_veridical_freeview_isoFalse_fps144.mp4",""
"","","","call-function","494","1233030","0.0-494.0","cofr3f5u","","","","","","","",""
"4154.51500000013","{""judgement"":0}","[0]","survey-likert","495","1237185","0.0-495.0","cofr3f5u","","","","","","","","1"
"1358.5150000001304","{""confidence"":1}","[0]","survey-likert","496","1238545","0.0-496.0","cofr3f5u","","","","","","","",""
"24096.344999999972","","","instructions","497","1262642","0.0-497.0","cofr3f5u","[{""page_index"":0,""viewing_time"":1607.2249999998603},{""page_index"":1,""viewing_time"":20477.080000000075},{""page_index"":2,""viewing_time"":2011.8649999999907}]","","","","","","",""
"2138.1750000000466","","","instructions","498","1264782","0.0-498.0","cofr3f5u","[{""page_index"":0,""viewing_time"":530.8300000000745},{""page_index"":1,""viewing_time"":1128.155000000028},{""page_index"":2,""viewing_time"":479.07499999995343}]","","","","","","",""
"","","","call-function","499","1264783","0.0-499.0","cofr3f5u","","","","","","","",""
"null","","","html-keyboard-response","500","1266284","0.0-500.0","cofr3f5u","","<span style=""color:Black; font-size:50px;"">Agent A","null","","","","",""
"null","","","video-keyboard-response","501","1269376","0.0-501.0","cofr3f5u","","","null","","Agent A","scrambled","STIM_SET_3/713790.bmp_pp100_L3_V2_veridical_freeview_isoFalsemismatch_1592397.bmp_L3_fps90.mp4",""
"null","","","html-keyboard-response","502","1270883","0.0-502.0","cofr3f5u","","<span style=""color:Black; font-size:50px;"">Agent B","null","","","","",""
"null","","","video-keyboard-response","503","1273954","0.0-503.0","cofr3f5u","","","null","","Agent B","veridical","STIM_SET_1_REAL/1592397.bmp_pp85_L3_V1.0_veridical_freeview_isoFalse_fps144.mp4",""
"","","","call-function","504","1273955","0.0-504.0","cofr3f5u","","","","","","","",""
"1926.8349999999627","{""judgement"":1}","[0]","survey-likert","505","1275882","0.0-505.0","cofr3f5u","","","","","","","","1"
"1112.9300000001676","{""confidence"":1}","[0]","survey-likert","506","1276997","0.0-506.0","cofr3f5u","","","","","","","",""
"","","","call-function","507","1276998","0.0-507.0","cofr3f5u","","","","","","","",""
"null","","","html-keyboard-response","508","1278499","0.0-508.0","cofr3f5u","","<span style=""color:Black; font-size:50px;"">Agent A","null","","","","",""
"null","","","video-keyboard-response","509","1281582","0.0-509.0","cofr3f5u","","","null","","Agent A","scrambled","STIM_SET_3/107955.bmp_pp90_L2_V2_veridical_freeview_isoFalsemismatch_498149.bmp_L2_fps90.mp4",""
"null","","","html-keyboard-response","510","1283086","0.0-510.0","cofr3f5u","","<span style=""color:Black; font-size:50px;"">Agent B","null","","","","",""
"null","","","video-keyboard-response","511","1286152","0.0-511.0","cofr3f5u","","","null","","Agent B","veridical","STIM_SET_1_REAL/498149.bmp_pp99_L2_V1.0_veridical_freeview_isoFalse_fps144.mp4",""
"","","","call-function","512","1286153","0.0-512.0","cofr3f5u","","","","","","","",""
"1618.3549999999814","{""judgement"":1}","[0]","survey-likert","513","1287773","0.0-513.0","cofr3f5u","","","","","","","","1"
"3577.130000000121","{""confidence"":2}","[0]","survey-likert","514","1291351","0.0-514.0","cofr3f5u","","","","","","","",""
"","","","call-function","515","1291352","0.0-515.0","cofr3f5u","","","","","","","",""
"null","","","html-keyboard-response","516","1292856","0.0-516.0","cofr3f5u","","<span style=""color:Black; font-size:50px;"">Agent A","null","","","","",""
"null","","","video-keyboard-response","517","1295972","0.0-517.0","cofr3f5u","","","null","","Agent A","scrambled","STIM_SET_3/1592314.bmp_pp100_L3_V2_veridical_freeview_isoFalsemismatch_713707.bmp_L1_fps90.mp4",""
"null","","","html-keyboard-response","518","1297473","0.0-518.0","cofr3f5u","","<span style=""color:Black; font-size:50px;"">Agent B","null","","","","",""
"null","","","video-keyboard-response","519","1300581","0.0-519.0","cofr3f5u","","","null","","Agent B","veridical","STIM_SET_1_REAL/713707.bmp_pp154_L1_V1.0_veridical_freeview_isoFalse_fps144.mp4",""
"","","","call-function","520","1300582","0.0-520.0","cofr3f5u","","","","","","","",""
"3932.185000000056","{""judgement"":0}","[0]","survey-likert","521","1304515","0.0-521.0","cofr3f5u","","","","","","","","1"
"1371.2000000001863","{""confidence"":1}","[0]","survey-likert","522","1305888","0.0-522.0","cofr3f5u","","","","","","","",""
"","","","call-function","523","1305889","0.0-523.0","cofr3f5u","","","","","","","",""
"null","","","html-keyboard-response","524","1307391","0.0-524.0","cofr3f5u","","<span style=""color:Black; font-size:50px;"">Agent A","null","","","","",""
"null","","","video-keyboard-response","525","1310520","0.0-525.0","cofr3f5u","","","null","","Agent A","scrambled","STIM_SET_3/1592017.bmp_pp154_L1_V2_veridical_freeview_isoFalsemismatch_1159777.bmp_L3_fps90.mp4",""
"null","","","html-keyboard-response","526","1312025","0.0-526.0","cofr3f5u","","<span style=""color:Black; font-size:50px;"">Agent B","null","","","","",""
"null","","","video-keyboard-response","527","1315143","0.0-527.0","cofr3f5u","","","null","","Agent B","veridical","STIM_SET_1_REAL/1159777.bmp_pp77_L3_V1.0_veridical_freeview_isoFalse_fps144.mp4",""
"","","","call-function","528","1315145","0.0-528.0","cofr3f5u","","","","","","","",""
"4689.860000000102","{""judgement"":1}","[0]","survey-likert","529","1319836","0.0-529.0","cofr3f5u","","","","","","","","1"
"4095.75","{""confidence"":1}","[0]","survey-likert","530","1323935","0.0-530.0","cofr3f5u","","","","","","","",""
"","","","call-function","531","1323936","0.0-531.0","cofr3f5u","","","","","","","",""
"null","","","html-keyboard-response","532","1325441","0.0-532.0","cofr3f5u","","<span style=""color:Black; font-size:50px;"">Agent A","null","","","","",""
"null","","","video-keyboard-response","533","1328512","0.0-533.0","cofr3f5u","","","null","","Agent A","veridical","STIM_SET_1_REAL/285905.bmp_pp57_L1_V1.0_veridical_freeview_isoFalse_fps144.mp4",""
"null","","","html-keyboard-response","534","1330015","0.0-534.0","cofr3f5u","","<span style=""color:Black; font-size:50px;"">Agent B","null","","","","",""
"null","","","video-keyboard-response","535","1333106","0.0-535.0","cofr3f5u","","","null","","Agent B","scrambled","STIM_SET_3/1592568.bmp_pp71_L1_V2_veridical_freeview_isoFalsemismatch_285905.bmp_L1_fps90.mp4",""
"","","","call-function","536","1333107","0.0-536.0","cofr3f5u","","","","","","","",""
"1760.030000000028","{""judgement"":0}","[0]","survey-likert","537","1334869","0.0-537.0","cofr3f5u","","","","","","","","0"
"1477.6899999999441","{""confidence"":2}","[0]","survey-likert","538","1336348","0.0-538.0","cofr3f5u","","","","","","","",""
"","","","call-function","539","1336350","0.0-539.0","cofr3f5u","","","","","","","",""
"null","","","html-keyboard-response","540","1337851","0.0-540.0","cofr3f5u","","<span style=""color:Black; font-size:50px;"">Agent A","null","","","","",""
"null","","","video-keyboard-response","541","1340947","0.0-541.0","cofr3f5u","","","null","","Agent A","scrambled","STIM_SET_3/713633.bmp_pp58_L1_V2_veridical_freeview_isoFalsemismatch_713796.bmp_L3_fps90.mp4",""
"null","","","html-keyboard-response","542","1342451","0.0-542.0","cofr3f5u","","<span style=""color:Black; font-size:50px;"">Agent B","null","","","","",""
"null","","","video-keyboard-response","543","1345549","0.0-543.0","cofr3f5u","","","null","","Agent B","veridical","STIM_SET_1_REAL/713796.bmp_pp84_L3_V1.0_veridical_freeview_isoFalse_fps144.mp4",""
"","","","call-function","544","1345550","0.0-544.0","cofr3f5u","","","","","","","",""
"2501.8950000000186","{""judgement"":1}","[0]","survey-likert","545","1348052","0.0-545.0","cofr3f5u","","","","","","","","1"
"1320.4250000000466","{""confidence"":2}","[0]","survey-likert","546","1349375","0.0-546.0","cofr3f5u","","","","","","","",""
"","","","call-function","547","1349376","0.0-547.0","cofr3f5u","","","","","","","",""
"null","","","html-keyboard-response","548","1350879","0.0-548.0","cofr3f5u","","<span style=""color:Black; font-size:50px;"">Agent A","null","","","","",""
"null","","","video-keyboard-response","549","1353980","0.0-549.0","cofr3f5u","","","null","","Agent A","veridical","STIM_SET_1_REAL/1159768.bmp_pp89_L1_V1.0_veridical_freeview_isoFalse_fps144.mp4",""
"null","","","html-keyboard-response","550","1355483","0.0-550.0","cofr3f5u","","<span style=""color:Black; font-size:50px;"">Agent B","null","","","","",""
"null","","","video-keyboard-response","551","1358599","0.0-551.0","cofr3f5u","","","null","","Agent B","scrambled","STIM_SET_3/713788.bmp_pp52_L1_V2_veridical_freeview_isoFalsemismatch_1159768.bmp_L1_fps90.mp4",""
"","","","call-function","552","1358600","0.0-552.0","cofr3f5u","","","","","","","",""
"2160.1350000000093","{""judgement"":0}","[0]","survey-likert","553","1360761","0.0-553.0","cofr3f5u","","","","","","","","0"
"1432.6450000000186","{""confidence"":2}","[0]","survey-likert","554","1362195","0.0-554.0","cofr3f5u","","","","","","","",""
"","","","call-function","555","1362196","0.0-555.0","cofr3f5u","","","","","","","",""
"null","","","html-keyboard-response","556","1363698","0.0-556.0","cofr3f5u","","<span style=""color:Black; font-size:50px;"">Agent A","null","","","","",""
"null","","","video-keyboard-response","557","1366796","0.0-557.0","cofr3f5u","","","null","","Agent A","veridical","STIM_SET_1_REAL/1159621.bmp_pp92_L3_V1.0_veridical_freeview_isoFalse_fps144.mp4",""
"null","","","html-keyboard-response","558","1368300","0.0-558.0","cofr3f5u","","<span style=""color:Black; font-size:50px;"">Agent B","null","","","","",""
"null","","","video-keyboard-response","559","1371412","0.0-559.0","cofr3f5u","","","null","","Agent B","scrambled","STIM_SET_3/1159860.bmp_pp152_L2_V2_veridical_freeview_isoFalsemismatch_1159621.bmp_L3_fps90.mp4",""
"","","","call-function","560","1371413","0.0-560.0","cofr3f5u","","","","","","","",""
"2160.505000000121","{""judgement"":0}","[0]","survey-likert","561","1373574","0.0-561.0","cofr3f5u","","","","","","","","0"
"2011.1699999999255","{""confidence"":2}","[0]","survey-likert","562","1375587","0.0-562.0","cofr3f5u","","","","","","","",""
"","","","call-function","563","1375589","0.0-563.0","cofr3f5u","","","","","","","",""
"null","","","html-keyboard-response","564","1377093","0.0-564.0","cofr3f5u","","<span style=""color:Black; font-size:50px;"">Agent A","null","","","","",""
"null","","","video-keyboard-response","565","1380174","0.0-565.0","cofr3f5u","","","null","","Agent A","scrambled","STIM_SET_3/1160204.bmp_pp54_L2_V2_veridical_freeview_isoFalsemismatch_286001.bmp_L2_fps90.mp4",""
"null","","","html-keyboard-response","566","1381678","0.0-566.0","cofr3f5u","","<span style=""color:Black; font-size:50px;"">Agent B","null","","","","",""
"null","","","video-keyboard-response","567","1384760","0.0-567.0","cofr3f5u","","","null","","Agent B","veridical","STIM_SET_1_REAL/286001.bmp_pp54_L2_V1.0_veridical_freeview_isoFalse_fps144.mp4",""
"","","","call-function","568","1384762","0.0-568.0","cofr3f5u","","","","","","","",""
"1801.1100000001024","{""judgement"":1}","[0]","survey-likert","569","1386564","0.0-569.0","cofr3f5u","","","","","","","","1"
"1766.844999999972","{""confidence"":1}","[0]","survey-likert","570","1388333","0.0-570.0","cofr3f5u","","","","","","","",""
"","","","call-function","571","1388334","0.0-571.0","cofr3f5u","","","","","","","",""
"null","","","html-keyboard-response","572","1389837","0.0-572.0","cofr3f5u","","<span style=""color:Black; font-size:50px;"">Agent A","null","","","","",""
"null","","","video-keyboard-response","573","1392899","0.0-573.0","cofr3f5u","","","null","","Agent A","scrambled","STIM_SET_3/1591975.bmp_pp88_L2_V2_veridical_freeview_isoFalsemismatch_713017.bmp_L2_fps90.mp4",""
"null","","","html-keyboard-response","574","1394402","0.0-574.0","cofr3f5u","","<span style=""color:Black; font-size:50px;"">Agent B","null","","","","",""
"null","","","video-keyboard-response","575","1397474","0.0-575.0","cofr3f5u","","","null","","Agent B","veridical","STIM_SET_1_REAL/713017.bmp_pp152_L2_V1.0_veridical_freeview_isoFalse_fps144.mp4",""
"","","","call-function","576","1397475","0.0-576.0","cofr3f5u","","","","","","","",""
"2738.2350000001024","{""judgement"":0}","[0]","survey-likert","577","1400214","0.0-577.0","cofr3f5u","","","","","","","","1"
"1457.9300000001676","{""confidence"":1}","[0]","survey-likert","578","1401673","0.0-578.0","cofr3f5u","","","","","","","",""
"2465.25","","","instructions","579","1404140","0.0-579.0","cofr3f5u","[{""page_index"":0,""viewing_time"":2465.1099999998696}]","","","","","","",""
"2433.7949999999255","","","instructions","580","1406575","0.0-580.0","cofr3f5u","[{""page_index"":0,""viewing_time"":2433.689999999944}]","","","","","","",""
"6785.940000000177","{""post-1"":2}","[0]","survey-likert","581","1413362","0.0-581.0","cofr3f5u","","","","","","","",""
"6830.824999999953","{""post-1"":1}","[0]","survey-likert","582","1420195","0.0-582.0","cofr3f5u","","","","","","","",""
"11930.76000000001","{""post-2"":2}","[0]","survey-likert","583","1432128","0.0-583.0","cofr3f5u","","","","","","","",""
"11778.829999999842","{""post-2"":0}","[0]","survey-likert","584","1443909","0.0-584.0","cofr3f5u","","","","","","","",""
"6146.274999999907","{""post-3"":2}","[0]","survey-likert","585","1450058","0.0-585.0","cofr3f5u","","","","","","","",""
"3202.9950000001118","{""post-3"":0}","[0]","survey-likert","586","1453263","0.0-586.0","cofr3f5u","","","","","","","",""
"8359.004999999888","{""post-4"":1}","[0]","survey-likert","587","1461624","0.0-587.0","cofr3f5u","","","","","","","",""
"2091.4950000001118","{""post-4"":0}","[0]","survey-likert","588","1463717","0.0-588.0","cofr3f5u","","","","","","","",""
"5415.25","{""post-5"":0}","[0]","survey-likert","589","1469134","0.0-589.0","cofr3f5u","","","","","","","",""
"2644.869999999879","{""post-5"":2}","[0]","survey-likert","590","1471781","0.0-590.0","cofr3f5u","","","","","","","",""
"80850.50499999989","{""Q0"":""I think focus on faces provided a key cue in some images - that is where my focus usually automatically goes when seeing a picture, as did the focus of the agents that I judged to be more human in pictures with faces.""}","","survey-text","591","1552639","0.0-591.0","cofr3f5u","","","","","","","",""
"128713.66000000015","{""Q0"":""Pictures with faces, people. signs, or bright, contrasting colors were easier because both my focus and the focus of the agent I judged to be more human went there first. I also paid attention to if the focus jumped around wildly, just moved back and forth, stayed on one object, or looked at background elements primarily - all signs (to me) of a non-human agent.""}","","survey-text","592","1681358","0.0-592.0","cofr3f5u","","","","","","","",""
"57432.49500000011","{""Q0"":""Pictures where the focus patterns seemed hard to distinguish or were distinguishable but not according to a noticeable difference I could classify as human or non-human""}","","survey-text","593","1738796","0.0-593.0","cofr3f5u","","","","","","","",""
"955.3699999998789","","","instructions","594","1739753","0.0-594.0","cofr3f5u","[{""page_index"":0,""viewing_time"":955.2299999999814}]","","","","","","",""
"204771.75999999978","{""Experimenter_end"":[""Printed ID# cofr3f5u on consent form"",""Given subject SONA credit or payment"",""Given the subject debrief form""]}","[0]","survey-multi-select","595","1944528","0.0-595.0","cofr3f5u","","","","","","","",""
