"rt","responses","question_order","trial_type","trial_index","time_elapsed","internal_node_id","ID","view_history","stimulus","key_press","value","agent","condition","image","correct_answer"
"66380.17","{""Experimenter"":[""Confirmed subject's identity"",""Confirmed normal or corrected-to-normal vision"",""Obtained consent (signature and date)"",""Checked the test room lighting"",""Checked computer screen lighting"",""Checked distance from screen to chin rest (50cm)"",""Cleaned and adjusted chin rest"",""Counterbalanced the order of the tasks"",""Opened the experiment in Firefox"",""Made the experiment full screen"",""Encouraged subject to silence phone, put away distractors, etc.""]}","[0]","survey-multi-select","0","66408","0.0-0.0","cr9glvn8","","","","","","","",""
"19952.160000000003","","","instructions","1","86363","0.0-1.0","cr9glvn8","[{""page_index"":0,""viewing_time"":19951.990000000005}]","","","","","","",""
"9739.055000000008","","","instructions","2","96103","0.0-2.0","cr9glvn8","[{""page_index"":0,""viewing_time"":3435.8650000000052},{""page_index"":1,""viewing_time"":1238.0149999999994},{""page_index"":2,""viewing_time"":5065.044999999998}]","","","","","","",""
"2200.4349999999977","","","instructions","3","98305","0.0-3.0","cr9glvn8","[{""page_index"":0,""viewing_time"":2200.3199999999924}]","","","","","","",""
"null","","","video-keyboard-response","4","101385","0.0-4.0","cr9glvn8","","","null","","","","",""
"11978.414999999994","","","instructions","5","113365","0.0-5.0","cr9glvn8","[{""page_index"":0,""viewing_time"":2783.229999999996},{""page_index"":1,""viewing_time"":4598.915000000008},{""page_index"":2,""viewing_time"":4596.149999999994}]","","","","","","",""
"3380.145000000004","","","instructions","6","116746","0.0-6.0","cr9glvn8","[{""page_index"":0,""viewing_time"":3379.9949999999953}]","","","","","","",""
"1201.4149999999936","","","instructions","7","117949","0.0-7.0","cr9glvn8","[{""page_index"":0,""viewing_time"":1200.9399999999878}]","","","","","","",""
"null","","","video-keyboard-response","8","121028","0.0-8.0","cr9glvn8","","","null","","","","",""
"11296.50499999999","","","instructions","9","132325","0.0-9.0","cr9glvn8","[{""page_index"":0,""viewing_time"":1164.6000000000058},{""page_index"":1,""viewing_time"":2514.6949999999924},{""page_index"":2,""viewing_time"":7617.059999999998}]","","","","","","",""
"3378.595000000001","","","instructions","10","135706","0.0-10.0","cr9glvn8","[{""page_index"":0,""viewing_time"":3377.9400000000023}]","","","","","","",""
"","","","call-function","11","135708","0.0-11.0","cr9glvn8","","","","","","","",""
"null","","","html-keyboard-response","12","137211","0.0-12.0","cr9glvn8","","<span style=""color:Black; font-size:50px;"">Agent A","null","","","","",""
"null","","","video-keyboard-response","13","139973","0.0-13.0","cr9glvn8","","","null","","Agent A","scrambled","FOR_REV_MAP_BLOBBY_STIM/1592047.bmp_pp51_L1_V1.0_veridical_freeview_isoTrue_fps144_reversed_REAL.mp4",""
"null","","","html-keyboard-response","14","141477","0.0-14.0","cr9glvn8","","<span style=""color:Black; font-size:50px;"">Agent B","null","","","","",""
"null","","","video-keyboard-response","15","144236","0.0-15.0","cr9glvn8","","","null","","Agent B","veridical","FOR_REV_MAP_BLOBBY_STIM/1592047.bmp_pp51_L1_V1.0_veridical_freeview_isoTrue_fps144.mp4",""
"","","","call-function","16","144237","0.0-16.0","cr9glvn8","","","","","","","",""
"3339.194999999978","{""judgement"":1}","[0]","survey-likert","17","147578","0.0-17.0","cr9glvn8","","","","","","","","1"
"2603.149999999994","{""confidence"":2}","[0]","survey-likert","18","150183","0.0-18.0","cr9glvn8","","","","","","","",""
"","","","call-function","19","150185","0.0-19.0","cr9glvn8","","","","","","","",""
"null","","","html-keyboard-response","20","151690","0.0-20.0","cr9glvn8","","<span style=""color:Black; font-size:50px;"">Agent A","null","","","","",""
"null","","","video-keyboard-response","21","154620","0.0-21.0","cr9glvn8","","","null","","Agent A","veridical","FOR_REV_MAP_BLOBBY_STIM/1592568.bmp_pp71_L1_V1.0_veridical_freeview_isoTrue_fps144.mp4",""
"null","","","html-keyboard-response","22","156127","0.0-22.0","cr9glvn8","","<span style=""color:Black; font-size:50px;"">Agent B","null","","","","",""
"null","","","video-keyboard-response","23","159070","0.0-23.0","cr9glvn8","","","null","","Agent B","scrambled","FOR_REV_MAP_BLOBBY_STIM/1592568.bmp_pp71_L1_V1.0_veridical_freeview_isoTrue_fps144_reversed_REAL.mp4",""
"","","","call-function","24","159072","0.0-24.0","cr9glvn8","","","","","","","",""
"2662.7700000000186","{""judgement"":0}","[0]","survey-likert","25","161736","0.0-25.0","cr9glvn8","","","","","","","","0"
"2156.8300000000163","{""confidence"":2}","[0]","survey-likert","26","163895","0.0-26.0","cr9glvn8","","","","","","","",""
"","","","call-function","27","163896","0.0-27.0","cr9glvn8","","","","","","","",""
"null","","","html-keyboard-response","28","165398","0.0-28.0","cr9glvn8","","<span style=""color:Black; font-size:50px;"">Agent A","null","","","","",""
"null","","","video-keyboard-response","29","168222","0.0-29.0","cr9glvn8","","","null","","Agent A","scrambled","FOR_REV_MAP_BLOBBY_STIM/1591920.bmp_pp97_L3_V1.0_veridical_freeview_isoTrue_fps144_reversed_REAL.mp4",""
"null","","","html-keyboard-response","30","169726","0.0-30.0","cr9glvn8","","<span style=""color:Black; font-size:50px;"">Agent B","null","","","","",""
"null","","","video-keyboard-response","31","172552","0.0-31.0","cr9glvn8","","","null","","Agent B","veridical","FOR_REV_MAP_BLOBBY_STIM/1591920.bmp_pp97_L3_V1.0_veridical_freeview_isoTrue_fps144.mp4",""
"","","","call-function","32","172553","0.0-32.0","cr9glvn8","","","","","","","",""
"3449.399999999994","{""judgement"":0}","[0]","survey-likert","33","176003","0.0-33.0","cr9glvn8","","","","","","","","1"
"2144.334999999992","{""confidence"":1}","[0]","survey-likert","34","178150","0.0-34.0","cr9glvn8","","","","","","","",""
"","","","call-function","35","178151","0.0-35.0","cr9glvn8","","","","","","","",""
"null","","","html-keyboard-response","36","179657","0.0-36.0","cr9glvn8","","<span style=""color:Black; font-size:50px;"">Agent A","null","","","","",""
"null","","","video-keyboard-response","37","182486","0.0-37.0","cr9glvn8","","","null","","Agent A","veridical","FOR_REV_MAP_BLOBBY_STIM/713274.bmp_pp73_L3_V1.0_veridical_freeview_isoTrue_fps144.mp4",""
"null","","","html-keyboard-response","38","183991","0.0-38.0","cr9glvn8","","<span style=""color:Black; font-size:50px;"">Agent B","null","","","","",""
"null","","","video-keyboard-response","39","186803","0.0-39.0","cr9glvn8","","","null","","Agent B","scrambled","FOR_REV_MAP_BLOBBY_STIM/713274.bmp_pp73_L3_V1.0_veridical_freeview_isoTrue_fps144_reversed_REAL.mp4",""
"","","","call-function","40","186805","0.0-40.0","cr9glvn8","","","","","","","",""
"1887.2699999999895","{""judgement"":1}","[0]","survey-likert","41","188693","0.0-41.0","cr9glvn8","","","","","","","","0"
"2306.6300000000047","{""confidence"":1}","[0]","survey-likert","42","191002","0.0-42.0","cr9glvn8","","","","","","","",""
"","","","call-function","43","191003","0.0-43.0","cr9glvn8","","","","","","","",""
"null","","","html-keyboard-response","44","192506","0.0-44.0","cr9glvn8","","<span style=""color:Black; font-size:50px;"">Agent A","null","","","","",""
"null","","","video-keyboard-response","45","195273","0.0-45.0","cr9glvn8","","","null","","Agent A","scrambled","FOR_REV_MAP_BLOBBY_STIM/1159325.bmp_pp67_L2_V1.0_veridical_freeview_isoTrue_fps144_reversed_REAL.mp4",""
"null","","","html-keyboard-response","46","196777","0.0-46.0","cr9glvn8","","<span style=""color:Black; font-size:50px;"">Agent B","null","","","","",""
"null","","","video-keyboard-response","47","199569","0.0-47.0","cr9glvn8","","","null","","Agent B","veridical","FOR_REV_MAP_BLOBBY_STIM/1159325.bmp_pp67_L2_V1.0_veridical_freeview_isoTrue_fps144.mp4",""
"","","","call-function","48","199571","0.0-48.0","cr9glvn8","","","","","","","",""
"3163.4949999999953","{""judgement"":1}","[0]","survey-likert","49","202736","0.0-49.0","cr9glvn8","","","","","","","","1"
"1986.7850000000035","{""confidence"":2}","[0]","survey-likert","50","204724","0.0-50.0","cr9glvn8","","","","","","","",""
"","","","call-function","51","204726","0.0-51.0","cr9glvn8","","","","","","","",""
"null","","","html-keyboard-response","52","206228","0.0-52.0","cr9glvn8","","<span style=""color:Black; font-size:50px;"">Agent A","null","","","","",""
"null","","","video-keyboard-response","53","208988","0.0-53.0","cr9glvn8","","","null","","Agent A","veridical","FOR_REV_MAP_BLOBBY_STIM/713328.bmp_pp86_L2_V1.0_veridical_freeview_isoTrue_fps144.mp4",""
"null","","","html-keyboard-response","54","210492","0.0-54.0","cr9glvn8","","<span style=""color:Black; font-size:50px;"">Agent B","null","","","","",""
"null","","","video-keyboard-response","55","213262","0.0-55.0","cr9glvn8","","","null","","Agent B","scrambled","FOR_REV_MAP_BLOBBY_STIM/713328.bmp_pp86_L2_V1.0_veridical_freeview_isoTrue_fps144_reversed_REAL.mp4",""
"","","","call-function","56","213264","0.0-56.0","cr9glvn8","","","","","","","",""
"3473.100000000006","{""judgement"":0}","[0]","survey-likert","57","216738","0.0-57.0","cr9glvn8","","","","","","","","0"
"1949.6600000000035","{""confidence"":1}","[0]","survey-likert","58","218690","0.0-58.0","cr9glvn8","","","","","","","",""
"","","","call-function","59","218691","0.0-59.0","cr9glvn8","","","","","","","",""
"null","","","html-keyboard-response","60","220197","0.0-60.0","cr9glvn8","","<span style=""color:Black; font-size:50px;"">Agent A","null","","","","",""
"null","","","video-keyboard-response","61","223539","0.0-61.0","cr9glvn8","","","null","","Agent A","veridical","FOR_REV_MAP_BLOBBY_STIM/1160247.bmp_pp54_L2_V1.0_veridical_freeview_isoTrue_fps144.mp4",""
"null","","","html-keyboard-response","62","225044","0.0-62.0","cr9glvn8","","<span style=""color:Black; font-size:50px;"">Agent B","null","","","","",""
"null","","","video-keyboard-response","63","227815","0.0-63.0","cr9glvn8","","","null","","Agent B","scrambled","FOR_REV_MAP_BLOBBY_STIM/1160247.bmp_pp54_L2_V1.0_veridical_freeview_isoTrue_fps144_reversed_REAL.mp4",""
"","","","call-function","64","227816","0.0-64.0","cr9glvn8","","","","","","","",""
"1851.4249999999884","{""judgement"":1}","[0]","survey-likert","65","229668","0.0-65.0","cr9glvn8","","","","","","","","0"
"2405.1050000000105","{""confidence"":2}","[0]","survey-likert","66","232075","0.0-66.0","cr9glvn8","","","","","","","",""
"","","","call-function","67","232077","0.0-67.0","cr9glvn8","","","","","","","",""
"null","","","html-keyboard-response","68","233578","0.0-68.0","cr9glvn8","","<span style=""color:Black; font-size:50px;"">Agent A","null","","","","",""
"null","","","video-keyboard-response","69","236202","0.0-69.0","cr9glvn8","","","null","","Agent A","veridical","FOR_REV_MAP_BLOBBY_STIM/1159874.bmp_pp96_L2_V1.0_veridical_freeview_isoTrue_fps144.mp4",""
"null","","","html-keyboard-response","70","237706","0.0-70.0","cr9glvn8","","<span style=""color:Black; font-size:50px;"">Agent B","null","","","","",""
"null","","","video-keyboard-response","71","240347","0.0-71.0","cr9glvn8","","","null","","Agent B","scrambled","FOR_REV_MAP_BLOBBY_STIM/1159874.bmp_pp96_L2_V1.0_veridical_freeview_isoTrue_fps144_reversed_REAL.mp4",""
"","","","call-function","72","240349","0.0-72.0","cr9glvn8","","","","","","","",""
"1829.6399999999849","{""judgement"":1}","[0]","survey-likert","73","242180","0.0-73.0","cr9glvn8","","","","","","","","0"
"1818.5950000000012","{""confidence"":3}","[0]","survey-likert","74","244001","0.0-74.0","cr9glvn8","","","","","","","",""
"","","","call-function","75","244003","0.0-75.0","cr9glvn8","","","","","","","",""
"null","","","html-keyboard-response","76","245507","0.0-76.0","cr9glvn8","","<span style=""color:Black; font-size:50px;"">Agent A","null","","","","",""
"null","","","video-keyboard-response","77","248356","0.0-77.0","cr9glvn8","","","null","","Agent A","veridical","FOR_REV_MAP_BLOBBY_STIM/1159508.bmp_pp151_L1_V1.0_veridical_freeview_isoTrue_fps144.mp4",""
"null","","","html-keyboard-response","78","249862","0.0-78.0","cr9glvn8","","<span style=""color:Black; font-size:50px;"">Agent B","null","","","","",""
"null","","","video-keyboard-response","79","252688","0.0-79.0","cr9glvn8","","","null","","Agent B","scrambled","FOR_REV_MAP_BLOBBY_STIM/1159508.bmp_pp151_L1_V1.0_veridical_freeview_isoTrue_fps144_reversed_REAL.mp4",""
"","","","call-function","80","252690","0.0-80.0","cr9glvn8","","","","","","","",""
"2049.7299999999814","{""judgement"":0}","[0]","survey-likert","81","254741","0.0-81.0","cr9glvn8","","","","","","","","0"
"1403.2600000000093","{""confidence"":2}","[0]","survey-likert","82","256146","0.0-82.0","cr9glvn8","","","","","","","",""
"","","","call-function","83","256148","0.0-83.0","cr9glvn8","","","","","","","",""
"null","","","html-keyboard-response","84","257652","0.0-84.0","cr9glvn8","","<span style=""color:Black; font-size:50px;"">Agent A","null","","","","",""
"null","","","video-keyboard-response","85","260473","0.0-85.0","cr9glvn8","","","null","","Agent A","veridical","FOR_REV_MAP_BLOBBY_STIM/713381.bmp_pp82_L2_V1.0_veridical_freeview_isoTrue_fps144.mp4",""
"null","","","html-keyboard-response","86","261978","0.0-86.0","cr9glvn8","","<span style=""color:Black; font-size:50px;"">Agent B","null","","","","",""
"null","","","video-keyboard-response","87","264815","0.0-87.0","cr9glvn8","","","null","","Agent B","scrambled","FOR_REV_MAP_BLOBBY_STIM/713381.bmp_pp82_L2_V1.0_veridical_freeview_isoTrue_fps144_reversed_REAL.mp4",""
"","","","call-function","88","264817","0.0-88.0","cr9glvn8","","","","","","","",""
"1888.9150000000373","{""judgement"":0}","[0]","survey-likert","89","266707","0.0-89.0","cr9glvn8","","","","","","","","0"
"2943.570000000007","{""confidence"":2}","[0]","survey-likert","90","269653","0.0-90.0","cr9glvn8","","","","","","","",""
"59159.51999999996","","","instructions","91","328814","0.0-91.0","cr9glvn8","[{""page_index"":0,""viewing_time"":1152.3150000000023},{""page_index"":1,""viewing_time"":56683.07499999995},{""page_index"":2,""viewing_time"":1323.8950000000186}]","","","","","","",""
"3289.695000000007","","","instructions","92","332105","0.0-92.0","cr9glvn8","[{""page_index"":0,""viewing_time"":937.2299999999814},{""page_index"":1,""viewing_time"":1581.164999999979},{""page_index"":2,""viewing_time"":771.1650000000373}]","","","","","","",""
"","","","call-function","93","332106","0.0-93.0","cr9glvn8","","","","","","","",""
"null","","","html-keyboard-response","94","333607","0.0-94.0","cr9glvn8","","<span style=""color:Black; font-size:50px;"">Agent A","null","","","","",""
"null","","","video-keyboard-response","95","336430","0.0-95.0","cr9glvn8","","","null","","Agent A","veridical","FOR_REV_MAP_BLOBBY_STIM/1592025.bmp_pp68_L1_V1.0_veridical_freeview_isoTrue_fps144.mp4",""
"null","","","html-keyboard-response","96","337935","0.0-96.0","cr9glvn8","","<span style=""color:Black; font-size:50px;"">Agent B","null","","","","",""
"null","","","video-keyboard-response","97","340760","0.0-97.0","cr9glvn8","","","null","","Agent B","scrambled","FOR_REV_MAP_BLOBBY_STIM/1592025.bmp_pp68_L1_V1.0_veridical_freeview_isoTrue_fps144_reversed_REAL.mp4",""
"","","","call-function","98","340761","0.0-98.0","cr9glvn8","","","","","","","",""
"2248.789999999979","{""judgement"":1}","[0]","survey-likert","99","343011","0.0-99.0","cr9glvn8","","","","","","","","0"
"3015.2600000000093","{""confidence"":1}","[0]","survey-likert","100","346028","0.0-100.0","cr9glvn8","","","","","","","",""
"","","","call-function","101","346030","0.0-101.0","cr9glvn8","","","","","","","",""
"null","","","html-keyboard-response","102","347535","0.0-102.0","cr9glvn8","","<span style=""color:Black; font-size:50px;"">Agent A","null","","","","",""
"null","","","video-keyboard-response","103","349422","0.0-103.0","cr9glvn8","","","null","","Agent A","veridical","FOR_REV_MAP_BLOBBY_STIM/285946.bmp_pp79_L2_V1.0_veridical_freeview_isoTrue_fps144.mp4",""
"null","","","html-keyboard-response","104","350930","0.0-104.0","cr9glvn8","","<span style=""color:Black; font-size:50px;"">Agent B","null","","","","",""
"null","","","video-keyboard-response","105","352836","0.0-105.0","cr9glvn8","","","null","","Agent B","scrambled","FOR_REV_MAP_BLOBBY_STIM/285946.bmp_pp79_L2_V1.0_veridical_freeview_isoTrue_fps144_reversed_REAL.mp4",""
"","","","call-function","106","352837","0.0-106.0","cr9glvn8","","","","","","","",""
"1680.5650000000023","{""judgement"":1}","[0]","survey-likert","107","354519","0.0-107.0","cr9glvn8","","","","","","","","0"
"2766.024999999965","{""confidence"":3}","[0]","survey-likert","108","357287","0.0-108.0","cr9glvn8","","","","","","","",""
"","","","call-function","109","357288","0.0-109.0","cr9glvn8","","","","","","","",""
"null","","","html-keyboard-response","110","358789","0.0-110.0","cr9glvn8","","<span style=""color:Black; font-size:50px;"">Agent A","null","","","","",""
"null","","","video-keyboard-response","111","361568","0.0-111.0","cr9glvn8","","","null","","Agent A","veridical","FOR_REV_MAP_BLOBBY_STIM/150277.bmp_pp65_L3_V1.0_veridical_freeview_isoTrue_fps144.mp4",""
"null","","","html-keyboard-response","112","363072","0.0-112.0","cr9glvn8","","<span style=""color:Black; font-size:50px;"">Agent B","null","","","","",""
"null","","","video-keyboard-response","113","365884","0.0-113.0","cr9glvn8","","","null","","Agent B","scrambled","FOR_REV_MAP_BLOBBY_STIM/150277.bmp_pp65_L3_V1.0_veridical_freeview_isoTrue_fps144_reversed_REAL.mp4",""
"","","","call-function","114","365885","0.0-114.0","cr9glvn8","","","","","","","",""
"2716.1900000000023","{""judgement"":0}","[0]","survey-likert","115","368603","0.0-115.0","cr9glvn8","","","","","","","","0"
"2641.0899999999674","{""confidence"":0}","[0]","survey-likert","116","371246","0.0-116.0","cr9glvn8","","","","","","","",""
"","","","call-function","117","371247","0.0-117.0","cr9glvn8","","","","","","","",""
"null","","","html-keyboard-response","118","372751","0.0-118.0","cr9glvn8","","<span style=""color:Black; font-size:50px;"">Agent A","null","","","","",""
"null","","","video-keyboard-response","119","375509","0.0-119.0","cr9glvn8","","","null","","Agent A","scrambled","FOR_REV_MAP_BLOBBY_STIM/1159819.bmp_pp151_L1_V1.0_veridical_freeview_isoTrue_fps144_reversed_REAL.mp4",""
"null","","","html-keyboard-response","120","377012","0.0-120.0","cr9glvn8","","<span style=""color:Black; font-size:50px;"">Agent B","null","","","","",""
"null","","","video-keyboard-response","121","379769","0.0-121.0","cr9glvn8","","","null","","Agent B","veridical","FOR_REV_MAP_BLOBBY_STIM/1159819.bmp_pp151_L1_V1.0_veridical_freeview_isoTrue_fps144.mp4",""
"","","","call-function","122","379771","0.0-122.0","cr9glvn8","","","","","","","",""
"1783.304999999993","{""judgement"":1}","[0]","survey-likert","123","381566","0.0-123.0","cr9glvn8","","","","","","","","1"
"1432.734999999986","{""confidence"":2}","[0]","survey-likert","124","383001","0.0-124.0","cr9glvn8","","","","","","","",""
"","","","call-function","125","383002","0.0-125.0","cr9glvn8","","","","","","","",""
"null","","","html-keyboard-response","126","384504","0.0-126.0","cr9glvn8","","<span style=""color:Black; font-size:50px;"">Agent A","null","","","","",""
"null","","","video-keyboard-response","127","387406","0.0-127.0","cr9glvn8","","","null","","Agent A","scrambled","FOR_REV_MAP_BLOBBY_STIM/1160189.bmp_pp64_L1_V1.0_veridical_freeview_isoTrue_fps144_reversed_REAL.mp4",""
"null","","","html-keyboard-response","128","388948","0.0-128.0","cr9glvn8","","<span style=""color:Black; font-size:50px;"">Agent B","null","","","","",""
"null","","","video-keyboard-response","129","391844","0.0-129.0","cr9glvn8","","","null","","Agent B","veridical","FOR_REV_MAP_BLOBBY_STIM/1160189.bmp_pp64_L1_V1.0_veridical_freeview_isoTrue_fps144.mp4",""
"","","","call-function","130","391846","0.0-130.0","cr9glvn8","","","","","","","",""
"2168.5499999999884","{""judgement"":1}","[0]","survey-likert","131","394016","0.0-131.0","cr9glvn8","","","","","","","","1"
"1741.6549999999697","{""confidence"":1}","[0]","survey-likert","132","395761","0.0-132.0","cr9glvn8","","","","","","","",""
"","","","call-function","133","395763","0.0-133.0","cr9glvn8","","","","","","","",""
"null","","","html-keyboard-response","134","397264","0.0-134.0","cr9glvn8","","<span style=""color:Black; font-size:50px;"">Agent A","null","","","","",""
"null","","","video-keyboard-response","135","400074","0.0-135.0","cr9glvn8","","","null","","Agent A","veridical","FOR_REV_MAP_BLOBBY_STIM/1592150.bmp_pp77_L3_V1.0_veridical_freeview_isoTrue_fps144.mp4",""
"null","","","html-keyboard-response","136","401579","0.0-136.0","cr9glvn8","","<span style=""color:Black; font-size:50px;"">Agent B","null","","","","",""
"null","","","video-keyboard-response","137","404374","0.0-137.0","cr9glvn8","","","null","","Agent B","scrambled","FOR_REV_MAP_BLOBBY_STIM/1592150.bmp_pp77_L3_V1.0_veridical_freeview_isoTrue_fps144_reversed_REAL.mp4",""
"","","","call-function","138","404376","0.0-138.0","cr9glvn8","","","","","","","",""
"1453.2700000000186","{""judgement"":0}","[0]","survey-likert","139","405830","0.0-139.0","cr9glvn8","","","","","","","","0"
"1372.740000000049","{""confidence"":1}","[0]","survey-likert","140","407205","0.0-140.0","cr9glvn8","","","","","","","",""
"","","","call-function","141","407207","0.0-141.0","cr9glvn8","","","","","","","",""
"null","","","html-keyboard-response","142","408708","0.0-142.0","cr9glvn8","","<span style=""color:Black; font-size:50px;"">Agent A","null","","","","",""
"null","","","video-keyboard-response","143","411493","0.0-143.0","cr9glvn8","","","null","","Agent A","veridical","FOR_REV_MAP_BLOBBY_STIM/1592567.bmp_pp70_L2_V1.0_veridical_freeview_isoTrue_fps144.mp4",""
"null","","","html-keyboard-response","144","412997","0.0-144.0","cr9glvn8","","<span style=""color:Black; font-size:50px;"">Agent B","null","","","","",""
"null","","","video-keyboard-response","145","415797","0.0-145.0","cr9glvn8","","","null","","Agent B","scrambled","FOR_REV_MAP_BLOBBY_STIM/1592567.bmp_pp70_L2_V1.0_veridical_freeview_isoTrue_fps144_reversed_REAL.mp4",""
"","","","call-function","146","415798","0.0-146.0","cr9glvn8","","","","","","","",""
"1756.524999999965","{""judgement"":0}","[0]","survey-likert","147","417556","0.0-147.0","cr9glvn8","","","","","","","","0"
"2881.179999999993","{""confidence"":2}","[0]","survey-likert","148","420439","0.0-148.0","cr9glvn8","","","","","","","",""
"","","","call-function","149","420440","0.0-149.0","cr9glvn8","","","","","","","",""
"null","","","html-keyboard-response","150","421946","0.0-150.0","cr9glvn8","","<span style=""color:Black; font-size:50px;"">Agent A","null","","","","",""
"null","","","video-keyboard-response","151","424697","0.0-151.0","cr9glvn8","","","null","","Agent A","scrambled","FOR_REV_MAP_BLOBBY_STIM/1591975.bmp_pp88_L2_V1.0_veridical_freeview_isoTrue_fps144_reversed_REAL.mp4",""
"null","","","html-keyboard-response","152","426202","0.0-152.0","cr9glvn8","","<span style=""color:Black; font-size:50px;"">Agent B","null","","","","",""
"null","","","video-keyboard-response","153","428949","0.0-153.0","cr9glvn8","","","null","","Agent B","veridical","FOR_REV_MAP_BLOBBY_STIM/1591975.bmp_pp88_L2_V1.0_veridical_freeview_isoTrue_fps144.mp4",""
"","","","call-function","154","428951","0.0-154.0","cr9glvn8","","","","","","","",""
"1756.7399999999907","{""judgement"":1}","[0]","survey-likert","155","430709","0.0-155.0","cr9glvn8","","","","","","","","1"
"2041.2449999999953","{""confidence"":1}","[0]","survey-likert","156","432753","0.0-156.0","cr9glvn8","","","","","","","",""
"","","","call-function","157","432754","0.0-157.0","cr9glvn8","","","","","","","",""
"null","","","html-keyboard-response","158","434258","0.0-158.0","cr9glvn8","","<span style=""color:Black; font-size:50px;"">Agent A","null","","","","",""
"null","","","video-keyboard-response","159","437103","0.0-159.0","cr9glvn8","","","null","","Agent A","veridical","FOR_REV_MAP_BLOBBY_STIM/1592857.bmp_pp52_L1_V1.0_veridical_freeview_isoTrue_fps144.mp4",""
"null","","","html-keyboard-response","160","438607","0.0-160.0","cr9glvn8","","<span style=""color:Black; font-size:50px;"">Agent B","null","","","","",""
"null","","","video-keyboard-response","161","441458","0.0-161.0","cr9glvn8","","","null","","Agent B","scrambled","FOR_REV_MAP_BLOBBY_STIM/1592857.bmp_pp52_L1_V1.0_veridical_freeview_isoTrue_fps144_reversed_REAL.mp4",""
"","","","call-function","162","441460","0.0-162.0","cr9glvn8","","","","","","","",""
"2673.1350000000093","{""judgement"":0}","[0]","survey-likert","163","444134","0.0-163.0","cr9glvn8","","","","","","","","0"
"2869.390000000014","{""confidence"":1}","[0]","survey-likert","164","447005","0.0-164.0","cr9glvn8","","","","","","","",""
"","","","call-function","165","447007","0.0-165.0","cr9glvn8","","","","","","","",""
"null","","","html-keyboard-response","166","448511","0.0-166.0","cr9glvn8","","<span style=""color:Black; font-size:50px;"">Agent A","null","","","","",""
"null","","","video-keyboard-response","167","451372","0.0-167.0","cr9glvn8","","","null","","Agent A","veridical","FOR_REV_MAP_BLOBBY_STIM/498396.bmp_pp99_L2_V1.0_veridical_freeview_isoTrue_fps144.mp4",""
"null","","","html-keyboard-response","168","452875","0.0-168.0","cr9glvn8","","<span style=""color:Black; font-size:50px;"">Agent B","null","","","","",""
"null","","","video-keyboard-response","169","455732","0.0-169.0","cr9glvn8","","","null","","Agent B","scrambled","FOR_REV_MAP_BLOBBY_STIM/498396.bmp_pp99_L2_V1.0_veridical_freeview_isoTrue_fps144_reversed_REAL.mp4",""
"","","","call-function","170","455734","0.0-170.0","cr9glvn8","","","","","","","",""
"2565.6399999999558","{""judgement"":1}","[0]","survey-likert","171","458300","0.0-171.0","cr9glvn8","","","","","","","","0"
"1453.3899999999558","{""confidence"":2}","[0]","survey-likert","172","459756","0.0-172.0","cr9glvn8","","","","","","","",""
"2411.3450000000303","","","instructions","173","462170","0.0-173.0","cr9glvn8","[{""page_index"":0,""viewing_time"":962.7900000000373},{""page_index"":1,""viewing_time"":727.875},{""page_index"":2,""viewing_time"":720.429999999993}]","","","","","","",""
"2648.4949999999953","","","instructions","174","464819","0.0-174.0","cr9glvn8","[{""page_index"":0,""viewing_time"":763.5650000000023},{""page_index"":1,""viewing_time"":1069.695000000007},{""page_index"":2,""viewing_time"":815.015000000014}]","","","","","","",""
"","","","call-function","175","464821","0.0-175.0","cr9glvn8","","","","","","","",""
"null","","","html-keyboard-response","176","466324","0.0-176.0","cr9glvn8","","<span style=""color:Black; font-size:50px;"">Agent A","null","","","","",""
"null","","","video-keyboard-response","177","469013","0.0-177.0","cr9glvn8","","","null","","Agent A","scrambled","FOR_REV_MAP_BLOBBY_STIM/713858.bmp_pp57_L1_V1.0_veridical_freeview_isoTrue_fps144_reversed_REAL.mp4",""
"null","","","html-keyboard-response","178","470517","0.0-178.0","cr9glvn8","","<span style=""color:Black; font-size:50px;"">Agent B","null","","","","",""
"null","","","video-keyboard-response","179","473210","0.0-179.0","cr9glvn8","","","null","","Agent B","veridical","FOR_REV_MAP_BLOBBY_STIM/713858.bmp_pp57_L1_V1.0_veridical_freeview_isoTrue_fps144.mp4",""
"","","","call-function","180","473211","0.0-180.0","cr9glvn8","","","","","","","",""
"2060.9249999999884","{""judgement"":0}","[0]","survey-likert","181","475273","0.0-181.0","cr9glvn8","","","","","","","","1"
"2449.6849999999977","{""confidence"":2}","[0]","survey-likert","182","477725","0.0-182.0","cr9glvn8","","","","","","","",""
"","","","call-function","183","477727","0.0-183.0","cr9glvn8","","","","","","","",""
"null","","","html-keyboard-response","184","479229","0.0-184.0","cr9glvn8","","<span style=""color:Black; font-size:50px;"">Agent A","null","","","","",""
"null","","","video-keyboard-response","185","481964","0.0-185.0","cr9glvn8","","","null","","Agent A","veridical","FOR_REV_MAP_BLOBBY_STIM/285959.bmp_pp93_L1_V1.0_veridical_freeview_isoTrue_fps144.mp4",""
"null","","","html-keyboard-response","186","483466","0.0-186.0","cr9glvn8","","<span style=""color:Black; font-size:50px;"">Agent B","null","","","","",""
"null","","","video-keyboard-response","187","486239","0.0-187.0","cr9glvn8","","","null","","Agent B","scrambled","FOR_REV_MAP_BLOBBY_STIM/285959.bmp_pp93_L1_V1.0_veridical_freeview_isoTrue_fps144_reversed_REAL.mp4",""
"","","","call-function","188","486241","0.0-188.0","cr9glvn8","","","","","","","",""
"1967.6199999999953","{""judgement"":0}","[0]","survey-likert","189","488211","0.0-189.0","cr9glvn8","","","","","","","","0"
"2112.4000000000233","{""confidence"":0}","[0]","survey-likert","190","490326","0.0-190.0","cr9glvn8","","","","","","","",""
"","","","call-function","191","490328","0.0-191.0","cr9glvn8","","","","","","","",""
"null","","","html-keyboard-response","192","491832","0.0-192.0","cr9glvn8","","<span style=""color:Black; font-size:50px;"">Agent A","null","","","","",""
"null","","","video-keyboard-response","193","494511","0.0-193.0","cr9glvn8","","","null","","Agent A","veridical","FOR_REV_MAP_BLOBBY_STIM/713788.bmp_pp52_L1_V1.0_veridical_freeview_isoTrue_fps144.mp4",""
"null","","","html-keyboard-response","194","496015","0.0-194.0","cr9glvn8","","<span style=""color:Black; font-size:50px;"">Agent B","null","","","","",""
"null","","","video-keyboard-response","195","498734","0.0-195.0","cr9glvn8","","","null","","Agent B","scrambled","FOR_REV_MAP_BLOBBY_STIM/713788.bmp_pp52_L1_V1.0_veridical_freeview_isoTrue_fps144_reversed_REAL.mp4",""
"","","","call-function","196","498736","0.0-196.0","cr9glvn8","","","","","","","",""
"3860.765000000014","{""judgement"":1}","[0]","survey-likert","197","502599","0.0-197.0","cr9glvn8","","","","","","","","0"
"1116.7949999999837","{""confidence"":1}","[0]","survey-likert","198","503718","0.0-198.0","cr9glvn8","","","","","","","",""
"","","","call-function","199","503719","0.0-199.0","cr9glvn8","","","","","","","",""
"null","","","html-keyboard-response","200","505221","0.0-200.0","cr9glvn8","","<span style=""color:Black; font-size:50px;"">Agent A","null","","","","",""
"null","","","video-keyboard-response","201","508025","0.0-201.0","cr9glvn8","","","null","","Agent A","veridical","FOR_REV_MAP_BLOBBY_STIM/1591781.bmp_pp63_L1_V1.0_veridical_freeview_isoTrue_fps144.mp4",""
"null","","","html-keyboard-response","202","509528","0.0-202.0","cr9glvn8","","<span style=""color:Black; font-size:50px;"">Agent B","null","","","","",""
"null","","","video-keyboard-response","203","512341","0.0-203.0","cr9glvn8","","","null","","Agent B","scrambled","FOR_REV_MAP_BLOBBY_STIM/1591781.bmp_pp63_L1_V1.0_veridical_freeview_isoTrue_fps144_reversed_REAL.mp4",""
"","","","call-function","204","512342","0.0-204.0","cr9glvn8","","","","","","","",""
"2359.460000000021","{""judgement"":1}","[0]","survey-likert","205","514703","0.0-205.0","cr9glvn8","","","","","","","","0"
"1896.4500000000116","{""confidence"":2}","[0]","survey-likert","206","516602","0.0-206.0","cr9glvn8","","","","","","","",""
"","","","call-function","207","516603","0.0-207.0","cr9glvn8","","","","","","","",""
"null","","","html-keyboard-response","208","518106","0.0-208.0","cr9glvn8","","<span style=""color:Black; font-size:50px;"">Agent A","null","","","","",""
"null","","","video-keyboard-response","209","520901","0.0-209.0","cr9glvn8","","","null","","Agent A","scrambled","FOR_REV_MAP_BLOBBY_STIM/150463.bmp_pp55_L3_V1.0_veridical_freeview_isoTrue_fps144_reversed_REAL.mp4",""
"null","","","html-keyboard-response","210","522402","0.0-210.0","cr9glvn8","","<span style=""color:Black; font-size:50px;"">Agent B","null","","","","",""
"null","","","video-keyboard-response","211","525184","0.0-211.0","cr9glvn8","","","null","","Agent B","veridical","FOR_REV_MAP_BLOBBY_STIM/150463.bmp_pp55_L3_V1.0_veridical_freeview_isoTrue_fps144.mp4",""
"","","","call-function","212","525186","0.0-212.0","cr9glvn8","","","","","","","",""
"1408.625","{""judgement"":0}","[0]","survey-likert","213","526596","0.0-213.0","cr9glvn8","","","","","","","","1"
"1923.859999999986","{""confidence"":3}","[0]","survey-likert","214","528522","0.0-214.0","cr9glvn8","","","","","","","",""
"","","","call-function","215","528524","0.0-215.0","cr9glvn8","","","","","","","",""
"null","","","html-keyboard-response","216","530026","0.0-216.0","cr9glvn8","","<span style=""color:Black; font-size:50px;"">Agent A","null","","","","",""
"null","","","video-keyboard-response","217","532815","0.0-217.0","cr9glvn8","","","null","","Agent A","veridical","FOR_REV_MAP_BLOBBY_STIM/498372.bmp_pp95_L2_V1.0_veridical_freeview_isoTrue_fps144.mp4",""
"null","","","html-keyboard-response","218","534319","0.0-218.0","cr9glvn8","","<span style=""color:Black; font-size:50px;"">Agent B","null","","","","",""
"null","","","video-keyboard-response","219","537108","0.0-219.0","cr9glvn8","","","null","","Agent B","scrambled","FOR_REV_MAP_BLOBBY_STIM/498372.bmp_pp95_L2_V1.0_veridical_freeview_isoTrue_fps144_reversed_REAL.mp4",""
"","","","call-function","220","537110","0.0-220.0","cr9glvn8","","","","","","","",""
"2237.909999999916","{""judgement"":0}","[0]","survey-likert","221","539349","0.0-221.0","cr9glvn8","","","","","","","","0"
"1285.9599999999627","{""confidence"":3}","[0]","survey-likert","222","540637","0.0-222.0","cr9glvn8","","","","","","","",""
"","","","call-function","223","540638","0.0-223.0","cr9glvn8","","","","","","","",""
"null","","","html-keyboard-response","224","542143","0.0-224.0","cr9glvn8","","<span style=""color:Black; font-size:50px;"">Agent A","null","","","","",""
"null","","","video-keyboard-response","225","544885","0.0-225.0","cr9glvn8","","","null","","Agent A","veridical","FOR_REV_MAP_BLOBBY_STIM/285715.bmp_pp67_L2_V1.0_veridical_freeview_isoTrue_fps144.mp4",""
"null","","","html-keyboard-response","226","546389","0.0-226.0","cr9glvn8","","<span style=""color:Black; font-size:50px;"">Agent B","null","","","","",""
"null","","","video-keyboard-response","227","549131","0.0-227.0","cr9glvn8","","","null","","Agent B","scrambled","FOR_REV_MAP_BLOBBY_STIM/285715.bmp_pp67_L2_V1.0_veridical_freeview_isoTrue_fps144_reversed_REAL.mp4",""
"","","","call-function","228","549132","0.0-228.0","cr9glvn8","","","","","","","",""
"1326.9649999999674","{""judgement"":1}","[0]","survey-likert","229","550460","0.0-229.0","cr9glvn8","","","","","","","","0"
"1036.0849999999627","{""confidence"":1}","[0]","survey-likert","230","551498","0.0-230.0","cr9glvn8","","","","","","","",""
"","","","call-function","231","551500","0.0-231.0","cr9glvn8","","","","","","","",""
"null","","","html-keyboard-response","232","553002","0.0-232.0","cr9glvn8","","<span style=""color:Black; font-size:50px;"">Agent A","null","","","","",""
"null","","","video-keyboard-response","233","555745","0.0-233.0","cr9glvn8","","","null","","Agent A","veridical","FOR_REV_MAP_BLOBBY_STIM/1592350.bmp_pp55_L3_V1.0_veridical_freeview_isoTrue_fps144.mp4",""
"null","","","html-keyboard-response","234","557249","0.0-234.0","cr9glvn8","","<span style=""color:Black; font-size:50px;"">Agent B","null","","","","",""
"null","","","video-keyboard-response","235","559941","0.0-235.0","cr9glvn8","","","null","","Agent B","scrambled","FOR_REV_MAP_BLOBBY_STIM/1592350.bmp_pp55_L3_V1.0_veridical_freeview_isoTrue_fps144_reversed_REAL.mp4",""
"","","","call-function","236","559942","0.0-236.0","cr9glvn8","","","","","","","",""
"2114.609999999986","{""judgement"":1}","[0]","survey-likert","237","562058","0.0-237.0","cr9glvn8","","","","","","","","0"
"1342.390000000014","{""confidence"":2}","[0]","survey-likert","238","563403","0.0-238.0","cr9glvn8","","","","","","","",""
"","","","call-function","239","563404","0.0-239.0","cr9glvn8","","","","","","","",""
"null","","","html-keyboard-response","240","564907","0.0-240.0","cr9glvn8","","<span style=""color:Black; font-size:50px;"">Agent A","null","","","","",""
"null","","","video-keyboard-response","241","567737","0.0-241.0","cr9glvn8","","","null","","Agent A","veridical","FOR_REV_MAP_BLOBBY_STIM/1160204.bmp_pp54_L2_V1.0_veridical_freeview_isoTrue_fps144.mp4",""
"null","","","html-keyboard-response","242","569242","0.0-242.0","cr9glvn8","","<span style=""color:Black; font-size:50px;"">Agent B","null","","","","",""
"null","","","video-keyboard-response","243","572074","0.0-243.0","cr9glvn8","","","null","","Agent B","scrambled","FOR_REV_MAP_BLOBBY_STIM/1160204.bmp_pp54_L2_V1.0_veridical_freeview_isoTrue_fps144_reversed_REAL.mp4",""
"","","","call-function","244","572075","0.0-244.0","cr9glvn8","","","","","","","",""
"2181.1300000000047","{""judgement"":0}","[0]","survey-likert","245","574257","0.0-245.0","cr9glvn8","","","","","","","","0"
"1818.7600000000093","{""confidence"":1}","[0]","survey-likert","246","576078","0.0-246.0","cr9glvn8","","","","","","","",""
"","","","call-function","247","576079","0.0-247.0","cr9glvn8","","","","","","","",""
"null","","","html-keyboard-response","248","577584","0.0-248.0","cr9glvn8","","<span style=""color:Black; font-size:50px;"">Agent A","null","","","","",""
"null","","","video-keyboard-response","249","580296","0.0-249.0","cr9glvn8","","","null","","Agent A","veridical","FOR_REV_MAP_BLOBBY_STIM/61513.bmp_pp75_L1_V1.0_veridical_freeview_isoTrue_fps144.mp4",""
"null","","","html-keyboard-response","250","581803","0.0-250.0","cr9glvn8","","<span style=""color:Black; font-size:50px;"">Agent B","null","","","","",""
"null","","","video-keyboard-response","251","584489","0.0-251.0","cr9glvn8","","","null","","Agent B","scrambled","FOR_REV_MAP_BLOBBY_STIM/61513.bmp_pp75_L1_V1.0_veridical_freeview_isoTrue_fps144_reversed_REAL.mp4",""
"","","","call-function","252","584491","0.0-252.0","cr9glvn8","","","","","","","",""
"3397.7799999999115","{""judgement"":1}","[0]","survey-likert","253","587889","0.0-253.0","cr9glvn8","","","","","","","","0"
"1677.265000000014","{""confidence"":0}","[0]","survey-likert","254","589569","0.0-254.0","cr9glvn8","","","","","","","",""
"2255.6049999999814","","","instructions","255","591826","0.0-255.0","cr9glvn8","[{""page_index"":0,""viewing_time"":1159.3050000000512},{""page_index"":1,""viewing_time"":608.3249999999534},{""page_index"":2,""viewing_time"":487.8100000000559}]","","","","","","",""
"2379.2449999999953","","","instructions","256","594207","0.0-256.0","cr9glvn8","[{""page_index"":0,""viewing_time"":566.2699999999022},{""page_index"":1,""viewing_time"":961.4400000000605},{""page_index"":2,""viewing_time"":851.4150000000373}]","","","","","","",""
"","","","call-function","257","594209","0.0-257.0","cr9glvn8","","","","","","","",""
"null","","","html-keyboard-response","258","595715","0.0-258.0","cr9glvn8","","<span style=""color:Black; font-size:50px;"">Agent A","null","","","","",""
"null","","","video-keyboard-response","259","598563","0.0-259.0","cr9glvn8","","","null","","Agent A","scrambled","FOR_REV_MAP_BLOBBY_STIM/713742.bmp_pp91_L3_V1.0_veridical_freeview_isoTrue_fps144_reversed_REAL.mp4",""
"null","","","html-keyboard-response","260","600069","0.0-260.0","cr9glvn8","","<span style=""color:Black; font-size:50px;"">Agent B","null","","","","",""
"null","","","video-keyboard-response","261","602920","0.0-261.0","cr9glvn8","","","null","","Agent B","veridical","FOR_REV_MAP_BLOBBY_STIM/713742.bmp_pp91_L3_V1.0_veridical_freeview_isoTrue_fps144.mp4",""
"","","","call-function","262","602923","0.0-262.0","cr9glvn8","","","","","","","",""
"1278.2149999999674","{""judgement"":1}","[0]","survey-likert","263","604203","0.0-263.0","cr9glvn8","","","","","","","","1"
"944.0650000000605","{""confidence"":1}","[0]","survey-likert","264","605150","0.0-264.0","cr9glvn8","","","","","","","",""
"","","","call-function","265","605152","0.0-265.0","cr9glvn8","","","","","","","",""
"null","","","html-keyboard-response","266","606656","0.0-266.0","cr9glvn8","","<span style=""color:Black; font-size:50px;"">Agent A","null","","","","",""
"null","","","video-keyboard-response","267","609503","0.0-267.0","cr9glvn8","","","null","","Agent A","scrambled","FOR_REV_MAP_BLOBBY_STIM/498326.bmp_pp57_L1_V1.0_veridical_freeview_isoTrue_fps144_reversed_REAL.mp4",""
"null","","","html-keyboard-response","268","611008","0.0-268.0","cr9glvn8","","<span style=""color:Black; font-size:50px;"">Agent B","null","","","","",""
"null","","","video-keyboard-response","269","613850","0.0-269.0","cr9glvn8","","","null","","Agent B","veridical","FOR_REV_MAP_BLOBBY_STIM/498326.bmp_pp57_L1_V1.0_veridical_freeview_isoTrue_fps144.mp4",""
"","","","call-function","270","613852","0.0-270.0","cr9glvn8","","","","","","","",""
"1807.7449999999953","{""judgement"":1}","[0]","survey-likert","271","615660","0.0-271.0","cr9glvn8","","","","","","","","1"
"1635.2050000000745","{""confidence"":1}","[0]","survey-likert","272","617298","0.0-272.0","cr9glvn8","","","","","","","",""
"","","","call-function","273","617299","0.0-273.0","cr9glvn8","","","","","","","",""
"null","","","html-keyboard-response","274","618802","0.0-274.0","cr9glvn8","","<span style=""color:Black; font-size:50px;"">Agent A","null","","","","",""
"null","","","video-keyboard-response","275","621638","0.0-275.0","cr9glvn8","","","null","","Agent A","veridical","FOR_REV_MAP_BLOBBY_STIM/1592530.bmp_pp75_L1_V1.0_veridical_freeview_isoTrue_fps144.mp4",""
"null","","","html-keyboard-response","276","623141","0.0-276.0","cr9glvn8","","<span style=""color:Black; font-size:50px;"">Agent B","null","","","","",""
"null","","","video-keyboard-response","277","625957","0.0-277.0","cr9glvn8","","","null","","Agent B","scrambled","FOR_REV_MAP_BLOBBY_STIM/1592530.bmp_pp75_L1_V1.0_veridical_freeview_isoTrue_fps144_reversed_REAL.mp4",""
"","","","call-function","278","625959","0.0-278.0","cr9glvn8","","","","","","","",""
"3132.5400000000373","{""judgement"":0}","[0]","survey-likert","279","629092","0.0-279.0","cr9glvn8","","","","","","","","0"
"3262.265000000014","{""confidence"":0}","[0]","survey-likert","280","632357","0.0-280.0","cr9glvn8","","","","","","","",""
"","","","call-function","281","632359","0.0-281.0","cr9glvn8","","","","","","","",""
"null","","","html-keyboard-response","282","633861","0.0-282.0","cr9glvn8","","<span style=""color:Black; font-size:50px;"">Agent A","null","","","","",""
"null","","","video-keyboard-response","283","636659","0.0-283.0","cr9glvn8","","","null","","Agent A","scrambled","FOR_REV_MAP_BLOBBY_STIM/713790.bmp_pp100_L3_V1.0_veridical_freeview_isoTrue_fps144_reversed_REAL.mp4",""
"null","","","html-keyboard-response","284","638164","0.0-284.0","cr9glvn8","","<span style=""color:Black; font-size:50px;"">Agent B","null","","","","",""
"null","","","video-keyboard-response","285","640965","0.0-285.0","cr9glvn8","","","null","","Agent B","veridical","FOR_REV_MAP_BLOBBY_STIM/713790.bmp_pp100_L3_V1.0_veridical_freeview_isoTrue_fps144.mp4",""
"","","","call-function","286","640966","0.0-286.0","cr9glvn8","","","","","","","",""
"3009.480000000098","{""judgement"":1}","[0]","survey-likert","287","643977","0.0-287.0","cr9glvn8","","","","","","","","1"
"2444.2099999999627","{""confidence"":1}","[0]","survey-likert","288","646423","0.0-288.0","cr9glvn8","","","","","","","",""
"","","","call-function","289","646425","0.0-289.0","cr9glvn8","","","","","","","",""
"null","","","html-keyboard-response","290","647931","0.0-290.0","cr9glvn8","","<span style=""color:Black; font-size:50px;"">Agent A","null","","","","",""
"null","","","video-keyboard-response","291","650785","0.0-291.0","cr9glvn8","","","null","","Agent A","veridical","FOR_REV_MAP_BLOBBY_STIM/498261.bmp_pp84_L3_V1.0_veridical_freeview_isoTrue_fps144.mp4",""
"null","","","html-keyboard-response","292","652288","0.0-292.0","cr9glvn8","","<span style=""color:Black; font-size:50px;"">Agent B","null","","","","",""
"null","","","video-keyboard-response","293","655141","0.0-293.0","cr9glvn8","","","null","","Agent B","scrambled","FOR_REV_MAP_BLOBBY_STIM/498261.bmp_pp84_L3_V1.0_veridical_freeview_isoTrue_fps144_reversed_REAL.mp4",""
"","","","call-function","294","655142","0.0-294.0","cr9glvn8","","","","","","","",""
"2265.6149999999907","{""judgement"":0}","[0]","survey-likert","295","657409","0.0-295.0","cr9glvn8","","","","","","","","0"
"1160.920000000042","{""confidence"":2}","[0]","survey-likert","296","658572","0.0-296.0","cr9glvn8","","","","","","","",""
"","","","call-function","297","658573","0.0-297.0","cr9glvn8","","","","","","","",""
"null","","","html-keyboard-response","298","660074","0.0-298.0","cr9glvn8","","<span style=""color:Black; font-size:50px;"">Agent A","null","","","","",""
"null","","","video-keyboard-response","299","662920","0.0-299.0","cr9glvn8","","","null","","Agent A","scrambled","FOR_REV_MAP_BLOBBY_STIM/713652.bmp_pp89_L1_V1.0_veridical_freeview_isoTrue_fps144_reversed_REAL.mp4",""
"null","","","html-keyboard-response","300","664424","0.0-300.0","cr9glvn8","","<span style=""color:Black; font-size:50px;"">Agent B","null","","","","",""
"null","","","video-keyboard-response","301","667239","0.0-301.0","cr9glvn8","","","null","","Agent B","veridical","FOR_REV_MAP_BLOBBY_STIM/713652.bmp_pp89_L1_V1.0_veridical_freeview_isoTrue_fps144.mp4",""
"","","","call-function","302","667241","0.0-302.0","cr9glvn8","","","","","","","",""
"1473.9750000000931","{""judgement"":1}","[0]","survey-likert","303","668716","0.0-303.0","cr9glvn8","","","","","","","","1"
"1059.1499999999069","{""confidence"":2}","[0]","survey-likert","304","669777","0.0-304.0","cr9glvn8","","","","","","","",""
"","","","call-function","305","669778","0.0-305.0","cr9glvn8","","","","","","","",""
"null","","","html-keyboard-response","306","671281","0.0-306.0","cr9glvn8","","<span style=""color:Black; font-size:50px;"">Agent A","null","","","","",""
"null","","","video-keyboard-response","307","673845","0.0-307.0","cr9glvn8","","","null","","Agent A","veridical","FOR_REV_MAP_BLOBBY_STIM/498398.bmp_pp81_L1_V1.0_veridical_freeview_isoTrue_fps144.mp4",""
"null","","","html-keyboard-response","308","675349","0.0-308.0","cr9glvn8","","<span style=""color:Black; font-size:50px;"">Agent B","null","","","","",""
"null","","","video-keyboard-response","309","677912","0.0-309.0","cr9glvn8","","","null","","Agent B","scrambled","FOR_REV_MAP_BLOBBY_STIM/498398.bmp_pp81_L1_V1.0_veridical_freeview_isoTrue_fps144_reversed_REAL.mp4",""
"","","","call-function","310","677913","0.0-310.0","cr9glvn8","","","","","","","",""
"1353.0849999999627","{""judgement"":1}","[0]","survey-likert","311","679267","0.0-311.0","cr9glvn8","","","","","","","","0"
"1976.7449999999953","{""confidence"":2}","[0]","survey-likert","312","681246","0.0-312.0","cr9glvn8","","","","","","","",""
"","","","call-function","313","681248","0.0-313.0","cr9glvn8","","","","","","","",""
"null","","","html-keyboard-response","314","682751","0.0-314.0","cr9glvn8","","<span style=""color:Black; font-size:50px;"">Agent A","null","","","","",""
"null","","","video-keyboard-response","315","685532","0.0-315.0","cr9glvn8","","","null","","Agent A","veridical","FOR_REV_MAP_BLOBBY_STIM/1592044.bmp_pp94_L2_V1.0_veridical_freeview_isoTrue_fps144.mp4",""
"null","","","html-keyboard-response","316","687035","0.0-316.0","cr9glvn8","","<span style=""color:Black; font-size:50px;"">Agent B","null","","","","",""
"null","","","video-keyboard-response","317","689818","0.0-317.0","cr9glvn8","","","null","","Agent B","scrambled","FOR_REV_MAP_BLOBBY_STIM/1592044.bmp_pp94_L2_V1.0_veridical_freeview_isoTrue_fps144_reversed_REAL.mp4",""
"","","","call-function","318","689820","0.0-318.0","cr9glvn8","","","","","","","",""
"1303.6600000000326","{""judgement"":1}","[0]","survey-likert","319","691125","0.0-319.0","cr9glvn8","","","","","","","","0"
"1831.5849999999627","{""confidence"":3}","[0]","survey-likert","320","692959","0.0-320.0","cr9glvn8","","","","","","","",""
"","","","call-function","321","692960","0.0-321.0","cr9glvn8","","","","","","","",""
"null","","","html-keyboard-response","322","694464","0.0-322.0","cr9glvn8","","<span style=""color:Black; font-size:50px;"">Agent A","null","","","","",""
"null","","","video-keyboard-response","323","697258","0.0-323.0","cr9glvn8","","","null","","Agent A","scrambled","FOR_REV_MAP_BLOBBY_STIM/1592298.bmp_pp56_L3_V1.0_veridical_freeview_isoTrue_fps144_reversed_REAL.mp4",""
"null","","","html-keyboard-response","324","698804","0.0-324.0","cr9glvn8","","<span style=""color:Black; font-size:50px;"">Agent B","null","","","","",""
"null","","","video-keyboard-response","325","701584","0.0-325.0","cr9glvn8","","","null","","Agent B","veridical","FOR_REV_MAP_BLOBBY_STIM/1592298.bmp_pp56_L3_V1.0_veridical_freeview_isoTrue_fps144.mp4",""
"","","","call-function","326","701586","0.0-326.0","cr9glvn8","","","","","","","",""
"2266.5599999999395","{""judgement"":0}","[0]","survey-likert","327","703855","0.0-327.0","cr9glvn8","","","","","","","","1"
"863.2449999999953","{""confidence"":1}","[0]","survey-likert","328","704720","0.0-328.0","cr9glvn8","","","","","","","",""
"","","","call-function","329","704722","0.0-329.0","cr9glvn8","","","","","","","",""
"null","","","html-keyboard-response","330","706224","0.0-330.0","cr9glvn8","","<span style=""color:Black; font-size:50px;"">Agent A","null","","","","",""
"null","","","video-keyboard-response","331","708991","0.0-331.0","cr9glvn8","","","null","","Agent A","scrambled","FOR_REV_MAP_BLOBBY_STIM/1159329.bmp_pp61_L2_V1.0_veridical_freeview_isoTrue_fps144_reversed_REAL.mp4",""
"null","","","html-keyboard-response","332","710499","0.0-332.0","cr9glvn8","","<span style=""color:Black; font-size:50px;"">Agent B","null","","","","",""
"null","","","video-keyboard-response","333","713269","0.0-333.0","cr9glvn8","","","null","","Agent B","veridical","FOR_REV_MAP_BLOBBY_STIM/1159329.bmp_pp61_L2_V1.0_veridical_freeview_isoTrue_fps144.mp4",""
"","","","call-function","334","713271","0.0-334.0","cr9glvn8","","","","","","","",""
"3142.8349999999627","{""judgement"":0}","[0]","survey-likert","335","716415","0.0-335.0","cr9glvn8","","","","","","","","1"
"1479.6049999999814","{""confidence"":2}","[0]","survey-likert","336","717897","0.0-336.0","cr9glvn8","","","","","","","",""
"5364.665000000037","","","instructions","337","723263","0.0-337.0","cr9glvn8","[{""page_index"":0,""viewing_time"":1421.2700000000186},{""page_index"":1,""viewing_time"":2539.594999999972},{""page_index"":2,""viewing_time"":1403.6300000000047}]","","","","","","",""
"3578.8399999999674","","","instructions","338","726844","0.0-338.0","cr9glvn8","[{""page_index"":0,""viewing_time"":1171.920000000042},{""page_index"":1,""viewing_time"":1365.0749999999534},{""page_index"":2,""viewing_time"":1041.7299999999814}]","","","","","","",""
"","","","call-function","339","726845","0.0-339.0","cr9glvn8","","","","","","","",""
"null","","","html-keyboard-response","340","728347","0.0-340.0","cr9glvn8","","<span style=""color:Black; font-size:50px;"">Agent A","null","","","","",""
"null","","","video-keyboard-response","341","731145","0.0-341.0","cr9glvn8","","","null","","Agent A","veridical","FOR_REV_MAP_BLOBBY_STIM/1159392.bmp_pp96_L2_V1.0_veridical_freeview_isoTrue_fps144.mp4",""
"null","","","html-keyboard-response","342","732651","0.0-342.0","cr9glvn8","","<span style=""color:Black; font-size:50px;"">Agent B","null","","","","",""
"null","","","video-keyboard-response","343","735462","0.0-343.0","cr9glvn8","","","null","","Agent B","scrambled","FOR_REV_MAP_BLOBBY_STIM/1159392.bmp_pp96_L2_V1.0_veridical_freeview_isoTrue_fps144_reversed_REAL.mp4",""
"","","","call-function","344","735463","0.0-344.0","cr9glvn8","","","","","","","",""
"2199.4899999999907","{""judgement"":0}","[0]","survey-likert","345","737664","0.0-345.0","cr9glvn8","","","","","","","","0"
"1319.3149999999441","{""confidence"":1}","[0]","survey-likert","346","738985","0.0-346.0","cr9glvn8","","","","","","","",""
"","","","call-function","347","738987","0.0-347.0","cr9glvn8","","","","","","","",""
"null","","","html-keyboard-response","348","740490","0.0-348.0","cr9glvn8","","<span style=""color:Black; font-size:50px;"">Agent A","null","","","","",""
"null","","","video-keyboard-response","349","743098","0.0-349.0","cr9glvn8","","","null","","Agent A","scrambled","FOR_REV_MAP_BLOBBY_STIM/713633.bmp_pp58_L1_V1.0_veridical_freeview_isoTrue_fps144_reversed_REAL.mp4",""
"null","","","html-keyboard-response","350","744603","0.0-350.0","cr9glvn8","","<span style=""color:Black; font-size:50px;"">Agent B","null","","","","",""
"null","","","video-keyboard-response","351","747210","0.0-351.0","cr9glvn8","","","null","","Agent B","veridical","FOR_REV_MAP_BLOBBY_STIM/713633.bmp_pp58_L1_V1.0_veridical_freeview_isoTrue_fps144.mp4",""
"","","","call-function","352","747212","0.0-352.0","cr9glvn8","","","","","","","",""
"2533.3450000000885","{""judgement"":0}","[0]","survey-likert","353","749746","0.0-353.0","cr9glvn8","","","","","","","","1"
"997.0699999999488","{""confidence"":2}","[0]","survey-likert","354","750745","0.0-354.0","cr9glvn8","","","","","","","",""
"","","","call-function","355","750747","0.0-355.0","cr9glvn8","","","","","","","",""
"null","","","html-keyboard-response","356","752249","0.0-356.0","cr9glvn8","","<span style=""color:Black; font-size:50px;"">Agent A","null","","","","",""
"null","","","video-keyboard-response","357","755088","0.0-357.0","cr9glvn8","","","null","","Agent A","scrambled","FOR_REV_MAP_BLOBBY_STIM/1592314.bmp_pp100_L3_V1.0_veridical_freeview_isoTrue_fps144_reversed_REAL.mp4",""
"null","","","html-keyboard-response","358","756592","0.0-358.0","cr9glvn8","","<span style=""color:Black; font-size:50px;"">Agent B","null","","","","",""
"null","","","video-keyboard-response","359","759434","0.0-359.0","cr9glvn8","","","null","","Agent B","veridical","FOR_REV_MAP_BLOBBY_STIM/1592314.bmp_pp100_L3_V1.0_veridical_freeview_isoTrue_fps144.mp4",""
"","","","call-function","360","759436","0.0-360.0","cr9glvn8","","","","","","","",""
"2055.7149999999674","{""judgement"":0}","[0]","survey-likert","361","761493","0.0-361.0","cr9glvn8","","","","","","","","1"
"1740.1350000000093","{""confidence"":2}","[0]","survey-likert","362","763235","0.0-362.0","cr9glvn8","","","","","","","",""
"","","","call-function","363","763236","0.0-363.0","cr9glvn8","","","","","","","",""
"null","","","html-keyboard-response","364","764741","0.0-364.0","cr9glvn8","","<span style=""color:Black; font-size:50px;"">Agent A","null","","","","",""
"null","","","video-keyboard-response","365","767573","0.0-365.0","cr9glvn8","","","null","","Agent A","veridical","FOR_REV_MAP_BLOBBY_STIM/713920.bmp_pp76_L1_V1.0_veridical_freeview_isoTrue_fps144.mp4",""
"null","","","html-keyboard-response","366","769078","0.0-366.0","cr9glvn8","","<span style=""color:Black; font-size:50px;"">Agent B","null","","","","",""
"null","","","video-keyboard-response","367","771898","0.0-367.0","cr9glvn8","","","null","","Agent B","scrambled","FOR_REV_MAP_BLOBBY_STIM/713920.bmp_pp76_L1_V1.0_veridical_freeview_isoTrue_fps144_reversed_REAL.mp4",""
"","","","call-function","368","771899","0.0-368.0","cr9glvn8","","","","","","","",""
"3304.29999999993","{""judgement"":1}","[0]","survey-likert","369","775205","0.0-369.0","cr9glvn8","","","","","","","","0"
"1512.0350000000326","{""confidence"":0}","[0]","survey-likert","370","776719","0.0-370.0","cr9glvn8","","","","","","","",""
"","","","call-function","371","776720","0.0-371.0","cr9glvn8","","","","","","","",""
"null","","","html-keyboard-response","372","778222","0.0-372.0","cr9glvn8","","<span style=""color:Black; font-size:50px;"">Agent A","null","","","","",""
"null","","","video-keyboard-response","373","781044","0.0-373.0","cr9glvn8","","","null","","Agent A","scrambled","FOR_REV_MAP_BLOBBY_STIM/1592921.bmp_pp69_L3_V1.0_veridical_freeview_isoTrue_fps144_reversed_REAL.mp4",""
"null","","","html-keyboard-response","374","782548","0.0-374.0","cr9glvn8","","<span style=""color:Black; font-size:50px;"">Agent B","null","","","","",""
"null","","","video-keyboard-response","375","785385","0.0-375.0","cr9glvn8","","","null","","Agent B","veridical","FOR_REV_MAP_BLOBBY_STIM/1592921.bmp_pp69_L3_V1.0_veridical_freeview_isoTrue_fps144.mp4",""
"","","","call-function","376","785386","0.0-376.0","cr9glvn8","","","","","","","",""
"2761.814999999944","{""judgement"":0}","[0]","survey-likert","377","788149","0.0-377.0","cr9glvn8","","","","","","","","1"
"2580.6450000000186","{""confidence"":1}","[0]","survey-likert","378","790732","0.0-378.0","cr9glvn8","","","","","","","",""
"","","","call-function","379","790733","0.0-379.0","cr9glvn8","","","","","","","",""
"null","","","html-keyboard-response","380","792235","0.0-380.0","cr9glvn8","","<span style=""color:Black; font-size:50px;"">Agent A","null","","","","",""
"null","","","video-keyboard-response","381","794920","0.0-381.0","cr9glvn8","","","null","","Agent A","veridical","FOR_REV_MAP_BLOBBY_STIM/1592038.bmp_pp79_L2_V1.0_veridical_freeview_isoTrue_fps144.mp4",""
"null","","","html-keyboard-response","382","796427","0.0-382.0","cr9glvn8","","<span style=""color:Black; font-size:50px;"">Agent B","null","","","","",""
"null","","","video-keyboard-response","383","799131","0.0-383.0","cr9glvn8","","","null","","Agent B","scrambled","FOR_REV_MAP_BLOBBY_STIM/1592038.bmp_pp79_L2_V1.0_veridical_freeview_isoTrue_fps144_reversed_REAL.mp4",""
"","","","call-function","384","799132","0.0-384.0","cr9glvn8","","","","","","","",""
"1749.1999999999534","{""judgement"":1}","[0]","survey-likert","385","800882","0.0-385.0","cr9glvn8","","","","","","","","0"
"1165.125","{""confidence"":2}","[0]","survey-likert","386","802049","0.0-386.0","cr9glvn8","","","","","","","",""
"","","","call-function","387","802051","0.0-387.0","cr9glvn8","","","","","","","",""
"null","","","html-keyboard-response","388","803553","0.0-388.0","cr9glvn8","","<span style=""color:Black; font-size:50px;"">Agent A","null","","","","",""
"null","","","video-keyboard-response","389","806373","0.0-389.0","cr9glvn8","","","null","","Agent A","veridical","FOR_REV_MAP_BLOBBY_STIM/498258.bmp_pp51_L1_V1.0_veridical_freeview_isoTrue_fps144.mp4",""
"null","","","html-keyboard-response","390","807878","0.0-390.0","cr9glvn8","","<span style=""color:Black; font-size:50px;"">Agent B","null","","","","",""
"null","","","video-keyboard-response","391","810715","0.0-391.0","cr9glvn8","","","null","","Agent B","scrambled","FOR_REV_MAP_BLOBBY_STIM/498258.bmp_pp51_L1_V1.0_veridical_freeview_isoTrue_fps144_reversed_REAL.mp4",""
"","","","call-function","392","810717","0.0-392.0","cr9glvn8","","","","","","","",""
"1561.4949999999953","{""judgement"":1}","[0]","survey-likert","393","812281","0.0-393.0","cr9glvn8","","","","","","","","0"
"1318.1899999999441","{""confidence"":3}","[0]","survey-likert","394","813601","0.0-394.0","cr9glvn8","","","","","","","",""
"","","","call-function","395","813603","0.0-395.0","cr9glvn8","","","","","","","",""
"null","","","html-keyboard-response","396","815104","0.0-396.0","cr9glvn8","","<span style=""color:Black; font-size:50px;"">Agent A","null","","","","",""
"null","","","video-keyboard-response","397","817960","0.0-397.0","cr9glvn8","","","null","","Agent A","scrambled","FOR_REV_MAP_BLOBBY_STIM/107955.bmp_pp90_L2_V1.0_veridical_freeview_isoTrue_fps144_reversed_REAL.mp4",""
"null","","","html-keyboard-response","398","819468","0.0-398.0","cr9glvn8","","<span style=""color:Black; font-size:50px;"">Agent B","null","","","","",""
"null","","","video-keyboard-response","399","822301","0.0-399.0","cr9glvn8","","","null","","Agent B","veridical","FOR_REV_MAP_BLOBBY_STIM/107955.bmp_pp90_L2_V1.0_veridical_freeview_isoTrue_fps144.mp4",""
"","","","call-function","400","822303","0.0-400.0","cr9glvn8","","","","","","","",""
"2311.929999999935","{""judgement"":1}","[0]","survey-likert","401","824616","0.0-401.0","cr9glvn8","","","","","","","","1"
"1716.5050000000047","{""confidence"":2}","[0]","survey-likert","402","826336","0.0-402.0","cr9glvn8","","","","","","","",""
"","","","call-function","403","826337","0.0-403.0","cr9glvn8","","","","","","","",""
"null","","","html-keyboard-response","404","827839","0.0-404.0","cr9glvn8","","<span style=""color:Black; font-size:50px;"">Agent A","null","","","","",""
"null","","","video-keyboard-response","405","830600","0.0-405.0","cr9glvn8","","","null","","Agent A","scrambled","FOR_REV_MAP_BLOBBY_STIM/1592017.bmp_pp154_L1_V1.0_veridical_freeview_isoTrue_fps144_reversed_REAL.mp4",""
"null","","","html-keyboard-response","406","832102","0.0-406.0","cr9glvn8","","<span style=""color:Black; font-size:50px;"">Agent B","null","","","","",""
"null","","","video-keyboard-response","407","834874","0.0-407.0","cr9glvn8","","","null","","Agent B","veridical","FOR_REV_MAP_BLOBBY_STIM/1592017.bmp_pp154_L1_V1.0_veridical_freeview_isoTrue_fps144.mp4",""
"","","","call-function","408","834876","0.0-408.0","cr9glvn8","","","","","","","",""
"2077.944999999949","{""judgement"":0}","[0]","survey-likert","409","836955","0.0-409.0","cr9glvn8","","","","","","","","1"
"1028.734999999986","{""confidence"":1}","[0]","survey-likert","410","837986","0.0-410.0","cr9glvn8","","","","","","","",""
"","","","call-function","411","837988","0.0-411.0","cr9glvn8","","","","","","","",""
"null","","","html-keyboard-response","412","839490","0.0-412.0","cr9glvn8","","<span style=""color:Black; font-size:50px;"">Agent A","null","","","","",""
"null","","","video-keyboard-response","413","842282","0.0-413.0","cr9glvn8","","","null","","Agent A","veridical","FOR_REV_MAP_BLOBBY_STIM/1160049.bmp_pp53_L2_V1.0_veridical_freeview_isoTrue_fps144.mp4",""
"null","","","html-keyboard-response","414","843787","0.0-414.0","cr9glvn8","","<span style=""color:Black; font-size:50px;"">Agent B","null","","","","",""
"null","","","video-keyboard-response","415","846576","0.0-415.0","cr9glvn8","","","null","","Agent B","scrambled","FOR_REV_MAP_BLOBBY_STIM/1160049.bmp_pp53_L2_V1.0_veridical_freeview_isoTrue_fps144_reversed_REAL.mp4",""
"","","","call-function","416","846577","0.0-416.0","cr9glvn8","","","","","","","",""
"2504.6549999999115","{""judgement"":1}","[0]","survey-likert","417","849084","0.0-417.0","cr9glvn8","","","","","","","","0"
"1500.0250000000233","{""confidence"":0}","[0]","survey-likert","418","850586","0.0-418.0","cr9glvn8","","","","","","","",""
"2253.524999999907","","","instructions","419","852841","0.0-419.0","cr9glvn8","[{""page_index"":0,""viewing_time"":1248.4099999999162},{""page_index"":1,""viewing_time"":423.6950000000652},{""page_index"":2,""viewing_time"":581.140000000014}]","","","","","","",""
"7435.375","","","instructions","420","860278","0.0-420.0","cr9glvn8","[{""page_index"":0,""viewing_time"":560.2600000000093},{""page_index"":1,""viewing_time"":989.8899999998976},{""page_index"":2,""viewing_time"":5885.105000000098}]","","","","","","",""
"","","","call-function","421","860280","0.0-421.0","cr9glvn8","","","","","","","",""
"null","","","html-keyboard-response","422","861782","0.0-422.0","cr9glvn8","","<span style=""color:Black; font-size:50px;"">Agent A","null","","","","",""
"null","","","video-keyboard-response","423","864715","0.0-423.0","cr9glvn8","","","null","","Agent A","veridical","FOR_REV_MAP_BLOBBY_STIM/498025.bmp_pp81_L1_V1.0_veridical_freeview_isoTrue_fps144.mp4",""
"null","","","html-keyboard-response","424","866219","0.0-424.0","cr9glvn8","","<span style=""color:Black; font-size:50px;"">Agent B","null","","","","",""
"null","","","video-keyboard-response","425","869151","0.0-425.0","cr9glvn8","","","null","","Agent B","scrambled","FOR_REV_MAP_BLOBBY_STIM/498025.bmp_pp81_L1_V1.0_veridical_freeview_isoTrue_fps144_reversed_REAL.mp4",""
"","","","call-function","426","869152","0.0-426.0","cr9glvn8","","","","","","","",""
"1734.280000000028","{""judgement"":1}","[0]","survey-likert","427","870888","0.0-427.0","cr9glvn8","","","","","","","","0"
"1210.5350000000326","{""confidence"":2}","[0]","survey-likert","428","872100","0.0-428.0","cr9glvn8","","","","","","","",""
"","","","call-function","429","872102","0.0-429.0","cr9glvn8","","","","","","","",""
"null","","","html-keyboard-response","430","873608","0.0-430.0","cr9glvn8","","<span style=""color:Black; font-size:50px;"">Agent A","null","","","","",""
"null","","","video-keyboard-response","431","876400","0.0-431.0","cr9glvn8","","","null","","Agent A","scrambled","FOR_REV_MAP_BLOBBY_STIM/285932.bmp_pp64_L1_V1.0_veridical_freeview_isoTrue_fps144_reversed_REAL.mp4",""
"null","","","html-keyboard-response","432","877905","0.0-432.0","cr9glvn8","","<span style=""color:Black; font-size:50px;"">Agent B","null","","","","",""
"null","","","video-keyboard-response","433","880691","0.0-433.0","cr9glvn8","","","null","","Agent B","veridical","FOR_REV_MAP_BLOBBY_STIM/285932.bmp_pp64_L1_V1.0_veridical_freeview_isoTrue_fps144.mp4",""
"","","","call-function","434","880693","0.0-434.0","cr9glvn8","","","","","","","",""
"1454.1650000000373","{""judgement"":1}","[0]","survey-likert","435","882148","0.0-435.0","cr9glvn8","","","","","","","","1"
"2039.420000000042","{""confidence"":1}","[0]","survey-likert","436","884190","0.0-436.0","cr9glvn8","","","","","","","",""
"","","","call-function","437","884191","0.0-437.0","cr9glvn8","","","","","","","",""
"null","","","html-keyboard-response","438","885694","0.0-438.0","cr9glvn8","","<span style=""color:Black; font-size:50px;"">Agent A","null","","","","",""
"null","","","video-keyboard-response","439","888480","0.0-439.0","cr9glvn8","","","null","","Agent A","scrambled","FOR_REV_MAP_BLOBBY_STIM/286034.bmp_pp69_L3_V1.0_veridical_freeview_isoTrue_fps144_reversed_REAL.mp4",""
"null","","","html-keyboard-response","440","889985","0.0-440.0","cr9glvn8","","<span style=""color:Black; font-size:50px;"">Agent B","null","","","","",""
"null","","","video-keyboard-response","441","892768","0.0-441.0","cr9glvn8","","","null","","Agent B","veridical","FOR_REV_MAP_BLOBBY_STIM/286034.bmp_pp69_L3_V1.0_veridical_freeview_isoTrue_fps144.mp4",""
"","","","call-function","442","892769","0.0-442.0","cr9glvn8","","","","","","","",""
"2361.140000000014","{""judgement"":1}","[0]","survey-likert","443","895132","0.0-443.0","cr9glvn8","","","","","","","","1"
"2341.319999999949","{""confidence"":3}","[0]","survey-likert","444","897475","0.0-444.0","cr9glvn8","","","","","","","",""
"","","","call-function","445","897476","0.0-445.0","cr9glvn8","","","","","","","",""
"null","","","html-keyboard-response","446","898979","0.0-446.0","cr9glvn8","","<span style=""color:Black; font-size:50px;"">Agent A","null","","","","",""
"null","","","video-keyboard-response","447","901706","0.0-447.0","cr9glvn8","","","null","","Agent A","scrambled","FOR_REV_MAP_BLOBBY_STIM/1159592.bmp_pp91_L3_V1.0_veridical_freeview_isoTrue_fps144_reversed_REAL.mp4",""
"null","","","html-keyboard-response","448","903211","0.0-448.0","cr9glvn8","","<span style=""color:Black; font-size:50px;"">Agent B","null","","","","",""
"null","","","video-keyboard-response","449","905951","0.0-449.0","cr9glvn8","","","null","","Agent B","veridical","FOR_REV_MAP_BLOBBY_STIM/1159592.bmp_pp91_L3_V1.0_veridical_freeview_isoTrue_fps144.mp4",""
"","","","call-function","450","905953","0.0-450.0","cr9glvn8","","","","","","","",""
"1968.2700000000186","{""judgement"":0}","[0]","survey-likert","451","907922","0.0-451.0","cr9glvn8","","","","","","","","1"
"1385.8349999999627","{""confidence"":1}","[0]","survey-likert","452","909310","0.0-452.0","cr9glvn8","","","","","","","",""
"","","","call-function","453","909311","0.0-453.0","cr9glvn8","","","","","","","",""
"null","","","html-keyboard-response","454","910817","0.0-454.0","cr9glvn8","","<span style=""color:Black; font-size:50px;"">Agent A","null","","","","",""
"null","","","video-keyboard-response","455","913638","0.0-455.0","cr9glvn8","","","null","","Agent A","scrambled","FOR_REV_MAP_BLOBBY_STIM/1592305.bmp_pp65_L3_V1.0_veridical_freeview_isoTrue_fps144_reversed_REAL.mp4",""
"null","","","html-keyboard-response","456","915144","0.0-456.0","cr9glvn8","","<span style=""color:Black; font-size:50px;"">Agent B","null","","","","",""
"null","","","video-keyboard-response","457","917962","0.0-457.0","cr9glvn8","","","null","","Agent B","veridical","FOR_REV_MAP_BLOBBY_STIM/1592305.bmp_pp65_L3_V1.0_veridical_freeview_isoTrue_fps144.mp4",""
"","","","call-function","458","917963","0.0-458.0","cr9glvn8","","","","","","","",""
"1947.5899999999674","{""judgement"":0}","[0]","survey-likert","459","919912","0.0-459.0","cr9glvn8","","","","","","","","1"
"2396","{""confidence"":0}","[0]","survey-likert","460","922310","0.0-460.0","cr9glvn8","","","","","","","",""
"","","","call-function","461","922311","0.0-461.0","cr9glvn8","","","","","","","",""
"null","","","html-keyboard-response","462","923813","0.0-462.0","cr9glvn8","","<span style=""color:Black; font-size:50px;"">Agent A","null","","","","",""
"null","","","video-keyboard-response","463","926668","0.0-463.0","cr9glvn8","","","null","","Agent A","scrambled","FOR_REV_MAP_BLOBBY_STIM/713770.bmp_pp89_L1_V1.0_veridical_freeview_isoTrue_fps144_reversed_REAL.mp4",""
"null","","","html-keyboard-response","464","928171","0.0-464.0","cr9glvn8","","<span style=""color:Black; font-size:50px;"">Agent B","null","","","","",""
"null","","","video-keyboard-response","465","931032","0.0-465.0","cr9glvn8","","","null","","Agent B","veridical","FOR_REV_MAP_BLOBBY_STIM/713770.bmp_pp89_L1_V1.0_veridical_freeview_isoTrue_fps144.mp4",""
"","","","call-function","466","931034","0.0-466.0","cr9glvn8","","","","","","","",""
"2675.6900000000605","{""judgement"":0}","[0]","survey-likert","467","933711","0.0-467.0","cr9glvn8","","","","","","","","1"
"2662.3549999999814","{""confidence"":0}","[0]","survey-likert","468","936376","0.0-468.0","cr9glvn8","","","","","","","",""
"","","","call-function","469","936379","0.0-469.0","cr9glvn8","","","","","","","",""
"null","","","html-keyboard-response","470","937883","0.0-470.0","cr9glvn8","","<span style=""color:Black; font-size:50px;"">Agent A","null","","","","",""
"null","","","video-keyboard-response","471","940656","0.0-471.0","cr9glvn8","","","null","","Agent A","veridical","FOR_REV_MAP_BLOBBY_STIM/1159860.bmp_pp152_L2_V1.0_veridical_freeview_isoTrue_fps144.mp4",""
"null","","","html-keyboard-response","472","942164","0.0-472.0","cr9glvn8","","<span style=""color:Black; font-size:50px;"">Agent B","null","","","","",""
"null","","","video-keyboard-response","473","944940","0.0-473.0","cr9glvn8","","","null","","Agent B","scrambled","FOR_REV_MAP_BLOBBY_STIM/1159860.bmp_pp152_L2_V1.0_veridical_freeview_isoTrue_fps144_reversed_REAL.mp4",""
"","","","call-function","474","944942","0.0-474.0","cr9glvn8","","","","","","","",""
"2461.534999999916","{""judgement"":1}","[0]","survey-likert","475","947405","0.0-475.0","cr9glvn8","","","","","","","","0"
"1534.5699999999488","{""confidence"":2}","[0]","survey-likert","476","948942","0.0-476.0","cr9glvn8","","","","","","","",""
"","","","call-function","477","948943","0.0-477.0","cr9glvn8","","","","","","","",""
"null","","","html-keyboard-response","478","950449","0.0-478.0","cr9glvn8","","<span style=""color:Black; font-size:50px;"">Agent A","null","","","","",""
"null","","","video-keyboard-response","479","953255","0.0-479.0","cr9glvn8","","","null","","Agent A","veridical","FOR_REV_MAP_BLOBBY_STIM/713689.bmp_pp153_L3_V1.0_veridical_freeview_isoTrue_fps144.mp4",""
"null","","","html-keyboard-response","480","954758","0.0-480.0","cr9glvn8","","<span style=""color:Black; font-size:50px;"">Agent B","null","","","","",""
"null","","","video-keyboard-response","481","957578","0.0-481.0","cr9glvn8","","","null","","Agent B","scrambled","FOR_REV_MAP_BLOBBY_STIM/713689.bmp_pp153_L3_V1.0_veridical_freeview_isoTrue_fps144_reversed_REAL.mp4",""
"","","","call-function","482","957580","0.0-482.0","cr9glvn8","","","","","","","",""
"1903.844999999972","{""judgement"":0}","[0]","survey-likert","483","959485","0.0-483.0","cr9glvn8","","","","","","","","0"
"1658.6599999999162","{""confidence"":3}","[0]","survey-likert","484","961145","0.0-484.0","cr9glvn8","","","","","","","",""
"","","","call-function","485","961147","0.0-485.0","cr9glvn8","","","","","","","",""
"null","","","html-keyboard-response","486","962651","0.0-486.0","cr9glvn8","","<span style=""color:Black; font-size:50px;"">Agent A","null","","","","",""
"null","","","video-keyboard-response","487","965371","0.0-487.0","cr9glvn8","","","null","","Agent A","scrambled","FOR_REV_MAP_BLOBBY_STIM/1159427.bmp_pp98_L1_V1.0_veridical_freeview_isoTrue_fps144_reversed_REAL.mp4",""
"null","","","html-keyboard-response","488","966876","0.0-488.0","cr9glvn8","","<span style=""color:Black; font-size:50px;"">Agent B","null","","","","",""
"null","","","video-keyboard-response","489","969597","0.0-489.0","cr9glvn8","","","null","","Agent B","veridical","FOR_REV_MAP_BLOBBY_STIM/1159427.bmp_pp98_L1_V1.0_veridical_freeview_isoTrue_fps144.mp4",""
"","","","call-function","490","969598","0.0-490.0","cr9glvn8","","","","","","","",""
"1966.2999999999302","{""judgement"":1}","[0]","survey-likert","491","971565","0.0-491.0","cr9glvn8","","","","","","","","1"
"1876.6149999999907","{""confidence"":3}","[0]","survey-likert","492","973445","0.0-492.0","cr9glvn8","","","","","","","",""
"","","","call-function","493","973446","0.0-493.0","cr9glvn8","","","","","","","",""
"null","","","html-keyboard-response","494","974952","0.0-494.0","cr9glvn8","","<span style=""color:Black; font-size:50px;"">Agent A","null","","","","",""
"null","","","video-keyboard-response","495","977737","0.0-495.0","cr9glvn8","","","null","","Agent A","scrambled","FOR_REV_MAP_BLOBBY_STIM/285684.bmp_pp80_L3_V1.0_veridical_freeview_isoTrue_fps144_reversed_REAL.mp4",""
"null","","","html-keyboard-response","496","979240","0.0-496.0","cr9glvn8","","<span style=""color:Black; font-size:50px;"">Agent B","null","","","","",""
"null","","","video-keyboard-response","497","982022","0.0-497.0","cr9glvn8","","","null","","Agent B","veridical","FOR_REV_MAP_BLOBBY_STIM/285684.bmp_pp80_L3_V1.0_veridical_freeview_isoTrue_fps144.mp4",""
"","","","call-function","498","982023","0.0-498.0","cr9glvn8","","","","","","","",""
"1549.9399999999441","{""judgement"":0}","[0]","survey-likert","499","983574","0.0-499.0","cr9glvn8","","","","","","","","1"
"1700.5200000000186","{""confidence"":3}","[0]","survey-likert","500","985277","0.0-500.0","cr9glvn8","","","","","","","",""
"1791.984999999986","","","instructions","501","987070","0.0-501.0","cr9glvn8","[{""page_index"":0,""viewing_time"":979.8449999999721},{""page_index"":1,""viewing_time"":414.1049999999814},{""page_index"":2,""viewing_time"":397.8649999999907}]","","","","","","",""
"1524.579999999958","","","instructions","502","988596","0.0-502.0","cr9glvn8","[{""page_index"":0,""viewing_time"":380.4649999999674},{""page_index"":1,""viewing_time"":626},{""page_index"":2,""viewing_time"":517.9949999999953}]","","","","","","",""
"","","","call-function","503","988598","0.0-503.0","cr9glvn8","","","","","","","",""
"null","","","html-keyboard-response","504","990102","0.0-504.0","cr9glvn8","","<span style=""color:Black; font-size:50px;"">Agent A","null","","","","",""
"null","","","video-keyboard-response","505","992951","0.0-505.0","cr9glvn8","","","null","","Agent A","scrambled","FOR_REV_MAP_BLOBBY_STIM/713829.bmp_pp60_L3_V1.0_veridical_freeview_isoTrue_fps144_reversed_REAL.mp4",""
"null","","","html-keyboard-response","506","994454","0.0-506.0","cr9glvn8","","<span style=""color:Black; font-size:50px;"">Agent B","null","","","","",""
"null","","","video-keyboard-response","507","997302","0.0-507.0","cr9glvn8","","","null","","Agent B","veridical","FOR_REV_MAP_BLOBBY_STIM/713829.bmp_pp60_L3_V1.0_veridical_freeview_isoTrue_fps144.mp4",""
"","","","call-function","508","997303","0.0-508.0","cr9glvn8","","","","","","","",""
"2040.625","{""judgement"":0}","[0]","survey-likert","509","999345","0.0-509.0","cr9glvn8","","","","","","","","1"
"2206.965000000084","{""confidence"":2}","[0]","survey-likert","510","1001554","0.0-510.0","cr9glvn8","","","","","","","",""
"","","","call-function","511","1001556","0.0-511.0","cr9glvn8","","","","","","","",""
"null","","","html-keyboard-response","512","1003062","0.0-512.0","cr9glvn8","","<span style=""color:Black; font-size:50px;"">Agent A","null","","","","",""
"null","","","video-keyboard-response","513","1005152","0.0-513.0","cr9glvn8","","","null","","Agent A","scrambled","FOR_REV_MAP_BLOBBY_STIM/1159973.bmp_pp98_L1_V1.0_veridical_freeview_isoTrue_fps144_reversed_REAL.mp4",""
"null","","","html-keyboard-response","514","1006657","0.0-514.0","cr9glvn8","","<span style=""color:Black; font-size:50px;"">Agent B","null","","","","",""
"null","","","video-keyboard-response","515","1008752","0.0-515.0","cr9glvn8","","","null","","Agent B","veridical","FOR_REV_MAP_BLOBBY_STIM/1159973.bmp_pp98_L1_V1.0_veridical_freeview_isoTrue_fps144.mp4",""
"","","","call-function","516","1008753","0.0-516.0","cr9glvn8","","","","","","","",""
"1981.6450000000186","{""judgement"":1}","[0]","survey-likert","517","1010736","0.0-517.0","cr9glvn8","","","","","","","","1"
"1197.3100000000559","{""confidence"":2}","[0]","survey-likert","518","1011935","0.0-518.0","cr9glvn8","","","","","","","",""
"","","","call-function","519","1011937","0.0-519.0","cr9glvn8","","","","","","","",""
"null","","","html-keyboard-response","520","1013440","0.0-520.0","cr9glvn8","","<span style=""color:Black; font-size:50px;"">Agent A","null","","","","",""
"null","","","video-keyboard-response","521","1016202","0.0-521.0","cr9glvn8","","","null","","Agent A","scrambled","FOR_REV_MAP_BLOBBY_STIM/1592747.bmp_pp53_L2_V1.0_veridical_freeview_isoTrue_fps144_reversed_REAL.mp4",""
"null","","","html-keyboard-response","522","1017708","0.0-522.0","cr9glvn8","","<span style=""color:Black; font-size:50px;"">Agent B","null","","","","",""
"null","","","video-keyboard-response","523","1020496","0.0-523.0","cr9glvn8","","","null","","Agent B","veridical","FOR_REV_MAP_BLOBBY_STIM/1592747.bmp_pp53_L2_V1.0_veridical_freeview_isoTrue_fps144.mp4",""
"","","","call-function","524","1020498","0.0-524.0","cr9glvn8","","","","","","","",""
"2405.0250000000233","{""judgement"":1}","[0]","survey-likert","525","1022904","0.0-525.0","cr9glvn8","","","","","","","","1"
"1576.8300000000745","{""confidence"":1}","[0]","survey-likert","526","1024483","0.0-526.0","cr9glvn8","","","","","","","",""
"","","","call-function","527","1024484","0.0-527.0","cr9glvn8","","","","","","","",""
"null","","","html-keyboard-response","528","1025990","0.0-528.0","cr9glvn8","","<span style=""color:Black; font-size:50px;"">Agent A","null","","","","",""
"null","","","video-keyboard-response","529","1028790","0.0-529.0","cr9glvn8","","","null","","Agent A","scrambled","FOR_REV_MAP_BLOBBY_STIM/1592289.bmp_pp92_L3_V1.0_veridical_freeview_isoTrue_fps144_reversed_REAL.mp4",""
"null","","","html-keyboard-response","530","1030294","0.0-530.0","cr9glvn8","","<span style=""color:Black; font-size:50px;"">Agent B","null","","","","",""
"null","","","video-keyboard-response","531","1033093","0.0-531.0","cr9glvn8","","","null","","Agent B","veridical","FOR_REV_MAP_BLOBBY_STIM/1592289.bmp_pp92_L3_V1.0_veridical_freeview_isoTrue_fps144.mp4",""
"","","","call-function","532","1033094","0.0-532.0","cr9glvn8","","","","","","","",""
"1807.1149999999907","{""judgement"":0}","[0]","survey-likert","533","1034903","0.0-533.0","cr9glvn8","","","","","","","","1"
"1152.7699999999022","{""confidence"":1}","[0]","survey-likert","534","1036057","0.0-534.0","cr9glvn8","","","","","","","",""
"","","","call-function","535","1036059","0.0-535.0","cr9glvn8","","","","","","","",""
"null","","","html-keyboard-response","536","1037561","0.0-536.0","cr9glvn8","","<span style=""color:Black; font-size:50px;"">Agent A","null","","","","",""
"null","","","video-keyboard-response","537","1040428","0.0-537.0","cr9glvn8","","","null","","Agent A","scrambled","FOR_REV_MAP_BLOBBY_STIM/1592201.bmp_pp97_L3_V1.0_veridical_freeview_isoTrue_fps144_reversed_REAL.mp4",""
"null","","","html-keyboard-response","538","1041973","0.0-538.0","cr9glvn8","","<span style=""color:Black; font-size:50px;"">Agent B","null","","","","",""
"null","","","video-keyboard-response","539","1044849","0.0-539.0","cr9glvn8","","","null","","Agent B","veridical","FOR_REV_MAP_BLOBBY_STIM/1592201.bmp_pp97_L3_V1.0_veridical_freeview_isoTrue_fps144.mp4",""
"","","","call-function","540","1044851","0.0-540.0","cr9glvn8","","","","","","","",""
"1665.6650000000373","{""judgement"":0}","[0]","survey-likert","541","1046518","0.0-541.0","cr9glvn8","","","","","","","","1"
"1180.1949999999488","{""confidence"":2}","[0]","survey-likert","542","1047701","0.0-542.0","cr9glvn8","","","","","","","",""
"","","","call-function","543","1047703","0.0-543.0","cr9glvn8","","","","","","","",""
"null","","","html-keyboard-response","544","1049207","0.0-544.0","cr9glvn8","","<span style=""color:Black; font-size:50px;"">Agent A","null","","","","",""
"null","","","video-keyboard-response","545","1051638","0.0-545.0","cr9glvn8","","","null","","Agent A","scrambled","FOR_REV_MAP_BLOBBY_STIM/1592951.bmp_pp80_L3_V1.0_veridical_freeview_isoTrue_fps144_reversed_REAL.mp4",""
"null","","","html-keyboard-response","546","1053143","0.0-546.0","cr9glvn8","","<span style=""color:Black; font-size:50px;"">Agent B","null","","","","",""
"null","","","video-keyboard-response","547","1055563","0.0-547.0","cr9glvn8","","","null","","Agent B","veridical","FOR_REV_MAP_BLOBBY_STIM/1592951.bmp_pp80_L3_V1.0_veridical_freeview_isoTrue_fps144.mp4",""
"","","","call-function","548","1055565","0.0-548.0","cr9glvn8","","","","","","","",""
"1831.8000000000466","{""judgement"":1}","[0]","survey-likert","549","1057398","0.0-549.0","cr9glvn8","","","","","","","","1"
"1455.660000000149","{""confidence"":1}","[0]","survey-likert","550","1058856","0.0-550.0","cr9glvn8","","","","","","","",""
"","","","call-function","551","1058858","0.0-551.0","cr9glvn8","","","","","","","",""
"null","","","html-keyboard-response","552","1060364","0.0-552.0","cr9glvn8","","<span style=""color:Black; font-size:50px;"">Agent A","null","","","","",""
"null","","","video-keyboard-response","553","1063100","0.0-553.0","cr9glvn8","","","null","","Agent A","veridical","FOR_REV_MAP_BLOBBY_STIM/1159956.bmp_pp59_L3_V1.0_veridical_freeview_isoTrue_fps144.mp4",""
"null","","","html-keyboard-response","554","1064604","0.0-554.0","cr9glvn8","","<span style=""color:Black; font-size:50px;"">Agent B","null","","","","",""
"null","","","video-keyboard-response","555","1067350","0.0-555.0","cr9glvn8","","","null","","Agent B","scrambled","FOR_REV_MAP_BLOBBY_STIM/1159956.bmp_pp59_L3_V1.0_veridical_freeview_isoTrue_fps144_reversed_REAL.mp4",""
"","","","call-function","556","1067351","0.0-556.0","cr9glvn8","","","","","","","",""
"1557.059999999823","{""judgement"":1}","[0]","survey-likert","557","1068911","0.0-557.0","cr9glvn8","","","","","","","","0"
"1765.7399999999907","{""confidence"":3}","[0]","survey-likert","558","1070679","0.0-558.0","cr9glvn8","","","","","","","",""
"","","","call-function","559","1070681","0.0-559.0","cr9glvn8","","","","","","","",""
"null","","","html-keyboard-response","560","1072182","0.0-560.0","cr9glvn8","","<span style=""color:Black; font-size:50px;"">Agent A","null","","","","",""
"null","","","video-keyboard-response","561","1075006","0.0-561.0","cr9glvn8","","","null","","Agent A","scrambled","FOR_REV_MAP_BLOBBY_STIM/107909.bmp_pp95_L2_V1.0_veridical_freeview_isoTrue_fps144_reversed_REAL.mp4",""
"null","","","html-keyboard-response","562","1076510","0.0-562.0","cr9glvn8","","<span style=""color:Black; font-size:50px;"">Agent B","null","","","","",""
"null","","","video-keyboard-response","563","1079431","0.0-563.0","cr9glvn8","","","null","","Agent B","veridical","FOR_REV_MAP_BLOBBY_STIM/107909.bmp_pp95_L2_V1.0_veridical_freeview_isoTrue_fps144.mp4",""
"","","","call-function","564","1079432","0.0-564.0","cr9glvn8","","","","","","","",""
"1633.5100000000093","{""judgement"":0}","[0]","survey-likert","565","1081067","0.0-565.0","cr9glvn8","","","","","","","","1"
"890.4099999999162","{""confidence"":2}","[0]","survey-likert","566","1081960","0.0-566.0","cr9glvn8","","","","","","","",""
"","","","call-function","567","1081962","0.0-567.0","cr9glvn8","","","","","","","",""
"null","","","html-keyboard-response","568","1083463","0.0-568.0","cr9glvn8","","<span style=""color:Black; font-size:50px;"">Agent A","null","","","","",""
"null","","","video-keyboard-response","569","1086241","0.0-569.0","cr9glvn8","","","null","","Agent A","veridical","FOR_REV_MAP_BLOBBY_STIM/1592129.bmp_pp153_L3_V1.0_veridical_freeview_isoTrue_fps144.mp4",""
"null","","","html-keyboard-response","570","1087745","0.0-570.0","cr9glvn8","","<span style=""color:Black; font-size:50px;"">Agent B","null","","","","",""
"null","","","video-keyboard-response","571","1090523","0.0-571.0","cr9glvn8","","","null","","Agent B","scrambled","FOR_REV_MAP_BLOBBY_STIM/1592129.bmp_pp153_L3_V1.0_veridical_freeview_isoTrue_fps144_reversed_REAL.mp4",""
"","","","call-function","572","1090525","0.0-572.0","cr9glvn8","","","","","","","",""
"2416.274999999907","{""judgement"":1}","[0]","survey-likert","573","1092942","0.0-573.0","cr9glvn8","","","","","","","","0"
"1102.5200000000186","{""confidence"":1}","[0]","survey-likert","574","1094047","0.0-574.0","cr9glvn8","","","","","","","",""
"","","","call-function","575","1094048","0.0-575.0","cr9glvn8","","","","","","","",""
"null","","","html-keyboard-response","576","1095550","0.0-576.0","cr9glvn8","","<span style=""color:Black; font-size:50px;"">Agent A","null","","","","",""
"null","","","video-keyboard-response","577","1098322","0.0-577.0","cr9glvn8","","","null","","Agent A","scrambled","FOR_REV_MAP_BLOBBY_STIM/1592168.bmp_pp71_L1_V1.0_veridical_freeview_isoTrue_fps144_reversed_REAL.mp4",""
"null","","","html-keyboard-response","578","1099825","0.0-578.0","cr9glvn8","","<span style=""color:Black; font-size:50px;"">Agent B","null","","","","",""
"null","","","video-keyboard-response","579","1102614","0.0-579.0","cr9glvn8","","","null","","Agent B","veridical","FOR_REV_MAP_BLOBBY_STIM/1592168.bmp_pp71_L1_V1.0_veridical_freeview_isoTrue_fps144.mp4",""
"","","","call-function","580","1102615","0.0-580.0","cr9glvn8","","","","","","","",""
"2108.189999999944","{""judgement"":1}","[0]","survey-likert","581","1104725","0.0-581.0","cr9glvn8","","","","","","","","1"
"2254.6800000001676","{""confidence"":2}","[0]","survey-likert","582","1106982","0.0-582.0","cr9glvn8","","","","","","","",""
"1651.690000000177","","","instructions","583","1108635","0.0-583.0","cr9glvn8","[{""page_index"":0,""viewing_time"":1651.5250000001397}]","","","","","","",""
"1746.154999999795","","","instructions","584","1110383","0.0-584.0","cr9glvn8","[{""page_index"":0,""viewing_time"":1745.9299999999348}]","","","","","","",""
"11310.909999999916","{""post-1"":2}","[0]","survey-likert","585","1121696","0.0-585.0","cr9glvn8","","","","","","","",""
"9870.070000000065","{""post-1"":0}","[0]","survey-likert","586","1131569","0.0-586.0","cr9glvn8","","","","","","","",""
"10109.354999999981","{""post-2"":3}","[0]","survey-likert","587","1141682","0.0-587.0","cr9glvn8","","","","","","","",""
"4392.524999999907","{""post-2"":0}","[0]","survey-likert","588","1146077","0.0-588.0","cr9glvn8","","","","","","","",""
"4556.945000000065","{""post-3"":3}","[0]","survey-likert","589","1150636","0.0-589.0","cr9glvn8","","","","","","","",""
"3203.5100000000093","{""post-3"":0}","[0]","survey-likert","590","1153842","0.0-590.0","cr9glvn8","","","","","","","",""
"7929.709999999963","{""post-4"":2}","[0]","survey-likert","591","1161774","0.0-591.0","cr9glvn8","","","","","","","",""
"10445.735000000102","{""post-4"":0}","[0]","survey-likert","592","1172222","0.0-592.0","cr9glvn8","","","","","","","",""
"6100.39000000013","{""post-5"":0}","[0]","survey-likert","593","1178325","0.0-593.0","cr9glvn8","","","","","","","",""
"2471.9199999999255","{""post-5"":3}","[0]","survey-likert","594","1180799","0.0-594.0","cr9glvn8","","","","","","","",""
"51400.10499999998","{""Q0"":""It felt as if for the human agents, I could feel my eyes following a pattern similar to what I would do if I were the one paying attention. It felt more natural then some of the videos I thought to be fake.""}","","survey-text","595","1232221","0.0-595.0","cr9glvn8","","","","","","","",""
"49745.19000000018","{""Q0"":""The easiest part was answering quickly using my intuition. My strategy was to stop thinking for a second and allow my eyes to naturally follow that pattern. Whatever felt most comfortable I thought was human.""}","","survey-text","596","1281974","0.0-596.0","cr9glvn8","","","","","","","",""
"27542.564999999944","{""Q0"":""Most difficult would be staying focused. However, during the videos I felt I could concentrate not on the spots, but the pattern in general.""}","","survey-text","597","1309541","0.0-597.0","cr9glvn8","","","","","","","",""
"7101.614999999991","","","instructions","598","1316645","0.0-598.0","cr9glvn8","[{""page_index"":0,""viewing_time"":7101.464999999851}]","","","","","","",""
"147062.80000000005","{""Experimenter_end"":[""Printed ID# cr9glvn8 on consent form"",""Given subject SONA credit or payment"",""Given the subject debrief form""]}","[0]","survey-multi-select","599","1463713","0.0-599.0","cr9glvn8","","","","","","","",""
