"rt","responses","question_order","trial_type","trial_index","time_elapsed","internal_node_id","ID","view_history","stimulus","key_press","value","agent","condition","image","correct_answer"
"13116.69","{""Experimenter"":[""Confirmed subject's identity"",""Confirmed normal or corrected-to-normal vision"",""Obtained consent (signature and date)"",""Checked the test room lighting"",""Checked computer screen lighting"",""Checked distance from screen to chin rest (50cm)"",""Cleaned and adjusted chin rest"",""Counterbalanced the order of the tasks"",""Opened the experiment in Firefox"",""Made the experiment full screen"",""Encouraged subject to silence phone, put away distractors, etc.""]}","[0]","survey-multi-select","0","13125","0.0-0.0","ctrcrfzz","","","","","","","",""
"1436510.325","","","instructions","1","1449640","0.0-1.0","ctrcrfzz","[{""page_index"":0,""viewing_time"":1436510.1700000002}]","","","","","","",""
"20348.350000000093","","","instructions","2","1469990","0.0-2.0","ctrcrfzz","[{""page_index"":0,""viewing_time"":8936.27500000014},{""page_index"":1,""viewing_time"":2617.8599999998696},{""page_index"":2,""viewing_time"":8794.075000000186}]","","","","","","",""
"5153.274999999907","","","instructions","3","1475144","0.0-3.0","ctrcrfzz","[{""page_index"":0,""viewing_time"":5153.1699999999255}]","","","","","","",""
"null","","","video-keyboard-response","4","1478220","0.0-4.0","ctrcrfzz","","","null","","","","",""
"26245.52000000002","","","instructions","5","1504466","0.0-5.0","ctrcrfzz","[{""page_index"":0,""viewing_time"":5964.445000000065},{""page_index"":1,""viewing_time"":12109},{""page_index"":2,""viewing_time"":8171.964999999851}]","","","","","","",""
"4825.659999999916","","","instructions","6","1509292","0.0-6.0","ctrcrfzz","[{""page_index"":0,""viewing_time"":4825.554999999935}]","","","","","","",""
"1733.7399999999907","","","instructions","7","1511026","0.0-7.0","ctrcrfzz","[{""page_index"":0,""viewing_time"":1733.5249999999069}]","","","","","","",""
"null","","","video-keyboard-response","8","1514101","0.0-8.0","ctrcrfzz","","","null","","","","",""
"16383.054999999935","","","instructions","9","1530484","0.0-9.0","ctrcrfzz","[{""page_index"":0,""viewing_time"":2125.1299999998882},{""page_index"":1,""viewing_time"":5065.860000000102},{""page_index"":2,""viewing_time"":9191.925000000047}]","","","","","","",""
"15072.649999999907","","","instructions","10","1545557","0.0-10.0","ctrcrfzz","[{""page_index"":0,""viewing_time"":15072.530000000028}]","","","","","","",""
"","","","call-function","11","1545558","0.0-11.0","ctrcrfzz","","","","","","","",""
"null","","","html-keyboard-response","12","1547064","0.0-12.0","ctrcrfzz","","<span style=""color:Black; font-size:50px;"">Agent A","null","","","","",""
"null","","","video-keyboard-response","13","1550141","0.0-13.0","ctrcrfzz","","","null","","Agent A","scrambled","STIM_SET_5/1159874.bmp_pp96_L2_V1.0_veridical_freeview_isoTrue_Hflip_fps144.mp4",""
"null","","","html-keyboard-response","14","1551645","0.0-14.0","ctrcrfzz","","<span style=""color:Black; font-size:50px;"">Agent B","null","","","","",""
"null","","","video-keyboard-response","15","1554723","0.0-15.0","ctrcrfzz","","","null","","Agent B","veridical","STIM_SET_2_144/1159874.bmp_pp96_L2_V1.0_veridical_freeview_isoTrue_fps144.mp4",""
"","","","call-function","16","1554723","0.0-16.0","ctrcrfzz","","","","","","","",""
"3063.5750000001863","{""judgement"":1}","[0]","survey-likert","17","1557788","0.0-17.0","ctrcrfzz","","","","","","","","1"
"7601.985000000102","{""confidence"":2}","[0]","survey-likert","18","1565391","0.0-18.0","ctrcrfzz","","","","","","","",""
"","","","call-function","19","1565392","0.0-19.0","ctrcrfzz","","","","","","","",""
"null","","","html-keyboard-response","20","1566898","0.0-20.0","ctrcrfzz","","<span style=""color:Black; font-size:50px;"">Agent A","null","","","","",""
"null","","","video-keyboard-response","21","1569960","0.0-21.0","ctrcrfzz","","","null","","Agent A","veridical","STIM_SET_2_144/713328.bmp_pp86_L2_V1.0_veridical_freeview_isoTrue_fps144.mp4",""
"null","","","html-keyboard-response","22","1571466","0.0-22.0","ctrcrfzz","","<span style=""color:Black; font-size:50px;"">Agent B","null","","","","",""
"null","","","video-keyboard-response","23","1574534","0.0-23.0","ctrcrfzz","","","null","","Agent B","scrambled","STIM_SET_5/713328.bmp_pp86_L2_V1.0_veridical_freeview_isoTrue_Hflip_fps144.mp4",""
"","","","call-function","24","1574534","0.0-24.0","ctrcrfzz","","","","","","","",""
"3690.9500000001863","{""judgement"":0}","[0]","survey-likert","25","1578226","0.0-25.0","ctrcrfzz","","","","","","","","0"
"1729.3400000000838","{""confidence"":1}","[0]","survey-likert","26","1579956","0.0-26.0","ctrcrfzz","","","","","","","",""
"","","","call-function","27","1579957","0.0-27.0","ctrcrfzz","","","","","","","",""
"null","","","html-keyboard-response","28","1581459","0.0-28.0","ctrcrfzz","","<span style=""color:Black; font-size:50px;"">Agent A","null","","","","",""
"null","","","video-keyboard-response","29","1584522","0.0-29.0","ctrcrfzz","","","null","","Agent A","scrambled","STIM_SET_5/286034.bmp_pp69_L3_V1.0_veridical_freeview_isoTrue_Hflip_fps144.mp4",""
"null","","","html-keyboard-response","30","1586028","0.0-30.0","ctrcrfzz","","<span style=""color:Black; font-size:50px;"">Agent B","null","","","","",""
"null","","","video-keyboard-response","31","1589089","0.0-31.0","ctrcrfzz","","","null","","Agent B","veridical","STIM_SET_2_144/286034.bmp_pp69_L3_V1.0_veridical_freeview_isoTrue_fps144.mp4",""
"","","","call-function","32","1589090","0.0-32.0","ctrcrfzz","","","","","","","",""
"2226.1100000001024","{""judgement"":0}","[0]","survey-likert","33","1591317","0.0-33.0","ctrcrfzz","","","","","","","","1"
"4511.875","{""confidence"":3}","[0]","survey-likert","34","1595830","0.0-34.0","ctrcrfzz","","","","","","","",""
"","","","call-function","35","1595830","0.0-35.0","ctrcrfzz","","","","","","","",""
"null","","","html-keyboard-response","36","1597334","0.0-36.0","ctrcrfzz","","<span style=""color:Black; font-size:50px;"">Agent A","null","","","","",""
"null","","","video-keyboard-response","37","1600417","0.0-37.0","ctrcrfzz","","","null","","Agent A","scrambled","STIM_SET_5/713788.bmp_pp52_L1_V1.0_veridical_freeview_isoTrue_Hflip_fps144.mp4",""
"null","","","html-keyboard-response","38","1601918","0.0-38.0","ctrcrfzz","","<span style=""color:Black; font-size:50px;"">Agent B","null","","","","",""
"null","","","video-keyboard-response","39","1605006","0.0-39.0","ctrcrfzz","","","null","","Agent B","veridical","STIM_SET_2_144/713788.bmp_pp52_L1_V1.0_veridical_freeview_isoTrue_fps144.mp4",""
"","","","call-function","40","1605006","0.0-40.0","ctrcrfzz","","","","","","","",""
"3148.5049999998882","{""judgement"":0}","[0]","survey-likert","41","1608156","0.0-41.0","ctrcrfzz","","","","","","","","1"
"2221.685000000056","{""confidence"":1}","[0]","survey-likert","42","1610378","0.0-42.0","ctrcrfzz","","","","","","","",""
"","","","call-function","43","1610379","0.0-43.0","ctrcrfzz","","","","","","","",""
"null","","","html-keyboard-response","44","1611882","0.0-44.0","ctrcrfzz","","<span style=""color:Black; font-size:50px;"">Agent A","null","","","","",""
"null","","","video-keyboard-response","45","1614977","0.0-45.0","ctrcrfzz","","","null","","Agent A","scrambled","STIM_SET_5/285946.bmp_pp79_L2_V1.0_veridical_freeview_isoTrue_Hflip_fps144.mp4",""
"null","","","html-keyboard-response","46","1616479","0.0-46.0","ctrcrfzz","","<span style=""color:Black; font-size:50px;"">Agent B","null","","","","",""
"null","","","video-keyboard-response","47","1619578","0.0-47.0","ctrcrfzz","","","null","","Agent B","veridical","STIM_SET_2_144/285946.bmp_pp79_L2_V1.0_veridical_freeview_isoTrue_fps144.mp4",""
"","","","call-function","48","1619578","0.0-48.0","ctrcrfzz","","","","","","","",""
"12535.189999999944","{""judgement"":0}","[0]","survey-likert","49","1632114","0.0-49.0","ctrcrfzz","","","","","","","","1"
"1811.1950000000652","{""confidence"":0}","[0]","survey-likert","50","1633926","0.0-50.0","ctrcrfzz","","","","","","","",""
"","","","call-function","51","1633927","0.0-51.0","ctrcrfzz","","","","","","","",""
"null","","","html-keyboard-response","52","1635429","0.0-52.0","ctrcrfzz","","<span style=""color:Black; font-size:50px;"">Agent A","null","","","","",""
"null","","","video-keyboard-response","53","1638489","0.0-53.0","ctrcrfzz","","","null","","Agent A","scrambled","STIM_SET_5/1592567.bmp_pp70_L2_V1.0_veridical_freeview_isoTrue_Hflip_fps144.mp4",""
"null","","","html-keyboard-response","54","1639993","0.0-54.0","ctrcrfzz","","<span style=""color:Black; font-size:50px;"">Agent B","null","","","","",""
"null","","","video-keyboard-response","55","1643058","0.0-55.0","ctrcrfzz","","","null","","Agent B","veridical","STIM_SET_2_144/1592567.bmp_pp70_L2_V1.0_veridical_freeview_isoTrue_fps144.mp4",""
"","","","call-function","56","1643058","0.0-56.0","ctrcrfzz","","","","","","","",""
"7320.215000000084","{""judgement"":0}","[0]","survey-likert","57","1650380","0.0-57.0","ctrcrfzz","","","","","","","","1"
"1906.8200000000652","{""confidence"":0}","[0]","survey-likert","58","1652287","0.0-58.0","ctrcrfzz","","","","","","","",""
"","","","call-function","59","1652288","0.0-59.0","ctrcrfzz","","","","","","","",""
"null","","","html-keyboard-response","60","1653790","0.0-60.0","ctrcrfzz","","<span style=""color:Black; font-size:50px;"">Agent A","null","","","","",""
"null","","","video-keyboard-response","61","1656855","0.0-61.0","ctrcrfzz","","","null","","Agent A","scrambled","STIM_SET_5/1592025.bmp_pp68_L1_V1.0_veridical_freeview_isoTrue_Hflip_fps144.mp4",""
"null","","","html-keyboard-response","62","1658358","0.0-62.0","ctrcrfzz","","<span style=""color:Black; font-size:50px;"">Agent B","null","","","","",""
"null","","","video-keyboard-response","63","1661429","0.0-63.0","ctrcrfzz","","","null","","Agent B","veridical","STIM_SET_2_144/1592025.bmp_pp68_L1_V1.0_veridical_freeview_isoTrue_fps144.mp4",""
"","","","call-function","64","1661429","0.0-64.0","ctrcrfzz","","","","","","","",""
"2927.214999999851","{""judgement"":1}","[0]","survey-likert","65","1664357","0.0-65.0","ctrcrfzz","","","","","","","","1"
"3055.130000000121","{""confidence"":0}","[0]","survey-likert","66","1667414","0.0-66.0","ctrcrfzz","","","","","","","",""
"","","","call-function","67","1667414","0.0-67.0","ctrcrfzz","","","","","","","",""
"null","","","html-keyboard-response","68","1668920","0.0-68.0","ctrcrfzz","","<span style=""color:Black; font-size:50px;"">Agent A","null","","","","",""
"null","","","video-keyboard-response","69","1672012","0.0-69.0","ctrcrfzz","","","null","","Agent A","scrambled","STIM_SET_5/1592568.bmp_pp71_L1_V1.0_veridical_freeview_isoTrue_Hflip_fps144.mp4",""
"null","","","html-keyboard-response","70","1673516","0.0-70.0","ctrcrfzz","","<span style=""color:Black; font-size:50px;"">Agent B","null","","","","",""
"null","","","video-keyboard-response","71","1676609","0.0-71.0","ctrcrfzz","","","null","","Agent B","veridical","STIM_SET_2_144/1592568.bmp_pp71_L1_V1.0_veridical_freeview_isoTrue_fps144.mp4",""
"","","","call-function","72","1676610","0.0-72.0","ctrcrfzz","","","","","","","",""
"5552.27500000014","{""judgement"":1}","[0]","survey-likert","73","1682163","0.0-73.0","ctrcrfzz","","","","","","","","1"
"5219.110000000102","{""confidence"":1}","[0]","survey-likert","74","1687384","0.0-74.0","ctrcrfzz","","","","","","","",""
"","","","call-function","75","1687385","0.0-75.0","ctrcrfzz","","","","","","","",""
"null","","","html-keyboard-response","76","1688886","0.0-76.0","ctrcrfzz","","<span style=""color:Black; font-size:50px;"">Agent A","null","","","","",""
"null","","","video-keyboard-response","77","1691949","0.0-77.0","ctrcrfzz","","","null","","Agent A","scrambled","STIM_SET_5/1592314.bmp_pp100_L3_V1.0_veridical_freeview_isoTrue_Hflip_fps144.mp4",""
"null","","","html-keyboard-response","78","1693451","0.0-78.0","ctrcrfzz","","<span style=""color:Black; font-size:50px;"">Agent B","null","","","","",""
"null","","","video-keyboard-response","79","1696514","0.0-79.0","ctrcrfzz","","","null","","Agent B","veridical","STIM_SET_2_144/1592314.bmp_pp100_L3_V1.0_veridical_freeview_isoTrue_fps144.mp4",""
"","","","call-function","80","1696514","0.0-80.0","ctrcrfzz","","","","","","","",""
"2256.2549999998882","{""judgement"":1}","[0]","survey-likert","81","1698772","0.0-81.0","ctrcrfzz","","","","","","","","1"
"2301.2000000001863","{""confidence"":2}","[0]","survey-likert","82","1701074","0.0-82.0","ctrcrfzz","","","","","","","",""
"","","","call-function","83","1701075","0.0-83.0","ctrcrfzz","","","","","","","",""
"null","","","html-keyboard-response","84","1702579","0.0-84.0","ctrcrfzz","","<span style=""color:Black; font-size:50px;"">Agent A","null","","","","",""
"null","","","video-keyboard-response","85","1705651","0.0-85.0","ctrcrfzz","","","null","","Agent A","scrambled","STIM_SET_5/498396.bmp_pp99_L2_V1.0_veridical_freeview_isoTrue_Hflip_fps144.mp4",""
"null","","","html-keyboard-response","86","1707154","0.0-86.0","ctrcrfzz","","<span style=""color:Black; font-size:50px;"">Agent B","null","","","","",""
"null","","","video-keyboard-response","87","1710224","0.0-87.0","ctrcrfzz","","","null","","Agent B","veridical","STIM_SET_2_144/498396.bmp_pp99_L2_V1.0_veridical_freeview_isoTrue_fps144.mp4",""
"","","","call-function","88","1710224","0.0-88.0","ctrcrfzz","","","","","","","",""
"2428.564999999944","{""judgement"":1}","[0]","survey-likert","89","1712654","0.0-89.0","ctrcrfzz","","","","","","","","1"
"3786.5799999998417","{""confidence"":0}","[0]","survey-likert","90","1716441","0.0-90.0","ctrcrfzz","","","","","","","",""
"21420.925000000047","","","instructions","91","1737863","0.0-91.0","ctrcrfzz","[{""page_index"":0,""viewing_time"":5224.565000000177},{""page_index"":1,""viewing_time"":14430.309999999823},{""page_index"":2,""viewing_time"":1765.8500000000931}]","","","","","","",""
"6672.324999999953","","","instructions","92","1744535","0.0-92.0","ctrcrfzz","[{""page_index"":0,""viewing_time"":1549.8299999998417},{""page_index"":1,""viewing_time"":4092.630000000121},{""page_index"":2,""viewing_time"":1029.6499999999069}]","","","","","","",""
"","","","call-function","93","1744536","0.0-93.0","ctrcrfzz","","","","","","","",""
"null","","","html-keyboard-response","94","1746038","0.0-94.0","ctrcrfzz","","<span style=""color:Black; font-size:50px;"">Agent A","null","","","","",""
"null","","","video-keyboard-response","95","1749132","0.0-95.0","ctrcrfzz","","","null","","Agent A","veridical","STIM_SET_2_144/1592168.bmp_pp71_L1_V1.0_veridical_freeview_isoTrue_fps144.mp4",""
"null","","","html-keyboard-response","96","1750635","0.0-96.0","ctrcrfzz","","<span style=""color:Black; font-size:50px;"">Agent B","null","","","","",""
"null","","","video-keyboard-response","97","1753728","0.0-97.0","ctrcrfzz","","","null","","Agent B","scrambled","STIM_SET_5/1592168.bmp_pp71_L1_V1.0_veridical_freeview_isoTrue_Hflip_fps144.mp4",""
"","","","call-function","98","1753729","0.0-98.0","ctrcrfzz","","","","","","","",""
"3288.185000000056","{""judgement"":1}","[0]","survey-likert","99","1757018","0.0-99.0","ctrcrfzz","","","","","","","","0"
"2354.9499999999534","{""confidence"":0}","[0]","survey-likert","100","1759374","0.0-100.0","ctrcrfzz","","","","","","","",""
"","","","call-function","101","1759374","0.0-101.0","ctrcrfzz","","","","","","","",""
"null","","","html-keyboard-response","102","1760879","0.0-102.0","ctrcrfzz","","<span style=""color:Black; font-size:50px;"">Agent A","null","","","","",""
"null","","","video-keyboard-response","103","1763948","0.0-103.0","ctrcrfzz","","","null","","Agent A","veridical","STIM_SET_2_144/1592921.bmp_pp69_L3_V1.0_veridical_freeview_isoTrue_fps144.mp4",""
"null","","","html-keyboard-response","104","1765450","0.0-104.0","ctrcrfzz","","<span style=""color:Black; font-size:50px;"">Agent B","null","","","","",""
"null","","","video-keyboard-response","105","1768519","0.0-105.0","ctrcrfzz","","","null","","Agent B","scrambled","STIM_SET_5/1592921.bmp_pp69_L3_V1.0_veridical_freeview_isoTrue_Hflip_fps144.mp4",""
"","","","call-function","106","1768520","0.0-106.0","ctrcrfzz","","","","","","","",""
"3168.475000000093","{""judgement"":0}","[0]","survey-likert","107","1771689","0.0-107.0","ctrcrfzz","","","","","","","","0"
"1617.994999999879","{""confidence"":0}","[0]","survey-likert","108","1773308","0.0-108.0","ctrcrfzz","","","","","","","",""
"","","","call-function","109","1773308","0.0-109.0","ctrcrfzz","","","","","","","",""
"null","","","html-keyboard-response","110","1774811","0.0-110.0","ctrcrfzz","","<span style=""color:Black; font-size:50px;"">Agent A","null","","","","",""
"null","","","video-keyboard-response","111","1777873","0.0-111.0","ctrcrfzz","","","null","","Agent A","veridical","STIM_SET_2_144/713689.bmp_pp153_L3_V1.0_veridical_freeview_isoTrue_fps144.mp4",""
"null","","","html-keyboard-response","112","1779375","0.0-112.0","ctrcrfzz","","<span style=""color:Black; font-size:50px;"">Agent B","null","","","","",""
"null","","","video-keyboard-response","113","1782438","0.0-113.0","ctrcrfzz","","","null","","Agent B","scrambled","STIM_SET_5/713689.bmp_pp153_L3_V1.0_veridical_freeview_isoTrue_Hflip_fps144.mp4",""
"","","","call-function","114","1782439","0.0-114.0","ctrcrfzz","","","","","","","",""
"1886.785000000149","{""judgement"":1}","[0]","survey-likert","115","1784327","0.0-115.0","ctrcrfzz","","","","","","","","0"
"2665.8900000001304","{""confidence"":2}","[0]","survey-likert","116","1786995","0.0-116.0","ctrcrfzz","","","","","","","",""
"","","","call-function","117","1786996","0.0-117.0","ctrcrfzz","","","","","","","",""
"null","","","html-keyboard-response","118","1788498","0.0-118.0","ctrcrfzz","","<span style=""color:Black; font-size:50px;"">Agent A","null","","","","",""
"null","","","video-keyboard-response","119","1791567","0.0-119.0","ctrcrfzz","","","null","","Agent A","scrambled","STIM_SET_5/150277.bmp_pp65_L3_V1.0_veridical_freeview_isoTrue_Hflip_fps144.mp4",""
"null","","","html-keyboard-response","120","1793071","0.0-120.0","ctrcrfzz","","<span style=""color:Black; font-size:50px;"">Agent B","null","","","","",""
"null","","","video-keyboard-response","121","1796140","0.0-121.0","ctrcrfzz","","","null","","Agent B","veridical","STIM_SET_2_144/150277.bmp_pp65_L3_V1.0_veridical_freeview_isoTrue_fps144.mp4",""
"","","","call-function","122","1796141","0.0-122.0","ctrcrfzz","","","","","","","",""
"5155.755000000121","{""judgement"":1}","[0]","survey-likert","123","1801298","0.0-123.0","ctrcrfzz","","","","","","","","1"
"1583.9450000000652","{""confidence"":0}","[0]","survey-likert","124","1802883","0.0-124.0","ctrcrfzz","","","","","","","",""
"","","","call-function","125","1802883","0.0-125.0","ctrcrfzz","","","","","","","",""
"null","","","html-keyboard-response","126","1804389","0.0-126.0","ctrcrfzz","","<span style=""color:Black; font-size:50px;"">Agent A","null","","","","",""
"null","","","video-keyboard-response","127","1807460","0.0-127.0","ctrcrfzz","","","null","","Agent A","scrambled","STIM_SET_5/1592201.bmp_pp97_L3_V1.0_veridical_freeview_isoTrue_Hflip_fps144.mp4",""
"null","","","html-keyboard-response","128","1808962","0.0-128.0","ctrcrfzz","","<span style=""color:Black; font-size:50px;"">Agent B","null","","","","",""
"null","","","video-keyboard-response","129","1812033","0.0-129.0","ctrcrfzz","","","null","","Agent B","veridical","STIM_SET_2_144/1592201.bmp_pp97_L3_V1.0_veridical_freeview_isoTrue_fps144.mp4",""
"","","","call-function","130","1812033","0.0-130.0","ctrcrfzz","","","","","","","",""
"1906.9350000000559","{""judgement"":0}","[0]","survey-likert","131","1813942","0.0-131.0","ctrcrfzz","","","","","","","","1"
"1583.3100000000559","{""confidence"":1}","[0]","survey-likert","132","1815526","0.0-132.0","ctrcrfzz","","","","","","","",""
"","","","call-function","133","1815527","0.0-133.0","ctrcrfzz","","","","","","","",""
"null","","","html-keyboard-response","134","1817030","0.0-134.0","ctrcrfzz","","<span style=""color:Black; font-size:50px;"">Agent A","null","","","","",""
"null","","","video-keyboard-response","135","1820112","0.0-135.0","ctrcrfzz","","","null","","Agent A","veridical","STIM_SET_2_144/285715.bmp_pp67_L2_V1.0_veridical_freeview_isoTrue_fps144.mp4",""
"null","","","html-keyboard-response","136","1821614","0.0-136.0","ctrcrfzz","","<span style=""color:Black; font-size:50px;"">Agent B","null","","","","",""
"null","","","video-keyboard-response","137","1824690","0.0-137.0","ctrcrfzz","","","null","","Agent B","scrambled","STIM_SET_5/285715.bmp_pp67_L2_V1.0_veridical_freeview_isoTrue_Hflip_fps144.mp4",""
"","","","call-function","138","1824690","0.0-138.0","ctrcrfzz","","","","","","","",""
"2831.1650000000373","{""judgement"":1}","[0]","survey-likert","139","1827522","0.0-139.0","ctrcrfzz","","","","","","","","0"
"2006.6400000001304","{""confidence"":1}","[0]","survey-likert","140","1829530","0.0-140.0","ctrcrfzz","","","","","","","",""
"","","","call-function","141","1829530","0.0-141.0","ctrcrfzz","","","","","","","",""
"null","","","html-keyboard-response","142","1831032","0.0-142.0","ctrcrfzz","","<span style=""color:Black; font-size:50px;"">Agent A","null","","","","",""
"null","","","video-keyboard-response","143","1834113","0.0-143.0","ctrcrfzz","","","null","","Agent A","veridical","STIM_SET_2_144/1159392.bmp_pp96_L2_V1.0_veridical_freeview_isoTrue_fps144.mp4",""
"null","","","html-keyboard-response","144","1835617","0.0-144.0","ctrcrfzz","","<span style=""color:Black; font-size:50px;"">Agent B","null","","","","",""
"null","","","video-keyboard-response","145","1838698","0.0-145.0","ctrcrfzz","","","null","","Agent B","scrambled","STIM_SET_5/1159392.bmp_pp96_L2_V1.0_veridical_freeview_isoTrue_Hflip_fps144.mp4",""
"","","","call-function","146","1838698","0.0-146.0","ctrcrfzz","","","","","","","",""
"2772.3899999998976","{""judgement"":0}","[0]","survey-likert","147","1841472","0.0-147.0","ctrcrfzz","","","","","","","","0"
"1693.1500000001397","{""confidence"":2}","[0]","survey-likert","148","1843166","0.0-148.0","ctrcrfzz","","","","","","","",""
"","","","call-function","149","1843166","0.0-149.0","ctrcrfzz","","","","","","","",""
"null","","","html-keyboard-response","150","1844672","0.0-150.0","ctrcrfzz","","<span style=""color:Black; font-size:50px;"">Agent A","null","","","","",""
"null","","","video-keyboard-response","151","1847757","0.0-151.0","ctrcrfzz","","","null","","Agent A","veridical","STIM_SET_2_144/1592298.bmp_pp56_L3_V1.0_veridical_freeview_isoTrue_fps144.mp4",""
"null","","","html-keyboard-response","152","1849259","0.0-152.0","ctrcrfzz","","<span style=""color:Black; font-size:50px;"">Agent B","null","","","","",""
"null","","","video-keyboard-response","153","1852342","0.0-153.0","ctrcrfzz","","","null","","Agent B","scrambled","STIM_SET_5/1592298.bmp_pp56_L3_V1.0_veridical_freeview_isoTrue_Hflip_fps144.mp4",""
"","","","call-function","154","1852342","0.0-154.0","ctrcrfzz","","","","","","","",""
"2126.570000000065","{""judgement"":1}","[0]","survey-likert","155","1854470","0.0-155.0","ctrcrfzz","","","","","","","","0"
"3244.3599999998696","{""confidence"":2}","[0]","survey-likert","156","1857715","0.0-156.0","ctrcrfzz","","","","","","","",""
"","","","call-function","157","1857715","0.0-157.0","ctrcrfzz","","","","","","","",""
"null","","","html-keyboard-response","158","1859220","0.0-158.0","ctrcrfzz","","<span style=""color:Black; font-size:50px;"">Agent A","null","","","","",""
"null","","","video-keyboard-response","159","1862294","0.0-159.0","ctrcrfzz","","","null","","Agent A","scrambled","STIM_SET_5/1160204.bmp_pp54_L2_V1.0_veridical_freeview_isoTrue_Hflip_fps144.mp4",""
"null","","","html-keyboard-response","160","1863796","0.0-160.0","ctrcrfzz","","<span style=""color:Black; font-size:50px;"">Agent B","null","","","","",""
"null","","","video-keyboard-response","161","1866864","0.0-161.0","ctrcrfzz","","","null","","Agent B","veridical","STIM_SET_2_144/1160204.bmp_pp54_L2_V1.0_veridical_freeview_isoTrue_fps144.mp4",""
"","","","call-function","162","1866864","0.0-162.0","ctrcrfzz","","","","","","","",""
"2141.649999999907","{""judgement"":0}","[0]","survey-likert","163","1869007","0.0-163.0","ctrcrfzz","","","","","","","","1"
"1922.1000000000931","{""confidence"":0}","[0]","survey-likert","164","1870930","0.0-164.0","ctrcrfzz","","","","","","","",""
"","","","call-function","165","1870931","0.0-165.0","ctrcrfzz","","","","","","","",""
"null","","","html-keyboard-response","166","1872436","0.0-166.0","ctrcrfzz","","<span style=""color:Black; font-size:50px;"">Agent A","null","","","","",""
"null","","","video-keyboard-response","167","1875498","0.0-167.0","ctrcrfzz","","","null","","Agent A","veridical","STIM_SET_2_144/1592129.bmp_pp153_L3_V1.0_veridical_freeview_isoTrue_fps144.mp4",""
"null","","","html-keyboard-response","168","1877001","0.0-168.0","ctrcrfzz","","<span style=""color:Black; font-size:50px;"">Agent B","null","","","","",""
"null","","","video-keyboard-response","169","1880065","0.0-169.0","ctrcrfzz","","","null","","Agent B","scrambled","STIM_SET_5/1592129.bmp_pp153_L3_V1.0_veridical_freeview_isoTrue_Hflip_fps144.mp4",""
"","","","call-function","170","1880066","0.0-170.0","ctrcrfzz","","","","","","","",""
"3117.4950000001118","{""judgement"":1}","[0]","survey-likert","171","1883186","0.0-171.0","ctrcrfzz","","","","","","","","0"
"1405.3049999999348","{""confidence"":0}","[0]","survey-likert","172","1884592","0.0-172.0","ctrcrfzz","","","","","","","",""
"24513.12000000011","","","instructions","173","1909106","0.0-173.0","ctrcrfzz","[{""page_index"":0,""viewing_time"":6174.854999999981},{""page_index"":1,""viewing_time"":15175.044999999925},{""page_index"":2,""viewing_time"":3163.005000000121}]","","","","","","",""
"6495.584999999963","","","instructions","174","1915603","0.0-174.0","ctrcrfzz","[{""page_index"":0,""viewing_time"":2968.5749999999534},{""page_index"":1,""viewing_time"":2598.070000000065},{""page_index"":2,""viewing_time"":928.8300000000745}]","","","","","","",""
"","","","call-function","175","1915604","0.0-175.0","ctrcrfzz","","","","","","","",""
"null","","","html-keyboard-response","176","1917109","0.0-176.0","ctrcrfzz","","<span style=""color:Black; font-size:50px;"">Agent A","null","","","","",""
"null","","","video-keyboard-response","177","1920171","0.0-177.0","ctrcrfzz","","","null","","Agent A","veridical","STIM_SET_2_144/1160049.bmp_pp53_L2_V1.0_veridical_freeview_isoTrue_fps144.mp4",""
"null","","","html-keyboard-response","178","1921677","0.0-178.0","ctrcrfzz","","<span style=""color:Black; font-size:50px;"">Agent B","null","","","","",""
"null","","","video-keyboard-response","179","1924739","0.0-179.0","ctrcrfzz","","","null","","Agent B","scrambled","STIM_SET_5/1160049.bmp_pp53_L2_V1.0_veridical_freeview_isoTrue_Hflip_fps144.mp4",""
"","","","call-function","180","1924739","0.0-180.0","ctrcrfzz","","","","","","","",""
"2503.534999999916","{""judgement"":0}","[0]","survey-likert","181","1927244","0.0-181.0","ctrcrfzz","","","","","","","","0"
"2784.159999999916","{""confidence"":0}","[0]","survey-likert","182","1930030","0.0-182.0","ctrcrfzz","","","","","","","",""
"","","","call-function","183","1930030","0.0-183.0","ctrcrfzz","","","","","","","",""
"null","","","html-keyboard-response","184","1931532","0.0-184.0","ctrcrfzz","","<span style=""color:Black; font-size:50px;"">Agent A","null","","","","",""
"null","","","video-keyboard-response","185","1934596","0.0-185.0","ctrcrfzz","","","null","","Agent A","scrambled","STIM_SET_5/1592857.bmp_pp52_L1_V1_veridical_freeview_isoTrue_Hflip_fps144.mp4",""
"null","","","html-keyboard-response","186","1936100","0.0-186.0","ctrcrfzz","","<span style=""color:Black; font-size:50px;"">Agent B","null","","","","",""
"null","","","video-keyboard-response","187","1939162","0.0-187.0","ctrcrfzz","","","null","","Agent B","veridical","STIM_SET_2_144/1592857.bmp_pp52_L1_V1_veridical_freeview_isoTrue_fps144.mp4",""
"","","","call-function","188","1939162","0.0-188.0","ctrcrfzz","","","","","","","",""
"1641.8549999999814","{""judgement"":1}","[0]","survey-likert","189","1940805","0.0-189.0","ctrcrfzz","","","","","","","","1"
"2049.2399999999907","{""confidence"":2}","[0]","survey-likert","190","1942856","0.0-190.0","ctrcrfzz","","","","","","","",""
"","","","call-function","191","1942856","0.0-191.0","ctrcrfzz","","","","","","","",""
"null","","","html-keyboard-response","192","1944357","0.0-192.0","ctrcrfzz","","<span style=""color:Black; font-size:50px;"">Agent A","null","","","","",""
"null","","","video-keyboard-response","193","1947449","0.0-193.0","ctrcrfzz","","","null","","Agent A","scrambled","STIM_SET_5/1591781.bmp_pp63_L1_V1.0_veridical_freeview_isoTrue_Hflip_fps144.mp4",""
"null","","","html-keyboard-response","194","1948951","0.0-194.0","ctrcrfzz","","<span style=""color:Black; font-size:50px;"">Agent B","null","","","","",""
"null","","","video-keyboard-response","195","1952043","0.0-195.0","ctrcrfzz","","","null","","Agent B","veridical","STIM_SET_2_144/1591781.bmp_pp63_L1_V1.0_veridical_freeview_isoTrue_fps144.mp4",""
"","","","call-function","196","1952043","0.0-196.0","ctrcrfzz","","","","","","","",""
"6913.119999999879","{""judgement"":0}","[0]","survey-likert","197","1958957","0.0-197.0","ctrcrfzz","","","","","","","","1"
"1388.3000000000466","{""confidence"":1}","[0]","survey-likert","198","1960346","0.0-198.0","ctrcrfzz","","","","","","","",""
"","","","call-function","199","1960347","0.0-199.0","ctrcrfzz","","","","","","","",""
"null","","","html-keyboard-response","200","1961850","0.0-200.0","ctrcrfzz","","<span style=""color:Black; font-size:50px;"">Agent A","null","","","","",""
"null","","","video-keyboard-response","201","1964934","0.0-201.0","ctrcrfzz","","","null","","Agent A","scrambled","STIM_SET_5/150463.bmp_pp55_L3_V1.0_veridical_freeview_isoTrue_Hflip_fps144.mp4",""
"null","","","html-keyboard-response","202","1966435","0.0-202.0","ctrcrfzz","","<span style=""color:Black; font-size:50px;"">Agent B","null","","","","",""
"null","","","video-keyboard-response","203","1969519","0.0-203.0","ctrcrfzz","","","null","","Agent B","veridical","STIM_SET_2_144/150463.bmp_pp55_L3_V1.0_veridical_freeview_isoTrue_fps144.mp4",""
"","","","call-function","204","1969519","0.0-204.0","ctrcrfzz","","","","","","","",""
"6151.0800000000745","{""judgement"":0}","[0]","survey-likert","205","1975671","0.0-205.0","ctrcrfzz","","","","","","","","1"
"1309.6749999998137","{""confidence"":0}","[0]","survey-likert","206","1976982","0.0-206.0","ctrcrfzz","","","","","","","",""
"","","","call-function","207","1976983","0.0-207.0","ctrcrfzz","","","","","","","",""
"null","","","html-keyboard-response","208","1978488","0.0-208.0","ctrcrfzz","","<span style=""color:Black; font-size:50px;"">Agent A","null","","","","",""
"null","","","video-keyboard-response","209","1981570","0.0-209.0","ctrcrfzz","","","null","","Agent A","veridical","STIM_SET_2_144/1592305.bmp_pp65_L3_V1.0_veridical_freeview_isoTrue_fps144.mp4",""
"null","","","html-keyboard-response","210","1983075","0.0-210.0","ctrcrfzz","","<span style=""color:Black; font-size:50px;"">Agent B","null","","","","",""
"null","","","video-keyboard-response","211","1986146","0.0-211.0","ctrcrfzz","","","null","","Agent B","scrambled","STIM_SET_5/1592305.bmp_pp65_L3_V1.0_veridical_freeview_isoTrue_Hflip_fps144.mp4",""
"","","","call-function","212","1986146","0.0-212.0","ctrcrfzz","","","","","","","",""
"1781.9650000000838","{""judgement"":1}","[0]","survey-likert","213","1987929","0.0-213.0","ctrcrfzz","","","","","","","","0"
"1353.0249999999069","{""confidence"":2}","[0]","survey-likert","214","1989283","0.0-214.0","ctrcrfzz","","","","","","","",""
"","","","call-function","215","1989284","0.0-215.0","ctrcrfzz","","","","","","","",""
"null","","","html-keyboard-response","216","1990786","0.0-216.0","ctrcrfzz","","<span style=""color:Black; font-size:50px;"">Agent A","null","","","","",""
"null","","","video-keyboard-response","217","1993862","0.0-217.0","ctrcrfzz","","","null","","Agent A","veridical","STIM_SET_2_144/713633.bmp_pp58_L1_V1.0_veridical_freeview_isoTrue_fps144.mp4",""
"null","","","html-keyboard-response","218","1995364","0.0-218.0","ctrcrfzz","","<span style=""color:Black; font-size:50px;"">Agent B","null","","","","",""
"null","","","video-keyboard-response","219","1998442","0.0-219.0","ctrcrfzz","","","null","","Agent B","scrambled","STIM_SET_5/713633.bmp_pp58_L1_V1.0_veridical_freeview_isoTrue_Hflip_fps144.mp4",""
"","","","call-function","220","1998443","0.0-220.0","ctrcrfzz","","","","","","","",""
"1820.469999999972","{""judgement"":1}","[0]","survey-likert","221","2000264","0.0-221.0","ctrcrfzz","","","","","","","","0"
"1466.3600000001024","{""confidence"":2}","[0]","survey-likert","222","2001731","0.0-222.0","ctrcrfzz","","","","","","","",""
"","","","call-function","223","2001732","0.0-223.0","ctrcrfzz","","","","","","","",""
"null","","","html-keyboard-response","224","2003233","0.0-224.0","ctrcrfzz","","<span style=""color:Black; font-size:50px;"">Agent A","null","","","","",""
"null","","","video-keyboard-response","225","2006297","0.0-225.0","ctrcrfzz","","","null","","Agent A","scrambled","STIM_SET_5/1592951.bmp_pp80_L3_V1.0_veridical_freeview_isoTrue_Hflip_fps144.mp4",""
"null","","","html-keyboard-response","226","2007805","0.0-226.0","ctrcrfzz","","<span style=""color:Black; font-size:50px;"">Agent B","null","","","","",""
"null","","","video-keyboard-response","227","2010884","0.0-227.0","ctrcrfzz","","","null","","Agent B","veridical","STIM_SET_2_144/1592951.bmp_pp80_L3_V1.0_veridical_freeview_isoTrue_fps144.mp4",""
"","","","call-function","228","2010885","0.0-228.0","ctrcrfzz","","","","","","","",""
"3373.905000000028","{""judgement"":0}","[0]","survey-likert","229","2014260","0.0-229.0","ctrcrfzz","","","","","","","","1"
"3036.244999999879","{""confidence"":1}","[0]","survey-likert","230","2017299","0.0-230.0","ctrcrfzz","","","","","","","",""
"","","","call-function","231","2017300","0.0-231.0","ctrcrfzz","","","","","","","",""
"null","","","html-keyboard-response","232","2018803","0.0-232.0","ctrcrfzz","","<span style=""color:Black; font-size:50px;"">Agent A","null","","","","",""
"null","","","video-keyboard-response","233","2021872","0.0-233.0","ctrcrfzz","","","null","","Agent A","veridical","STIM_SET_2_144/61513.bmp_pp75_L1_V1.0_veridical_freeview_isoTrue_fps144.mp4",""
"null","","","html-keyboard-response","234","2023375","0.0-234.0","ctrcrfzz","","<span style=""color:Black; font-size:50px;"">Agent B","null","","","","",""
"null","","","video-keyboard-response","235","2026443","0.0-235.0","ctrcrfzz","","","null","","Agent B","scrambled","STIM_SET_5/61513.bmp_pp75_L1_V1.0_veridical_freeview_isoTrue_Hflip_fps144.mp4",""
"","","","call-function","236","2026444","0.0-236.0","ctrcrfzz","","","","","","","",""
"1599.1650000000373","{""judgement"":0}","[0]","survey-likert","237","2028044","0.0-237.0","ctrcrfzz","","","","","","","","0"
"2548.3349999999627","{""confidence"":0}","[0]","survey-likert","238","2030594","0.0-238.0","ctrcrfzz","","","","","","","",""
"","","","call-function","239","2030594","0.0-239.0","ctrcrfzz","","","","","","","",""
"null","","","html-keyboard-response","240","2032097","0.0-240.0","ctrcrfzz","","<span style=""color:Black; font-size:50px;"">Agent A","null","","","","",""
"null","","","video-keyboard-response","241","2035198","0.0-241.0","ctrcrfzz","","","null","","Agent A","scrambled","STIM_SET_5/1591920.bmp_pp97_L3_V1_veridical_freeview_isoTrue_Hflip_fps144.mp4",""
"null","","","html-keyboard-response","242","2036704","0.0-242.0","ctrcrfzz","","<span style=""color:Black; font-size:50px;"">Agent B","null","","","","",""
"null","","","video-keyboard-response","243","2039788","0.0-243.0","ctrcrfzz","","","null","","Agent B","veridical","STIM_SET_2_144/1591920.bmp_pp97_L3_V1_veridical_freeview_isoTrue_fps144.mp4",""
"","","","call-function","244","2039789","0.0-244.0","ctrcrfzz","","","","","","","",""
"2369.6949999998324","{""judgement"":1}","[0]","survey-likert","245","2042159","0.0-245.0","ctrcrfzz","","","","","","","","1"
"980.6500000001397","{""confidence"":1}","[0]","survey-likert","246","2043141","0.0-246.0","ctrcrfzz","","","","","","","",""
"","","","call-function","247","2043141","0.0-247.0","ctrcrfzz","","","","","","","",""
"null","","","html-keyboard-response","248","2044645","0.0-248.0","ctrcrfzz","","<span style=""color:Black; font-size:50px;"">Agent A","null","","","","",""
"null","","","video-keyboard-response","249","2047743","0.0-249.0","ctrcrfzz","","","null","","Agent A","veridical","STIM_SET_2_144/1160247.bmp_pp54_L2_V1.0_veridical_freeview_isoTrue_fps144.mp4",""
"null","","","html-keyboard-response","250","2049248","0.0-250.0","ctrcrfzz","","<span style=""color:Black; font-size:50px;"">Agent B","null","","","","",""
"null","","","video-keyboard-response","251","2052336","0.0-251.0","ctrcrfzz","","","null","","Agent B","scrambled","STIM_SET_5/1160247.bmp_pp54_L2_V1.0_veridical_freeview_isoTrue_Hflip_fps144.mp4",""
"","","","call-function","252","2052337","0.0-252.0","ctrcrfzz","","","","","","","",""
"1528.6400000001304","{""judgement"":1}","[0]","survey-likert","253","2053866","0.0-253.0","ctrcrfzz","","","","","","","","0"
"1618.5150000001304","{""confidence"":2}","[0]","survey-likert","254","2055486","0.0-254.0","ctrcrfzz","","","","","","","",""
"19315.294999999925","","","instructions","255","2074802","0.0-255.0","ctrcrfzz","[{""page_index"":0,""viewing_time"":1644.1149999999907},{""page_index"":1,""viewing_time"":16082},{""page_index"":2,""viewing_time"":1588.9750000000931}]","","","","","","",""
"2965.0200000000186","","","instructions","256","2077768","0.0-256.0","ctrcrfzz","[{""page_index"":0,""viewing_time"":827.5749999999534},{""page_index"":1,""viewing_time"":1286.994999999879},{""page_index"":2,""viewing_time"":850.2950000001583}]","","","","","","",""
"","","","call-function","257","2077768","0.0-257.0","ctrcrfzz","","","","","","","",""
"null","","","html-keyboard-response","258","2079269","0.0-258.0","ctrcrfzz","","<span style=""color:Black; font-size:50px;"">Agent A","null","","","","",""
"null","","","video-keyboard-response","259","2082345","0.0-259.0","ctrcrfzz","","","null","","Agent A","veridical","STIM_SET_2_144/107909.bmp_pp95_L2_V1.0_veridical_freeview_isoTrue_fps144.mp4",""
"null","","","html-keyboard-response","260","2083848","0.0-260.0","ctrcrfzz","","<span style=""color:Black; font-size:50px;"">Agent B","null","","","","",""
"null","","","video-keyboard-response","261","2086933","0.0-261.0","ctrcrfzz","","","null","","Agent B","scrambled","STIM_SET_5/107909.bmp_pp95_L2_V1.0_veridical_freeview_isoTrue_Hflip_fps144.mp4",""
"","","","call-function","262","2086933","0.0-262.0","ctrcrfzz","","","","","","","",""
"2813.8300000000745","{""judgement"":0}","[0]","survey-likert","263","2089748","0.0-263.0","ctrcrfzz","","","","","","","","0"
"1290.5400000000373","{""confidence"":1}","[0]","survey-likert","264","2091040","0.0-264.0","ctrcrfzz","","","","","","","",""
"","","","call-function","265","2091041","0.0-265.0","ctrcrfzz","","","","","","","",""
"null","","","html-keyboard-response","266","2092543","0.0-266.0","ctrcrfzz","","<span style=""color:Black; font-size:50px;"">Agent A","null","","","","",""
"null","","","video-keyboard-response","267","2095612","0.0-267.0","ctrcrfzz","","","null","","Agent A","veridical","STIM_SET_2_144/1592530.bmp_pp75_L1_V1.0_veridical_freeview_isoTrue_fps144.mp4",""
"null","","","html-keyboard-response","268","2097114","0.0-268.0","ctrcrfzz","","<span style=""color:Black; font-size:50px;"">Agent B","null","","","","",""
"null","","","video-keyboard-response","269","2100182","0.0-269.0","ctrcrfzz","","","null","","Agent B","scrambled","STIM_SET_5/1592530.bmp_pp75_L1_V1.0_veridical_freeview_isoTrue_Hflip_fps144.mp4",""
"","","","call-function","270","2100182","0.0-270.0","ctrcrfzz","","","","","","","",""
"2995.524999999907","{""judgement"":0}","[0]","survey-likert","271","2103179","0.0-271.0","ctrcrfzz","","","","","","","","0"
"3049.5499999998137","{""confidence"":1}","[0]","survey-likert","272","2106230","0.0-272.0","ctrcrfzz","","","","","","","",""
"","","","call-function","273","2106230","0.0-273.0","ctrcrfzz","","","","","","","",""
"null","","","html-keyboard-response","274","2107736","0.0-274.0","ctrcrfzz","","<span style=""color:Black; font-size:50px;"">Agent A","null","","","","",""
"null","","","video-keyboard-response","275","2110824","0.0-275.0","ctrcrfzz","","","null","","Agent A","veridical","STIM_SET_2_144/1159508.bmp_pp151_L1_V1.0_veridical_freeview_isoTrue_fps144.mp4",""
"null","","","html-keyboard-response","276","2112329","0.0-276.0","ctrcrfzz","","<span style=""color:Black; font-size:50px;"">Agent B","null","","","","",""
"null","","","video-keyboard-response","277","2115397","0.0-277.0","ctrcrfzz","","","null","","Agent B","scrambled","STIM_SET_5/1159508.bmp_pp151_L1_V1.0_veridical_freeview_isoTrue_Hflip_fps144.mp4",""
"","","","call-function","278","2115398","0.0-278.0","ctrcrfzz","","","","","","","",""
"1573.5500000002794","{""judgement"":0}","[0]","survey-likert","279","2116974","0.0-279.0","ctrcrfzz","","","","","","","","0"
"3875.4449999998324","{""confidence"":2}","[0]","survey-likert","280","2120851","0.0-280.0","ctrcrfzz","","","","","","","",""
"","","","call-function","281","2120851","0.0-281.0","ctrcrfzz","","","","","","","",""
"null","","","html-keyboard-response","282","2122356","0.0-282.0","ctrcrfzz","","<span style=""color:Black; font-size:50px;"">Agent A","null","","","","",""
"null","","","video-keyboard-response","283","2125431","0.0-283.0","ctrcrfzz","","","null","","Agent A","veridical","STIM_SET_2_144/713742.bmp_pp91_L3_V1.0_veridical_freeview_isoTrue_fps144.mp4",""
"null","","","html-keyboard-response","284","2126935","0.0-284.0","ctrcrfzz","","<span style=""color:Black; font-size:50px;"">Agent B","null","","","","",""
"null","","","video-keyboard-response","285","2130011","0.0-285.0","ctrcrfzz","","","null","","Agent B","scrambled","STIM_SET_5/713742.bmp_pp91_L3_V1.0_veridical_freeview_isoTrue_Hflip_fps144.mp4",""
"","","","call-function","286","2130012","0.0-286.0","ctrcrfzz","","","","","","","",""
"1964.5500000002794","{""judgement"":1}","[0]","survey-likert","287","2131977","0.0-287.0","ctrcrfzz","","","","","","","","0"
"1035.869999999646","{""confidence"":1}","[0]","survey-likert","288","2133015","0.0-288.0","ctrcrfzz","","","","","","","",""
"","","","call-function","289","2133016","0.0-289.0","ctrcrfzz","","","","","","","",""
"null","","","html-keyboard-response","290","2134518","0.0-290.0","ctrcrfzz","","<span style=""color:Black; font-size:50px;"">Agent A","null","","","","",""
"null","","","video-keyboard-response","291","2137596","0.0-291.0","ctrcrfzz","","","null","","Agent A","scrambled","STIM_SET_5/1159592.bmp_pp91_L3_V1.0_veridical_freeview_isoTrue_Hflip_fps144.mp4",""
"null","","","html-keyboard-response","292","2139097","0.0-292.0","ctrcrfzz","","<span style=""color:Black; font-size:50px;"">Agent B","null","","","","",""
"null","","","video-keyboard-response","293","2142191","0.0-293.0","ctrcrfzz","","","null","","Agent B","veridical","STIM_SET_2_144/1159592.bmp_pp91_L3_V1.0_veridical_freeview_isoTrue_fps144.mp4",""
"","","","call-function","294","2142191","0.0-294.0","ctrcrfzz","","","","","","","",""
"2797.810000000056","{""judgement"":0}","[0]","survey-likert","295","2144990","0.0-295.0","ctrcrfzz","","","","","","","","1"
"2553.8549999999814","{""confidence"":0}","[0]","survey-likert","296","2147545","0.0-296.0","ctrcrfzz","","","","","","","",""
"","","","call-function","297","2147546","0.0-297.0","ctrcrfzz","","","","","","","",""
"null","","","html-keyboard-response","298","2149049","0.0-298.0","ctrcrfzz","","<span style=""color:Black; font-size:50px;"">Agent A","null","","","","",""
"null","","","video-keyboard-response","299","2152128","0.0-299.0","ctrcrfzz","","","null","","Agent A","veridical","STIM_SET_2_144/1159427.bmp_pp98_L1_V1.0_veridical_freeview_isoTrue_fps144.mp4",""
"null","","","html-keyboard-response","300","2153632","0.0-300.0","ctrcrfzz","","<span style=""color:Black; font-size:50px;"">Agent B","null","","","","",""
"null","","","video-keyboard-response","301","2156709","0.0-301.0","ctrcrfzz","","","null","","Agent B","scrambled","STIM_SET_5/1159427.bmp_pp98_L1_V1.0_veridical_freeview_isoTrue_Hflip_fps144.mp4",""
"","","","call-function","302","2156710","0.0-302.0","ctrcrfzz","","","","","","","",""
"2137.7900000000373","{""judgement"":1}","[0]","survey-likert","303","2158848","0.0-303.0","ctrcrfzz","","","","","","","","0"
"1702.4550000000745","{""confidence"":0}","[0]","survey-likert","304","2160552","0.0-304.0","ctrcrfzz","","","","","","","",""
"","","","call-function","305","2160552","0.0-305.0","ctrcrfzz","","","","","","","",""
"null","","","html-keyboard-response","306","2162055","0.0-306.0","ctrcrfzz","","<span style=""color:Black; font-size:50px;"">Agent A","null","","","","",""
"null","","","video-keyboard-response","307","2165140","0.0-307.0","ctrcrfzz","","","null","","Agent A","veridical","STIM_SET_2_144/1159329.bmp_pp61_L2_V1.0_veridical_freeview_isoTrue_fps144.mp4",""
"null","","","html-keyboard-response","308","2166645","0.0-308.0","ctrcrfzz","","<span style=""color:Black; font-size:50px;"">Agent B","null","","","","",""
"null","","","video-keyboard-response","309","2169730","0.0-309.0","ctrcrfzz","","","null","","Agent B","scrambled","STIM_SET_5/1159329.bmp_pp61_L2_V1.0_veridical_freeview_isoTrue_Hflip_fps144.mp4",""
"","","","call-function","310","2169731","0.0-310.0","ctrcrfzz","","","","","","","",""
"3392.875","{""judgement"":0}","[0]","survey-likert","311","2173125","0.0-311.0","ctrcrfzz","","","","","","","","0"
"2038.2299999999814","{""confidence"":0}","[0]","survey-likert","312","2175164","0.0-312.0","ctrcrfzz","","","","","","","",""
"","","","call-function","313","2175164","0.0-313.0","ctrcrfzz","","","","","","","",""
"null","","","html-keyboard-response","314","2176668","0.0-314.0","ctrcrfzz","","<span style=""color:Black; font-size:50px;"">Agent A","null","","","","",""
"null","","","video-keyboard-response","315","2179731","0.0-315.0","ctrcrfzz","","","null","","Agent A","veridical","STIM_SET_2_144/107955.bmp_pp90_L2_V1.0_veridical_freeview_isoTrue_fps144.mp4",""
"null","","","html-keyboard-response","316","2181234","0.0-316.0","ctrcrfzz","","<span style=""color:Black; font-size:50px;"">Agent B","null","","","","",""
"null","","","video-keyboard-response","317","2184308","0.0-317.0","ctrcrfzz","","","null","","Agent B","scrambled","STIM_SET_5/107955.bmp_pp90_L2_V1.0_veridical_freeview_isoTrue_Hflip_fps144.mp4",""
"","","","call-function","318","2184309","0.0-318.0","ctrcrfzz","","","","","","","",""
"1832.7399999997579","{""judgement"":1}","[0]","survey-likert","319","2186142","0.0-319.0","ctrcrfzz","","","","","","","","0"
"1776.1499999999069","{""confidence"":1}","[0]","survey-likert","320","2187920","0.0-320.0","ctrcrfzz","","","","","","","",""
"","","","call-function","321","2187920","0.0-321.0","ctrcrfzz","","","","","","","",""
"null","","","html-keyboard-response","322","2189422","0.0-322.0","ctrcrfzz","","<span style=""color:Black; font-size:50px;"">Agent A","null","","","","",""
"null","","","video-keyboard-response","323","2192491","0.0-323.0","ctrcrfzz","","","null","","Agent A","veridical","STIM_SET_2_144/1592289.bmp_pp92_L3_V1.0_veridical_freeview_isoTrue_fps144.mp4",""
"null","","","html-keyboard-response","324","2193992","0.0-324.0","ctrcrfzz","","<span style=""color:Black; font-size:50px;"">Agent B","null","","","","",""
"null","","","video-keyboard-response","325","2197059","0.0-325.0","ctrcrfzz","","","null","","Agent B","scrambled","STIM_SET_5/1592289.bmp_pp92_L3_V1.0_veridical_freeview_isoTrue_Hflip_fps144.mp4",""
"","","","call-function","326","2197059","0.0-326.0","ctrcrfzz","","","","","","","",""
"3322.2099999999627","{""judgement"":0}","[0]","survey-likert","327","2200383","0.0-327.0","ctrcrfzz","","","","","","","","0"
"1650.8100000000559","{""confidence"":0}","[0]","survey-likert","328","2202036","0.0-328.0","ctrcrfzz","","","","","","","",""
"","","","call-function","329","2202037","0.0-329.0","ctrcrfzz","","","","","","","",""
"null","","","html-keyboard-response","330","2203539","0.0-330.0","ctrcrfzz","","<span style=""color:Black; font-size:50px;"">Agent A","null","","","","",""
"null","","","video-keyboard-response","331","2206609","0.0-331.0","ctrcrfzz","","","null","","Agent A","scrambled","STIM_SET_5/1159956.bmp_pp59_L3_V1.0_veridical_freeview_isoTrue_Hflip_fps144.mp4",""
"null","","","html-keyboard-response","332","2208114","0.0-332.0","ctrcrfzz","","<span style=""color:Black; font-size:50px;"">Agent B","null","","","","",""
"null","","","video-keyboard-response","333","2211184","0.0-333.0","ctrcrfzz","","","null","","Agent B","veridical","STIM_SET_2_144/1159956.bmp_pp59_L3_V1.0_veridical_freeview_isoTrue_fps144.mp4",""
"","","","call-function","334","2211185","0.0-334.0","ctrcrfzz","","","","","","","",""
"2363.7349999998696","{""judgement"":1}","[0]","survey-likert","335","2213550","0.0-335.0","ctrcrfzz","","","","","","","","1"
"1576.1450000000186","{""confidence"":2}","[0]","survey-likert","336","2215127","0.0-336.0","ctrcrfzz","","","","","","","",""
"21497.64000000013","","","instructions","337","2236626","0.0-337.0","ctrcrfzz","[{""page_index"":0,""viewing_time"":1713.5550000001676},{""page_index"":1,""viewing_time"":18680.044999999925},{""page_index"":2,""viewing_time"":1103.8849999997765}]","","","","","","",""
"5050.584999999963","","","instructions","338","2241677","0.0-338.0","ctrcrfzz","[{""page_index"":0,""viewing_time"":804.4399999999441},{""page_index"":1,""viewing_time"":3324.9650000003166},{""page_index"":2,""viewing_time"":921.0649999999441}]","","","","","","",""
"","","","call-function","339","2241677","0.0-339.0","ctrcrfzz","","","","","","","",""
"null","","","html-keyboard-response","340","2243179","0.0-340.0","ctrcrfzz","","<span style=""color:Black; font-size:50px;"">Agent A","null","","","","",""
"null","","","video-keyboard-response","341","2246248","0.0-341.0","ctrcrfzz","","","null","","Agent A","scrambled","STIM_SET_5/498258.bmp_pp51_L1_V1.0_veridical_freeview_isoTrue_Hflip_fps144.mp4",""
"null","","","html-keyboard-response","342","2247752","0.0-342.0","ctrcrfzz","","<span style=""color:Black; font-size:50px;"">Agent B","null","","","","",""
"null","","","video-keyboard-response","343","2250819","0.0-343.0","ctrcrfzz","","","null","","Agent B","veridical","STIM_SET_2_144/498258.bmp_pp51_L1_V1.0_veridical_freeview_isoTrue_fps144.mp4",""
"","","","call-function","344","2250819","0.0-344.0","ctrcrfzz","","","","","","","",""
"2114.94000000041","{""judgement"":1}","[0]","survey-likert","345","2252935","0.0-345.0","ctrcrfzz","","","","","","","","1"
"3532.720000000205","{""confidence"":2}","[0]","survey-likert","346","2256469","0.0-346.0","ctrcrfzz","","","","","","","",""
"","","","call-function","347","2256470","0.0-347.0","ctrcrfzz","","","","","","","",""
"null","","","html-keyboard-response","348","2257973","0.0-348.0","ctrcrfzz","","<span style=""color:Black; font-size:50px;"">Agent A","null","","","","",""
"null","","","video-keyboard-response","349","2261052","0.0-349.0","ctrcrfzz","","","null","","Agent A","veridical","STIM_SET_2_144/1159860.bmp_pp152_L2_V1.0_veridical_freeview_isoTrue_fps144.mp4",""
"null","","","html-keyboard-response","350","2262554","0.0-350.0","ctrcrfzz","","<span style=""color:Black; font-size:50px;"">Agent B","null","","","","",""
"null","","","video-keyboard-response","351","2265633","0.0-351.0","ctrcrfzz","","","null","","Agent B","scrambled","STIM_SET_5/1159860.bmp_pp152_L2_V1.0_veridical_freeview_isoTrue_Hflip_fps144.mp4",""
"","","","call-function","352","2265633","0.0-352.0","ctrcrfzz","","","","","","","",""
"1749.2849999996834","{""judgement"":1}","[0]","survey-likert","353","2267384","0.0-353.0","ctrcrfzz","","","","","","","","0"
"1342.4599999999627","{""confidence"":0}","[0]","survey-likert","354","2268727","0.0-354.0","ctrcrfzz","","","","","","","",""
"","","","call-function","355","2268728","0.0-355.0","ctrcrfzz","","","","","","","",""
"null","","","html-keyboard-response","356","2270229","0.0-356.0","ctrcrfzz","","<span style=""color:Black; font-size:50px;"">Agent A","null","","","","",""
"null","","","video-keyboard-response","357","2273292","0.0-357.0","ctrcrfzz","","","null","","Agent A","scrambled","STIM_SET_5/498398.bmp_pp81_L1_V1.0_veridical_freeview_isoTrue_Hflip_fps144.mp4",""
"null","","","html-keyboard-response","358","2274796","0.0-358.0","ctrcrfzz","","<span style=""color:Black; font-size:50px;"">Agent B","null","","","","",""
"null","","","video-keyboard-response","359","2277861","0.0-359.0","ctrcrfzz","","","null","","Agent B","veridical","STIM_SET_2_144/498398.bmp_pp81_L1_V1.0_veridical_freeview_isoTrue_fps144.mp4",""
"","","","call-function","360","2277862","0.0-360.0","ctrcrfzz","","","","","","","",""
"3398.649999999907","{""judgement"":1}","[0]","survey-likert","361","2281261","0.0-361.0","ctrcrfzz","","","","","","","","1"
"1619.3349999999627","{""confidence"":1}","[0]","survey-likert","362","2282882","0.0-362.0","ctrcrfzz","","","","","","","",""
"","","","call-function","363","2282882","0.0-363.0","ctrcrfzz","","","","","","","",""
"null","","","html-keyboard-response","364","2284387","0.0-364.0","ctrcrfzz","","<span style=""color:Black; font-size:50px;"">Agent A","null","","","","",""
"null","","","video-keyboard-response","365","2287472","0.0-365.0","ctrcrfzz","","","null","","Agent A","veridical","STIM_SET_2_144/1160189.bmp_pp64_L1_V1.0_veridical_freeview_isoTrue_fps144.mp4",""
"null","","","html-keyboard-response","366","2288977","0.0-366.0","ctrcrfzz","","<span style=""color:Black; font-size:50px;"">Agent B","null","","","","",""
"null","","","video-keyboard-response","367","2292059","0.0-367.0","ctrcrfzz","","","null","","Agent B","scrambled","STIM_SET_5/1160189.bmp_pp64_L1_V1.0_veridical_freeview_isoTrue_Hflip_fps144.mp4",""
"","","","call-function","368","2292060","0.0-368.0","ctrcrfzz","","","","","","","",""
"2367.1099999998696","{""judgement"":1}","[0]","survey-likert","369","2294428","0.0-369.0","ctrcrfzz","","","","","","","","0"
"1285.1999999997206","{""confidence"":1}","[0]","survey-likert","370","2295714","0.0-370.0","ctrcrfzz","","","","","","","",""
"","","","call-function","371","2295715","0.0-371.0","ctrcrfzz","","","","","","","",""
"null","","","html-keyboard-response","372","2297218","0.0-372.0","ctrcrfzz","","<span style=""color:Black; font-size:50px;"">Agent A","null","","","","",""
"null","","","video-keyboard-response","373","2300311","0.0-373.0","ctrcrfzz","","","null","","Agent A","veridical","STIM_SET_2_144/713381.bmp_pp82_L2_V1.0_veridical_freeview_isoTrue_fps144.mp4",""
"null","","","html-keyboard-response","374","2301816","0.0-374.0","ctrcrfzz","","<span style=""color:Black; font-size:50px;"">Agent B","null","","","","",""
"null","","","video-keyboard-response","375","2304912","0.0-375.0","ctrcrfzz","","","null","","Agent B","scrambled","STIM_SET_5/713381.bmp_pp82_L2_V1.0_veridical_freeview_isoTrue_Hflip_fps144.mp4",""
"","","","call-function","376","2304914","0.0-376.0","ctrcrfzz","","","","","","","",""
"5179.930000000168","{""judgement"":1}","[0]","survey-likert","377","2310096","0.0-377.0","ctrcrfzz","","","","","","","","0"
"1683.5750000001863","{""confidence"":0}","[0]","survey-likert","378","2311782","0.0-378.0","ctrcrfzz","","","","","","","",""
"","","","call-function","379","2311783","0.0-379.0","ctrcrfzz","","","","","","","",""
"null","","","html-keyboard-response","380","2313284","0.0-380.0","ctrcrfzz","","<span style=""color:Black; font-size:50px;"">Agent A","null","","","","",""
"null","","","video-keyboard-response","381","2316352","0.0-381.0","ctrcrfzz","","","null","","Agent A","scrambled","STIM_SET_5/1159819.bmp_pp151_L1_V1.0_veridical_freeview_isoTrue_Hflip_fps144.mp4",""
"null","","","html-keyboard-response","382","2317854","0.0-382.0","ctrcrfzz","","<span style=""color:Black; font-size:50px;"">Agent B","null","","","","",""
"null","","","video-keyboard-response","383","2320924","0.0-383.0","ctrcrfzz","","","null","","Agent B","veridical","STIM_SET_2_144/1159819.bmp_pp151_L1_V1.0_veridical_freeview_isoTrue_fps144.mp4",""
"","","","call-function","384","2320925","0.0-384.0","ctrcrfzz","","","","","","","",""
"3219.560000000056","{""judgement"":1}","[0]","survey-likert","385","2324146","0.0-385.0","ctrcrfzz","","","","","","","","1"
"1747.6949999998324","{""confidence"":0}","[0]","survey-likert","386","2325894","0.0-386.0","ctrcrfzz","","","","","","","",""
"","","","call-function","387","2325895","0.0-387.0","ctrcrfzz","","","","","","","",""
"null","","","html-keyboard-response","388","2327401","0.0-388.0","ctrcrfzz","","<span style=""color:Black; font-size:50px;"">Agent A","null","","","","",""
"null","","","video-keyboard-response","389","2330471","0.0-389.0","ctrcrfzz","","","null","","Agent A","veridical","STIM_SET_2_144/1592747.bmp_pp53_L2_V1.0_veridical_freeview_isoTrue_fps144.mp4",""
"null","","","html-keyboard-response","390","2331975","0.0-390.0","ctrcrfzz","","<span style=""color:Black; font-size:50px;"">Agent B","null","","","","",""
"null","","","video-keyboard-response","391","2335043","0.0-391.0","ctrcrfzz","","","null","","Agent B","scrambled","STIM_SET_5/1592747.bmp_pp53_L2_V1.0_veridical_freeview_isoTrue_Hflip_fps144.mp4",""
"","","","call-function","392","2335043","0.0-392.0","ctrcrfzz","","","","","","","",""
"2037.4099999996834","{""judgement"":1}","[0]","survey-likert","393","2337081","0.0-393.0","ctrcrfzz","","","","","","","","0"
"1240.9050000002608","{""confidence"":2}","[0]","survey-likert","394","2338323","0.0-394.0","ctrcrfzz","","","","","","","",""
"","","","call-function","395","2338324","0.0-395.0","ctrcrfzz","","","","","","","",""
"null","","","html-keyboard-response","396","2339829","0.0-396.0","ctrcrfzz","","<span style=""color:Black; font-size:50px;"">Agent A","null","","","","",""
"null","","","video-keyboard-response","397","2342905","0.0-397.0","ctrcrfzz","","","null","","Agent A","veridical","STIM_SET_2_144/1591975.bmp_pp88_L2_V1.0_veridical_freeview_isoTrue_fps144.mp4",""
"null","","","html-keyboard-response","398","2344411","0.0-398.0","ctrcrfzz","","<span style=""color:Black; font-size:50px;"">Agent B","null","","","","",""
"null","","","video-keyboard-response","399","2347491","0.0-399.0","ctrcrfzz","","","null","","Agent B","scrambled","STIM_SET_5/1591975.bmp_pp88_L2_V1.0_veridical_freeview_isoTrue_Hflip_fps144.mp4",""
"","","","call-function","400","2347492","0.0-400.0","ctrcrfzz","","","","","","","",""
"2049.5550000001676","{""judgement"":1}","[0]","survey-likert","401","2349542","0.0-401.0","ctrcrfzz","","","","","","","","0"
"1628.0399999995716","{""confidence"":1}","[0]","survey-likert","402","2351171","0.0-402.0","ctrcrfzz","","","","","","","",""
"","","","call-function","403","2351172","0.0-403.0","ctrcrfzz","","","","","","","",""
"null","","","html-keyboard-response","404","2352674","0.0-404.0","ctrcrfzz","","<span style=""color:Black; font-size:50px;"">Agent A","null","","","","",""
"null","","","video-keyboard-response","405","2355746","0.0-405.0","ctrcrfzz","","","null","","Agent A","veridical","STIM_SET_2_144/285684.bmp_pp80_L3_V1.0_veridical_freeview_isoTrue_fps144.mp4",""
"null","","","html-keyboard-response","406","2357250","0.0-406.0","ctrcrfzz","","<span style=""color:Black; font-size:50px;"">Agent B","null","","","","",""
"null","","","video-keyboard-response","407","2360328","0.0-407.0","ctrcrfzz","","","null","","Agent B","scrambled","STIM_SET_5/285684.bmp_pp80_L3_V1.0_veridical_freeview_isoTrue_Hflip_fps144.mp4",""
"","","","call-function","408","2360329","0.0-408.0","ctrcrfzz","","","","","","","",""
"5105.584999999963","{""judgement"":0}","[0]","survey-likert","409","2365436","0.0-409.0","ctrcrfzz","","","","","","","","0"
"3155.5550000001676","{""confidence"":2}","[0]","survey-likert","410","2368593","0.0-410.0","ctrcrfzz","","","","","","","",""
"","","","call-function","411","2368593","0.0-411.0","ctrcrfzz","","","","","","","",""
"null","","","html-keyboard-response","412","2370094","0.0-412.0","ctrcrfzz","","<span style=""color:Black; font-size:50px;"">Agent A","null","","","","",""
"null","","","video-keyboard-response","413","2373184","0.0-413.0","ctrcrfzz","","","null","","Agent A","veridical","STIM_SET_2_144/713770.bmp_pp89_L1_V1.0_veridical_freeview_isoTrue_fps144.mp4",""
"null","","","html-keyboard-response","414","2374687","0.0-414.0","ctrcrfzz","","<span style=""color:Black; font-size:50px;"">Agent B","null","","","","",""
"null","","","video-keyboard-response","415","2377781","0.0-415.0","ctrcrfzz","","","null","","Agent B","scrambled","STIM_SET_5/713770.bmp_pp89_L1_V1.0_veridical_freeview_isoTrue_Hflip_fps144.mp4",""
"","","","call-function","416","2377782","0.0-416.0","ctrcrfzz","","","","","","","",""
"1584.2999999998137","{""judgement"":1}","[0]","survey-likert","417","2379367","0.0-417.0","ctrcrfzz","","","","","","","","0"
"1547.5200000000186","{""confidence"":1}","[0]","survey-likert","418","2380916","0.0-418.0","ctrcrfzz","","","","","","","",""
"22264.260000000242","","","instructions","419","2403180","0.0-419.0","ctrcrfzz","[{""page_index"":0,""viewing_time"":1265.1400000001304},{""page_index"":1,""viewing_time"":18959.180000000168},{""page_index"":2,""viewing_time"":2039.6949999998324}]","","","","","","",""
"4179.25","","","instructions","420","2407360","0.0-420.0","ctrcrfzz","[{""page_index"":0,""viewing_time"":1766.1049999999814},{""page_index"":1,""viewing_time"":1593.070000000298},{""page_index"":2,""viewing_time"":819.964999999851}]","","","","","","",""
"","","","call-function","421","2407361","0.0-421.0","ctrcrfzz","","","","","","","",""
"null","","","html-keyboard-response","422","2408867","0.0-422.0","ctrcrfzz","","<span style=""color:Black; font-size:50px;"">Agent A","null","","","","",""
"null","","","video-keyboard-response","423","2411938","0.0-423.0","ctrcrfzz","","","null","","Agent A","scrambled","STIM_SET_5/498261.bmp_pp84_L3_V1.0_veridical_freeview_isoTrue_Hflip_fps144.mp4",""
"null","","","html-keyboard-response","424","2413444","0.0-424.0","ctrcrfzz","","<span style=""color:Black; font-size:50px;"">Agent B","null","","","","",""
"null","","","video-keyboard-response","425","2416516","0.0-425.0","ctrcrfzz","","","null","","Agent B","veridical","STIM_SET_2_144/498261.bmp_pp84_L3_V1.0_veridical_freeview_isoTrue_fps144.mp4",""
"","","","call-function","426","2416517","0.0-426.0","ctrcrfzz","","","","","","","",""
"2887.68499999959","{""judgement"":1}","[0]","survey-likert","427","2419405","0.0-427.0","ctrcrfzz","","","","","","","","1"
"2208.185000000056","{""confidence"":0}","[0]","survey-likert","428","2421615","0.0-428.0","ctrcrfzz","","","","","","","",""
"","","","call-function","429","2421615","0.0-429.0","ctrcrfzz","","","","","","","",""
"null","","","html-keyboard-response","430","2423117","0.0-430.0","ctrcrfzz","","<span style=""color:Black; font-size:50px;"">Agent A","null","","","","",""
"null","","","video-keyboard-response","431","2426193","0.0-431.0","ctrcrfzz","","","null","","Agent A","scrambled","STIM_SET_5/713652.bmp_pp89_L1_V1_veridical_freeview_isoTrue_Hflip_fps144.mp4",""
"null","","","html-keyboard-response","432","2427698","0.0-432.0","ctrcrfzz","","<span style=""color:Black; font-size:50px;"">Agent B","null","","","","",""
"null","","","video-keyboard-response","433","2430771","0.0-433.0","ctrcrfzz","","","null","","Agent B","veridical","STIM_SET_2_144/713652.bmp_pp89_L1_V1_veridical_freeview_isoTrue_fps144.mp4",""
"","","","call-function","434","2430772","0.0-434.0","ctrcrfzz","","","","","","","",""
"5095.4900000002235","{""judgement"":0}","[0]","survey-likert","435","2435869","0.0-435.0","ctrcrfzz","","","","","","","","1"
"1695.6349999997765","{""confidence"":0}","[0]","survey-likert","436","2437566","0.0-436.0","ctrcrfzz","","","","","","","",""
"","","","call-function","437","2437567","0.0-437.0","ctrcrfzz","","","","","","","",""
"null","","","html-keyboard-response","438","2439069","0.0-438.0","ctrcrfzz","","<span style=""color:Black; font-size:50px;"">Agent A","null","","","","",""
"null","","","video-keyboard-response","439","2442133","0.0-439.0","ctrcrfzz","","","null","","Agent A","scrambled","STIM_SET_5/498326.bmp_pp57_L1_V1.0_veridical_freeview_isoTrue_Hflip_fps144.mp4",""
"null","","","html-keyboard-response","440","2443635","0.0-440.0","ctrcrfzz","","<span style=""color:Black; font-size:50px;"">Agent B","null","","","","",""
"null","","","video-keyboard-response","441","2446700","0.0-441.0","ctrcrfzz","","","null","","Agent B","veridical","STIM_SET_2_144/498326.bmp_pp57_L1_V1.0_veridical_freeview_isoTrue_fps144.mp4",""
"","","","call-function","442","2446701","0.0-442.0","ctrcrfzz","","","","","","","",""
"1805.660000000149","{""judgement"":1}","[0]","survey-likert","443","2448507","0.0-443.0","ctrcrfzz","","","","","","","","1"
"1617.2000000001863","{""confidence"":0}","[0]","survey-likert","444","2450126","0.0-444.0","ctrcrfzz","","","","","","","",""
"","","","call-function","445","2450126","0.0-445.0","ctrcrfzz","","","","","","","",""
"null","","","html-keyboard-response","446","2451630","0.0-446.0","ctrcrfzz","","<span style=""color:Black; font-size:50px;"">Agent A","null","","","","",""
"null","","","video-keyboard-response","447","2454693","0.0-447.0","ctrcrfzz","","","null","","Agent A","scrambled","STIM_SET_5/285932.bmp_pp64_L1_V1.0_veridical_freeview_isoTrue_Hflip_fps144.mp4",""
"null","","","html-keyboard-response","448","2456199","0.0-448.0","ctrcrfzz","","<span style=""color:Black; font-size:50px;"">Agent B","null","","","","",""
"null","","","video-keyboard-response","449","2459277","0.0-449.0","ctrcrfzz","","","null","","Agent B","veridical","STIM_SET_2_144/285932.bmp_pp64_L1_V1.0_veridical_freeview_isoTrue_fps144.mp4",""
"","","","call-function","450","2459277","0.0-450.0","ctrcrfzz","","","","","","","",""
"2647.2050000000745","{""judgement"":0}","[0]","survey-likert","451","2461925","0.0-451.0","ctrcrfzz","","","","","","","","1"
"1291.8149999999441","{""confidence"":0}","[0]","survey-likert","452","2463218","0.0-452.0","ctrcrfzz","","","","","","","",""
"","","","call-function","453","2463219","0.0-453.0","ctrcrfzz","","","","","","","",""
"null","","","html-keyboard-response","454","2464720","0.0-454.0","ctrcrfzz","","<span style=""color:Black; font-size:50px;"">Agent A","null","","","","",""
"null","","","video-keyboard-response","455","2467810","0.0-455.0","ctrcrfzz","","","null","","Agent A","veridical","STIM_SET_2_144/285959.bmp_pp93_L1_V1.0_veridical_freeview_isoTrue_fps144.mp4",""
"null","","","html-keyboard-response","456","2469318","0.0-456.0","ctrcrfzz","","<span style=""color:Black; font-size:50px;"">Agent B","null","","","","",""
"null","","","video-keyboard-response","457","2472407","0.0-457.0","ctrcrfzz","","","null","","Agent B","scrambled","STIM_SET_5/285959.bmp_pp93_L1_V1.0_veridical_freeview_isoTrue_Hflip_fps144.mp4",""
"","","","call-function","458","2472407","0.0-458.0","ctrcrfzz","","","","","","","",""
"5803.554999999702","{""judgement"":1}","[0]","survey-likert","459","2478212","0.0-459.0","ctrcrfzz","","","","","","","","0"
"1260.9599999999627","{""confidence"":0}","[0]","survey-likert","460","2479474","0.0-460.0","ctrcrfzz","","","","","","","",""
"","","","call-function","461","2479475","0.0-461.0","ctrcrfzz","","","","","","","",""
"null","","","html-keyboard-response","462","2480979","0.0-462.0","ctrcrfzz","","<span style=""color:Black; font-size:50px;"">Agent A","null","","","","",""
"null","","","video-keyboard-response","463","2484056","0.0-463.0","ctrcrfzz","","","null","","Agent A","veridical","STIM_SET_2_144/1592044.bmp_pp94_L2_V1.0_veridical_freeview_isoTrue_fps144.mp4",""
"null","","","html-keyboard-response","464","2485560","0.0-464.0","ctrcrfzz","","<span style=""color:Black; font-size:50px;"">Agent B","null","","","","",""
"null","","","video-keyboard-response","465","2488640","0.0-465.0","ctrcrfzz","","","null","","Agent B","scrambled","STIM_SET_5/1592044.bmp_pp94_L2_V1.0_veridical_freeview_isoTrue_Hflip_fps144.mp4",""
"","","","call-function","466","2488641","0.0-466.0","ctrcrfzz","","","","","","","",""
"2287.0849999999627","{""judgement"":0}","[0]","survey-likert","467","2490929","0.0-467.0","ctrcrfzz","","","","","","","","0"
"2264.6750000002794","{""confidence"":0}","[0]","survey-likert","468","2493195","0.0-468.0","ctrcrfzz","","","","","","","",""
"","","","call-function","469","2493195","0.0-469.0","ctrcrfzz","","","","","","","",""
"null","","","html-keyboard-response","470","2494696","0.0-470.0","ctrcrfzz","","<span style=""color:Black; font-size:50px;"">Agent A","null","","","","",""
"null","","","video-keyboard-response","471","2497775","0.0-471.0","ctrcrfzz","","","null","","Agent A","scrambled","STIM_SET_5/498372.bmp_pp95_L2_V1_veridical_freeview_isoTrue_Hflip_fps144.mp4",""
"null","","","html-keyboard-response","472","2499278","0.0-472.0","ctrcrfzz","","<span style=""color:Black; font-size:50px;"">Agent B","null","","","","",""
"null","","","video-keyboard-response","473","2502371","0.0-473.0","ctrcrfzz","","","null","","Agent B","veridical","STIM_SET_2_144/498372.bmp_pp95_L2_V1_veridical_freeview_isoTrue_fps144.mp4",""
"","","","call-function","474","2502372","0.0-474.0","ctrcrfzz","","","","","","","",""
"2298.4199999999255","{""judgement"":0}","[0]","survey-likert","475","2504671","0.0-475.0","ctrcrfzz","","","","","","","","1"
"1904.160000000149","{""confidence"":1}","[0]","survey-likert","476","2506576","0.0-476.0","ctrcrfzz","","","","","","","",""
"","","","call-function","477","2506577","0.0-477.0","ctrcrfzz","","","","","","","",""
"null","","","html-keyboard-response","478","2508079","0.0-478.0","ctrcrfzz","","<span style=""color:Black; font-size:50px;"">Agent A","null","","","","",""
"null","","","video-keyboard-response","479","2511155","0.0-479.0","ctrcrfzz","","","null","","Agent A","veridical","STIM_SET_2_144/1592038.bmp_pp79_L2_V1.0_veridical_freeview_isoTrue_fps144.mp4",""
"null","","","html-keyboard-response","480","2512662","0.0-480.0","ctrcrfzz","","<span style=""color:Black; font-size:50px;"">Agent B","null","","","","",""
"null","","","video-keyboard-response","481","2515740","0.0-481.0","ctrcrfzz","","","null","","Agent B","scrambled","STIM_SET_5/1592038.bmp_pp79_L2_V1.0_veridical_freeview_isoTrue_Hflip_fps144.mp4",""
"","","","call-function","482","2515740","0.0-482.0","ctrcrfzz","","","","","","","",""
"1688.6599999996834","{""judgement"":0}","[0]","survey-likert","483","2517431","0.0-483.0","ctrcrfzz","","","","","","","","0"
"1255.6099999998696","{""confidence"":0}","[0]","survey-likert","484","2518689","0.0-484.0","ctrcrfzz","","","","","","","",""
"","","","call-function","485","2518690","0.0-485.0","ctrcrfzz","","","","","","","",""
"null","","","html-keyboard-response","486","2520196","0.0-486.0","ctrcrfzz","","<span style=""color:Black; font-size:50px;"">Agent A","null","","","","",""
"null","","","video-keyboard-response","487","2523265","0.0-487.0","ctrcrfzz","","","null","","Agent A","scrambled","STIM_SET_5/1159973.bmp_pp98_L1_V1.0_veridical_freeview_isoTrue_Hflip_fps144.mp4",""
"null","","","html-keyboard-response","488","2524769","0.0-488.0","ctrcrfzz","","<span style=""color:Black; font-size:50px;"">Agent B","null","","","","",""
"null","","","video-keyboard-response","489","2527839","0.0-489.0","ctrcrfzz","","","null","","Agent B","veridical","STIM_SET_2_144/1159973.bmp_pp98_L1_V1.0_veridical_freeview_isoTrue_fps144.mp4",""
"","","","call-function","490","2527840","0.0-490.0","ctrcrfzz","","","","","","","",""
"2488.1400000001304","{""judgement"":1}","[0]","survey-likert","491","2530329","0.0-491.0","ctrcrfzz","","","","","","","","1"
"1741.494999999646","{""confidence"":0}","[0]","survey-likert","492","2532072","0.0-492.0","ctrcrfzz","","","","","","","",""
"","","","call-function","493","2532073","0.0-493.0","ctrcrfzz","","","","","","","",""
"null","","","html-keyboard-response","494","2533576","0.0-494.0","ctrcrfzz","","<span style=""color:Black; font-size:50px;"">Agent A","null","","","","",""
"null","","","video-keyboard-response","495","2536644","0.0-495.0","ctrcrfzz","","","null","","Agent A","veridical","STIM_SET_2_144/713274.bmp_pp73_L3_V1.0_veridical_freeview_isoTrue_fps144.mp4",""
"null","","","html-keyboard-response","496","2538151","0.0-496.0","ctrcrfzz","","<span style=""color:Black; font-size:50px;"">Agent B","null","","","","",""
"null","","","video-keyboard-response","497","2541220","0.0-497.0","ctrcrfzz","","","null","","Agent B","scrambled","STIM_SET_5/713274.bmp_pp73_L3_V1.0_veridical_freeview_isoTrue_Hflip_fps144.mp4",""
"","","","call-function","498","2541220","0.0-498.0","ctrcrfzz","","","","","","","",""
"1865.130000000354","{""judgement"":1}","[0]","survey-likert","499","2543087","0.0-499.0","ctrcrfzz","","","","","","","","0"
"1964.8599999998696","{""confidence"":0}","[0]","survey-likert","500","2545052","0.0-500.0","ctrcrfzz","","","","","","","",""
"22888.740000000224","","","instructions","501","2567942","0.0-501.0","ctrcrfzz","[{""page_index"":0,""viewing_time"":2917.3300000000745},{""page_index"":1,""viewing_time"":19299.87999999989},{""page_index"":2,""viewing_time"":671.3599999998696}]","","","","","","",""
"2574.3000000002794","","","instructions","502","2570517","0.0-502.0","ctrcrfzz","[{""page_index"":0,""viewing_time"":466.00499999988824},{""page_index"":1,""viewing_time"":1299.8250000001863},{""page_index"":2,""viewing_time"":808.2549999998882}]","","","","","","",""
"","","","call-function","503","2570517","0.0-503.0","ctrcrfzz","","","","","","","",""
"null","","","html-keyboard-response","504","2572020","0.0-504.0","ctrcrfzz","","<span style=""color:Black; font-size:50px;"">Agent A","null","","","","",""
"null","","","video-keyboard-response","505","2575122","0.0-505.0","ctrcrfzz","","","null","","Agent A","veridical","STIM_SET_2_144/498025.bmp_pp81_L1_V1.0_veridical_freeview_isoTrue_fps144.mp4",""
"null","","","html-keyboard-response","506","2576624","0.0-506.0","ctrcrfzz","","<span style=""color:Black; font-size:50px;"">Agent B","null","","","","",""
"null","","","video-keyboard-response","507","2579720","0.0-507.0","ctrcrfzz","","","null","","Agent B","scrambled","STIM_SET_5/498025.bmp_pp81_L1_V1.0_veridical_freeview_isoTrue_Hflip_fps144.mp4",""
"","","","call-function","508","2579721","0.0-508.0","ctrcrfzz","","","","","","","",""
"2179.0750000001863","{""judgement"":0}","[0]","survey-likert","509","2581901","0.0-509.0","ctrcrfzz","","","","","","","","0"
"1054.220000000205","{""confidence"":1}","[0]","survey-likert","510","2582956","0.0-510.0","ctrcrfzz","","","","","","","",""
"","","","call-function","511","2582957","0.0-511.0","ctrcrfzz","","","","","","","",""
"null","","","html-keyboard-response","512","2584459","0.0-512.0","ctrcrfzz","","<span style=""color:Black; font-size:50px;"">Agent A","null","","","","",""
"null","","","video-keyboard-response","513","2587522","0.0-513.0","ctrcrfzz","","","null","","Agent A","scrambled","STIM_SET_5/1592150.bmp_pp77_L3_V1.0_veridical_freeview_isoTrue_Hflip_fps144.mp4",""
"null","","","html-keyboard-response","514","2589025","0.0-514.0","ctrcrfzz","","<span style=""color:Black; font-size:50px;"">Agent B","null","","","","",""
"null","","","video-keyboard-response","515","2592086","0.0-515.0","ctrcrfzz","","","null","","Agent B","veridical","STIM_SET_2_144/1592150.bmp_pp77_L3_V1.0_veridical_freeview_isoTrue_fps144.mp4",""
"","","","call-function","516","2592087","0.0-516.0","ctrcrfzz","","","","","","","",""
"3234.8000000002794","{""judgement"":1}","[0]","survey-likert","517","2595322","0.0-517.0","ctrcrfzz","","","","","","","","1"
"2868.3449999997392","{""confidence"":0}","[0]","survey-likert","518","2598192","0.0-518.0","ctrcrfzz","","","","","","","",""
"","","","call-function","519","2598192","0.0-519.0","ctrcrfzz","","","","","","","",""
"null","","","html-keyboard-response","520","2599694","0.0-520.0","ctrcrfzz","","<span style=""color:Black; font-size:50px;"">Agent A","null","","","","",""
"null","","","video-keyboard-response","521","2602755","0.0-521.0","ctrcrfzz","","","null","","Agent A","scrambled","STIM_SET_5/1592047.bmp_pp51_L1_V1.0_veridical_freeview_isoTrue_Hflip_fps144.mp4",""
"null","","","html-keyboard-response","522","2604260","0.0-522.0","ctrcrfzz","","<span style=""color:Black; font-size:50px;"">Agent B","null","","","","",""
"null","","","video-keyboard-response","523","2607324","0.0-523.0","ctrcrfzz","","","null","","Agent B","veridical","STIM_SET_2_144/1592047.bmp_pp51_L1_V1.0_veridical_freeview_isoTrue_fps144.mp4",""
"","","","call-function","524","2607324","0.0-524.0","ctrcrfzz","","","","","","","",""
"3883.310000000056","{""judgement"":0}","[0]","survey-likert","525","2611208","0.0-525.0","ctrcrfzz","","","","","","","","1"
"1457.4599999999627","{""confidence"":0}","[0]","survey-likert","526","2612667","0.0-526.0","ctrcrfzz","","","","","","","",""
"","","","call-function","527","2612667","0.0-527.0","ctrcrfzz","","","","","","","",""
"null","","","html-keyboard-response","528","2614170","0.0-528.0","ctrcrfzz","","<span style=""color:Black; font-size:50px;"">Agent A","null","","","","",""
"null","","","video-keyboard-response","529","2617245","0.0-529.0","ctrcrfzz","","","null","","Agent A","scrambled","STIM_SET_5/713829.bmp_pp60_L3_V1.0_veridical_freeview_isoTrue_Hflip_fps144.mp4",""
"null","","","html-keyboard-response","530","2618751","0.0-530.0","ctrcrfzz","","<span style=""color:Black; font-size:50px;"">Agent B","null","","","","",""
"null","","","video-keyboard-response","531","2621829","0.0-531.0","ctrcrfzz","","","null","","Agent B","veridical","STIM_SET_2_144/713829.bmp_pp60_L3_V1.0_veridical_freeview_isoTrue_fps144.mp4",""
"","","","call-function","532","2621831","0.0-532.0","ctrcrfzz","","","","","","","",""
"2873.649999999907","{""judgement"":1}","[0]","survey-likert","533","2624706","0.0-533.0","ctrcrfzz","","","","","","","","1"
"1298.255000000354","{""confidence"":0}","[0]","survey-likert","534","2626006","0.0-534.0","ctrcrfzz","","","","","","","",""
"","","","call-function","535","2626007","0.0-535.0","ctrcrfzz","","","","","","","",""
"null","","","html-keyboard-response","536","2627511","0.0-536.0","ctrcrfzz","","<span style=""color:Black; font-size:50px;"">Agent A","null","","","","",""
"null","","","video-keyboard-response","537","2630591","0.0-537.0","ctrcrfzz","","","null","","Agent A","veridical","STIM_SET_2_144/713858.bmp_pp57_L1_V1.0_veridical_freeview_isoTrue_fps144.mp4",""
"null","","","html-keyboard-response","538","2632094","0.0-538.0","ctrcrfzz","","<span style=""color:Black; font-size:50px;"">Agent B","null","","","","",""
"null","","","video-keyboard-response","539","2635173","0.0-539.0","ctrcrfzz","","","null","","Agent B","scrambled","STIM_SET_5/713858.bmp_pp57_L1_V1.0_veridical_freeview_isoTrue_Hflip_fps144.mp4",""
"","","","call-function","540","2635175","0.0-540.0","ctrcrfzz","","","","","","","",""
"2112.600000000093","{""judgement"":0}","[0]","survey-likert","541","2637289","0.0-541.0","ctrcrfzz","","","","","","","","0"
"1256.8899999996647","{""confidence"":0}","[0]","survey-likert","542","2638547","0.0-542.0","ctrcrfzz","","","","","","","",""
"","","","call-function","543","2638548","0.0-543.0","ctrcrfzz","","","","","","","",""
"null","","","html-keyboard-response","544","2640051","0.0-544.0","ctrcrfzz","","<span style=""color:Black; font-size:50px;"">Agent A","null","","","","",""
"null","","","video-keyboard-response","545","2643114","0.0-545.0","ctrcrfzz","","","null","","Agent A","scrambled","STIM_SET_5/1159325.bmp_pp67_L2_V1.0_veridical_freeview_isoTrue_Hflip_fps144.mp4",""
"null","","","html-keyboard-response","546","2644619","0.0-546.0","ctrcrfzz","","<span style=""color:Black; font-size:50px;"">Agent B","null","","","","",""
"null","","","video-keyboard-response","547","2647679","0.0-547.0","ctrcrfzz","","","null","","Agent B","veridical","STIM_SET_2_144/1159325.bmp_pp67_L2_V1.0_veridical_freeview_isoTrue_fps144.mp4",""
"","","","call-function","548","2647680","0.0-548.0","ctrcrfzz","","","","","","","",""
"1761.054999999702","{""judgement"":1}","[0]","survey-likert","549","2649443","0.0-549.0","ctrcrfzz","","","","","","","","1"
"2771.8249999997206","{""confidence"":0}","[0]","survey-likert","550","2652216","0.0-550.0","ctrcrfzz","","","","","","","",""
"","","","call-function","551","2652216","0.0-551.0","ctrcrfzz","","","","","","","",""
"null","","","html-keyboard-response","552","2653718","0.0-552.0","ctrcrfzz","","<span style=""color:Black; font-size:50px;"">Agent A","null","","","","",""
"null","","","video-keyboard-response","553","2656787","0.0-553.0","ctrcrfzz","","","null","","Agent A","scrambled","STIM_SET_5/1592350.bmp_pp55_L3_V1.0_veridical_freeview_isoTrue_Hflip_fps144.mp4",""
"null","","","html-keyboard-response","554","2658290","0.0-554.0","ctrcrfzz","","<span style=""color:Black; font-size:50px;"">Agent B","null","","","","",""
"null","","","video-keyboard-response","555","2661374","0.0-555.0","ctrcrfzz","","","null","","Agent B","veridical","STIM_SET_2_144/1592350.bmp_pp55_L3_V1.0_veridical_freeview_isoTrue_fps144.mp4",""
"","","","call-function","556","2661374","0.0-556.0","ctrcrfzz","","","","","","","",""
"1923.4200000003912","{""judgement"":0}","[0]","survey-likert","557","2663299","0.0-557.0","ctrcrfzz","","","","","","","","1"
"1728.3650000002235","{""confidence"":2}","[0]","survey-likert","558","2665028","0.0-558.0","ctrcrfzz","","","","","","","",""
"","","","call-function","559","2665029","0.0-559.0","ctrcrfzz","","","","","","","",""
"null","","","html-keyboard-response","560","2666535","0.0-560.0","ctrcrfzz","","<span style=""color:Black; font-size:50px;"">Agent A","null","","","","",""
"null","","","video-keyboard-response","561","2669612","0.0-561.0","ctrcrfzz","","","null","","Agent A","scrambled","STIM_SET_5/1592017.bmp_pp154_L1_V1.0_veridical_freeview_isoTrue_Hflip_fps144.mp4",""
"null","","","html-keyboard-response","562","2671118","0.0-562.0","ctrcrfzz","","<span style=""color:Black; font-size:50px;"">Agent B","null","","","","",""
"null","","","video-keyboard-response","563","2674193","0.0-563.0","ctrcrfzz","","","null","","Agent B","veridical","STIM_SET_2_144/1592017.bmp_pp154_L1_V1.0_veridical_freeview_isoTrue_fps144.mp4",""
"","","","call-function","564","2674194","0.0-564.0","ctrcrfzz","","","","","","","",""
"1602.910000000149","{""judgement"":1}","[0]","survey-likert","565","2675798","0.0-565.0","ctrcrfzz","","","","","","","","1"
"942.7199999997392","{""confidence"":1}","[0]","survey-likert","566","2676741","0.0-566.0","ctrcrfzz","","","","","","","",""
"","","","call-function","567","2676742","0.0-567.0","ctrcrfzz","","","","","","","",""
"null","","","html-keyboard-response","568","2678244","0.0-568.0","ctrcrfzz","","<span style=""color:Black; font-size:50px;"">Agent A","null","","","","",""
"null","","","video-keyboard-response","569","2681328","0.0-569.0","ctrcrfzz","","","null","","Agent A","scrambled","STIM_SET_5/713920.bmp_pp76_L1_V1.0_veridical_freeview_isoTrue_Hflip_fps144.mp4",""
"null","","","html-keyboard-response","570","2682832","0.0-570.0","ctrcrfzz","","<span style=""color:Black; font-size:50px;"">Agent B","null","","","","",""
"null","","","video-keyboard-response","571","2685921","0.0-571.0","ctrcrfzz","","","null","","Agent B","veridical","STIM_SET_2_144/713920.bmp_pp76_L1_V1.0_veridical_freeview_isoTrue_fps144.mp4",""
"","","","call-function","572","2685921","0.0-572.0","ctrcrfzz","","","","","","","",""
"4091.3799999998882","{""judgement"":1}","[0]","survey-likert","573","2690013","0.0-573.0","ctrcrfzz","","","","","","","","1"
"2230.649999999907","{""confidence"":1}","[0]","survey-likert","574","2692245","0.0-574.0","ctrcrfzz","","","","","","","",""
"","","","call-function","575","2692246","0.0-575.0","ctrcrfzz","","","","","","","",""
"null","","","html-keyboard-response","576","2693750","0.0-576.0","ctrcrfzz","","<span style=""color:Black; font-size:50px;"">Agent A","null","","","","",""
"null","","","video-keyboard-response","577","2696876","0.0-577.0","ctrcrfzz","","","null","","Agent A","veridical","STIM_SET_2_144/713790.bmp_pp100_L3_V1_veridical_freeview_isoTrue_fps144.mp4",""
"null","","","html-keyboard-response","578","2698378","0.0-578.0","ctrcrfzz","","<span style=""color:Black; font-size:50px;"">Agent B","null","","","","",""
"null","","","video-keyboard-response","579","2701454","0.0-579.0","ctrcrfzz","","","null","","Agent B","scrambled","STIM_SET_5/713790.bmp_pp100_L3_V1_veridical_freeview_isoTrue_Hflip_fps144.mp4",""
"","","","call-function","580","2701455","0.0-580.0","ctrcrfzz","","","","","","","",""
"2306.8799999998882","{""judgement"":1}","[0]","survey-likert","581","2703763","0.0-581.0","ctrcrfzz","","","","","","","","0"
"1782.035000000149","{""confidence"":0}","[0]","survey-likert","582","2705546","0.0-582.0","ctrcrfzz","","","","","","","",""
"12965.669999999925","","","instructions","583","2718512","0.0-583.0","ctrcrfzz","[{""page_index"":0,""viewing_time"":12965.524999999907}]","","","","","","",""
"11377.570000000298","","","instructions","584","2729890","0.0-584.0","ctrcrfzz","[{""page_index"":0,""viewing_time"":11377.465000000317}]","","","","","","",""
"23694.350000000093","{""post-1"":1}","[0]","survey-likert","585","2753586","0.0-585.0","ctrcrfzz","","","","","","","",""
"12832.774999999907","{""post-1"":0}","[0]","survey-likert","586","2766421","0.0-586.0","ctrcrfzz","","","","","","","",""
"10277.680000000168","{""post-2"":0}","[0]","survey-likert","587","2776701","0.0-587.0","ctrcrfzz","","","","","","","",""
"12396.48499999987","{""post-2"":0}","[0]","survey-likert","588","2789099","0.0-588.0","ctrcrfzz","","","","","","","",""
"9401.19999999972","{""post-3"":2}","[0]","survey-likert","589","2798501","0.0-589.0","ctrcrfzz","","","","","","","",""
"6918.195000000298","{""post-3"":1}","[0]","survey-likert","590","2805422","0.0-590.0","ctrcrfzz","","","","","","","",""
"13315.879999999888","{""post-4"":0}","[0]","survey-likert","591","2818740","0.0-591.0","ctrcrfzz","","","","","","","",""
"3857.6450000000186","{""post-4"":0}","[0]","survey-likert","592","2822599","0.0-592.0","ctrcrfzz","","","","","","","",""
"8322.830000000075","{""post-5"":1}","[0]","survey-likert","593","2830923","0.0-593.0","ctrcrfzz","","","","","","","",""
"15782.745000000112","{""post-5"":1}","[0]","survey-likert","594","2846707","0.0-594.0","ctrcrfzz","","","","","","","",""
"387874.9550000001","{""Q0"":""Especially towards the end, I had the feeling that the two hot spots were similar and just mirrored which made it hard to distinguish them.\nI had different ideas on what to focus to make my decision like, for instance, assuming that a human (at least in our Western culture) would have the tendency to skim a picture from the left to the right since this is the direction in which we read. Yet, these ideas did not give me much confidence. The more time I spend overthinking it, the more unsure I became.""}","","survey-text","595","3234589","0.0-595.0","ctrcrfzz","","","","","","","",""
"100160.98499999987","{""Q0"":""I mentioned one strategy in the answer before. Another thing I tried was to judge based on the assumption where I would look. Yet, since I only saw the black screen this did not give me much of an assistance.""}","","survey-text","596","3334755","0.0-596.0","ctrcrfzz","","","","","","","",""
"152173.99499999965","{""Q0"":""Since all my strategies were based on assumption that I made without knowing anything about the preferred spots of attention of humans, I felt more self-conscious about my ideas the longer the experiment went on. ""}","","survey-text","597","3486934","0.0-597.0","ctrcrfzz","","","","","","","",""
"61506.19999999972","","","instructions","598","3548442","0.0-598.0","ctrcrfzz","[{""page_index"":0,""viewing_time"":61506.060000000056}]","","","","","","",""
"15528.05000000028","{""Experimenter_end"":[""Printed ID# ctrcrfzz on consent form"",""Given subject SONA credit or payment"",""Given the subject debrief form""]}","[0]","survey-multi-select","599","3563973","0.0-599.0","ctrcrfzz","","","","","","","",""
