"rt","responses","question_order","trial_type","trial_index","time_elapsed","internal_node_id","ID","view_history","stimulus","key_press","value","agent","condition","image","correct_answer"
"139267.555","{""Experimenter"":[""Confirmed subject's identity"",""Confirmed normal or corrected-to-normal vision"",""Obtained consent (signature and date)"",""Checked the test room lighting"",""Checked computer screen lighting"",""Checked distance from screen to chin rest (50cm)"",""Cleaned and adjusted chin rest"",""Counterbalanced the order of the tasks"",""Opened the experiment in Firefox"",""Made the experiment full screen"",""Encouraged subject to silence phone, put away distractors, etc.""]}","[0]","survey-multi-select","0","139275","0.0-0.0","cvg0wyka","","","","","","","",""
"57530.07000000001","","","instructions","1","196806","0.0-1.0","cvg0wyka","[{""page_index"":0,""viewing_time"":57529.92000000001}]","","","","","","",""
"12767.084999999992","","","instructions","2","209574","0.0-2.0","cvg0wyka","[{""page_index"":0,""viewing_time"":4817.9649999999965},{""page_index"":1,""viewing_time"":1508.9750000000058},{""page_index"":2,""viewing_time"":6440.0199999999895}]","","","","","","",""
"3773.345000000001","","","instructions","3","213348","0.0-3.0","cvg0wyka","[{""page_index"":0,""viewing_time"":3773.1999999999825}]","","","","","","",""
"null","","","video-keyboard-response","4","216424","0.0-4.0","cvg0wyka","","","null","","","","",""
"13721.51000000001","","","instructions","5","230146","0.0-5.0","cvg0wyka","[{""page_index"":0,""viewing_time"":3050.429999999993},{""page_index"":1,""viewing_time"":3448.6300000000047},{""page_index"":2,""viewing_time"":7221.869999999995}]","","","","","","",""
"2908.415000000008","","","instructions","6","233056","0.0-6.0","cvg0wyka","[{""page_index"":0,""viewing_time"":2908.3150000000023}]","","","","","","",""
"1661.2449999999953","","","instructions","7","234717","0.0-7.0","cvg0wyka","[{""page_index"":0,""viewing_time"":1661.1450000000186}]","","","","","","",""
"null","","","video-keyboard-response","8","237787","0.0-8.0","cvg0wyka","","","null","","","","",""
"16531.190000000002","","","instructions","9","254319","0.0-9.0","cvg0wyka","[{""page_index"":0,""viewing_time"":1617.9150000000081},{""page_index"":1,""viewing_time"":5095.904999999999},{""page_index"":2,""viewing_time"":9817.179999999993}]","","","","","","",""
"5928.3949999999895","","","instructions","10","260248","0.0-10.0","cvg0wyka","[{""page_index"":0,""viewing_time"":5928.279999999999}]","","","","","","",""
"","","","call-function","11","260249","0.0-11.0","cvg0wyka","","","","","","","",""
"null","","","html-keyboard-response","12","261752","0.0-12.0","cvg0wyka","","<span style=""color:Black; font-size:50px;"">Agent A","null","","","","",""
"null","","","video-keyboard-response","13","264854","0.0-13.0","cvg0wyka","","","null","","Agent A","scrambled","STIM_SET_5/1592017.bmp_pp154_L1_V1.0_veridical_freeview_isoTrue_Hflip_fps144.mp4",""
"null","","","html-keyboard-response","14","266358","0.0-14.0","cvg0wyka","","<span style=""color:Black; font-size:50px;"">Agent B","null","","","","",""
"null","","","video-keyboard-response","15","269440","0.0-15.0","cvg0wyka","","","null","","Agent B","veridical","STIM_SET_2_144/1592017.bmp_pp154_L1_V1.0_veridical_freeview_isoTrue_fps144.mp4",""
"","","","call-function","16","269440","0.0-16.0","cvg0wyka","","","","","","","",""
"27566.090000000026","{""judgement"":0}","[0]","survey-likert","17","297008","0.0-17.0","cvg0wyka","","","","","","","","1"
"5141.914999999979","{""confidence"":0}","[0]","survey-likert","18","302151","0.0-18.0","cvg0wyka","","","","","","","",""
"","","","call-function","19","302151","0.0-19.0","cvg0wyka","","","","","","","",""
"null","","","html-keyboard-response","20","303653","0.0-20.0","cvg0wyka","","<span style=""color:Black; font-size:50px;"">Agent A","null","","","","",""
"null","","","video-keyboard-response","21","306721","0.0-21.0","cvg0wyka","","","null","","Agent A","veridical","STIM_SET_2_144/1159392.bmp_pp96_L2_V1.0_veridical_freeview_isoTrue_fps144.mp4",""
"null","","","html-keyboard-response","22","308229","0.0-22.0","cvg0wyka","","<span style=""color:Black; font-size:50px;"">Agent B","null","","","","",""
"null","","","video-keyboard-response","23","311315","0.0-23.0","cvg0wyka","","","null","","Agent B","scrambled","STIM_SET_5/1159392.bmp_pp96_L2_V1.0_veridical_freeview_isoTrue_Hflip_fps144.mp4",""
"","","","call-function","24","311315","0.0-24.0","cvg0wyka","","","","","","","",""
"5843.284999999974","{""judgement"":1}","[0]","survey-likert","25","317159","0.0-25.0","cvg0wyka","","","","","","","","0"
"4067.164999999979","{""confidence"":0}","[0]","survey-likert","26","321228","0.0-26.0","cvg0wyka","","","","","","","",""
"","","","call-function","27","321228","0.0-27.0","cvg0wyka","","","","","","","",""
"null","","","html-keyboard-response","28","322730","0.0-28.0","cvg0wyka","","<span style=""color:Black; font-size:50px;"">Agent A","null","","","","",""
"null","","","video-keyboard-response","29","325852","0.0-29.0","cvg0wyka","","","null","","Agent A","scrambled","STIM_SET_5/498025.bmp_pp81_L1_V1.0_veridical_freeview_isoTrue_Hflip_fps144.mp4",""
"null","","","html-keyboard-response","30","327355","0.0-30.0","cvg0wyka","","<span style=""color:Black; font-size:50px;"">Agent B","null","","","","",""
"null","","","video-keyboard-response","31","330447","0.0-31.0","cvg0wyka","","","null","","Agent B","veridical","STIM_SET_2_144/498025.bmp_pp81_L1_V1.0_veridical_freeview_isoTrue_fps144.mp4",""
"","","","call-function","32","330447","0.0-32.0","cvg0wyka","","","","","","","",""
"5882.084999999963","{""judgement"":1}","[0]","survey-likert","33","336330","0.0-33.0","cvg0wyka","","","","","","","","1"
"2909.375","{""confidence"":0}","[0]","survey-likert","34","339241","0.0-34.0","cvg0wyka","","","","","","","",""
"","","","call-function","35","339241","0.0-35.0","cvg0wyka","","","","","","","",""
"null","","","html-keyboard-response","36","340746","0.0-36.0","cvg0wyka","","<span style=""color:Black; font-size:50px;"">Agent A","null","","","","",""
"null","","","video-keyboard-response","37","343833","0.0-37.0","cvg0wyka","","","null","","Agent A","veridical","STIM_SET_2_144/713770.bmp_pp89_L1_V1.0_veridical_freeview_isoTrue_fps144.mp4",""
"null","","","html-keyboard-response","38","345339","0.0-38.0","cvg0wyka","","<span style=""color:Black; font-size:50px;"">Agent B","null","","","","",""
"null","","","video-keyboard-response","39","348447","0.0-39.0","cvg0wyka","","","null","","Agent B","scrambled","STIM_SET_5/713770.bmp_pp89_L1_V1.0_veridical_freeview_isoTrue_Hflip_fps144.mp4",""
"","","","call-function","40","348447","0.0-40.0","cvg0wyka","","","","","","","",""
"5734.804999999993","{""judgement"":1}","[0]","survey-likert","41","354182","0.0-41.0","cvg0wyka","","","","","","","","0"
"4386.125","{""confidence"":0}","[0]","survey-likert","42","358569","0.0-42.0","cvg0wyka","","","","","","","",""
"","","","call-function","43","358570","0.0-43.0","cvg0wyka","","","","","","","",""
"null","","","html-keyboard-response","44","360071","0.0-44.0","cvg0wyka","","<span style=""color:Black; font-size:50px;"">Agent A","null","","","","",""
"null","","","video-keyboard-response","45","363161","0.0-45.0","cvg0wyka","","","null","","Agent A","veridical","STIM_SET_2_144/1592044.bmp_pp94_L2_V1.0_veridical_freeview_isoTrue_fps144.mp4",""
"null","","","html-keyboard-response","46","364665","0.0-46.0","cvg0wyka","","<span style=""color:Black; font-size:50px;"">Agent B","null","","","","",""
"null","","","video-keyboard-response","47","367760","0.0-47.0","cvg0wyka","","","null","","Agent B","scrambled","STIM_SET_5/1592044.bmp_pp94_L2_V1.0_veridical_freeview_isoTrue_Hflip_fps144.mp4",""
"","","","call-function","48","367762","0.0-48.0","cvg0wyka","","","","","","","",""
"1843.1199999999953","{""judgement"":0}","[0]","survey-likert","49","369606","0.0-49.0","cvg0wyka","","","","","","","","0"
"2544.5650000000023","{""confidence"":1}","[0]","survey-likert","50","372152","0.0-50.0","cvg0wyka","","","","","","","",""
"","","","call-function","51","372152","0.0-51.0","cvg0wyka","","","","","","","",""
"null","","","html-keyboard-response","52","373655","0.0-52.0","cvg0wyka","","<span style=""color:Black; font-size:50px;"">Agent A","null","","","","",""
"null","","","video-keyboard-response","53","376722","0.0-53.0","cvg0wyka","","","null","","Agent A","veridical","STIM_SET_2_144/285684.bmp_pp80_L3_V1.0_veridical_freeview_isoTrue_fps144.mp4",""
"null","","","html-keyboard-response","54","378227","0.0-54.0","cvg0wyka","","<span style=""color:Black; font-size:50px;"">Agent B","null","","","","",""
"null","","","video-keyboard-response","55","381310","0.0-55.0","cvg0wyka","","","null","","Agent B","scrambled","STIM_SET_5/285684.bmp_pp80_L3_V1.0_veridical_freeview_isoTrue_Hflip_fps144.mp4",""
"","","","call-function","56","381310","0.0-56.0","cvg0wyka","","","","","","","",""
"2265.984999999986","{""judgement"":0}","[0]","survey-likert","57","383577","0.0-57.0","cvg0wyka","","","","","","","","0"
"1790.274999999965","{""confidence"":1}","[0]","survey-likert","58","385369","0.0-58.0","cvg0wyka","","","","","","","",""
"","","","call-function","59","385369","0.0-59.0","cvg0wyka","","","","","","","",""
"null","","","html-keyboard-response","60","386872","0.0-60.0","cvg0wyka","","<span style=""color:Black; font-size:50px;"">Agent A","null","","","","",""
"null","","","video-keyboard-response","61","389948","0.0-61.0","cvg0wyka","","","null","","Agent A","veridical","STIM_SET_2_144/713689.bmp_pp153_L3_V1.0_veridical_freeview_isoTrue_fps144.mp4",""
"null","","","html-keyboard-response","62","391454","0.0-62.0","cvg0wyka","","<span style=""color:Black; font-size:50px;"">Agent B","null","","","","",""
"null","","","video-keyboard-response","63","394531","0.0-63.0","cvg0wyka","","","null","","Agent B","scrambled","STIM_SET_5/713689.bmp_pp153_L3_V1.0_veridical_freeview_isoTrue_Hflip_fps144.mp4",""
"","","","call-function","64","394532","0.0-64.0","cvg0wyka","","","","","","","",""
"3351.115000000049","{""judgement"":1}","[0]","survey-likert","65","397884","0.0-65.0","cvg0wyka","","","","","","","","0"
"1607.6399999999558","{""confidence"":0}","[0]","survey-likert","66","399493","0.0-66.0","cvg0wyka","","","","","","","",""
"","","","call-function","67","399493","0.0-67.0","cvg0wyka","","","","","","","",""
"null","","","html-keyboard-response","68","400995","0.0-68.0","cvg0wyka","","<span style=""color:Black; font-size:50px;"">Agent A","null","","","","",""
"null","","","video-keyboard-response","69","404135","0.0-69.0","cvg0wyka","","","null","","Agent A","scrambled","STIM_SET_5/150277.bmp_pp65_L3_V1.0_veridical_freeview_isoTrue_Hflip_fps144.mp4",""
"null","","","html-keyboard-response","70","405641","0.0-70.0","cvg0wyka","","<span style=""color:Black; font-size:50px;"">Agent B","null","","","","",""
"null","","","video-keyboard-response","71","408739","0.0-71.0","cvg0wyka","","","null","","Agent B","veridical","STIM_SET_2_144/150277.bmp_pp65_L3_V1.0_veridical_freeview_isoTrue_fps144.mp4",""
"","","","call-function","72","408739","0.0-72.0","cvg0wyka","","","","","","","",""
"3115.6699999999837","{""judgement"":1}","[0]","survey-likert","73","411856","0.0-73.0","cvg0wyka","","","","","","","","1"
"1554.975000000035","{""confidence"":0}","[0]","survey-likert","74","413412","0.0-74.0","cvg0wyka","","","","","","","",""
"","","","call-function","75","413412","0.0-75.0","cvg0wyka","","","","","","","",""
"null","","","html-keyboard-response","76","414914","0.0-76.0","cvg0wyka","","<span style=""color:Black; font-size:50px;"">Agent A","null","","","","",""
"null","","","video-keyboard-response","77","418009","0.0-77.0","cvg0wyka","","","null","","Agent A","veridical","STIM_SET_2_144/1159508.bmp_pp151_L1_V1.0_veridical_freeview_isoTrue_fps144.mp4",""
"null","","","html-keyboard-response","78","419516","0.0-78.0","cvg0wyka","","<span style=""color:Black; font-size:50px;"">Agent B","null","","","","",""
"null","","","video-keyboard-response","79","422620","0.0-79.0","cvg0wyka","","","null","","Agent B","scrambled","STIM_SET_5/1159508.bmp_pp151_L1_V1.0_veridical_freeview_isoTrue_Hflip_fps144.mp4",""
"","","","call-function","80","422620","0.0-80.0","cvg0wyka","","","","","","","",""
"2759.1350000000093","{""judgement"":1}","[0]","survey-likert","81","425380","0.0-81.0","cvg0wyka","","","","","","","","0"
"1793.2000000000116","{""confidence"":1}","[0]","survey-likert","82","427175","0.0-82.0","cvg0wyka","","","","","","","",""
"","","","call-function","83","427175","0.0-83.0","cvg0wyka","","","","","","","",""
"null","","","html-keyboard-response","84","428678","0.0-84.0","cvg0wyka","","<span style=""color:Black; font-size:50px;"">Agent A","null","","","","",""
"null","","","video-keyboard-response","85","431761","0.0-85.0","cvg0wyka","","","null","","Agent A","scrambled","STIM_SET_5/1160189.bmp_pp64_L1_V1.0_veridical_freeview_isoTrue_Hflip_fps144.mp4",""
"null","","","html-keyboard-response","86","433265","0.0-86.0","cvg0wyka","","<span style=""color:Black; font-size:50px;"">Agent B","null","","","","",""
"null","","","video-keyboard-response","87","436348","0.0-87.0","cvg0wyka","","","null","","Agent B","veridical","STIM_SET_2_144/1160189.bmp_pp64_L1_V1.0_veridical_freeview_isoTrue_fps144.mp4",""
"","","","call-function","88","436349","0.0-88.0","cvg0wyka","","","","","","","",""
"2658.1049999999814","{""judgement"":1}","[0]","survey-likert","89","439008","0.0-89.0","cvg0wyka","","","","","","","","1"
"1910.179999999993","{""confidence"":0}","[0]","survey-likert","90","440919","0.0-90.0","cvg0wyka","","","","","","","",""
"4910.890000000014","","","instructions","91","445830","0.0-91.0","cvg0wyka","[{""page_index"":0,""viewing_time"":2124.195000000007},{""page_index"":1,""viewing_time"":1338.6849999999977},{""page_index"":2,""viewing_time"":1447.8550000000396}]","","","","","","",""
"6591.704999999958","","","instructions","92","452422","0.0-92.0","cvg0wyka","[{""page_index"":0,""viewing_time"":2074.539999999979},{""page_index"":1,""viewing_time"":3340.9799999999814},{""page_index"":2,""viewing_time"":1175.984999999986}]","","","","","","",""
"","","","call-function","93","452423","0.0-93.0","cvg0wyka","","","","","","","",""
"null","","","html-keyboard-response","94","453930","0.0-94.0","cvg0wyka","","<span style=""color:Black; font-size:50px;"">Agent A","null","","","","",""
"null","","","video-keyboard-response","95","456996","0.0-95.0","cvg0wyka","","","null","","Agent A","scrambled","STIM_SET_5/1592201.bmp_pp97_L3_V1.0_veridical_freeview_isoTrue_Hflip_fps144.mp4",""
"null","","","html-keyboard-response","96","458500","0.0-96.0","cvg0wyka","","<span style=""color:Black; font-size:50px;"">Agent B","null","","","","",""
"null","","","video-keyboard-response","97","461568","0.0-97.0","cvg0wyka","","","null","","Agent B","veridical","STIM_SET_2_144/1592201.bmp_pp97_L3_V1.0_veridical_freeview_isoTrue_fps144.mp4",""
"","","","call-function","98","461568","0.0-98.0","cvg0wyka","","","","","","","",""
"3230.8950000000186","{""judgement"":0}","[0]","survey-likert","99","464800","0.0-99.0","cvg0wyka","","","","","","","","1"
"1934.6450000000186","{""confidence"":0}","[0]","survey-likert","100","466736","0.0-100.0","cvg0wyka","","","","","","","",""
"","","","call-function","101","466736","0.0-101.0","cvg0wyka","","","","","","","",""
"null","","","html-keyboard-response","102","468242","0.0-102.0","cvg0wyka","","<span style=""color:Black; font-size:50px;"">Agent A","null","","","","",""
"null","","","video-keyboard-response","103","471315","0.0-103.0","cvg0wyka","","","null","","Agent A","veridical","STIM_SET_2_144/1592025.bmp_pp68_L1_V1.0_veridical_freeview_isoTrue_fps144.mp4",""
"null","","","html-keyboard-response","104","472820","0.0-104.0","cvg0wyka","","<span style=""color:Black; font-size:50px;"">Agent B","null","","","","",""
"null","","","video-keyboard-response","105","475902","0.0-105.0","cvg0wyka","","","null","","Agent B","scrambled","STIM_SET_5/1592025.bmp_pp68_L1_V1.0_veridical_freeview_isoTrue_Hflip_fps144.mp4",""
"","","","call-function","106","475903","0.0-106.0","cvg0wyka","","","","","","","",""
"2092.984999999986","{""judgement"":1}","[0]","survey-likert","107","477997","0.0-107.0","cvg0wyka","","","","","","","","0"
"1601.2799999999697","{""confidence"":0}","[0]","survey-likert","108","479600","0.0-108.0","cvg0wyka","","","","","","","",""
"","","","call-function","109","479600","0.0-109.0","cvg0wyka","","","","","","","",""
"null","","","html-keyboard-response","110","481103","0.0-110.0","cvg0wyka","","<span style=""color:Black; font-size:50px;"">Agent A","null","","","","",""
"null","","","video-keyboard-response","111","484183","0.0-111.0","cvg0wyka","","","null","","Agent A","veridical","STIM_SET_2_144/1592921.bmp_pp69_L3_V1.0_veridical_freeview_isoTrue_fps144.mp4",""
"null","","","html-keyboard-response","112","485685","0.0-112.0","cvg0wyka","","<span style=""color:Black; font-size:50px;"">Agent B","null","","","","",""
"null","","","video-keyboard-response","113","488772","0.0-113.0","cvg0wyka","","","null","","Agent B","scrambled","STIM_SET_5/1592921.bmp_pp69_L3_V1.0_veridical_freeview_isoTrue_Hflip_fps144.mp4",""
"","","","call-function","114","488773","0.0-114.0","cvg0wyka","","","","","","","",""
"1957.7799999999697","{""judgement"":1}","[0]","survey-likert","115","490731","0.0-115.0","cvg0wyka","","","","","","","","0"
"1497.7550000000047","{""confidence"":0}","[0]","survey-likert","116","492231","0.0-116.0","cvg0wyka","","","","","","","",""
"","","","call-function","117","492231","0.0-117.0","cvg0wyka","","","","","","","",""
"null","","","html-keyboard-response","118","493734","0.0-118.0","cvg0wyka","","<span style=""color:Black; font-size:50px;"">Agent A","null","","","","",""
"null","","","video-keyboard-response","119","496812","0.0-119.0","cvg0wyka","","","null","","Agent A","veridical","STIM_SET_2_144/498258.bmp_pp51_L1_V1.0_veridical_freeview_isoTrue_fps144.mp4",""
"null","","","html-keyboard-response","120","498318","0.0-120.0","cvg0wyka","","<span style=""color:Black; font-size:50px;"">Agent B","null","","","","",""
"null","","","video-keyboard-response","121","501425","0.0-121.0","cvg0wyka","","","null","","Agent B","scrambled","STIM_SET_5/498258.bmp_pp51_L1_V1.0_veridical_freeview_isoTrue_Hflip_fps144.mp4",""
"","","","call-function","122","501425","0.0-122.0","cvg0wyka","","","","","","","",""
"3618.560000000056","{""judgement"":0}","[0]","survey-likert","123","505045","0.0-123.0","cvg0wyka","","","","","","","","0"
"2013.7050000000163","{""confidence"":0}","[0]","survey-likert","124","507059","0.0-124.0","cvg0wyka","","","","","","","",""
"","","","call-function","125","507060","0.0-125.0","cvg0wyka","","","","","","","",""
"null","","","html-keyboard-response","126","508566","0.0-126.0","cvg0wyka","","<span style=""color:Black; font-size:50px;"">Agent A","null","","","","",""
"null","","","video-keyboard-response","127","511657","0.0-127.0","cvg0wyka","","","null","","Agent A","veridical","STIM_SET_2_144/107955.bmp_pp90_L2_V1.0_veridical_freeview_isoTrue_fps144.mp4",""
"null","","","html-keyboard-response","128","513164","0.0-128.0","cvg0wyka","","<span style=""color:Black; font-size:50px;"">Agent B","null","","","","",""
"null","","","video-keyboard-response","129","516254","0.0-129.0","cvg0wyka","","","null","","Agent B","scrambled","STIM_SET_5/107955.bmp_pp90_L2_V1.0_veridical_freeview_isoTrue_Hflip_fps144.mp4",""
"","","","call-function","130","516255","0.0-130.0","cvg0wyka","","","","","","","",""
"2146.109999999986","{""judgement"":1}","[0]","survey-likert","131","518402","0.0-131.0","cvg0wyka","","","","","","","","0"
"1673.5650000000023","{""confidence"":0}","[0]","survey-likert","132","520077","0.0-132.0","cvg0wyka","","","","","","","",""
"","","","call-function","133","520077","0.0-133.0","cvg0wyka","","","","","","","",""
"null","","","html-keyboard-response","134","521581","0.0-134.0","cvg0wyka","","<span style=""color:Black; font-size:50px;"">Agent A","null","","","","",""
"null","","","video-keyboard-response","135","524707","0.0-135.0","cvg0wyka","","","null","","Agent A","scrambled","STIM_SET_5/713328.bmp_pp86_L2_V1.0_veridical_freeview_isoTrue_Hflip_fps144.mp4",""
"null","","","html-keyboard-response","136","526209","0.0-136.0","cvg0wyka","","<span style=""color:Black; font-size:50px;"">Agent B","null","","","","",""
"null","","","video-keyboard-response","137","529292","0.0-137.0","cvg0wyka","","","null","","Agent B","veridical","STIM_SET_2_144/713328.bmp_pp86_L2_V1.0_veridical_freeview_isoTrue_fps144.mp4",""
"","","","call-function","138","529293","0.0-138.0","cvg0wyka","","","","","","","",""
"5234.400000000023","{""judgement"":1}","[0]","survey-likert","139","534528","0.0-139.0","cvg0wyka","","","","","","","","1"
"2091.149999999907","{""confidence"":0}","[0]","survey-likert","140","536620","0.0-140.0","cvg0wyka","","","","","","","",""
"","","","call-function","141","536621","0.0-141.0","cvg0wyka","","","","","","","",""
"null","","","html-keyboard-response","142","538122","0.0-142.0","cvg0wyka","","<span style=""color:Black; font-size:50px;"">Agent A","null","","","","",""
"null","","","video-keyboard-response","143","541204","0.0-143.0","cvg0wyka","","","null","","Agent A","scrambled","STIM_SET_5/1592289.bmp_pp92_L3_V1.0_veridical_freeview_isoTrue_Hflip_fps144.mp4",""
"null","","","html-keyboard-response","144","542709","0.0-144.0","cvg0wyka","","<span style=""color:Black; font-size:50px;"">Agent B","null","","","","",""
"null","","","video-keyboard-response","145","545806","0.0-145.0","cvg0wyka","","","null","","Agent B","veridical","STIM_SET_2_144/1592289.bmp_pp92_L3_V1.0_veridical_freeview_isoTrue_fps144.mp4",""
"","","","call-function","146","545806","0.0-146.0","cvg0wyka","","","","","","","",""
"2420.5749999999534","{""judgement"":1}","[0]","survey-likert","147","548227","0.0-147.0","cvg0wyka","","","","","","","","1"
"3313.42499999993","{""confidence"":1}","[0]","survey-likert","148","551542","0.0-148.0","cvg0wyka","","","","","","","",""
"","","","call-function","149","551542","0.0-149.0","cvg0wyka","","","","","","","",""
"null","","","html-keyboard-response","150","553045","0.0-150.0","cvg0wyka","","<span style=""color:Black; font-size:50px;"">Agent A","null","","","","",""
"null","","","video-keyboard-response","151","556127","0.0-151.0","cvg0wyka","","","null","","Agent A","scrambled","STIM_SET_5/1159427.bmp_pp98_L1_V1.0_veridical_freeview_isoTrue_Hflip_fps144.mp4",""
"null","","","html-keyboard-response","152","557633","0.0-152.0","cvg0wyka","","<span style=""color:Black; font-size:50px;"">Agent B","null","","","","",""
"null","","","video-keyboard-response","153","560696","0.0-153.0","cvg0wyka","","","null","","Agent B","veridical","STIM_SET_2_144/1159427.bmp_pp98_L1_V1.0_veridical_freeview_isoTrue_fps144.mp4",""
"","","","call-function","154","560698","0.0-154.0","cvg0wyka","","","","","","","",""
"2500.555000000051","{""judgement"":1}","[0]","survey-likert","155","563199","0.0-155.0","cvg0wyka","","","","","","","","1"
"1374.9199999999255","{""confidence"":0}","[0]","survey-likert","156","564576","0.0-156.0","cvg0wyka","","","","","","","",""
"","","","call-function","157","564577","0.0-157.0","cvg0wyka","","","","","","","",""
"null","","","html-keyboard-response","158","566081","0.0-158.0","cvg0wyka","","<span style=""color:Black; font-size:50px;"">Agent A","null","","","","",""
"null","","","video-keyboard-response","159","569176","0.0-159.0","cvg0wyka","","","null","","Agent A","scrambled","STIM_SET_5/713790.bmp_pp100_L3_V1_veridical_freeview_isoTrue_Hflip_fps144.mp4",""
"null","","","html-keyboard-response","160","570682","0.0-160.0","cvg0wyka","","<span style=""color:Black; font-size:50px;"">Agent B","null","","","","",""
"null","","","video-keyboard-response","161","573769","0.0-161.0","cvg0wyka","","","null","","Agent B","veridical","STIM_SET_2_144/713790.bmp_pp100_L3_V1_veridical_freeview_isoTrue_fps144.mp4",""
"","","","call-function","162","573769","0.0-162.0","cvg0wyka","","","","","","","",""
"2024.8649999999907","{""judgement"":1}","[0]","survey-likert","163","575795","0.0-163.0","cvg0wyka","","","","","","","","1"
"2376.6999999999534","{""confidence"":0}","[0]","survey-likert","164","578173","0.0-164.0","cvg0wyka","","","","","","","",""
"","","","call-function","165","578173","0.0-165.0","cvg0wyka","","","","","","","",""
"null","","","html-keyboard-response","166","579675","0.0-166.0","cvg0wyka","","<span style=""color:Black; font-size:50px;"">Agent A","null","","","","",""
"null","","","video-keyboard-response","167","582755","0.0-167.0","cvg0wyka","","","null","","Agent A","veridical","STIM_SET_2_144/498398.bmp_pp81_L1_V1.0_veridical_freeview_isoTrue_fps144.mp4",""
"null","","","html-keyboard-response","168","584260","0.0-168.0","cvg0wyka","","<span style=""color:Black; font-size:50px;"">Agent B","null","","","","",""
"null","","","video-keyboard-response","169","587338","0.0-169.0","cvg0wyka","","","null","","Agent B","scrambled","STIM_SET_5/498398.bmp_pp81_L1_V1.0_veridical_freeview_isoTrue_Hflip_fps144.mp4",""
"","","","call-function","170","587339","0.0-170.0","cvg0wyka","","","","","","","",""
"1955","{""judgement"":1}","[0]","survey-likert","171","589295","0.0-171.0","cvg0wyka","","","","","","","","0"
"1697.545000000042","{""confidence"":0}","[0]","survey-likert","172","590994","0.0-172.0","cvg0wyka","","","","","","","",""
"6099.589999999967","","","instructions","173","597094","0.0-173.0","cvg0wyka","[{""page_index"":0,""viewing_time"":1392.094999999972},{""page_index"":1,""viewing_time"":3366.935000000056},{""page_index"":2,""viewing_time"":1340.3950000000186}]","","","","","","",""
"6599.224999999977","","","instructions","174","603694","0.0-174.0","cvg0wyka","[{""page_index"":0,""viewing_time"":4121.025000000023},{""page_index"":1,""viewing_time"":1514.0100000000093},{""page_index"":2,""viewing_time"":963.9449999999488}]","","","","","","",""
"","","","call-function","175","603694","0.0-175.0","cvg0wyka","","","","","","","",""
"null","","","html-keyboard-response","176","605200","0.0-176.0","cvg0wyka","","<span style=""color:Black; font-size:50px;"">Agent A","null","","","","",""
"null","","","video-keyboard-response","177","608337","0.0-177.0","cvg0wyka","","","null","","Agent A","scrambled","STIM_SET_5/713858.bmp_pp57_L1_V1.0_veridical_freeview_isoTrue_Hflip_fps144.mp4",""
"null","","","html-keyboard-response","178","609843","0.0-178.0","cvg0wyka","","<span style=""color:Black; font-size:50px;"">Agent B","null","","","","",""
"null","","","video-keyboard-response","179","612944","0.0-179.0","cvg0wyka","","","null","","Agent B","veridical","STIM_SET_2_144/713858.bmp_pp57_L1_V1.0_veridical_freeview_isoTrue_fps144.mp4",""
"","","","call-function","180","612944","0.0-180.0","cvg0wyka","","","","","","","",""
"1882.170000000042","{""judgement"":1}","[0]","survey-likert","181","614827","0.0-181.0","cvg0wyka","","","","","","","","1"
"1326.7249999999767","{""confidence"":0}","[0]","survey-likert","182","616155","0.0-182.0","cvg0wyka","","","","","","","",""
"","","","call-function","183","616155","0.0-183.0","cvg0wyka","","","","","","","",""
"null","","","html-keyboard-response","184","617659","0.0-184.0","cvg0wyka","","<span style=""color:Black; font-size:50px;"">Agent A","null","","","","",""
"null","","","video-keyboard-response","185","620763","0.0-185.0","cvg0wyka","","","null","","Agent A","scrambled","STIM_SET_5/498396.bmp_pp99_L2_V1.0_veridical_freeview_isoTrue_Hflip_fps144.mp4",""
"null","","","html-keyboard-response","186","622266","0.0-186.0","cvg0wyka","","<span style=""color:Black; font-size:50px;"">Agent B","null","","","","",""
"null","","","video-keyboard-response","187","625361","0.0-187.0","cvg0wyka","","","null","","Agent B","veridical","STIM_SET_2_144/498396.bmp_pp99_L2_V1.0_veridical_freeview_isoTrue_fps144.mp4",""
"","","","call-function","188","625362","0.0-188.0","cvg0wyka","","","","","","","",""
"1773.5849999999627","{""judgement"":0}","[0]","survey-likert","189","627136","0.0-189.0","cvg0wyka","","","","","","","","1"
"1640.530000000028","{""confidence"":0}","[0]","survey-likert","190","628778","0.0-190.0","cvg0wyka","","","","","","","",""
"","","","call-function","191","628778","0.0-191.0","cvg0wyka","","","","","","","",""
"null","","","html-keyboard-response","192","630279","0.0-192.0","cvg0wyka","","<span style=""color:Black; font-size:50px;"">Agent A","null","","","","",""
"null","","","video-keyboard-response","193","633345","0.0-193.0","cvg0wyka","","","null","","Agent A","scrambled","STIM_SET_5/1592567.bmp_pp70_L2_V1.0_veridical_freeview_isoTrue_Hflip_fps144.mp4",""
"null","","","html-keyboard-response","194","634847","0.0-194.0","cvg0wyka","","<span style=""color:Black; font-size:50px;"">Agent B","null","","","","",""
"null","","","video-keyboard-response","195","637916","0.0-195.0","cvg0wyka","","","null","","Agent B","veridical","STIM_SET_2_144/1592567.bmp_pp70_L2_V1.0_veridical_freeview_isoTrue_fps144.mp4",""
"","","","call-function","196","637917","0.0-196.0","cvg0wyka","","","","","","","",""
"3190.344999999972","{""judgement"":1}","[0]","survey-likert","197","641108","0.0-197.0","cvg0wyka","","","","","","","","1"
"1956.6850000000559","{""confidence"":0}","[0]","survey-likert","198","643066","0.0-198.0","cvg0wyka","","","","","","","",""
"","","","call-function","199","643066","0.0-199.0","cvg0wyka","","","","","","","",""
"null","","","html-keyboard-response","200","644567","0.0-200.0","cvg0wyka","","<span style=""color:Black; font-size:50px;"">Agent A","null","","","","",""
"null","","","video-keyboard-response","201","647660","0.0-201.0","cvg0wyka","","","null","","Agent A","scrambled","STIM_SET_5/107909.bmp_pp95_L2_V1.0_veridical_freeview_isoTrue_Hflip_fps144.mp4",""
"null","","","html-keyboard-response","202","649164","0.0-202.0","cvg0wyka","","<span style=""color:Black; font-size:50px;"">Agent B","null","","","","",""
"null","","","video-keyboard-response","203","652260","0.0-203.0","cvg0wyka","","","null","","Agent B","veridical","STIM_SET_2_144/107909.bmp_pp95_L2_V1.0_veridical_freeview_isoTrue_fps144.mp4",""
"","","","call-function","204","652260","0.0-204.0","cvg0wyka","","","","","","","",""
"1684.7149999999674","{""judgement"":1}","[0]","survey-likert","205","653946","0.0-205.0","cvg0wyka","","","","","","","","1"
"2053.3850000000093","{""confidence"":1}","[0]","survey-likert","206","656000","0.0-206.0","cvg0wyka","","","","","","","",""
"","","","call-function","207","656000","0.0-207.0","cvg0wyka","","","","","","","",""
"null","","","html-keyboard-response","208","657503","0.0-208.0","cvg0wyka","","<span style=""color:Black; font-size:50px;"">Agent A","null","","","","",""
"null","","","video-keyboard-response","209","660594","0.0-209.0","cvg0wyka","","","null","","Agent A","scrambled","STIM_SET_5/498372.bmp_pp95_L2_V1_veridical_freeview_isoTrue_Hflip_fps144.mp4",""
"null","","","html-keyboard-response","210","662100","0.0-210.0","cvg0wyka","","<span style=""color:Black; font-size:50px;"">Agent B","null","","","","",""
"null","","","video-keyboard-response","211","665253","0.0-211.0","cvg0wyka","","","null","","Agent B","veridical","STIM_SET_2_144/498372.bmp_pp95_L2_V1_veridical_freeview_isoTrue_fps144.mp4",""
"","","","call-function","212","665253","0.0-212.0","cvg0wyka","","","","","","","",""
"2106.5","{""judgement"":0}","[0]","survey-likert","213","667361","0.0-213.0","cvg0wyka","","","","","","","","1"
"1981.094999999972","{""confidence"":0}","[0]","survey-likert","214","669343","0.0-214.0","cvg0wyka","","","","","","","",""
"","","","call-function","215","669343","0.0-215.0","cvg0wyka","","","","","","","",""
"null","","","html-keyboard-response","216","670850","0.0-216.0","cvg0wyka","","<span style=""color:Black; font-size:50px;"">Agent A","null","","","","",""
"null","","","video-keyboard-response","217","673958","0.0-217.0","cvg0wyka","","","null","","Agent A","veridical","STIM_SET_2_144/713381.bmp_pp82_L2_V1.0_veridical_freeview_isoTrue_fps144.mp4",""
"null","","","html-keyboard-response","218","675462","0.0-218.0","cvg0wyka","","<span style=""color:Black; font-size:50px;"">Agent B","null","","","","",""
"null","","","video-keyboard-response","219","678558","0.0-219.0","cvg0wyka","","","null","","Agent B","scrambled","STIM_SET_5/713381.bmp_pp82_L2_V1.0_veridical_freeview_isoTrue_Hflip_fps144.mp4",""
"","","","call-function","220","678559","0.0-220.0","cvg0wyka","","","","","","","",""
"2637.679999999935","{""judgement"":0}","[0]","survey-likert","221","681198","0.0-221.0","cvg0wyka","","","","","","","","0"
"3613.2449999999953","{""confidence"":0}","[0]","survey-likert","222","684813","0.0-222.0","cvg0wyka","","","","","","","",""
"","","","call-function","223","684814","0.0-223.0","cvg0wyka","","","","","","","",""
"null","","","html-keyboard-response","224","686320","0.0-224.0","cvg0wyka","","<span style=""color:Black; font-size:50px;"">Agent A","null","","","","",""
"null","","","video-keyboard-response","225","689407","0.0-225.0","cvg0wyka","","","null","","Agent A","veridical","STIM_SET_2_144/285959.bmp_pp93_L1_V1.0_veridical_freeview_isoTrue_fps144.mp4",""
"null","","","html-keyboard-response","226","690912","0.0-226.0","cvg0wyka","","<span style=""color:Black; font-size:50px;"">Agent B","null","","","","",""
"null","","","video-keyboard-response","227","694009","0.0-227.0","cvg0wyka","","","null","","Agent B","scrambled","STIM_SET_5/285959.bmp_pp93_L1_V1.0_veridical_freeview_isoTrue_Hflip_fps144.mp4",""
"","","","call-function","228","694010","0.0-228.0","cvg0wyka","","","","","","","",""
"2667.640000000014","{""judgement"":0}","[0]","survey-likert","229","696679","0.0-229.0","cvg0wyka","","","","","","","","0"
"1446.109999999986","{""confidence"":0}","[0]","survey-likert","230","698126","0.0-230.0","cvg0wyka","","","","","","","",""
"","","","call-function","231","698127","0.0-231.0","cvg0wyka","","","","","","","",""
"null","","","html-keyboard-response","232","699633","0.0-232.0","cvg0wyka","","<span style=""color:Black; font-size:50px;"">Agent A","null","","","","",""
"null","","","video-keyboard-response","233","702814","0.0-233.0","cvg0wyka","","","null","","Agent A","veridical","STIM_SET_2_144/285715.bmp_pp67_L2_V1.0_veridical_freeview_isoTrue_fps144.mp4",""
"null","","","html-keyboard-response","234","704319","0.0-234.0","cvg0wyka","","<span style=""color:Black; font-size:50px;"">Agent B","null","","","","",""
"null","","","video-keyboard-response","235","707393","0.0-235.0","cvg0wyka","","","null","","Agent B","scrambled","STIM_SET_5/285715.bmp_pp67_L2_V1.0_veridical_freeview_isoTrue_Hflip_fps144.mp4",""
"","","","call-function","236","707393","0.0-236.0","cvg0wyka","","","","","","","",""
"2871.1399999998976","{""judgement"":1}","[0]","survey-likert","237","710265","0.0-237.0","cvg0wyka","","","","","","","","0"
"1413.2700000000186","{""confidence"":0}","[0]","survey-likert","238","711680","0.0-238.0","cvg0wyka","","","","","","","",""
"","","","call-function","239","711680","0.0-239.0","cvg0wyka","","","","","","","",""
"null","","","html-keyboard-response","240","713181","0.0-240.0","cvg0wyka","","<span style=""color:Black; font-size:50px;"">Agent A","null","","","","",""
"null","","","video-keyboard-response","241","716293","0.0-241.0","cvg0wyka","","","null","","Agent A","scrambled","STIM_SET_5/1160247.bmp_pp54_L2_V1.0_veridical_freeview_isoTrue_Hflip_fps144.mp4",""
"null","","","html-keyboard-response","242","717797","0.0-242.0","cvg0wyka","","<span style=""color:Black; font-size:50px;"">Agent B","null","","","","",""
"null","","","video-keyboard-response","243","720898","0.0-243.0","cvg0wyka","","","null","","Agent B","veridical","STIM_SET_2_144/1160247.bmp_pp54_L2_V1.0_veridical_freeview_isoTrue_fps144.mp4",""
"","","","call-function","244","720899","0.0-244.0","cvg0wyka","","","","","","","",""
"3568.29999999993","{""judgement"":0}","[0]","survey-likert","245","724468","0.0-245.0","cvg0wyka","","","","","","","","1"
"1635.3049999999348","{""confidence"":0}","[0]","survey-likert","246","726104","0.0-246.0","cvg0wyka","","","","","","","",""
"","","","call-function","247","726104","0.0-247.0","cvg0wyka","","","","","","","",""
"null","","","html-keyboard-response","248","727608","0.0-248.0","cvg0wyka","","<span style=""color:Black; font-size:50px;"">Agent A","null","","","","",""
"null","","","video-keyboard-response","249","730717","0.0-249.0","cvg0wyka","","","null","","Agent A","scrambled","STIM_SET_5/713742.bmp_pp91_L3_V1.0_veridical_freeview_isoTrue_Hflip_fps144.mp4",""
"null","","","html-keyboard-response","250","732219","0.0-250.0","cvg0wyka","","<span style=""color:Black; font-size:50px;"">Agent B","null","","","","",""
"null","","","video-keyboard-response","251","735311","0.0-251.0","cvg0wyka","","","null","","Agent B","veridical","STIM_SET_2_144/713742.bmp_pp91_L3_V1.0_veridical_freeview_isoTrue_fps144.mp4",""
"","","","call-function","252","735311","0.0-252.0","cvg0wyka","","","","","","","",""
"2474.835000000079","{""judgement"":1}","[0]","survey-likert","253","737787","0.0-253.0","cvg0wyka","","","","","","","","1"
"2190.07500000007","{""confidence"":0}","[0]","survey-likert","254","739978","0.0-254.0","cvg0wyka","","","","","","","",""
"5187.660000000033","","","instructions","255","745166","0.0-255.0","cvg0wyka","[{""page_index"":0,""viewing_time"":3057.390000000014},{""page_index"":1,""viewing_time"":1387.8649999999907},{""page_index"":2,""viewing_time"":742.2550000000047}]","","","","","","",""
"2224.7149999999674","","","instructions","256","747391","0.0-256.0","cvg0wyka","[{""page_index"":0,""viewing_time"":710.3950000000186},{""page_index"":1,""viewing_time"":722.9400000000605},{""page_index"":2,""viewing_time"":791.2699999999022}]","","","","","","",""
"","","","call-function","257","747391","0.0-257.0","cvg0wyka","","","","","","","",""
"null","","","html-keyboard-response","258","748896","0.0-258.0","cvg0wyka","","<span style=""color:Black; font-size:50px;"">Agent A","null","","","","",""
"null","","","video-keyboard-response","259","751985","0.0-259.0","cvg0wyka","","","null","","Agent A","scrambled","STIM_SET_5/1592857.bmp_pp52_L1_V1_veridical_freeview_isoTrue_Hflip_fps144.mp4",""
"null","","","html-keyboard-response","260","753492","0.0-260.0","cvg0wyka","","<span style=""color:Black; font-size:50px;"">Agent B","null","","","","",""
"null","","","video-keyboard-response","261","756578","0.0-261.0","cvg0wyka","","","null","","Agent B","veridical","STIM_SET_2_144/1592857.bmp_pp52_L1_V1_veridical_freeview_isoTrue_fps144.mp4",""
"","","","call-function","262","756579","0.0-262.0","cvg0wyka","","","","","","","",""
"2056.9100000000326","{""judgement"":1}","[0]","survey-likert","263","758636","0.0-263.0","cvg0wyka","","","","","","","","1"
"1553.2249999999767","{""confidence"":0}","[0]","survey-likert","264","760191","0.0-264.0","cvg0wyka","","","","","","","",""
"","","","call-function","265","760191","0.0-265.0","cvg0wyka","","","","","","","",""
"null","","","html-keyboard-response","266","761692","0.0-266.0","cvg0wyka","","<span style=""color:Black; font-size:50px;"">Agent A","null","","","","",""
"null","","","video-keyboard-response","267","764776","0.0-267.0","cvg0wyka","","","null","","Agent A","veridical","STIM_SET_2_144/1159329.bmp_pp61_L2_V1.0_veridical_freeview_isoTrue_fps144.mp4",""
"null","","","html-keyboard-response","268","766282","0.0-268.0","cvg0wyka","","<span style=""color:Black; font-size:50px;"">Agent B","null","","","","",""
"null","","","video-keyboard-response","269","769368","0.0-269.0","cvg0wyka","","","null","","Agent B","scrambled","STIM_SET_5/1159329.bmp_pp61_L2_V1.0_veridical_freeview_isoTrue_Hflip_fps144.mp4",""
"","","","call-function","270","769369","0.0-270.0","cvg0wyka","","","","","","","",""
"1801.3250000000698","{""judgement"":1}","[0]","survey-likert","271","771173","0.0-271.0","cvg0wyka","","","","","","","","0"
"1099.405000000028","{""confidence"":0}","[0]","survey-likert","272","772274","0.0-272.0","cvg0wyka","","","","","","","",""
"","","","call-function","273","772274","0.0-273.0","cvg0wyka","","","","","","","",""
"null","","","html-keyboard-response","274","773776","0.0-274.0","cvg0wyka","","<span style=""color:Black; font-size:50px;"">Agent A","null","","","","",""
"null","","","video-keyboard-response","275","776854","0.0-275.0","cvg0wyka","","","null","","Agent A","veridical","STIM_SET_2_144/1592038.bmp_pp79_L2_V1.0_veridical_freeview_isoTrue_fps144.mp4",""
"null","","","html-keyboard-response","276","778360","0.0-276.0","cvg0wyka","","<span style=""color:Black; font-size:50px;"">Agent B","null","","","","",""
"null","","","video-keyboard-response","277","781454","0.0-277.0","cvg0wyka","","","null","","Agent B","scrambled","STIM_SET_5/1592038.bmp_pp79_L2_V1.0_veridical_freeview_isoTrue_Hflip_fps144.mp4",""
"","","","call-function","278","781455","0.0-278.0","cvg0wyka","","","","","","","",""
"1868.9300000000512","{""judgement"":1}","[0]","survey-likert","279","783325","0.0-279.0","cvg0wyka","","","","","","","","0"
"1329.3800000000047","{""confidence"":0}","[0]","survey-likert","280","784655","0.0-280.0","cvg0wyka","","","","","","","",""
"","","","call-function","281","784656","0.0-281.0","cvg0wyka","","","","","","","",""
"null","","","html-keyboard-response","282","786163","0.0-282.0","cvg0wyka","","<span style=""color:Black; font-size:50px;"">Agent A","null","","","","",""
"null","","","video-keyboard-response","283","789252","0.0-283.0","cvg0wyka","","","null","","Agent A","scrambled","STIM_SET_5/1591781.bmp_pp63_L1_V1.0_veridical_freeview_isoTrue_Hflip_fps144.mp4",""
"null","","","html-keyboard-response","284","790757","0.0-284.0","cvg0wyka","","<span style=""color:Black; font-size:50px;"">Agent B","null","","","","",""
"null","","","video-keyboard-response","285","793841","0.0-285.0","cvg0wyka","","","null","","Agent B","veridical","STIM_SET_2_144/1591781.bmp_pp63_L1_V1.0_veridical_freeview_isoTrue_fps144.mp4",""
"","","","call-function","286","793842","0.0-286.0","cvg0wyka","","","","","","","",""
"15724.294999999925","{""judgement"":0}","[0]","survey-likert","287","809567","0.0-287.0","cvg0wyka","","","","","","","","1"
"2178.859999999986","{""confidence"":0}","[0]","survey-likert","288","811747","0.0-288.0","cvg0wyka","","","","","","","",""
"","","","call-function","289","811748","0.0-289.0","cvg0wyka","","","","","","","",""
"null","","","html-keyboard-response","290","813253","0.0-290.0","cvg0wyka","","<span style=""color:Black; font-size:50px;"">Agent A","null","","","","",""
"null","","","video-keyboard-response","291","816360","0.0-291.0","cvg0wyka","","","null","","Agent A","scrambled","STIM_SET_5/713920.bmp_pp76_L1_V1.0_veridical_freeview_isoTrue_Hflip_fps144.mp4",""
"null","","","html-keyboard-response","292","817863","0.0-292.0","cvg0wyka","","<span style=""color:Black; font-size:50px;"">Agent B","null","","","","",""
"null","","","video-keyboard-response","293","820953","0.0-293.0","cvg0wyka","","","null","","Agent B","veridical","STIM_SET_2_144/713920.bmp_pp76_L1_V1.0_veridical_freeview_isoTrue_fps144.mp4",""
"","","","call-function","294","820954","0.0-294.0","cvg0wyka","","","","","","","",""
"2264.5050000000047","{""judgement"":0}","[0]","survey-likert","295","823219","0.0-295.0","cvg0wyka","","","","","","","","1"
"1303.4449999999488","{""confidence"":0}","[0]","survey-likert","296","824523","0.0-296.0","cvg0wyka","","","","","","","",""
"","","","call-function","297","824524","0.0-297.0","cvg0wyka","","","","","","","",""
"null","","","html-keyboard-response","298","826027","0.0-298.0","cvg0wyka","","<span style=""color:Black; font-size:50px;"">Agent A","null","","","","",""
"null","","","video-keyboard-response","299","829129","0.0-299.0","cvg0wyka","","","null","","Agent A","veridical","STIM_SET_2_144/1592530.bmp_pp75_L1_V1.0_veridical_freeview_isoTrue_fps144.mp4",""
"null","","","html-keyboard-response","300","830633","0.0-300.0","cvg0wyka","","<span style=""color:Black; font-size:50px;"">Agent B","null","","","","",""
"null","","","video-keyboard-response","301","833732","0.0-301.0","cvg0wyka","","","null","","Agent B","scrambled","STIM_SET_5/1592530.bmp_pp75_L1_V1.0_veridical_freeview_isoTrue_Hflip_fps144.mp4",""
"","","","call-function","302","833732","0.0-302.0","cvg0wyka","","","","","","","",""
"3560.7099999999627","{""judgement"":1}","[0]","survey-likert","303","837294","0.0-303.0","cvg0wyka","","","","","","","","0"
"2174.4799999999814","{""confidence"":0}","[0]","survey-likert","304","839469","0.0-304.0","cvg0wyka","","","","","","","",""
"","","","call-function","305","839470","0.0-305.0","cvg0wyka","","","","","","","",""
"null","","","html-keyboard-response","306","840974","0.0-306.0","cvg0wyka","","<span style=""color:Black; font-size:50px;"">Agent A","null","","","","",""
"null","","","video-keyboard-response","307","844053","0.0-307.0","cvg0wyka","","","null","","Agent A","scrambled","STIM_SET_5/1592150.bmp_pp77_L3_V1.0_veridical_freeview_isoTrue_Hflip_fps144.mp4",""
"null","","","html-keyboard-response","308","845557","0.0-308.0","cvg0wyka","","<span style=""color:Black; font-size:50px;"">Agent B","null","","","","",""
"null","","","video-keyboard-response","309","848646","0.0-309.0","cvg0wyka","","","null","","Agent B","veridical","STIM_SET_2_144/1592150.bmp_pp77_L3_V1.0_veridical_freeview_isoTrue_fps144.mp4",""
"","","","call-function","310","848646","0.0-310.0","cvg0wyka","","","","","","","",""
"2611.1650000000373","{""judgement"":0}","[0]","survey-likert","311","851258","0.0-311.0","cvg0wyka","","","","","","","","1"
"1509.4350000000559","{""confidence"":0}","[0]","survey-likert","312","852769","0.0-312.0","cvg0wyka","","","","","","","",""
"","","","call-function","313","852769","0.0-313.0","cvg0wyka","","","","","","","",""
"null","","","html-keyboard-response","314","854271","0.0-314.0","cvg0wyka","","<span style=""color:Black; font-size:50px;"">Agent A","null","","","","",""
"null","","","video-keyboard-response","315","857334","0.0-315.0","cvg0wyka","","","null","","Agent A","scrambled","STIM_SET_5/1592129.bmp_pp153_L3_V1.0_veridical_freeview_isoTrue_Hflip_fps144.mp4",""
"null","","","html-keyboard-response","316","858840","0.0-316.0","cvg0wyka","","<span style=""color:Black; font-size:50px;"">Agent B","null","","","","",""
"null","","","video-keyboard-response","317","861910","0.0-317.0","cvg0wyka","","","null","","Agent B","veridical","STIM_SET_2_144/1592129.bmp_pp153_L3_V1.0_veridical_freeview_isoTrue_fps144.mp4",""
"","","","call-function","318","861911","0.0-318.0","cvg0wyka","","","","","","","",""
"4265.589999999967","{""judgement"":0}","[0]","survey-likert","319","866177","0.0-319.0","cvg0wyka","","","","","","","","1"
"2882.030000000028","{""confidence"":0}","[0]","survey-likert","320","869060","0.0-320.0","cvg0wyka","","","","","","","",""
"","","","call-function","321","869060","0.0-321.0","cvg0wyka","","","","","","","",""
"null","","","html-keyboard-response","322","870563","0.0-322.0","cvg0wyka","","<span style=""color:Black; font-size:50px;"">Agent A","null","","","","",""
"null","","","video-keyboard-response","323","873669","0.0-323.0","cvg0wyka","","","null","","Agent A","scrambled","STIM_SET_5/1592298.bmp_pp56_L3_V1.0_veridical_freeview_isoTrue_Hflip_fps144.mp4",""
"null","","","html-keyboard-response","324","875174","0.0-324.0","cvg0wyka","","<span style=""color:Black; font-size:50px;"">Agent B","null","","","","",""
"null","","","video-keyboard-response","325","878261","0.0-325.0","cvg0wyka","","","null","","Agent B","veridical","STIM_SET_2_144/1592298.bmp_pp56_L3_V1.0_veridical_freeview_isoTrue_fps144.mp4",""
"","","","call-function","326","878261","0.0-326.0","cvg0wyka","","","","","","","",""
"1933.9749999999767","{""judgement"":0}","[0]","survey-likert","327","880196","0.0-327.0","cvg0wyka","","","","","","","","1"
"1452.859999999986","{""confidence"":0}","[0]","survey-likert","328","881650","0.0-328.0","cvg0wyka","","","","","","","",""
"","","","call-function","329","881651","0.0-329.0","cvg0wyka","","","","","","","",""
"null","","","html-keyboard-response","330","883154","0.0-330.0","cvg0wyka","","<span style=""color:Black; font-size:50px;"">Agent A","null","","","","",""
"null","","","video-keyboard-response","331","886256","0.0-331.0","cvg0wyka","","","null","","Agent A","veridical","STIM_SET_2_144/1592168.bmp_pp71_L1_V1.0_veridical_freeview_isoTrue_fps144.mp4",""
"null","","","html-keyboard-response","332","887760","0.0-332.0","cvg0wyka","","<span style=""color:Black; font-size:50px;"">Agent B","null","","","","",""
"null","","","video-keyboard-response","333","890841","0.0-333.0","cvg0wyka","","","null","","Agent B","scrambled","STIM_SET_5/1592168.bmp_pp71_L1_V1.0_veridical_freeview_isoTrue_Hflip_fps144.mp4",""
"","","","call-function","334","890842","0.0-334.0","cvg0wyka","","","","","","","",""
"2160.4899999999907","{""judgement"":1}","[0]","survey-likert","335","893004","0.0-335.0","cvg0wyka","","","","","","","","0"
"3893.9499999999534","{""confidence"":0}","[0]","survey-likert","336","896900","0.0-336.0","cvg0wyka","","","","","","","",""
"5283.944999999949","","","instructions","337","902184","0.0-337.0","cvg0wyka","[{""page_index"":0,""viewing_time"":2016.375},{""page_index"":1,""viewing_time"":2657.179999999935},{""page_index"":2,""viewing_time"":610.2350000001024}]","","","","","","",""
"2040.4300000000512","","","instructions","338","904225","0.0-338.0","cvg0wyka","[{""page_index"":0,""viewing_time"":714.8299999999581},{""page_index"":1,""viewing_time"":596.1450000000186},{""page_index"":2,""viewing_time"":729.3399999999674}]","","","","","","",""
"","","","call-function","339","904226","0.0-339.0","cvg0wyka","","","","","","","",""
"null","","","html-keyboard-response","340","905730","0.0-340.0","cvg0wyka","","<span style=""color:Black; font-size:50px;"">Agent A","null","","","","",""
"null","","","video-keyboard-response","341","908810","0.0-341.0","cvg0wyka","","","null","","Agent A","veridical","STIM_SET_2_144/498326.bmp_pp57_L1_V1.0_veridical_freeview_isoTrue_fps144.mp4",""
"null","","","html-keyboard-response","342","910317","0.0-342.0","cvg0wyka","","<span style=""color:Black; font-size:50px;"">Agent B","null","","","","",""
"null","","","video-keyboard-response","343","913395","0.0-343.0","cvg0wyka","","","null","","Agent B","scrambled","STIM_SET_5/498326.bmp_pp57_L1_V1.0_veridical_freeview_isoTrue_Hflip_fps144.mp4",""
"","","","call-function","344","913395","0.0-344.0","cvg0wyka","","","","","","","",""
"2206.7900000000373","{""judgement"":1}","[0]","survey-likert","345","915603","0.0-345.0","cvg0wyka","","","","","","","","0"
"1465.5549999999348","{""confidence"":0}","[0]","survey-likert","346","917070","0.0-346.0","cvg0wyka","","","","","","","",""
"","","","call-function","347","917071","0.0-347.0","cvg0wyka","","","","","","","",""
"null","","","html-keyboard-response","348","918574","0.0-348.0","cvg0wyka","","<span style=""color:Black; font-size:50px;"">Agent A","null","","","","",""
"null","","","video-keyboard-response","349","921654","0.0-349.0","cvg0wyka","","","null","","Agent A","veridical","STIM_SET_2_144/1592747.bmp_pp53_L2_V1.0_veridical_freeview_isoTrue_fps144.mp4",""
"null","","","html-keyboard-response","350","923156","0.0-350.0","cvg0wyka","","<span style=""color:Black; font-size:50px;"">Agent B","null","","","","",""
"null","","","video-keyboard-response","351","926239","0.0-351.0","cvg0wyka","","","null","","Agent B","scrambled","STIM_SET_5/1592747.bmp_pp53_L2_V1.0_veridical_freeview_isoTrue_Hflip_fps144.mp4",""
"","","","call-function","352","926240","0.0-352.0","cvg0wyka","","","","","","","",""
"1755.5849999999627","{""judgement"":0}","[0]","survey-likert","353","927996","0.0-353.0","cvg0wyka","","","","","","","","0"
"1254.8350000000792","{""confidence"":0}","[0]","survey-likert","354","929252","0.0-354.0","cvg0wyka","","","","","","","",""
"","","","call-function","355","929252","0.0-355.0","cvg0wyka","","","","","","","",""
"null","","","html-keyboard-response","356","930754","0.0-356.0","cvg0wyka","","<span style=""color:Black; font-size:50px;"">Agent A","null","","","","",""
"null","","","video-keyboard-response","357","933851","0.0-357.0","cvg0wyka","","","null","","Agent A","veridical","STIM_SET_2_144/713652.bmp_pp89_L1_V1_veridical_freeview_isoTrue_fps144.mp4",""
"null","","","html-keyboard-response","358","935357","0.0-358.0","cvg0wyka","","<span style=""color:Black; font-size:50px;"">Agent B","null","","","","",""
"null","","","video-keyboard-response","359","938451","0.0-359.0","cvg0wyka","","","null","","Agent B","scrambled","STIM_SET_5/713652.bmp_pp89_L1_V1_veridical_freeview_isoTrue_Hflip_fps144.mp4",""
"","","","call-function","360","938452","0.0-360.0","cvg0wyka","","","","","","","",""
"3314.789999999921","{""judgement"":1}","[0]","survey-likert","361","941767","0.0-361.0","cvg0wyka","","","","","","","","0"
"1906.5699999999488","{""confidence"":0}","[0]","survey-likert","362","943675","0.0-362.0","cvg0wyka","","","","","","","",""
"","","","call-function","363","943675","0.0-363.0","cvg0wyka","","","","","","","",""
"null","","","html-keyboard-response","364","945177","0.0-364.0","cvg0wyka","","<span style=""color:Black; font-size:50px;"">Agent A","null","","","","",""
"null","","","video-keyboard-response","365","948260","0.0-365.0","cvg0wyka","","","null","","Agent A","veridical","STIM_SET_2_144/713274.bmp_pp73_L3_V1.0_veridical_freeview_isoTrue_fps144.mp4",""
"null","","","html-keyboard-response","366","949762","0.0-366.0","cvg0wyka","","<span style=""color:Black; font-size:50px;"">Agent B","null","","","","",""
"null","","","video-keyboard-response","367","952856","0.0-367.0","cvg0wyka","","","null","","Agent B","scrambled","STIM_SET_5/713274.bmp_pp73_L3_V1.0_veridical_freeview_isoTrue_Hflip_fps144.mp4",""
"","","","call-function","368","952856","0.0-368.0","cvg0wyka","","","","","","","",""
"2181.8099999999395","{""judgement"":0}","[0]","survey-likert","369","955039","0.0-369.0","cvg0wyka","","","","","","","","0"
"1626.9349999999395","{""confidence"":0}","[0]","survey-likert","370","956667","0.0-370.0","cvg0wyka","","","","","","","",""
"","","","call-function","371","956667","0.0-371.0","cvg0wyka","","","","","","","",""
"null","","","html-keyboard-response","372","958173","0.0-372.0","cvg0wyka","","<span style=""color:Black; font-size:50px;"">Agent A","null","","","","",""
"null","","","video-keyboard-response","373","961275","0.0-373.0","cvg0wyka","","","null","","Agent A","scrambled","STIM_SET_5/61513.bmp_pp75_L1_V1.0_veridical_freeview_isoTrue_Hflip_fps144.mp4",""
"null","","","html-keyboard-response","374","962779","0.0-374.0","cvg0wyka","","<span style=""color:Black; font-size:50px;"">Agent B","null","","","","",""
"null","","","video-keyboard-response","375","965872","0.0-375.0","cvg0wyka","","","null","","Agent B","veridical","STIM_SET_2_144/61513.bmp_pp75_L1_V1.0_veridical_freeview_isoTrue_fps144.mp4",""
"","","","call-function","376","965872","0.0-376.0","cvg0wyka","","","","","","","",""
"3221.9150000000373","{""judgement"":0}","[0]","survey-likert","377","969095","0.0-377.0","cvg0wyka","","","","","","","","1"
"2121.2949999999255","{""confidence"":0}","[0]","survey-likert","378","971217","0.0-378.0","cvg0wyka","","","","","","","",""
"","","","call-function","379","971218","0.0-379.0","cvg0wyka","","","","","","","",""
"null","","","html-keyboard-response","380","972724","0.0-380.0","cvg0wyka","","<span style=""color:Black; font-size:50px;"">Agent A","null","","","","",""
"null","","","video-keyboard-response","381","975795","0.0-381.0","cvg0wyka","","","null","","Agent A","scrambled","STIM_SET_5/1159973.bmp_pp98_L1_V1.0_veridical_freeview_isoTrue_Hflip_fps144.mp4",""
"null","","","html-keyboard-response","382","977300","0.0-382.0","cvg0wyka","","<span style=""color:Black; font-size:50px;"">Agent B","null","","","","",""
"null","","","video-keyboard-response","383","980381","0.0-383.0","cvg0wyka","","","null","","Agent B","veridical","STIM_SET_2_144/1159973.bmp_pp98_L1_V1.0_veridical_freeview_isoTrue_fps144.mp4",""
"","","","call-function","384","980381","0.0-384.0","cvg0wyka","","","","","","","",""
"1877.4799999999814","{""judgement"":1}","[0]","survey-likert","385","982259","0.0-385.0","cvg0wyka","","","","","","","","1"
"2751.8850000000093","{""confidence"":0}","[0]","survey-likert","386","985012","0.0-386.0","cvg0wyka","","","","","","","",""
"","","","call-function","387","985013","0.0-387.0","cvg0wyka","","","","","","","",""
"null","","","html-keyboard-response","388","986514","0.0-388.0","cvg0wyka","","<span style=""color:Black; font-size:50px;"">Agent A","null","","","","",""
"null","","","video-keyboard-response","389","989607","0.0-389.0","cvg0wyka","","","null","","Agent A","scrambled","STIM_SET_5/713633.bmp_pp58_L1_V1.0_veridical_freeview_isoTrue_Hflip_fps144.mp4",""
"null","","","html-keyboard-response","390","991112","0.0-390.0","cvg0wyka","","<span style=""color:Black; font-size:50px;"">Agent B","null","","","","",""
"null","","","video-keyboard-response","391","994205","0.0-391.0","cvg0wyka","","","null","","Agent B","veridical","STIM_SET_2_144/713633.bmp_pp58_L1_V1.0_veridical_freeview_isoTrue_fps144.mp4",""
"","","","call-function","392","994207","0.0-392.0","cvg0wyka","","","","","","","",""
"1850.5849999999627","{""judgement"":0}","[0]","survey-likert","393","996059","0.0-393.0","cvg0wyka","","","","","","","","1"
"2152.655000000028","{""confidence"":0}","[0]","survey-likert","394","998213","0.0-394.0","cvg0wyka","","","","","","","",""
"","","","call-function","395","998213","0.0-395.0","cvg0wyka","","","","","","","",""
"null","","","html-keyboard-response","396","999716","0.0-396.0","cvg0wyka","","<span style=""color:Black; font-size:50px;"">Agent A","null","","","","",""
"null","","","video-keyboard-response","397","1002784","0.0-397.0","cvg0wyka","","","null","","Agent A","veridical","STIM_SET_2_144/1591920.bmp_pp97_L3_V1_veridical_freeview_isoTrue_fps144.mp4",""
"null","","","html-keyboard-response","398","1004291","0.0-398.0","cvg0wyka","","<span style=""color:Black; font-size:50px;"">Agent B","null","","","","",""
"null","","","video-keyboard-response","399","1007359","0.0-399.0","cvg0wyka","","","null","","Agent B","scrambled","STIM_SET_5/1591920.bmp_pp97_L3_V1_veridical_freeview_isoTrue_Hflip_fps144.mp4",""
"","","","call-function","400","1007360","0.0-400.0","cvg0wyka","","","","","","","",""
"2036.5","{""judgement"":1}","[0]","survey-likert","401","1009397","0.0-401.0","cvg0wyka","","","","","","","","0"
"3176.480000000098","{""confidence"":0}","[0]","survey-likert","402","1012575","0.0-402.0","cvg0wyka","","","","","","","",""
"","","","call-function","403","1012575","0.0-403.0","cvg0wyka","","","","","","","",""
"null","","","html-keyboard-response","404","1014076","0.0-404.0","cvg0wyka","","<span style=""color:Black; font-size:50px;"">Agent A","null","","","","",""
"null","","","video-keyboard-response","405","1017164","0.0-405.0","cvg0wyka","","","null","","Agent A","scrambled","STIM_SET_5/1592568.bmp_pp71_L1_V1.0_veridical_freeview_isoTrue_Hflip_fps144.mp4",""
"null","","","html-keyboard-response","406","1018670","0.0-406.0","cvg0wyka","","<span style=""color:Black; font-size:50px;"">Agent B","null","","","","",""
"null","","","video-keyboard-response","407","1021755","0.0-407.0","cvg0wyka","","","null","","Agent B","veridical","STIM_SET_2_144/1592568.bmp_pp71_L1_V1.0_veridical_freeview_isoTrue_fps144.mp4",""
"","","","call-function","408","1021755","0.0-408.0","cvg0wyka","","","","","","","",""
"2053.015000000014","{""judgement"":1}","[0]","survey-likert","409","1023809","0.0-409.0","cvg0wyka","","","","","","","","1"
"1557.170000000042","{""confidence"":0}","[0]","survey-likert","410","1025368","0.0-410.0","cvg0wyka","","","","","","","",""
"","","","call-function","411","1025369","0.0-411.0","cvg0wyka","","","","","","","",""
"null","","","html-keyboard-response","412","1026874","0.0-412.0","cvg0wyka","","<span style=""color:Black; font-size:50px;"">Agent A","null","","","","",""
"null","","","video-keyboard-response","413","1029965","0.0-413.0","cvg0wyka","","","null","","Agent A","scrambled","STIM_SET_5/1159860.bmp_pp152_L2_V1.0_veridical_freeview_isoTrue_Hflip_fps144.mp4",""
"null","","","html-keyboard-response","414","1031470","0.0-414.0","cvg0wyka","","<span style=""color:Black; font-size:50px;"">Agent B","null","","","","",""
"null","","","video-keyboard-response","415","1034575","0.0-415.0","cvg0wyka","","","null","","Agent B","veridical","STIM_SET_2_144/1159860.bmp_pp152_L2_V1.0_veridical_freeview_isoTrue_fps144.mp4",""
"","","","call-function","416","1034575","0.0-416.0","cvg0wyka","","","","","","","",""
"2073.445000000065","{""judgement"":0}","[0]","survey-likert","417","1036650","0.0-417.0","cvg0wyka","","","","","","","","1"
"1627.4800000000978","{""confidence"":0}","[0]","survey-likert","418","1038278","0.0-418.0","cvg0wyka","","","","","","","",""
"3113.6650000000373","","","instructions","419","1041392","0.0-419.0","cvg0wyka","[{""page_index"":0,""viewing_time"":1392.2750000000233},{""page_index"":1,""viewing_time"":997.8950000000186},{""page_index"":2,""viewing_time"":723.2199999999721}]","","","","","","",""
"1779.3450000000885","","","instructions","420","1043172","0.0-420.0","cvg0wyka","[{""page_index"":0,""viewing_time"":510.4700000000885},{""page_index"":1,""viewing_time"":545.7449999999953},{""page_index"":2,""viewing_time"":723.0200000000186}]","","","","","","",""
"","","","call-function","421","1043173","0.0-421.0","cvg0wyka","","","","","","","",""
"null","","","html-keyboard-response","422","1044679","0.0-422.0","cvg0wyka","","<span style=""color:Black; font-size:50px;"">Agent A","null","","","","",""
"null","","","video-keyboard-response","423","1047763","0.0-423.0","cvg0wyka","","","null","","Agent A","veridical","STIM_SET_2_144/1159956.bmp_pp59_L3_V1.0_veridical_freeview_isoTrue_fps144.mp4",""
"null","","","html-keyboard-response","424","1049269","0.0-424.0","cvg0wyka","","<span style=""color:Black; font-size:50px;"">Agent B","null","","","","",""
"null","","","video-keyboard-response","425","1052353","0.0-425.0","cvg0wyka","","","null","","Agent B","scrambled","STIM_SET_5/1159956.bmp_pp59_L3_V1.0_veridical_freeview_isoTrue_Hflip_fps144.mp4",""
"","","","call-function","426","1052353","0.0-426.0","cvg0wyka","","","","","","","",""
"2928","{""judgement"":1}","[0]","survey-likert","427","1055282","0.0-427.0","cvg0wyka","","","","","","","","0"
"3035.8900000001304","{""confidence"":0}","[0]","survey-likert","428","1058319","0.0-428.0","cvg0wyka","","","","","","","",""
"","","","call-function","429","1058320","0.0-429.0","cvg0wyka","","","","","","","",""
"null","","","html-keyboard-response","430","1059822","0.0-430.0","cvg0wyka","","<span style=""color:Black; font-size:50px;"">Agent A","null","","","","",""
"null","","","video-keyboard-response","431","1062922","0.0-431.0","cvg0wyka","","","null","","Agent A","scrambled","STIM_SET_5/1160204.bmp_pp54_L2_V1.0_veridical_freeview_isoTrue_Hflip_fps144.mp4",""
"null","","","html-keyboard-response","432","1064424","0.0-432.0","cvg0wyka","","<span style=""color:Black; font-size:50px;"">Agent B","null","","","","",""
"null","","","video-keyboard-response","433","1067494","0.0-433.0","cvg0wyka","","","null","","Agent B","veridical","STIM_SET_2_144/1160204.bmp_pp54_L2_V1.0_veridical_freeview_isoTrue_fps144.mp4",""
"","","","call-function","434","1067494","0.0-434.0","cvg0wyka","","","","","","","",""
"2193.649999999907","{""judgement"":1}","[0]","survey-likert","435","1069689","0.0-435.0","cvg0wyka","","","","","","","","1"
"2073.1750000000466","{""confidence"":0}","[0]","survey-likert","436","1071763","0.0-436.0","cvg0wyka","","","","","","","",""
"","","","call-function","437","1071764","0.0-437.0","cvg0wyka","","","","","","","",""
"null","","","html-keyboard-response","438","1073268","0.0-438.0","cvg0wyka","","<span style=""color:Black; font-size:50px;"">Agent A","null","","","","",""
"null","","","video-keyboard-response","439","1076345","0.0-439.0","cvg0wyka","","","null","","Agent A","veridical","STIM_SET_2_144/1159874.bmp_pp96_L2_V1.0_veridical_freeview_isoTrue_fps144.mp4",""
"null","","","html-keyboard-response","440","1077849","0.0-440.0","cvg0wyka","","<span style=""color:Black; font-size:50px;"">Agent B","null","","","","",""
"null","","","video-keyboard-response","441","1080947","0.0-441.0","cvg0wyka","","","null","","Agent B","scrambled","STIM_SET_5/1159874.bmp_pp96_L2_V1.0_veridical_freeview_isoTrue_Hflip_fps144.mp4",""
"","","","call-function","442","1080947","0.0-442.0","cvg0wyka","","","","","","","",""
"1919.0500000000466","{""judgement"":0}","[0]","survey-likert","443","1082867","0.0-443.0","cvg0wyka","","","","","","","","0"
"6050.260000000009","{""confidence"":0}","[0]","survey-likert","444","1088918","0.0-444.0","cvg0wyka","","","","","","","",""
"","","","call-function","445","1088919","0.0-445.0","cvg0wyka","","","","","","","",""
"null","","","html-keyboard-response","446","1090421","0.0-446.0","cvg0wyka","","<span style=""color:Black; font-size:50px;"">Agent A","null","","","","",""
"null","","","video-keyboard-response","447","1093503","0.0-447.0","cvg0wyka","","","null","","Agent A","scrambled","STIM_SET_5/1592951.bmp_pp80_L3_V1.0_veridical_freeview_isoTrue_Hflip_fps144.mp4",""
"null","","","html-keyboard-response","448","1095010","0.0-448.0","cvg0wyka","","<span style=""color:Black; font-size:50px;"">Agent B","null","","","","",""
"null","","","video-keyboard-response","449","1098106","0.0-449.0","cvg0wyka","","","null","","Agent B","veridical","STIM_SET_2_144/1592951.bmp_pp80_L3_V1.0_veridical_freeview_isoTrue_fps144.mp4",""
"","","","call-function","450","1098106","0.0-450.0","cvg0wyka","","","","","","","",""
"1927.1350000000093","{""judgement"":0}","[0]","survey-likert","451","1100034","0.0-451.0","cvg0wyka","","","","","","","","1"
"1704.030000000028","{""confidence"":0}","[0]","survey-likert","452","1101739","0.0-452.0","cvg0wyka","","","","","","","",""
"","","","call-function","453","1101740","0.0-453.0","cvg0wyka","","","","","","","",""
"null","","","html-keyboard-response","454","1103244","0.0-454.0","cvg0wyka","","<span style=""color:Black; font-size:50px;"">Agent A","null","","","","",""
"null","","","video-keyboard-response","455","1106342","0.0-455.0","cvg0wyka","","","null","","Agent A","veridical","STIM_SET_2_144/498261.bmp_pp84_L3_V1.0_veridical_freeview_isoTrue_fps144.mp4",""
"null","","","html-keyboard-response","456","1107848","0.0-456.0","cvg0wyka","","<span style=""color:Black; font-size:50px;"">Agent B","null","","","","",""
"null","","","video-keyboard-response","457","1110960","0.0-457.0","cvg0wyka","","","null","","Agent B","scrambled","STIM_SET_5/498261.bmp_pp84_L3_V1.0_veridical_freeview_isoTrue_Hflip_fps144.mp4",""
"","","","call-function","458","1110961","0.0-458.0","cvg0wyka","","","","","","","",""
"2387.1200000001118","{""judgement"":1}","[0]","survey-likert","459","1113350","0.0-459.0","cvg0wyka","","","","","","","","0"
"2042.6650000000373","{""confidence"":0}","[0]","survey-likert","460","1115394","0.0-460.0","cvg0wyka","","","","","","","",""
"","","","call-function","461","1115395","0.0-461.0","cvg0wyka","","","","","","","",""
"null","","","html-keyboard-response","462","1116898","0.0-462.0","cvg0wyka","","<span style=""color:Black; font-size:50px;"">Agent A","null","","","","",""
"null","","","video-keyboard-response","463","1119979","0.0-463.0","cvg0wyka","","","null","","Agent A","veridical","STIM_SET_2_144/713788.bmp_pp52_L1_V1.0_veridical_freeview_isoTrue_fps144.mp4",""
"null","","","html-keyboard-response","464","1121484","0.0-464.0","cvg0wyka","","<span style=""color:Black; font-size:50px;"">Agent B","null","","","","",""
"null","","","video-keyboard-response","465","1124578","0.0-465.0","cvg0wyka","","","null","","Agent B","scrambled","STIM_SET_5/713788.bmp_pp52_L1_V1.0_veridical_freeview_isoTrue_Hflip_fps144.mp4",""
"","","","call-function","466","1124578","0.0-466.0","cvg0wyka","","","","","","","",""
"3192.560000000056","{""judgement"":1}","[0]","survey-likert","467","1127772","0.0-467.0","cvg0wyka","","","","","","","","0"
"2833.375","{""confidence"":0}","[0]","survey-likert","468","1130607","0.0-468.0","cvg0wyka","","","","","","","",""
"","","","call-function","469","1130607","0.0-469.0","cvg0wyka","","","","","","","",""
"null","","","html-keyboard-response","470","1132113","0.0-470.0","cvg0wyka","","<span style=""color:Black; font-size:50px;"">Agent A","null","","","","",""
"null","","","video-keyboard-response","471","1135265","0.0-471.0","cvg0wyka","","","null","","Agent A","veridical","STIM_SET_2_144/1159819.bmp_pp151_L1_V1.0_veridical_freeview_isoTrue_fps144.mp4",""
"null","","","html-keyboard-response","472","1136772","0.0-472.0","cvg0wyka","","<span style=""color:Black; font-size:50px;"">Agent B","null","","","","",""
"null","","","video-keyboard-response","473","1139841","0.0-473.0","cvg0wyka","","","null","","Agent B","scrambled","STIM_SET_5/1159819.bmp_pp151_L1_V1.0_veridical_freeview_isoTrue_Hflip_fps144.mp4",""
"","","","call-function","474","1139842","0.0-474.0","cvg0wyka","","","","","","","",""
"1839.7900000000373","{""judgement"":0}","[0]","survey-likert","475","1141683","0.0-475.0","cvg0wyka","","","","","","","","0"
"2390.8899999998976","{""confidence"":0}","[0]","survey-likert","476","1144075","0.0-476.0","cvg0wyka","","","","","","","",""
"","","","call-function","477","1144075","0.0-477.0","cvg0wyka","","","","","","","",""
"null","","","html-keyboard-response","478","1145576","0.0-478.0","cvg0wyka","","<span style=""color:Black; font-size:50px;"">Agent A","null","","","","",""
"null","","","video-keyboard-response","479","1148669","0.0-479.0","cvg0wyka","","","null","","Agent A","veridical","STIM_SET_2_144/1592047.bmp_pp51_L1_V1.0_veridical_freeview_isoTrue_fps144.mp4",""
"null","","","html-keyboard-response","480","1150174","0.0-480.0","cvg0wyka","","<span style=""color:Black; font-size:50px;"">Agent B","null","","","","",""
"null","","","video-keyboard-response","481","1153267","0.0-481.0","cvg0wyka","","","null","","Agent B","scrambled","STIM_SET_5/1592047.bmp_pp51_L1_V1.0_veridical_freeview_isoTrue_Hflip_fps144.mp4",""
"","","","call-function","482","1153267","0.0-482.0","cvg0wyka","","","","","","","",""
"2556.905000000028","{""judgement"":1}","[0]","survey-likert","483","1155825","0.0-483.0","cvg0wyka","","","","","","","","0"
"2227.810000000056","{""confidence"":0}","[0]","survey-likert","484","1158054","0.0-484.0","cvg0wyka","","","","","","","",""
"","","","call-function","485","1158054","0.0-485.0","cvg0wyka","","","","","","","",""
"null","","","html-keyboard-response","486","1159559","0.0-486.0","cvg0wyka","","<span style=""color:Black; font-size:50px;"">Agent A","null","","","","",""
"null","","","video-keyboard-response","487","1162645","0.0-487.0","cvg0wyka","","","null","","Agent A","veridical","STIM_SET_2_144/286034.bmp_pp69_L3_V1.0_veridical_freeview_isoTrue_fps144.mp4",""
"null","","","html-keyboard-response","488","1164148","0.0-488.0","cvg0wyka","","<span style=""color:Black; font-size:50px;"">Agent B","null","","","","",""
"null","","","video-keyboard-response","489","1167242","0.0-489.0","cvg0wyka","","","null","","Agent B","scrambled","STIM_SET_5/286034.bmp_pp69_L3_V1.0_veridical_freeview_isoTrue_Hflip_fps144.mp4",""
"","","","call-function","490","1167243","0.0-490.0","cvg0wyka","","","","","","","",""
"2155.9199999999255","{""judgement"":0}","[0]","survey-likert","491","1169399","0.0-491.0","cvg0wyka","","","","","","","","0"
"1710.994999999879","{""confidence"":0}","[0]","survey-likert","492","1171111","0.0-492.0","cvg0wyka","","","","","","","",""
"","","","call-function","493","1171112","0.0-493.0","cvg0wyka","","","","","","","",""
"null","","","html-keyboard-response","494","1172617","0.0-494.0","cvg0wyka","","<span style=""color:Black; font-size:50px;"">Agent A","null","","","","",""
"null","","","video-keyboard-response","495","1175858","0.0-495.0","cvg0wyka","","","null","","Agent A","scrambled","STIM_SET_5/1159592.bmp_pp91_L3_V1.0_veridical_freeview_isoTrue_Hflip_fps144.mp4",""
"null","","","html-keyboard-response","496","1177360","0.0-496.0","cvg0wyka","","<span style=""color:Black; font-size:50px;"">Agent B","null","","","","",""
"null","","","video-keyboard-response","497","1180466","0.0-497.0","cvg0wyka","","","null","","Agent B","veridical","STIM_SET_2_144/1159592.bmp_pp91_L3_V1.0_veridical_freeview_isoTrue_fps144.mp4",""
"","","","call-function","498","1180466","0.0-498.0","cvg0wyka","","","","","","","",""
"2933.2349999998696","{""judgement"":0}","[0]","survey-likert","499","1183400","0.0-499.0","cvg0wyka","","","","","","","","1"
"2063.814999999944","{""confidence"":0}","[0]","survey-likert","500","1185465","0.0-500.0","cvg0wyka","","","","","","","",""
"3296.030000000028","","","instructions","501","1188762","0.0-501.0","cvg0wyka","[{""page_index"":0,""viewing_time"":1943.9499999999534},{""page_index"":1,""viewing_time"":608.5},{""page_index"":2,""viewing_time"":743.3300000000745}]","","","","","","",""
"2153.0200000000186","","","instructions","502","1190915","0.0-502.0","cvg0wyka","[{""page_index"":0,""viewing_time"":675.2300000002142},{""page_index"":1,""viewing_time"":725.7249999998603},{""page_index"":2,""viewing_time"":751.9550000000745}]","","","","","","",""
"","","","call-function","503","1190916","0.0-503.0","cvg0wyka","","","","","","","",""
"null","","","html-keyboard-response","504","1192417","0.0-504.0","cvg0wyka","","<span style=""color:Black; font-size:50px;"">Agent A","null","","","","",""
"null","","","video-keyboard-response","505","1195483","0.0-505.0","cvg0wyka","","","null","","Agent A","scrambled","STIM_SET_5/285932.bmp_pp64_L1_V1.0_veridical_freeview_isoTrue_Hflip_fps144.mp4",""
"null","","","html-keyboard-response","506","1196987","0.0-506.0","cvg0wyka","","<span style=""color:Black; font-size:50px;"">Agent B","null","","","","",""
"null","","","video-keyboard-response","507","1200060","0.0-507.0","cvg0wyka","","","null","","Agent B","veridical","STIM_SET_2_144/285932.bmp_pp64_L1_V1.0_veridical_freeview_isoTrue_fps144.mp4",""
"","","","call-function","508","1200060","0.0-508.0","cvg0wyka","","","","","","","",""
"3548.774999999907","{""judgement"":1}","[0]","survey-likert","509","1203610","0.0-509.0","cvg0wyka","","","","","","","","1"
"1449.4849999998696","{""confidence"":0}","[0]","survey-likert","510","1205060","0.0-510.0","cvg0wyka","","","","","","","",""
"","","","call-function","511","1205061","0.0-511.0","cvg0wyka","","","","","","","",""
"null","","","html-keyboard-response","512","1206562","0.0-512.0","cvg0wyka","","<span style=""color:Black; font-size:50px;"">Agent A","null","","","","",""
"null","","","video-keyboard-response","513","1209644","0.0-513.0","cvg0wyka","","","null","","Agent A","scrambled","STIM_SET_5/1592314.bmp_pp100_L3_V1.0_veridical_freeview_isoTrue_Hflip_fps144.mp4",""
"null","","","html-keyboard-response","514","1211147","0.0-514.0","cvg0wyka","","<span style=""color:Black; font-size:50px;"">Agent B","null","","","","",""
"null","","","video-keyboard-response","515","1214274","0.0-515.0","cvg0wyka","","","null","","Agent B","veridical","STIM_SET_2_144/1592314.bmp_pp100_L3_V1.0_veridical_freeview_isoTrue_fps144.mp4",""
"","","","call-function","516","1214274","0.0-516.0","cvg0wyka","","","","","","","",""
"2206.475000000093","{""judgement"":1}","[0]","survey-likert","517","1216482","0.0-517.0","cvg0wyka","","","","","","","","1"
"1439.535000000149","{""confidence"":0}","[0]","survey-likert","518","1217922","0.0-518.0","cvg0wyka","","","","","","","",""
"","","","call-function","519","1217923","0.0-519.0","cvg0wyka","","","","","","","",""
"null","","","html-keyboard-response","520","1219427","0.0-520.0","cvg0wyka","","<span style=""color:Black; font-size:50px;"">Agent A","null","","","","",""
"null","","","video-keyboard-response","521","1222523","0.0-521.0","cvg0wyka","","","null","","Agent A","veridical","STIM_SET_2_144/1591975.bmp_pp88_L2_V1.0_veridical_freeview_isoTrue_fps144.mp4",""
"null","","","html-keyboard-response","522","1224025","0.0-522.0","cvg0wyka","","<span style=""color:Black; font-size:50px;"">Agent B","null","","","","",""
"null","","","video-keyboard-response","523","1227126","0.0-523.0","cvg0wyka","","","null","","Agent B","scrambled","STIM_SET_5/1591975.bmp_pp88_L2_V1.0_veridical_freeview_isoTrue_Hflip_fps144.mp4",""
"","","","call-function","524","1227127","0.0-524.0","cvg0wyka","","","","","","","",""
"1907.6099999998696","{""judgement"":0}","[0]","survey-likert","525","1229036","0.0-525.0","cvg0wyka","","","","","","","","0"
"1488.5500000000466","{""confidence"":0}","[0]","survey-likert","526","1230526","0.0-526.0","cvg0wyka","","","","","","","",""
"","","","call-function","527","1230527","0.0-527.0","cvg0wyka","","","","","","","",""
"null","","","html-keyboard-response","528","1232029","0.0-528.0","cvg0wyka","","<span style=""color:Black; font-size:50px;"">Agent A","null","","","","",""
"null","","","video-keyboard-response","529","1235115","0.0-529.0","cvg0wyka","","","null","","Agent A","scrambled","STIM_SET_5/1159325.bmp_pp67_L2_V1.0_veridical_freeview_isoTrue_Hflip_fps144.mp4",""
"null","","","html-keyboard-response","530","1236618","0.0-530.0","cvg0wyka","","<span style=""color:Black; font-size:50px;"">Agent B","null","","","","",""
"null","","","video-keyboard-response","531","1239711","0.0-531.0","cvg0wyka","","","null","","Agent B","veridical","STIM_SET_2_144/1159325.bmp_pp67_L2_V1.0_veridical_freeview_isoTrue_fps144.mp4",""
"","","","call-function","532","1239712","0.0-532.0","cvg0wyka","","","","","","","",""
"3384.75","{""judgement"":0}","[0]","survey-likert","533","1243098","0.0-533.0","cvg0wyka","","","","","","","","1"
"1772.7050000000745","{""confidence"":0}","[0]","survey-likert","534","1244872","0.0-534.0","cvg0wyka","","","","","","","",""
"","","","call-function","535","1244873","0.0-535.0","cvg0wyka","","","","","","","",""
"null","","","html-keyboard-response","536","1246376","0.0-536.0","cvg0wyka","","<span style=""color:Black; font-size:50px;"">Agent A","null","","","","",""
"null","","","video-keyboard-response","537","1249461","0.0-537.0","cvg0wyka","","","null","","Agent A","scrambled","STIM_SET_5/285946.bmp_pp79_L2_V1.0_veridical_freeview_isoTrue_Hflip_fps144.mp4",""
"null","","","html-keyboard-response","538","1250966","0.0-538.0","cvg0wyka","","<span style=""color:Black; font-size:50px;"">Agent B","null","","","","",""
"null","","","video-keyboard-response","539","1254056","0.0-539.0","cvg0wyka","","","null","","Agent B","veridical","STIM_SET_2_144/285946.bmp_pp79_L2_V1.0_veridical_freeview_isoTrue_fps144.mp4",""
"","","","call-function","540","1254056","0.0-540.0","cvg0wyka","","","","","","","",""
"1873.255000000121","{""judgement"":1}","[0]","survey-likert","541","1255931","0.0-541.0","cvg0wyka","","","","","","","","1"
"2226.1500000001397","{""confidence"":0}","[0]","survey-likert","542","1258158","0.0-542.0","cvg0wyka","","","","","","","",""
"","","","call-function","543","1258158","0.0-543.0","cvg0wyka","","","","","","","",""
"null","","","html-keyboard-response","544","1259661","0.0-544.0","cvg0wyka","","<span style=""color:Black; font-size:50px;"">Agent A","null","","","","",""
"null","","","video-keyboard-response","545","1262747","0.0-545.0","cvg0wyka","","","null","","Agent A","veridical","STIM_SET_2_144/1592350.bmp_pp55_L3_V1.0_veridical_freeview_isoTrue_fps144.mp4",""
"null","","","html-keyboard-response","546","1264250","0.0-546.0","cvg0wyka","","<span style=""color:Black; font-size:50px;"">Agent B","null","","","","",""
"null","","","video-keyboard-response","547","1267365","0.0-547.0","cvg0wyka","","","null","","Agent B","scrambled","STIM_SET_5/1592350.bmp_pp55_L3_V1.0_veridical_freeview_isoTrue_Hflip_fps144.mp4",""
"","","","call-function","548","1267365","0.0-548.0","cvg0wyka","","","","","","","",""
"2448.25","{""judgement"":0}","[0]","survey-likert","549","1269815","0.0-549.0","cvg0wyka","","","","","","","","0"
"3003.090000000084","{""confidence"":0}","[0]","survey-likert","550","1272819","0.0-550.0","cvg0wyka","","","","","","","",""
"","","","call-function","551","1272820","0.0-551.0","cvg0wyka","","","","","","","",""
"null","","","html-keyboard-response","552","1274325","0.0-552.0","cvg0wyka","","<span style=""color:Black; font-size:50px;"">Agent A","null","","","","",""
"null","","","video-keyboard-response","553","1277416","0.0-553.0","cvg0wyka","","","null","","Agent A","veridical","STIM_SET_2_144/1160049.bmp_pp53_L2_V1.0_veridical_freeview_isoTrue_fps144.mp4",""
"null","","","html-keyboard-response","554","1278923","0.0-554.0","cvg0wyka","","<span style=""color:Black; font-size:50px;"">Agent B","null","","","","",""
"null","","","video-keyboard-response","555","1282000","0.0-555.0","cvg0wyka","","","null","","Agent B","scrambled","STIM_SET_5/1160049.bmp_pp53_L2_V1.0_veridical_freeview_isoTrue_Hflip_fps144.mp4",""
"","","","call-function","556","1282000","0.0-556.0","cvg0wyka","","","","","","","",""
"1811.6049999999814","{""judgement"":1}","[0]","survey-likert","557","1283813","0.0-557.0","cvg0wyka","","","","","","","","0"
"1590.190000000177","{""confidence"":0}","[0]","survey-likert","558","1285404","0.0-558.0","cvg0wyka","","","","","","","",""
"","","","call-function","559","1285404","0.0-559.0","cvg0wyka","","","","","","","",""
"null","","","html-keyboard-response","560","1286910","0.0-560.0","cvg0wyka","","<span style=""color:Black; font-size:50px;"">Agent A","null","","","","",""
"null","","","video-keyboard-response","561","1289992","0.0-561.0","cvg0wyka","","","null","","Agent A","veridical","STIM_SET_2_144/713829.bmp_pp60_L3_V1.0_veridical_freeview_isoTrue_fps144.mp4",""
"null","","","html-keyboard-response","562","1291496","0.0-562.0","cvg0wyka","","<span style=""color:Black; font-size:50px;"">Agent B","null","","","","",""
"null","","","video-keyboard-response","563","1294589","0.0-563.0","cvg0wyka","","","null","","Agent B","scrambled","STIM_SET_5/713829.bmp_pp60_L3_V1.0_veridical_freeview_isoTrue_Hflip_fps144.mp4",""
"","","","call-function","564","1294590","0.0-564.0","cvg0wyka","","","","","","","",""
"2054.0100000000093","{""judgement"":0}","[0]","survey-likert","565","1296645","0.0-565.0","cvg0wyka","","","","","","","","0"
"1699.9299999999348","{""confidence"":0}","[0]","survey-likert","566","1298346","0.0-566.0","cvg0wyka","","","","","","","",""
"","","","call-function","567","1298346","0.0-567.0","cvg0wyka","","","","","","","",""
"null","","","html-keyboard-response","568","1299848","0.0-568.0","cvg0wyka","","<span style=""color:Black; font-size:50px;"">Agent A","null","","","","",""
"null","","","video-keyboard-response","569","1302922","0.0-569.0","cvg0wyka","","","null","","Agent A","veridical","STIM_SET_2_144/1592305.bmp_pp65_L3_V1.0_veridical_freeview_isoTrue_fps144.mp4",""
"null","","","html-keyboard-response","570","1304429","0.0-570.0","cvg0wyka","","<span style=""color:Black; font-size:50px;"">Agent B","null","","","","",""
"null","","","video-keyboard-response","571","1307523","0.0-571.0","cvg0wyka","","","null","","Agent B","scrambled","STIM_SET_5/1592305.bmp_pp65_L3_V1.0_veridical_freeview_isoTrue_Hflip_fps144.mp4",""
"","","","call-function","572","1307524","0.0-572.0","cvg0wyka","","","","","","","",""
"2022.280000000028","{""judgement"":0}","[0]","survey-likert","573","1309547","0.0-573.0","cvg0wyka","","","","","","","","0"
"2607.155000000028","{""confidence"":0}","[0]","survey-likert","574","1312155","0.0-574.0","cvg0wyka","","","","","","","",""
"","","","call-function","575","1312156","0.0-575.0","cvg0wyka","","","","","","","",""
"null","","","html-keyboard-response","576","1313658","0.0-576.0","cvg0wyka","","<span style=""color:Black; font-size:50px;"">Agent A","null","","","","",""
"null","","","video-keyboard-response","577","1316744","0.0-577.0","cvg0wyka","","","null","","Agent A","scrambled","STIM_SET_5/150463.bmp_pp55_L3_V1.0_veridical_freeview_isoTrue_Hflip_fps144.mp4",""
"null","","","html-keyboard-response","578","1318247","0.0-578.0","cvg0wyka","","<span style=""color:Black; font-size:50px;"">Agent B","null","","","","",""
"null","","","video-keyboard-response","579","1321328","0.0-579.0","cvg0wyka","","","null","","Agent B","veridical","STIM_SET_2_144/150463.bmp_pp55_L3_V1.0_veridical_freeview_isoTrue_fps144.mp4",""
"","","","call-function","580","1321328","0.0-580.0","cvg0wyka","","","","","","","",""
"2238.375","{""judgement"":1}","[0]","survey-likert","581","1323568","0.0-581.0","cvg0wyka","","","","","","","","1"
"1537.7099999999627","{""confidence"":0}","[0]","survey-likert","582","1325107","0.0-582.0","cvg0wyka","","","","","","","",""
"2906.6100000001024","","","instructions","583","1328014","0.0-583.0","cvg0wyka","[{""page_index"":0,""viewing_time"":2906.4799999999814}]","","","","","","",""
"3342.815000000177","","","instructions","584","1331357","0.0-584.0","cvg0wyka","[{""page_index"":0,""viewing_time"":3342.7000000001863}]","","","","","","",""
"11576.895000000019","{""post-1"":1}","[0]","survey-likert","585","1342935","0.0-585.0","cvg0wyka","","","","","","","",""
"6549.430000000168","{""post-1"":1}","[0]","survey-likert","586","1349486","0.0-586.0","cvg0wyka","","","","","","","",""
"16578.77000000002","{""post-2"":1}","[0]","survey-likert","587","1366066","0.0-587.0","cvg0wyka","","","","","","","",""
"4358.505000000121","{""post-2"":0}","[0]","survey-likert","588","1370427","0.0-588.0","cvg0wyka","","","","","","","",""
"5768.929999999935","{""post-3"":1}","[0]","survey-likert","589","1376197","0.0-589.0","cvg0wyka","","","","","","","",""
"3242.6700000001583","{""post-3"":1}","[0]","survey-likert","590","1379442","0.0-590.0","cvg0wyka","","","","","","","",""
"7132.399999999907","{""post-4"":0}","[0]","survey-likert","591","1386576","0.0-591.0","cvg0wyka","","","","","","","",""
"3718.375","{""post-4"":0}","[0]","survey-likert","592","1390295","0.0-592.0","cvg0wyka","","","","","","","",""
"6207.75","{""post-5"":1}","[0]","survey-likert","593","1396504","0.0-593.0","cvg0wyka","","","","","","","",""
"2282.75","{""post-5"":1}","[0]","survey-likert","594","1398788","0.0-594.0","cvg0wyka","","","","","","","",""
"16615.22999999998","{""Q0"":""""}","","survey-text","595","1415408","0.0-595.0","cvg0wyka","","","","","","","",""
"1735.1950000000652","{""Q0"":""""}","","survey-text","596","1417146","0.0-596.0","cvg0wyka","","","","","","","",""
"3744.4799999999814","{""Q0"":""""}","","survey-text","597","1420893","0.0-597.0","cvg0wyka","","","","","","","",""
"1729.8799999998882","","","instructions","598","1422624","0.0-598.0","cvg0wyka","[{""page_index"":0,""viewing_time"":1729.7399999999907}]","","","","","","",""
"253763.2450000001","{""Experimenter_end"":[""Printed ID# cvg0wyka on consent form"",""Given subject SONA credit or payment"",""Given the subject debrief form""]}","[0]","survey-multi-select","599","1676390","0.0-599.0","cvg0wyka","","","","","","","",""
