"rt","responses","question_order","trial_type","trial_index","time_elapsed","internal_node_id","ID","view_history","stimulus","key_press","value","agent","condition","image","correct_answer"
"23667.010000000002","{""Experimenter"":[""Confirmed subject's identity"",""Confirmed normal or corrected-to-normal vision"",""Obtained consent (signature and date)"",""Checked the test room lighting"",""Checked computer screen lighting"",""Checked distance from screen to chin rest (50cm)"",""Cleaned and adjusted chin rest"",""Counterbalanced the order of the tasks"",""Opened the experiment in Firefox"",""Made the experiment full screen"",""Encouraged subject to silence phone, put away distractors, etc.""]}","[0]","survey-multi-select","0","23676","0.0-0.0","d3ml0pg6","","","","","","","",""
"9213.720000000001","","","instructions","1","32891","0.0-1.0","d3ml0pg6","[{""page_index"":0,""viewing_time"":9213.565000000002}]","","","","","","",""
"8057.739999999998","","","instructions","2","40950","0.0-2.0","d3ml0pg6","[{""page_index"":0,""viewing_time"":3686.5399999999936},{""page_index"":1,""viewing_time"":944.9850000000006},{""page_index"":2,""viewing_time"":3426.090000000004}]","","","","","","",""
"3932.324999999997","","","instructions","3","44883","0.0-3.0","d3ml0pg6","[{""page_index"":0,""viewing_time"":3932.220000000001}]","","","","","","",""
"null","","","video-keyboard-response","4","47959","0.0-4.0","d3ml0pg6","","","null","","","","",""
"4857.504999999997","","","instructions","5","52817","0.0-5.0","d3ml0pg6","[{""page_index"":0,""viewing_time"":845.3549999999959},{""page_index"":1,""viewing_time"":759.8800000000047},{""page_index"":2,""viewing_time"":3252.165000000001}]","","","","","","",""
"2033.3300000000017","","","instructions","6","54851","0.0-6.0","d3ml0pg6","[{""page_index"":0,""viewing_time"":2033.1949999999997}]","","","","","","",""
"943.5799999999945","","","instructions","7","55795","0.0-7.0","d3ml0pg6","[{""page_index"":0,""viewing_time"":943.3699999999953}]","","","","","","",""
"null","","","video-keyboard-response","8","58868","0.0-8.0","d3ml0pg6","","","null","","","","",""
"5739.739999999998","","","instructions","9","64608","0.0-9.0","d3ml0pg6","[{""page_index"":0,""viewing_time"":1061.0550000000003},{""page_index"":1,""viewing_time"":2833.0499999999956},{""page_index"":2,""viewing_time"":1845.4950000000026}]","","","","","","",""
"1617.864999999998","","","instructions","10","66227","0.0-10.0","d3ml0pg6","[{""page_index"":0,""viewing_time"":1617.7499999999927}]","","","","","","",""
"","","","call-function","11","66228","0.0-11.0","d3ml0pg6","","","","","","","",""
"null","","","html-keyboard-response","12","67731","0.0-12.0","d3ml0pg6","","<span style=""color:Black; font-size:50px;"">Agent A","null","","","","",""
"null","","","video-keyboard-response","13","70807","0.0-13.0","d3ml0pg6","","","null","","Agent A","scrambled","STIM_SET_2/498025.bmp_pp81_L1_V1.0_scrambled_freeview_isoTrue.mp4",""
"null","","","html-keyboard-response","14","72311","0.0-14.0","d3ml0pg6","","<span style=""color:Black; font-size:50px;"">Agent B","null","","","","",""
"null","","","video-keyboard-response","15","75387","0.0-15.0","d3ml0pg6","","","null","","Agent B","veridical","STIM_SET_2/498025.bmp_pp81_L1_V1.0_veridical_freeview_isoTrue.mp4",""
"","","","call-function","16","75387","0.0-16.0","d3ml0pg6","","","","","","","",""
"2054.4100000000035","{""judgement"":1}","[0]","survey-likert","17","77443","0.0-17.0","d3ml0pg6","","","","","","","","1"
"1642.7749999999942","{""confidence"":1}","[0]","survey-likert","18","79087","0.0-18.0","d3ml0pg6","","","","","","","",""
"","","","call-function","19","79088","0.0-19.0","d3ml0pg6","","","","","","","",""
"null","","","html-keyboard-response","20","80590","0.0-20.0","d3ml0pg6","","<span style=""color:Black; font-size:50px;"">Agent A","null","","","","",""
"null","","","video-keyboard-response","21","83693","0.0-21.0","d3ml0pg6","","","null","","Agent A","scrambled","STIM_SET_2/498326.bmp_pp57_L1_V1.0_scrambled_freeview_isoTrue.mp4",""
"null","","","html-keyboard-response","22","85195","0.0-22.0","d3ml0pg6","","<span style=""color:Black; font-size:50px;"">Agent B","null","","","","",""
"null","","","video-keyboard-response","23","88292","0.0-23.0","d3ml0pg6","","","null","","Agent B","veridical","STIM_SET_2/498326.bmp_pp57_L1_V1.0_veridical_freeview_isoTrue.mp4",""
"","","","call-function","24","88293","0.0-24.0","d3ml0pg6","","","","","","","",""
"2365.37000000001","{""judgement"":1}","[0]","survey-likert","25","90659","0.0-25.0","d3ml0pg6","","","","","","","","1"
"1508.875","{""confidence"":3}","[0]","survey-likert","26","92169","0.0-26.0","d3ml0pg6","","","","","","","",""
"","","","call-function","27","92169","0.0-27.0","d3ml0pg6","","","","","","","",""
"null","","","html-keyboard-response","28","93674","0.0-28.0","d3ml0pg6","","<span style=""color:Black; font-size:50px;"">Agent A","null","","","","",""
"null","","","video-keyboard-response","29","96780","0.0-29.0","d3ml0pg6","","","null","","Agent A","veridical","STIM_SET_2/713770.bmp_pp89_L1_V1.0_veridical_freeview_isoTrue.mp4",""
"null","","","html-keyboard-response","30","98283","0.0-30.0","d3ml0pg6","","<span style=""color:Black; font-size:50px;"">Agent B","null","","","","",""
"null","","","video-keyboard-response","31","101385","0.0-31.0","d3ml0pg6","","","null","","Agent B","scrambled","STIM_SET_2/713770.bmp_pp89_L1_V1.0_scrambled_freeview_isoTrue.mp4",""
"","","","call-function","32","101386","0.0-32.0","d3ml0pg6","","","","","","","",""
"2515.5899999999965","{""judgement"":0}","[0]","survey-likert","33","103902","0.0-33.0","d3ml0pg6","","","","","","","","0"
"3256.459999999992","{""confidence"":2}","[0]","survey-likert","34","107160","0.0-34.0","d3ml0pg6","","","","","","","",""
"","","","call-function","35","107160","0.0-35.0","d3ml0pg6","","","","","","","",""
"null","","","html-keyboard-response","36","108661","0.0-36.0","d3ml0pg6","","<span style=""color:Black; font-size:50px;"">Agent A","null","","","","",""
"null","","","video-keyboard-response","37","111729","0.0-37.0","d3ml0pg6","","","null","","Agent A","veridical","STIM_SET_2/1592314.bmp_pp100_L3_V1.0_veridical_freeview_isoTrue.mp4",""
"null","","","html-keyboard-response","38","113231","0.0-38.0","d3ml0pg6","","<span style=""color:Black; font-size:50px;"">Agent B","null","","","","",""
"null","","","video-keyboard-response","39","116323","0.0-39.0","d3ml0pg6","","","null","","Agent B","scrambled","STIM_SET_2/1592314.bmp_pp100_L3_V1.0_scrambled_freeview_isoTrue.mp4",""
"","","","call-function","40","116323","0.0-40.0","d3ml0pg6","","","","","","","",""
"1508.3600000000006","{""judgement"":0}","[0]","survey-likert","41","117832","0.0-41.0","d3ml0pg6","","","","","","","","0"
"2110.3600000000006","{""confidence"":3}","[0]","survey-likert","42","119944","0.0-42.0","d3ml0pg6","","","","","","","",""
"","","","call-function","43","119944","0.0-43.0","d3ml0pg6","","","","","","","",""
"null","","","html-keyboard-response","44","121447","0.0-44.0","d3ml0pg6","","<span style=""color:Black; font-size:50px;"">Agent A","null","","","","",""
"null","","","video-keyboard-response","45","124522","0.0-45.0","d3ml0pg6","","","null","","Agent A","veridical","STIM_SET_2/713858.bmp_pp57_L1_V1.0_veridical_freeview_isoTrue.mp4",""
"null","","","html-keyboard-response","46","126028","0.0-46.0","d3ml0pg6","","<span style=""color:Black; font-size:50px;"">Agent B","null","","","","",""
"null","","","video-keyboard-response","47","129133","0.0-47.0","d3ml0pg6","","","null","","Agent B","scrambled","STIM_SET_2/713858.bmp_pp57_L1_V1.0_scrambled_freeview_isoTrue.mp4",""
"","","","call-function","48","129134","0.0-48.0","d3ml0pg6","","","","","","","",""
"2777.4449999999924","{""judgement"":1}","[0]","survey-likert","49","131913","0.0-49.0","d3ml0pg6","","","","","","","","0"
"2086.6450000000186","{""confidence"":2}","[0]","survey-likert","50","134002","0.0-50.0","d3ml0pg6","","","","","","","",""
"","","","call-function","51","134003","0.0-51.0","d3ml0pg6","","","","","","","",""
"null","","","html-keyboard-response","52","135504","0.0-52.0","d3ml0pg6","","<span style=""color:Black; font-size:50px;"">Agent A","null","","","","",""
"null","","","video-keyboard-response","53","138581","0.0-53.0","d3ml0pg6","","","null","","Agent A","veridical","STIM_SET_2/150463.bmp_pp55_L3_V1.0_veridical_freeview_isoTrue.mp4",""
"null","","","html-keyboard-response","54","140088","0.0-54.0","d3ml0pg6","","<span style=""color:Black; font-size:50px;"">Agent B","null","","","","",""
"null","","","video-keyboard-response","55","143159","0.0-55.0","d3ml0pg6","","","null","","Agent B","scrambled","STIM_SET_2/150463.bmp_pp55_L3_V1.0_scrambled_freeview_isoTrue.mp4",""
"","","","call-function","56","143160","0.0-56.0","d3ml0pg6","","","","","","","",""
"2158.1600000000035","{""judgement"":0}","[0]","survey-likert","57","145319","0.0-57.0","d3ml0pg6","","","","","","","","0"
"1492.4899999999907","{""confidence"":3}","[0]","survey-likert","58","146813","0.0-58.0","d3ml0pg6","","","","","","","",""
"","","","call-function","59","146814","0.0-59.0","d3ml0pg6","","","","","","","",""
"null","","","html-keyboard-response","60","148318","0.0-60.0","d3ml0pg6","","<span style=""color:Black; font-size:50px;"">Agent A","null","","","","",""
"null","","","video-keyboard-response","61","151391","0.0-61.0","d3ml0pg6","","","null","","Agent A","veridical","STIM_SET_2/1159973.bmp_pp98_L1_V1.0_veridical_freeview_isoTrue.mp4",""
"null","","","html-keyboard-response","62","152895","0.0-62.0","d3ml0pg6","","<span style=""color:Black; font-size:50px;"">Agent B","null","","","","",""
"null","","","video-keyboard-response","63","155969","0.0-63.0","d3ml0pg6","","","null","","Agent B","scrambled","STIM_SET_2/1159973.bmp_pp98_L1_V1.0_scrambled_freeview_isoTrue.mp4",""
"","","","call-function","64","155970","0.0-64.0","d3ml0pg6","","","","","","","",""
"2519.095000000001","{""judgement"":0}","[0]","survey-likert","65","158490","0.0-65.0","d3ml0pg6","","","","","","","","0"
"4194.470000000001","{""confidence"":1}","[0]","survey-likert","66","162685","0.0-66.0","d3ml0pg6","","","","","","","",""
"","","","call-function","67","162686","0.0-67.0","d3ml0pg6","","","","","","","",""
"null","","","html-keyboard-response","68","164192","0.0-68.0","d3ml0pg6","","<span style=""color:Black; font-size:50px;"">Agent A","null","","","","",""
"null","","","video-keyboard-response","69","167256","0.0-69.0","d3ml0pg6","","","null","","Agent A","scrambled","STIM_SET_2/61513.bmp_pp75_L1_V1.0_scrambled_freeview_isoTrue.mp4",""
"null","","","html-keyboard-response","70","168761","0.0-70.0","d3ml0pg6","","<span style=""color:Black; font-size:50px;"">Agent B","null","","","","",""
"null","","","video-keyboard-response","71","171820","0.0-71.0","d3ml0pg6","","","null","","Agent B","veridical","STIM_SET_2/61513.bmp_pp75_L1_V1.0_veridical_freeview_isoTrue.mp4",""
"","","","call-function","72","171821","0.0-72.0","d3ml0pg6","","","","","","","",""
"1943.2449999999953","{""judgement"":1}","[0]","survey-likert","73","173765","0.0-73.0","d3ml0pg6","","","","","","","","1"
"1274.8500000000058","{""confidence"":2}","[0]","survey-likert","74","175041","0.0-74.0","d3ml0pg6","","","","","","","",""
"","","","call-function","75","175042","0.0-75.0","d3ml0pg6","","","","","","","",""
"null","","","html-keyboard-response","76","176545","0.0-76.0","d3ml0pg6","","<span style=""color:Black; font-size:50px;"">Agent A","null","","","","",""
"null","","","video-keyboard-response","77","179613","0.0-77.0","d3ml0pg6","","","null","","Agent A","veridical","STIM_SET_2/1159325.bmp_pp67_L2_V1.0_veridical_freeview_isoTrue.mp4",""
"null","","","html-keyboard-response","78","181116","0.0-78.0","d3ml0pg6","","<span style=""color:Black; font-size:50px;"">Agent B","null","","","","",""
"null","","","video-keyboard-response","79","184181","0.0-79.0","d3ml0pg6","","","null","","Agent B","scrambled","STIM_SET_2/1159325.bmp_pp67_L2_V1.0_scrambled_freeview_isoTrue.mp4",""
"","","","call-function","80","184182","0.0-80.0","d3ml0pg6","","","","","","","",""
"1879.164999999979","{""judgement"":0}","[0]","survey-likert","81","186062","0.0-81.0","d3ml0pg6","","","","","","","","0"
"3751.054999999993","{""confidence"":3}","[0]","survey-likert","82","189814","0.0-82.0","d3ml0pg6","","","","","","","",""
"","","","call-function","83","189815","0.0-83.0","d3ml0pg6","","","","","","","",""
"null","","","html-keyboard-response","84","191320","0.0-84.0","d3ml0pg6","","<span style=""color:Black; font-size:50px;"">Agent A","null","","","","",""
"null","","","video-keyboard-response","85","194414","0.0-85.0","d3ml0pg6","","","null","","Agent A","veridical","STIM_SET_2/1160204.bmp_pp54_L2_V1.0_veridical_freeview_isoTrue.mp4",""
"null","","","html-keyboard-response","86","195918","0.0-86.0","d3ml0pg6","","<span style=""color:Black; font-size:50px;"">Agent B","null","","","","",""
"null","","","video-keyboard-response","87","199010","0.0-87.0","d3ml0pg6","","","null","","Agent B","scrambled","STIM_SET_2/1160204.bmp_pp54_L2_V1.0_scrambled_freeview_isoTrue.mp4",""
"","","","call-function","88","199010","0.0-88.0","d3ml0pg6","","","","","","","",""
"2590.5749999999825","{""judgement"":0}","[0]","survey-likert","89","201602","0.0-89.0","d3ml0pg6","","","","","","","","0"
"15826.48999999999","{""confidence"":3}","[0]","survey-likert","90","217430","0.0-90.0","d3ml0pg6","","","","","","","",""
"168030.93000000002","","","instructions","91","385462","0.0-91.0","d3ml0pg6","[{""page_index"":0,""viewing_time"":1436.984999999986},{""page_index"":1,""viewing_time"":817.7150000000256},{""page_index"":2,""viewing_time"":165776.03}]","","","","","","",""
"3012.585000000021","","","instructions","92","388476","0.0-92.0","d3ml0pg6","[{""page_index"":0,""viewing_time"":1222.6049999999814},{""page_index"":1,""viewing_time"":1272.8950000000186},{""page_index"":2,""viewing_time"":516.9750000000349}]","","","","","","",""
"","","","call-function","93","388477","0.0-93.0","d3ml0pg6","","","","","","","",""
"null","","","html-keyboard-response","94","389980","0.0-94.0","d3ml0pg6","","<span style=""color:Black; font-size:50px;"">Agent A","null","","","","",""
"null","","","video-keyboard-response","95","393053","0.0-95.0","d3ml0pg6","","","null","","Agent A","veridical","STIM_SET_2/1592289.bmp_pp92_L3_V1.0_veridical_freeview_isoTrue.mp4",""
"null","","","html-keyboard-response","96","394557","0.0-96.0","d3ml0pg6","","<span style=""color:Black; font-size:50px;"">Agent B","null","","","","",""
"null","","","video-keyboard-response","97","397633","0.0-97.0","d3ml0pg6","","","null","","Agent B","scrambled","STIM_SET_2/1592289.bmp_pp92_L3_V1.0_scrambled_freeview_isoTrue.mp4",""
"","","","call-function","98","397633","0.0-98.0","d3ml0pg6","","","","","","","",""
"1694.5999999999767","{""judgement"":0}","[0]","survey-likert","99","399329","0.0-99.0","d3ml0pg6","","","","","","","","0"
"1206.390000000014","{""confidence"":3}","[0]","survey-likert","100","400536","0.0-100.0","d3ml0pg6","","","","","","","",""
"","","","call-function","101","400537","0.0-101.0","d3ml0pg6","","","","","","","",""
"null","","","html-keyboard-response","102","402040","0.0-102.0","d3ml0pg6","","<span style=""color:Black; font-size:50px;"">Agent A","null","","","","",""
"null","","","video-keyboard-response","103","405107","0.0-103.0","d3ml0pg6","","","null","","Agent A","scrambled","STIM_SET_2/1592017.bmp_pp154_L1_V1.0_scrambled_freeview_isoTrue.mp4",""
"null","","","html-keyboard-response","104","406608","0.0-104.0","d3ml0pg6","","<span style=""color:Black; font-size:50px;"">Agent B","null","","","","",""
"null","","","video-keyboard-response","105","409677","0.0-105.0","d3ml0pg6","","","null","","Agent B","veridical","STIM_SET_2/1592017.bmp_pp154_L1_V1.0_veridical_freeview_isoTrue.mp4",""
"","","","call-function","106","409677","0.0-106.0","d3ml0pg6","","","","","","","",""
"1751.1500000000233","{""judgement"":1}","[0]","survey-likert","107","411429","0.0-107.0","d3ml0pg6","","","","","","","","1"
"1670.399999999965","{""confidence"":3}","[0]","survey-likert","108","413101","0.0-108.0","d3ml0pg6","","","","","","","",""
"","","","call-function","109","413102","0.0-109.0","d3ml0pg6","","","","","","","",""
"null","","","html-keyboard-response","110","414604","0.0-110.0","d3ml0pg6","","<span style=""color:Black; font-size:50px;"">Agent A","null","","","","",""
"null","","","video-keyboard-response","111","417701","0.0-111.0","d3ml0pg6","","","null","","Agent A","scrambled","STIM_SET_2/1591920.bmp_pp97_L3_V1_scrambled_freeview_isoTrue.mp4",""
"null","","","html-keyboard-response","112","419205","0.0-112.0","d3ml0pg6","","<span style=""color:Black; font-size:50px;"">Agent B","null","","","","",""
"null","","","video-keyboard-response","113","422302","0.0-113.0","d3ml0pg6","","","null","","Agent B","veridical","STIM_SET_2/1591920.bmp_pp97_L3_V1_veridical_freeview_isoTrue.mp4",""
"","","","call-function","114","422302","0.0-114.0","d3ml0pg6","","","","","","","",""
"3081.0800000000163","{""judgement"":1}","[0]","survey-likert","115","425384","0.0-115.0","d3ml0pg6","","","","","","","","1"
"2041.2300000000396","{""confidence"":3}","[0]","survey-likert","116","427426","0.0-116.0","d3ml0pg6","","","","","","","",""
"","","","call-function","117","427427","0.0-117.0","d3ml0pg6","","","","","","","",""
"null","","","html-keyboard-response","118","428930","0.0-118.0","d3ml0pg6","","<span style=""color:Black; font-size:50px;"">Agent A","null","","","","",""
"null","","","video-keyboard-response","119","432022","0.0-119.0","d3ml0pg6","","","null","","Agent A","veridical","STIM_SET_2/285932.bmp_pp64_L1_V1.0_veridical_freeview_isoTrue.mp4",""
"null","","","html-keyboard-response","120","433528","0.0-120.0","d3ml0pg6","","<span style=""color:Black; font-size:50px;"">Agent B","null","","","","",""
"null","","","video-keyboard-response","121","436620","0.0-121.0","d3ml0pg6","","","null","","Agent B","scrambled","STIM_SET_2/285932.bmp_pp64_L1_V1.0_scrambled_freeview_isoTrue.mp4",""
"","","","call-function","122","436621","0.0-122.0","d3ml0pg6","","","","","","","",""
"2264.5449999999837","{""judgement"":1}","[0]","survey-likert","123","438886","0.0-123.0","d3ml0pg6","","","","","","","","0"
"5057.885000000009","{""confidence"":3}","[0]","survey-likert","124","443945","0.0-124.0","d3ml0pg6","","","","","","","",""
"","","","call-function","125","443946","0.0-125.0","d3ml0pg6","","","","","","","",""
"null","","","html-keyboard-response","126","445450","0.0-126.0","d3ml0pg6","","<span style=""color:Black; font-size:50px;"">Agent A","null","","","","",""
"null","","","video-keyboard-response","127","448552","0.0-127.0","d3ml0pg6","","","null","","Agent A","scrambled","STIM_SET_2/150277.bmp_pp65_L3_V1.0_scrambled_freeview_isoTrue.mp4",""
"null","","","html-keyboard-response","128","450054","0.0-128.0","d3ml0pg6","","<span style=""color:Black; font-size:50px;"">Agent B","null","","","","",""
"null","","","video-keyboard-response","129","453156","0.0-129.0","d3ml0pg6","","","null","","Agent B","veridical","STIM_SET_2/150277.bmp_pp65_L3_V1.0_veridical_freeview_isoTrue.mp4",""
"","","","call-function","130","453156","0.0-130.0","d3ml0pg6","","","","","","","",""
"1613.9949999999953","{""judgement"":1}","[0]","survey-likert","131","454771","0.0-131.0","d3ml0pg6","","","","","","","","1"
"1142.1900000000023","{""confidence"":2}","[0]","survey-likert","132","455915","0.0-132.0","d3ml0pg6","","","","","","","",""
"","","","call-function","133","455916","0.0-133.0","d3ml0pg6","","","","","","","",""
"null","","","html-keyboard-response","134","457418","0.0-134.0","d3ml0pg6","","<span style=""color:Black; font-size:50px;"">Agent A","null","","","","",""
"null","","","video-keyboard-response","135","460483","0.0-135.0","d3ml0pg6","","","null","","Agent A","scrambled","STIM_SET_2/1591975.bmp_pp88_L2_V1.0_scrambled_freeview_isoTrue.mp4",""
"null","","","html-keyboard-response","136","461990","0.0-136.0","d3ml0pg6","","<span style=""color:Black; font-size:50px;"">Agent B","null","","","","",""
"null","","","video-keyboard-response","137","465057","0.0-137.0","d3ml0pg6","","","null","","Agent B","veridical","STIM_SET_2/1591975.bmp_pp88_L2_V1.0_veridical_freeview_isoTrue.mp4",""
"","","","call-function","138","465057","0.0-138.0","d3ml0pg6","","","","","","","",""
"1446.929999999993","{""judgement"":1}","[0]","survey-likert","139","466505","0.0-139.0","d3ml0pg6","","","","","","","","1"
"2028.3550000000396","{""confidence"":0}","[0]","survey-likert","140","468535","0.0-140.0","d3ml0pg6","","","","","","","",""
"","","","call-function","141","468535","0.0-141.0","d3ml0pg6","","","","","","","",""
"null","","","html-keyboard-response","142","470039","0.0-142.0","d3ml0pg6","","<span style=""color:Black; font-size:50px;"">Agent A","null","","","","",""
"null","","","video-keyboard-response","143","473105","0.0-143.0","d3ml0pg6","","","null","","Agent A","veridical","STIM_SET_2/713829.bmp_pp60_L3_V1.0_veridical_freeview_isoTrue.mp4",""
"null","","","html-keyboard-response","144","474608","0.0-144.0","d3ml0pg6","","<span style=""color:Black; font-size:50px;"">Agent B","null","","","","",""
"null","","","video-keyboard-response","145","477674","0.0-145.0","d3ml0pg6","","","null","","Agent B","scrambled","STIM_SET_2/713829.bmp_pp60_L3_V1.0_scrambled_freeview_isoTrue.mp4",""
"","","","call-function","146","477676","0.0-146.0","d3ml0pg6","","","","","","","",""
"1666.7449999999953","{""judgement"":0}","[0]","survey-likert","147","479344","0.0-147.0","d3ml0pg6","","","","","","","","0"
"2746.1500000000233","{""confidence"":2}","[0]","survey-likert","148","482092","0.0-148.0","d3ml0pg6","","","","","","","",""
"","","","call-function","149","482094","0.0-149.0","d3ml0pg6","","","","","","","",""
"null","","","html-keyboard-response","150","483597","0.0-150.0","d3ml0pg6","","<span style=""color:Black; font-size:50px;"">Agent A","null","","","","",""
"null","","","video-keyboard-response","151","486666","0.0-151.0","d3ml0pg6","","","null","","Agent A","scrambled","STIM_SET_2/285684.bmp_pp80_L3_V1.0_scrambled_freeview_isoTrue.mp4",""
"null","","","html-keyboard-response","152","488169","0.0-152.0","d3ml0pg6","","<span style=""color:Black; font-size:50px;"">Agent B","null","","","","",""
"null","","","video-keyboard-response","153","491235","0.0-153.0","d3ml0pg6","","","null","","Agent B","veridical","STIM_SET_2/285684.bmp_pp80_L3_V1.0_veridical_freeview_isoTrue.mp4",""
"","","","call-function","154","491236","0.0-154.0","d3ml0pg6","","","","","","","",""
"1418.600000000035","{""judgement"":1}","[0]","survey-likert","155","492655","0.0-155.0","d3ml0pg6","","","","","","","","1"
"1232.2300000000396","{""confidence"":3}","[0]","survey-likert","156","493889","0.0-156.0","d3ml0pg6","","","","","","","",""
"","","","call-function","157","493890","0.0-157.0","d3ml0pg6","","","","","","","",""
"null","","","html-keyboard-response","158","495392","0.0-158.0","d3ml0pg6","","<span style=""color:Black; font-size:50px;"">Agent A","null","","","","",""
"null","","","video-keyboard-response","159","498458","0.0-159.0","d3ml0pg6","","","null","","Agent A","scrambled","STIM_SET_2/1159392.bmp_pp96_L2_V1.0_scrambled_freeview_isoTrue.mp4",""
"null","","","html-keyboard-response","160","499961","0.0-160.0","d3ml0pg6","","<span style=""color:Black; font-size:50px;"">Agent B","null","","","","",""
"null","","","video-keyboard-response","161","503027","0.0-161.0","d3ml0pg6","","","null","","Agent B","veridical","STIM_SET_2/1159392.bmp_pp96_L2_V1.0_veridical_freeview_isoTrue.mp4",""
"","","","call-function","162","503028","0.0-162.0","d3ml0pg6","","","","","","","",""
"3157.0050000000047","{""judgement"":1}","[0]","survey-likert","163","506186","0.0-163.0","d3ml0pg6","","","","","","","","1"
"2743.8549999999814","{""confidence"":1}","[0]","survey-likert","164","508931","0.0-164.0","d3ml0pg6","","","","","","","",""
"","","","call-function","165","508931","0.0-165.0","d3ml0pg6","","","","","","","",""
"null","","","html-keyboard-response","166","510433","0.0-166.0","d3ml0pg6","","<span style=""color:Black; font-size:50px;"">Agent A","null","","","","",""
"null","","","video-keyboard-response","167","513533","0.0-167.0","d3ml0pg6","","","null","","Agent A","scrambled","STIM_SET_2/1159508.bmp_pp151_L1_V1.0_scrambled_freeview_isoTrue.mp4",""
"null","","","html-keyboard-response","168","515037","0.0-168.0","d3ml0pg6","","<span style=""color:Black; font-size:50px;"">Agent B","null","","","","",""
"null","","","video-keyboard-response","169","518133","0.0-169.0","d3ml0pg6","","","null","","Agent B","veridical","STIM_SET_2/1159508.bmp_pp151_L1_V1.0_veridical_freeview_isoTrue.mp4",""
"","","","call-function","170","518134","0.0-170.0","d3ml0pg6","","","","","","","",""
"2733.234999999986","{""judgement"":1}","[0]","survey-likert","171","520868","0.0-171.0","d3ml0pg6","","","","","","","","1"
"3834.545000000042","{""confidence"":3}","[0]","survey-likert","172","524704","0.0-172.0","d3ml0pg6","","","","","","","",""
"3280.8800000000047","","","instructions","173","527985","0.0-173.0","d3ml0pg6","[{""page_index"":0,""viewing_time"":1748.8349999999627},{""page_index"":1,""viewing_time"":1034.8950000000186},{""page_index"":2,""viewing_time"":496.95000000006985}]","","","","","","",""
"2302.274999999907","","","instructions","174","530288","0.0-174.0","d3ml0pg6","[{""page_index"":0,""viewing_time"":618.2899999999208},{""page_index"":1,""viewing_time"":1034.0800000000745},{""page_index"":2,""viewing_time"":649.7999999999302}]","","","","","","",""
"","","","call-function","175","530288","0.0-175.0","d3ml0pg6","","","","","","","",""
"null","","","html-keyboard-response","176","531793","0.0-176.0","d3ml0pg6","","<span style=""color:Black; font-size:50px;"">Agent A","null","","","","",""
"null","","","video-keyboard-response","177","534889","0.0-177.0","d3ml0pg6","","","null","","Agent A","scrambled","STIM_SET_2/1592047.bmp_pp51_L1_V1.0_scrambled_freeview_isoTrue.mp4",""
"null","","","html-keyboard-response","178","536395","0.0-178.0","d3ml0pg6","","<span style=""color:Black; font-size:50px;"">Agent B","null","","","","",""
"null","","","video-keyboard-response","179","539491","0.0-179.0","d3ml0pg6","","","null","","Agent B","veridical","STIM_SET_2/1592047.bmp_pp51_L1_V1.0_veridical_freeview_isoTrue.mp4",""
"","","","call-function","180","539492","0.0-180.0","d3ml0pg6","","","","","","","",""
"2388.1650000000373","{""judgement"":1}","[0]","survey-likert","181","541881","0.0-181.0","d3ml0pg6","","","","","","","","1"
"1606.3500000000931","{""confidence"":0}","[0]","survey-likert","182","543488","0.0-182.0","d3ml0pg6","","","","","","","",""
"","","","call-function","183","543489","0.0-183.0","d3ml0pg6","","","","","","","",""
"null","","","html-keyboard-response","184","544990","0.0-184.0","d3ml0pg6","","<span style=""color:Black; font-size:50px;"">Agent A","null","","","","",""
"null","","","video-keyboard-response","185","548048","0.0-185.0","d3ml0pg6","","","null","","Agent A","veridical","STIM_SET_2/1159427.bmp_pp98_L1_V1.0_veridical_freeview_isoTrue.mp4",""
"null","","","html-keyboard-response","186","549551","0.0-186.0","d3ml0pg6","","<span style=""color:Black; font-size:50px;"">Agent B","null","","","","",""
"null","","","video-keyboard-response","187","552618","0.0-187.0","d3ml0pg6","","","null","","Agent B","scrambled","STIM_SET_2/1159427.bmp_pp98_L1_V1.0_scrambled_freeview_isoTrue.mp4",""
"","","","call-function","188","552618","0.0-188.0","d3ml0pg6","","","","","","","",""
"2374.734999999986","{""judgement"":1}","[0]","survey-likert","189","554994","0.0-189.0","d3ml0pg6","","","","","","","","0"
"6835.535000000033","{""confidence"":0}","[0]","survey-likert","190","561831","0.0-190.0","d3ml0pg6","","","","","","","",""
"","","","call-function","191","561831","0.0-191.0","d3ml0pg6","","","","","","","",""
"null","","","html-keyboard-response","192","563336","0.0-192.0","d3ml0pg6","","<span style=""color:Black; font-size:50px;"">Agent A","null","","","","",""
"null","","","video-keyboard-response","193","566409","0.0-193.0","d3ml0pg6","","","null","","Agent A","scrambled","STIM_SET_2/1592350.bmp_pp55_L3_V1.0_scrambled_freeview_isoTrue.mp4",""
"null","","","html-keyboard-response","194","567912","0.0-194.0","d3ml0pg6","","<span style=""color:Black; font-size:50px;"">Agent B","null","","","","",""
"null","","","video-keyboard-response","195","570987","0.0-195.0","d3ml0pg6","","","null","","Agent B","veridical","STIM_SET_2/1592350.bmp_pp55_L3_V1.0_veridical_freeview_isoTrue.mp4",""
"","","","call-function","196","570988","0.0-196.0","d3ml0pg6","","","","","","","",""
"1561.509999999893","{""judgement"":0}","[0]","survey-likert","197","572550","0.0-197.0","d3ml0pg6","","","","","","","","1"
"1480.170000000042","{""confidence"":0}","[0]","survey-likert","198","574032","0.0-198.0","d3ml0pg6","","","","","","","",""
"","","","call-function","199","574032","0.0-199.0","d3ml0pg6","","","","","","","",""
"null","","","html-keyboard-response","200","575534","0.0-200.0","d3ml0pg6","","<span style=""color:Black; font-size:50px;"">Agent A","null","","","","",""
"null","","","video-keyboard-response","201","578610","0.0-201.0","d3ml0pg6","","","null","","Agent A","veridical","STIM_SET_2/713788.bmp_pp52_L1_V1.0_veridical_freeview_isoTrue.mp4",""
"null","","","html-keyboard-response","202","580115","0.0-202.0","d3ml0pg6","","<span style=""color:Black; font-size:50px;"">Agent B","null","","","","",""
"null","","","video-keyboard-response","203","583216","0.0-203.0","d3ml0pg6","","","null","","Agent B","scrambled","STIM_SET_2/713788.bmp_pp52_L1_V1.0_scrambled_freeview_isoTrue.mp4",""
"","","","call-function","204","583217","0.0-204.0","d3ml0pg6","","","","","","","",""
"1821.515000000014","{""judgement"":0}","[0]","survey-likert","205","585041","0.0-205.0","d3ml0pg6","","","","","","","","0"
"2820.6849999999395","{""confidence"":3}","[0]","survey-likert","206","587863","0.0-206.0","d3ml0pg6","","","","","","","",""
"","","","call-function","207","587865","0.0-207.0","d3ml0pg6","","","","","","","",""
"null","","","html-keyboard-response","208","589372","0.0-208.0","d3ml0pg6","","<span style=""color:Black; font-size:50px;"">Agent A","null","","","","",""
"null","","","video-keyboard-response","209","592449","0.0-209.0","d3ml0pg6","","","null","","Agent A","scrambled","STIM_SET_2/285959.bmp_pp93_L1_V1.0_scrambled_freeview_isoTrue.mp4",""
"null","","","html-keyboard-response","210","593953","0.0-210.0","d3ml0pg6","","<span style=""color:Black; font-size:50px;"">Agent B","null","","","","",""
"null","","","video-keyboard-response","211","597032","0.0-211.0","d3ml0pg6","","","null","","Agent B","veridical","STIM_SET_2/285959.bmp_pp93_L1_V1.0_veridical_freeview_isoTrue.mp4",""
"","","","call-function","212","597033","0.0-212.0","d3ml0pg6","","","","","","","",""
"4430.990000000107","{""judgement"":0}","[0]","survey-likert","213","601465","0.0-213.0","d3ml0pg6","","","","","","","","1"
"5667.739999999991","{""confidence"":0}","[0]","survey-likert","214","607134","0.0-214.0","d3ml0pg6","","","","","","","",""
"","","","call-function","215","607135","0.0-215.0","d3ml0pg6","","","","","","","",""
"null","","","html-keyboard-response","216","608641","0.0-216.0","d3ml0pg6","","<span style=""color:Black; font-size:50px;"">Agent A","null","","","","",""
"null","","","video-keyboard-response","217","611714","0.0-217.0","d3ml0pg6","","","null","","Agent A","scrambled","STIM_SET_2/1592747.bmp_pp53_L2_V1.0_scrambled_freeview_isoTrue.mp4",""
"null","","","html-keyboard-response","218","613219","0.0-218.0","d3ml0pg6","","<span style=""color:Black; font-size:50px;"">Agent B","null","","","","",""
"null","","","video-keyboard-response","219","616295","0.0-219.0","d3ml0pg6","","","null","","Agent B","veridical","STIM_SET_2/1592747.bmp_pp53_L2_V1.0_veridical_freeview_isoTrue.mp4",""
"","","","call-function","220","616296","0.0-220.0","d3ml0pg6","","","","","","","",""
"9406.375","{""judgement"":0}","[0]","survey-likert","221","625703","0.0-221.0","d3ml0pg6","","","","","","","","1"
"1317.859999999986","{""confidence"":0}","[0]","survey-likert","222","627022","0.0-222.0","d3ml0pg6","","","","","","","",""
"","","","call-function","223","627023","0.0-223.0","d3ml0pg6","","","","","","","",""
"null","","","html-keyboard-response","224","628524","0.0-224.0","d3ml0pg6","","<span style=""color:Black; font-size:50px;"">Agent A","null","","","","",""
"null","","","video-keyboard-response","225","631635","0.0-225.0","d3ml0pg6","","","null","","Agent A","veridical","STIM_SET_2/713790.bmp_pp100_L3_V1_veridical_freeview_isoTrue.mp4",""
"null","","","html-keyboard-response","226","633139","0.0-226.0","d3ml0pg6","","<span style=""color:Black; font-size:50px;"">Agent B","null","","","","",""
"null","","","video-keyboard-response","227","636244","0.0-227.0","d3ml0pg6","","","null","","Agent B","scrambled","STIM_SET_2/713790.bmp_pp100_L3_V1_scrambled_freeview_isoTrue.mp4",""
"","","","call-function","228","636244","0.0-228.0","d3ml0pg6","","","","","","","",""
"1536.0400000000373","{""judgement"":0}","[0]","survey-likert","229","637781","0.0-229.0","d3ml0pg6","","","","","","","","0"
"1227.5549999999348","{""confidence"":2}","[0]","survey-likert","230","639010","0.0-230.0","d3ml0pg6","","","","","","","",""
"","","","call-function","231","639011","0.0-231.0","d3ml0pg6","","","","","","","",""
"null","","","html-keyboard-response","232","640514","0.0-232.0","d3ml0pg6","","<span style=""color:Black; font-size:50px;"">Agent A","null","","","","",""
"null","","","video-keyboard-response","233","643613","0.0-233.0","d3ml0pg6","","","null","","Agent A","veridical","STIM_SET_2/1159956.bmp_pp59_L3_V1.0_veridical_freeview_isoTrue.mp4",""
"null","","","html-keyboard-response","234","645117","0.0-234.0","d3ml0pg6","","<span style=""color:Black; font-size:50px;"">Agent B","null","","","","",""
"null","","","video-keyboard-response","235","648213","0.0-235.0","d3ml0pg6","","","null","","Agent B","scrambled","STIM_SET_2/1159956.bmp_pp59_L3_V1.0_scrambled_freeview_isoTrue.mp4",""
"","","","call-function","236","648214","0.0-236.0","d3ml0pg6","","","","","","","",""
"1450.5600000000559","{""judgement"":0}","[0]","survey-likert","237","649665","0.0-237.0","d3ml0pg6","","","","","","","","0"
"3116.640000000014","{""confidence"":3}","[0]","survey-likert","238","652783","0.0-238.0","d3ml0pg6","","","","","","","",""
"","","","call-function","239","652784","0.0-239.0","d3ml0pg6","","","","","","","",""
"null","","","html-keyboard-response","240","654289","0.0-240.0","d3ml0pg6","","<span style=""color:Black; font-size:50px;"">Agent A","null","","","","",""
"null","","","video-keyboard-response","241","657354","0.0-241.0","d3ml0pg6","","","null","","Agent A","scrambled","STIM_SET_2/1592951.bmp_pp80_L3_V1.0_scrambled_freeview_isoTrue.mp4",""
"null","","","html-keyboard-response","242","658856","0.0-242.0","d3ml0pg6","","<span style=""color:Black; font-size:50px;"">Agent B","null","","","","",""
"null","","","video-keyboard-response","243","661921","0.0-243.0","d3ml0pg6","","","null","","Agent B","veridical","STIM_SET_2/1592951.bmp_pp80_L3_V1.0_veridical_freeview_isoTrue.mp4",""
"","","","call-function","244","661921","0.0-244.0","d3ml0pg6","","","","","","","",""
"1589.5050000000047","{""judgement"":1}","[0]","survey-likert","245","663512","0.0-245.0","d3ml0pg6","","","","","","","","1"
"1828.5600000000559","{""confidence"":0}","[0]","survey-likert","246","665341","0.0-246.0","d3ml0pg6","","","","","","","",""
"","","","call-function","247","665342","0.0-247.0","d3ml0pg6","","","","","","","",""
"null","","","html-keyboard-response","248","666846","0.0-248.0","d3ml0pg6","","<span style=""color:Black; font-size:50px;"">Agent A","null","","","","",""
"null","","","video-keyboard-response","249","669931","0.0-249.0","d3ml0pg6","","","null","","Agent A","scrambled","STIM_SET_2/285946.bmp_pp79_L2_V1.0_scrambled_freeview_isoTrue.mp4",""
"null","","","html-keyboard-response","250","671436","0.0-250.0","d3ml0pg6","","<span style=""color:Black; font-size:50px;"">Agent B","null","","","","",""
"null","","","video-keyboard-response","251","674521","0.0-251.0","d3ml0pg6","","","null","","Agent B","veridical","STIM_SET_2/285946.bmp_pp79_L2_V1.0_veridical_freeview_isoTrue.mp4",""
"","","","call-function","252","674522","0.0-252.0","d3ml0pg6","","","","","","","",""
"2171.2750000000233","{""judgement"":1}","[0]","survey-likert","253","676694","0.0-253.0","d3ml0pg6","","","","","","","","1"
"2489.8399999999674","{""confidence"":0}","[0]","survey-likert","254","679185","0.0-254.0","d3ml0pg6","","","","","","","",""
"2785.6049999999814","","","instructions","255","681971","0.0-255.0","d3ml0pg6","[{""page_index"":0,""viewing_time"":1040.3350000000792},{""page_index"":1,""viewing_time"":518.0699999999488},{""page_index"":2,""viewing_time"":1226.9949999999953}]","","","","","","",""
"1590.4249999999302","","","instructions","256","683562","0.0-256.0","d3ml0pg6","[{""page_index"":0,""viewing_time"":644.2449999999953},{""page_index"":1,""viewing_time"":504.95999999996275},{""page_index"":2,""viewing_time"":441.1149999999907}]","","","","","","",""
"","","","call-function","257","683563","0.0-257.0","d3ml0pg6","","","","","","","",""
"null","","","html-keyboard-response","258","685069","0.0-258.0","d3ml0pg6","","<span style=""color:Black; font-size:50px;"">Agent A","null","","","","",""
"null","","","video-keyboard-response","259","688143","0.0-259.0","d3ml0pg6","","","null","","Agent A","scrambled","STIM_SET_2/1592530.bmp_pp75_L1_V1.0_scrambled_freeview_isoTrue.mp4",""
"null","","","html-keyboard-response","260","689644","0.0-260.0","d3ml0pg6","","<span style=""color:Black; font-size:50px;"">Agent B","null","","","","",""
"null","","","video-keyboard-response","261","692719","0.0-261.0","d3ml0pg6","","","null","","Agent B","veridical","STIM_SET_2/1592530.bmp_pp75_L1_V1.0_veridical_freeview_isoTrue.mp4",""
"","","","call-function","262","692720","0.0-262.0","d3ml0pg6","","","","","","","",""
"5897.344999999972","{""judgement"":0}","[0]","survey-likert","263","698619","0.0-263.0","d3ml0pg6","","","","","","","","1"
"1854.9799999999814","{""confidence"":0}","[0]","survey-likert","264","700476","0.0-264.0","d3ml0pg6","","","","","","","",""
"","","","call-function","265","700477","0.0-265.0","d3ml0pg6","","","","","","","",""
"null","","","html-keyboard-response","266","701978","0.0-266.0","d3ml0pg6","","<span style=""color:Black; font-size:50px;"">Agent A","null","","","","",""
"null","","","video-keyboard-response","267","705049","0.0-267.0","d3ml0pg6","","","null","","Agent A","scrambled","STIM_SET_2/1592025.bmp_pp68_L1_V1.0_scrambled_freeview_isoTrue.mp4",""
"null","","","html-keyboard-response","268","706552","0.0-268.0","d3ml0pg6","","<span style=""color:Black; font-size:50px;"">Agent B","null","","","","",""
"null","","","video-keyboard-response","269","709626","0.0-269.0","d3ml0pg6","","","null","","Agent B","veridical","STIM_SET_2/1592025.bmp_pp68_L1_V1.0_veridical_freeview_isoTrue.mp4",""
"","","","call-function","270","709627","0.0-270.0","d3ml0pg6","","","","","","","",""
"1643.4099999999162","{""judgement"":0}","[0]","survey-likert","271","711271","0.0-271.0","d3ml0pg6","","","","","","","","1"
"1374.6050000000978","{""confidence"":0}","[0]","survey-likert","272","712648","0.0-272.0","d3ml0pg6","","","","","","","",""
"","","","call-function","273","712649","0.0-273.0","d3ml0pg6","","","","","","","",""
"null","","","html-keyboard-response","274","714151","0.0-274.0","d3ml0pg6","","<span style=""color:Black; font-size:50px;"">Agent A","null","","","","",""
"null","","","video-keyboard-response","275","717231","0.0-275.0","d3ml0pg6","","","null","","Agent A","veridical","STIM_SET_2/1159592.bmp_pp91_L3_V1.0_veridical_freeview_isoTrue.mp4",""
"null","","","html-keyboard-response","276","718734","0.0-276.0","d3ml0pg6","","<span style=""color:Black; font-size:50px;"">Agent B","null","","","","",""
"null","","","video-keyboard-response","277","721811","0.0-277.0","d3ml0pg6","","","null","","Agent B","scrambled","STIM_SET_2/1159592.bmp_pp91_L3_V1.0_scrambled_freeview_isoTrue.mp4",""
"","","","call-function","278","721812","0.0-278.0","d3ml0pg6","","","","","","","",""
"2150.1999999999534","{""judgement"":0}","[0]","survey-likert","279","723963","0.0-279.0","d3ml0pg6","","","","","","","","0"
"1559.2249999999767","{""confidence"":0}","[0]","survey-likert","280","725523","0.0-280.0","d3ml0pg6","","","","","","","",""
"","","","call-function","281","725524","0.0-281.0","d3ml0pg6","","","","","","","",""
"null","","","html-keyboard-response","282","727025","0.0-282.0","d3ml0pg6","","<span style=""color:Black; font-size:50px;"">Agent A","null","","","","",""
"null","","","video-keyboard-response","283","730126","0.0-283.0","d3ml0pg6","","","null","","Agent A","scrambled","STIM_SET_2/713633.bmp_pp58_L1_V1.0_scrambled_freeview_isoTrue.mp4",""
"null","","","html-keyboard-response","284","731630","0.0-284.0","d3ml0pg6","","<span style=""color:Black; font-size:50px;"">Agent B","null","","","","",""
"null","","","video-keyboard-response","285","734731","0.0-285.0","d3ml0pg6","","","null","","Agent B","veridical","STIM_SET_2/713633.bmp_pp58_L1_V1.0_veridical_freeview_isoTrue.mp4",""
"","","","call-function","286","734731","0.0-286.0","d3ml0pg6","","","","","","","",""
"2317.2949999999255","{""judgement"":1}","[0]","survey-likert","287","737049","0.0-287.0","d3ml0pg6","","","","","","","","1"
"1514.8000000000466","{""confidence"":2}","[0]","survey-likert","288","738565","0.0-288.0","d3ml0pg6","","","","","","","",""
"","","","call-function","289","738567","0.0-289.0","d3ml0pg6","","","","","","","",""
"null","","","html-keyboard-response","290","740072","0.0-290.0","d3ml0pg6","","<span style=""color:Black; font-size:50px;"">Agent A","null","","","","",""
"null","","","video-keyboard-response","291","743176","0.0-291.0","d3ml0pg6","","","null","","Agent A","veridical","STIM_SET_2/107909.bmp_pp95_L2_V1.0_veridical_freeview_isoTrue.mp4",""
"null","","","html-keyboard-response","292","744678","0.0-292.0","d3ml0pg6","","<span style=""color:Black; font-size:50px;"">Agent B","null","","","","",""
"null","","","video-keyboard-response","293","747785","0.0-293.0","d3ml0pg6","","","null","","Agent B","scrambled","STIM_SET_2/107909.bmp_pp95_L2_V1.0_scrambled_freeview_isoTrue.mp4",""
"","","","call-function","294","747786","0.0-294.0","d3ml0pg6","","","","","","","",""
"1847.875","{""judgement"":0}","[0]","survey-likert","295","749634","0.0-295.0","d3ml0pg6","","","","","","","","0"
"2321.734999999986","{""confidence"":3}","[0]","survey-likert","296","751957","0.0-296.0","d3ml0pg6","","","","","","","",""
"","","","call-function","297","751958","0.0-297.0","d3ml0pg6","","","","","","","",""
"null","","","html-keyboard-response","298","753462","0.0-298.0","d3ml0pg6","","<span style=""color:Black; font-size:50px;"">Agent A","null","","","","",""
"null","","","video-keyboard-response","299","756566","0.0-299.0","d3ml0pg6","","","null","","Agent A","scrambled","STIM_SET_2/1591781.bmp_pp63_L1_V1.0_scrambled_freeview_isoTrue.mp4",""
"null","","","html-keyboard-response","300","758070","0.0-300.0","d3ml0pg6","","<span style=""color:Black; font-size:50px;"">Agent B","null","","","","",""
"null","","","video-keyboard-response","301","761176","0.0-301.0","d3ml0pg6","","","null","","Agent B","veridical","STIM_SET_2/1591781.bmp_pp63_L1_V1.0_veridical_freeview_isoTrue.mp4",""
"","","","call-function","302","761177","0.0-302.0","d3ml0pg6","","","","","","","",""
"1934.8199999999488","{""judgement"":1}","[0]","survey-likert","303","763113","0.0-303.0","d3ml0pg6","","","","","","","","1"
"2032.9100000000326","{""confidence"":2}","[0]","survey-likert","304","765147","0.0-304.0","d3ml0pg6","","","","","","","",""
"","","","call-function","305","765148","0.0-305.0","d3ml0pg6","","","","","","","",""
"null","","","html-keyboard-response","306","766649","0.0-306.0","d3ml0pg6","","<span style=""color:Black; font-size:50px;"">Agent A","null","","","","",""
"null","","","video-keyboard-response","307","769728","0.0-307.0","d3ml0pg6","","","null","","Agent A","scrambled","STIM_SET_2/1592568.bmp_pp71_L1_V1.0_scrambled_freeview_isoTrue.mp4",""
"null","","","html-keyboard-response","308","771234","0.0-308.0","d3ml0pg6","","<span style=""color:Black; font-size:50px;"">Agent B","null","","","","",""
"null","","","video-keyboard-response","309","774312","0.0-309.0","d3ml0pg6","","","null","","Agent B","veridical","STIM_SET_2/1592568.bmp_pp71_L1_V1.0_veridical_freeview_isoTrue.mp4",""
"","","","call-function","310","774313","0.0-310.0","d3ml0pg6","","","","","","","",""
"1843.9400000000605","{""judgement"":1}","[0]","survey-likert","311","776158","0.0-311.0","d3ml0pg6","","","","","","","","1"
"1579.6799999999348","{""confidence"":3}","[0]","survey-likert","312","777740","0.0-312.0","d3ml0pg6","","","","","","","",""
"","","","call-function","313","777741","0.0-313.0","d3ml0pg6","","","","","","","",""
"null","","","html-keyboard-response","314","779246","0.0-314.0","d3ml0pg6","","<span style=""color:Black; font-size:50px;"">Agent A","null","","","","",""
"null","","","video-keyboard-response","315","782320","0.0-315.0","d3ml0pg6","","","null","","Agent A","scrambled","STIM_SET_2/1592298.bmp_pp56_L3_V1.0_scrambled_freeview_isoTrue.mp4",""
"null","","","html-keyboard-response","316","783824","0.0-316.0","d3ml0pg6","","<span style=""color:Black; font-size:50px;"">Agent B","null","","","","",""
"null","","","video-keyboard-response","317","786899","0.0-317.0","d3ml0pg6","","","null","","Agent B","veridical","STIM_SET_2/1592298.bmp_pp56_L3_V1.0_veridical_freeview_isoTrue.mp4",""
"","","","call-function","318","786900","0.0-318.0","d3ml0pg6","","","","","","","",""
"2214.420000000042","{""judgement"":1}","[0]","survey-likert","319","789116","0.0-319.0","d3ml0pg6","","","","","","","","1"
"4432.715000000084","{""confidence"":1}","[0]","survey-likert","320","793550","0.0-320.0","d3ml0pg6","","","","","","","",""
"","","","call-function","321","793551","0.0-321.0","d3ml0pg6","","","","","","","",""
"null","","","html-keyboard-response","322","795054","0.0-322.0","d3ml0pg6","","<span style=""color:Black; font-size:50px;"">Agent A","null","","","","",""
"null","","","video-keyboard-response","323","798126","0.0-323.0","d3ml0pg6","","","null","","Agent A","veridical","STIM_SET_2/1159329.bmp_pp61_L2_V1.0_veridical_freeview_isoTrue.mp4",""
"null","","","html-keyboard-response","324","799632","0.0-324.0","d3ml0pg6","","<span style=""color:Black; font-size:50px;"">Agent B","null","","","","",""
"null","","","video-keyboard-response","325","802705","0.0-325.0","d3ml0pg6","","","null","","Agent B","scrambled","STIM_SET_2/1159329.bmp_pp61_L2_V1.0_scrambled_freeview_isoTrue.mp4",""
"","","","call-function","326","802706","0.0-326.0","d3ml0pg6","","","","","","","",""
"4961.719999999972","{""judgement"":0}","[0]","survey-likert","327","807669","0.0-327.0","d3ml0pg6","","","","","","","","0"
"1621.1149999999907","{""confidence"":0}","[0]","survey-likert","328","809292","0.0-328.0","d3ml0pg6","","","","","","","",""
"","","","call-function","329","809292","0.0-329.0","d3ml0pg6","","","","","","","",""
"null","","","html-keyboard-response","330","810793","0.0-330.0","d3ml0pg6","","<span style=""color:Black; font-size:50px;"">Agent A","null","","","","",""
"null","","","video-keyboard-response","331","813894","0.0-331.0","d3ml0pg6","","","null","","Agent A","scrambled","STIM_SET_2/713689.bmp_pp153_L3_V1.0_scrambled_freeview_isoTrue.mp4",""
"null","","","html-keyboard-response","332","815396","0.0-332.0","d3ml0pg6","","<span style=""color:Black; font-size:50px;"">Agent B","null","","","","",""
"null","","","video-keyboard-response","333","818490","0.0-333.0","d3ml0pg6","","","null","","Agent B","veridical","STIM_SET_2/713689.bmp_pp153_L3_V1.0_veridical_freeview_isoTrue.mp4",""
"","","","call-function","334","818491","0.0-334.0","d3ml0pg6","","","","","","","",""
"4064.8950000000186","{""judgement"":1}","[0]","survey-likert","335","822557","0.0-335.0","d3ml0pg6","","","","","","","","1"
"2569.5100000000093","{""confidence"":0}","[0]","survey-likert","336","825127","0.0-336.0","d3ml0pg6","","","","","","","",""
"1785.0550000000512","","","instructions","337","826913","0.0-337.0","d3ml0pg6","[{""page_index"":0,""viewing_time"":823.0050000000047},{""page_index"":1,""viewing_time"":532.7149999999674},{""page_index"":2,""viewing_time"":429.0350000000326}]","","","","","","",""
"304095.69500000007","","","instructions","338","1131010","0.0-338.0","d3ml0pg6","[{""page_index"":0,""viewing_time"":744.9799999999814},{""page_index"":1,""viewing_time"":302721.385},{""page_index"":2,""viewing_time"":629.2199999999721}]","","","","","","",""
"","","","call-function","339","1131011","0.0-339.0","d3ml0pg6","","","","","","","",""
"null","","","html-keyboard-response","340","1132513","0.0-340.0","d3ml0pg6","","<span style=""color:Black; font-size:50px;"">Agent A","null","","","","",""
"null","","","video-keyboard-response","341","1135577","0.0-341.0","d3ml0pg6","","","null","","Agent A","scrambled","STIM_SET_2/285715.bmp_pp67_L2_V1.0_scrambled_freeview_isoTrue.mp4",""
"null","","","html-keyboard-response","342","1137080","0.0-342.0","d3ml0pg6","","<span style=""color:Black; font-size:50px;"">Agent B","null","","","","",""
"null","","","video-keyboard-response","343","1140142","0.0-343.0","d3ml0pg6","","","null","","Agent B","veridical","STIM_SET_2/285715.bmp_pp67_L2_V1.0_veridical_freeview_isoTrue.mp4",""
"","","","call-function","344","1140143","0.0-344.0","d3ml0pg6","","","","","","","",""
"1869.4799999999814","{""judgement"":1}","[0]","survey-likert","345","1142013","0.0-345.0","d3ml0pg6","","","","","","","","1"
"1508.1899999999441","{""confidence"":3}","[0]","survey-likert","346","1143522","0.0-346.0","d3ml0pg6","","","","","","","",""
"","","","call-function","347","1143523","0.0-347.0","d3ml0pg6","","","","","","","",""
"null","","","html-keyboard-response","348","1145024","0.0-348.0","d3ml0pg6","","<span style=""color:Black; font-size:50px;"">Agent A","null","","","","",""
"null","","","video-keyboard-response","349","1148093","0.0-349.0","d3ml0pg6","","","null","","Agent A","scrambled","STIM_SET_2/107955.bmp_pp90_L2_V1.0_scrambled_freeview_isoTrue.mp4",""
"null","","","html-keyboard-response","350","1149595","0.0-350.0","d3ml0pg6","","<span style=""color:Black; font-size:50px;"">Agent B","null","","","","",""
"null","","","video-keyboard-response","351","1152662","0.0-351.0","d3ml0pg6","","","null","","Agent B","veridical","STIM_SET_2/107955.bmp_pp90_L2_V1.0_veridical_freeview_isoTrue.mp4",""
"","","","call-function","352","1152662","0.0-352.0","d3ml0pg6","","","","","","","",""
"1415.4599999999627","{""judgement"":1}","[0]","survey-likert","353","1154079","0.0-353.0","d3ml0pg6","","","","","","","","1"
"1036.4250000000466","{""confidence"":2}","[0]","survey-likert","354","1155116","0.0-354.0","d3ml0pg6","","","","","","","",""
"","","","call-function","355","1155117","0.0-355.0","d3ml0pg6","","","","","","","",""
"null","","","html-keyboard-response","356","1156618","0.0-356.0","d3ml0pg6","","<span style=""color:Black; font-size:50px;"">Agent A","null","","","","",""
"null","","","video-keyboard-response","357","1159726","0.0-357.0","d3ml0pg6","","","null","","Agent A","veridical","STIM_SET_2/1159819.bmp_pp151_L1_V1.0_veridical_freeview_isoTrue.mp4",""
"null","","","html-keyboard-response","358","1161232","0.0-358.0","d3ml0pg6","","<span style=""color:Black; font-size:50px;"">Agent B","null","","","","",""
"null","","","video-keyboard-response","359","1164307","0.0-359.0","d3ml0pg6","","","null","","Agent B","scrambled","STIM_SET_2/1159819.bmp_pp151_L1_V1.0_scrambled_freeview_isoTrue.mp4",""
"","","","call-function","360","1164308","0.0-360.0","d3ml0pg6","","","","","","","",""
"1829.464999999851","{""judgement"":0}","[0]","survey-likert","361","1166138","0.0-361.0","d3ml0pg6","","","","","","","","0"
"1760.5149999998976","{""confidence"":3}","[0]","survey-likert","362","1167901","0.0-362.0","d3ml0pg6","","","","","","","",""
"","","","call-function","363","1167902","0.0-363.0","d3ml0pg6","","","","","","","",""
"null","","","html-keyboard-response","364","1169403","0.0-364.0","d3ml0pg6","","<span style=""color:Black; font-size:50px;"">Agent A","null","","","","",""
"null","","","video-keyboard-response","365","1172476","0.0-365.0","d3ml0pg6","","","null","","Agent A","scrambled","STIM_SET_2/498261.bmp_pp84_L3_V1.0_scrambled_freeview_isoTrue.mp4",""
"null","","","html-keyboard-response","366","1173981","0.0-366.0","d3ml0pg6","","<span style=""color:Black; font-size:50px;"">Agent B","null","","","","",""
"null","","","video-keyboard-response","367","1177054","0.0-367.0","d3ml0pg6","","","null","","Agent B","veridical","STIM_SET_2/498261.bmp_pp84_L3_V1.0_veridical_freeview_isoTrue.mp4",""
"","","","call-function","368","1177055","0.0-368.0","d3ml0pg6","","","","","","","",""
"2105.034999999916","{""judgement"":1}","[0]","survey-likert","369","1179161","0.0-369.0","d3ml0pg6","","","","","","","","1"
"1317.1699999999255","{""confidence"":0}","[0]","survey-likert","370","1180479","0.0-370.0","d3ml0pg6","","","","","","","",""
"","","","call-function","371","1180480","0.0-371.0","d3ml0pg6","","","","","","","",""
"null","","","html-keyboard-response","372","1181981","0.0-372.0","d3ml0pg6","","<span style=""color:Black; font-size:50px;"">Agent A","null","","","","",""
"null","","","video-keyboard-response","373","1185052","0.0-373.0","d3ml0pg6","","","null","","Agent A","scrambled","STIM_SET_2/1592150.bmp_pp77_L3_V1.0_scrambled_freeview_isoTrue.mp4",""
"null","","","html-keyboard-response","374","1186556","0.0-374.0","d3ml0pg6","","<span style=""color:Black; font-size:50px;"">Agent B","null","","","","",""
"null","","","video-keyboard-response","375","1189623","0.0-375.0","d3ml0pg6","","","null","","Agent B","veridical","STIM_SET_2/1592150.bmp_pp77_L3_V1.0_veridical_freeview_isoTrue.mp4",""
"","","","call-function","376","1189624","0.0-376.0","d3ml0pg6","","","","","","","",""
"1372.8499999998603","{""judgement"":1}","[0]","survey-likert","377","1190998","0.0-377.0","d3ml0pg6","","","","","","","","1"
"1153.8049999999348","{""confidence"":0}","[0]","survey-likert","378","1192153","0.0-378.0","d3ml0pg6","","","","","","","",""
"","","","call-function","379","1192153","0.0-379.0","d3ml0pg6","","","","","","","",""
"null","","","html-keyboard-response","380","1193656","0.0-380.0","d3ml0pg6","","<span style=""color:Black; font-size:50px;"">Agent A","null","","","","",""
"null","","","video-keyboard-response","381","1196733","0.0-381.0","d3ml0pg6","","","null","","Agent A","veridical","STIM_SET_2/498398.bmp_pp81_L1_V1.0_veridical_freeview_isoTrue.mp4",""
"null","","","html-keyboard-response","382","1198239","0.0-382.0","d3ml0pg6","","<span style=""color:Black; font-size:50px;"">Agent B","null","","","","",""
"null","","","video-keyboard-response","383","1201317","0.0-383.0","d3ml0pg6","","","null","","Agent B","scrambled","STIM_SET_2/498398.bmp_pp81_L1_V1.0_scrambled_freeview_isoTrue.mp4",""
"","","","call-function","384","1201317","0.0-384.0","d3ml0pg6","","","","","","","",""
"1920.0149999998976","{""judgement"":0}","[0]","survey-likert","385","1203238","0.0-385.0","d3ml0pg6","","","","","","","","0"
"2041.9749999998603","{""confidence"":3}","[0]","survey-likert","386","1205281","0.0-386.0","d3ml0pg6","","","","","","","",""
"","","","call-function","387","1205282","0.0-387.0","d3ml0pg6","","","","","","","",""
"null","","","html-keyboard-response","388","1206786","0.0-388.0","d3ml0pg6","","<span style=""color:Black; font-size:50px;"">Agent A","null","","","","",""
"null","","","video-keyboard-response","389","1209881","0.0-389.0","d3ml0pg6","","","null","","Agent A","scrambled","STIM_SET_2/1592857.bmp_pp52_L1_V1_scrambled_freeview_isoTrue.mp4",""
"null","","","html-keyboard-response","390","1211383","0.0-390.0","d3ml0pg6","","<span style=""color:Black; font-size:50px;"">Agent B","null","","","","",""
"null","","","video-keyboard-response","391","1214479","0.0-391.0","d3ml0pg6","","","null","","Agent B","veridical","STIM_SET_2/1592857.bmp_pp52_L1_V1_veridical_freeview_isoTrue.mp4",""
"","","","call-function","392","1214479","0.0-392.0","d3ml0pg6","","","","","","","",""
"1700.1899999999441","{""judgement"":1}","[0]","survey-likert","393","1216181","0.0-393.0","d3ml0pg6","","","","","","","","1"
"1729.6749999998137","{""confidence"":1}","[0]","survey-likert","394","1217912","0.0-394.0","d3ml0pg6","","","","","","","",""
"","","","call-function","395","1217912","0.0-395.0","d3ml0pg6","","","","","","","",""
"null","","","html-keyboard-response","396","1219414","0.0-396.0","d3ml0pg6","","<span style=""color:Black; font-size:50px;"">Agent A","null","","","","",""
"null","","","video-keyboard-response","397","1222506","0.0-397.0","d3ml0pg6","","","null","","Agent A","veridical","STIM_SET_2/1592567.bmp_pp70_L2_V1.0_veridical_freeview_isoTrue.mp4",""
"null","","","html-keyboard-response","398","1224008","0.0-398.0","d3ml0pg6","","<span style=""color:Black; font-size:50px;"">Agent B","null","","","","",""
"null","","","video-keyboard-response","399","1227094","0.0-399.0","d3ml0pg6","","","null","","Agent B","scrambled","STIM_SET_2/1592567.bmp_pp70_L2_V1.0_scrambled_freeview_isoTrue.mp4",""
"","","","call-function","400","1227094","0.0-400.0","d3ml0pg6","","","","","","","",""
"2101.9150000000373","{""judgement"":0}","[0]","survey-likert","401","1229197","0.0-401.0","d3ml0pg6","","","","","","","","0"
"2392.2700000000186","{""confidence"":2}","[0]","survey-likert","402","1231591","0.0-402.0","d3ml0pg6","","","","","","","",""
"","","","call-function","403","1231592","0.0-403.0","d3ml0pg6","","","","","","","",""
"null","","","html-keyboard-response","404","1233098","0.0-404.0","d3ml0pg6","","<span style=""color:Black; font-size:50px;"">Agent A","null","","","","",""
"null","","","video-keyboard-response","405","1236174","0.0-405.0","d3ml0pg6","","","null","","Agent A","veridical","STIM_SET_2/713274.bmp_pp73_L3_V1.0_veridical_freeview_isoTrue.mp4",""
"null","","","html-keyboard-response","406","1237678","0.0-406.0","d3ml0pg6","","<span style=""color:Black; font-size:50px;"">Agent B","null","","","","",""
"null","","","video-keyboard-response","407","1240752","0.0-407.0","d3ml0pg6","","","null","","Agent B","scrambled","STIM_SET_2/713274.bmp_pp73_L3_V1.0_scrambled_freeview_isoTrue.mp4",""
"","","","call-function","408","1240753","0.0-408.0","d3ml0pg6","","","","","","","",""
"1240.8899999998976","{""judgement"":1}","[0]","survey-likert","409","1241995","0.0-409.0","d3ml0pg6","","","","","","","","0"
"2451.375","{""confidence"":1}","[0]","survey-likert","410","1244449","0.0-410.0","d3ml0pg6","","","","","","","",""
"","","","call-function","411","1244450","0.0-411.0","d3ml0pg6","","","","","","","",""
"null","","","html-keyboard-response","412","1245956","0.0-412.0","d3ml0pg6","","<span style=""color:Black; font-size:50px;"">Agent A","null","","","","",""
"null","","","video-keyboard-response","413","1249034","0.0-413.0","d3ml0pg6","","","null","","Agent A","scrambled","STIM_SET_2/713742.bmp_pp91_L3_V1.0_scrambled_freeview_isoTrue.mp4",""
"null","","","html-keyboard-response","414","1250537","0.0-414.0","d3ml0pg6","","<span style=""color:Black; font-size:50px;"">Agent B","null","","","","",""
"null","","","video-keyboard-response","415","1253615","0.0-415.0","d3ml0pg6","","","null","","Agent B","veridical","STIM_SET_2/713742.bmp_pp91_L3_V1.0_veridical_freeview_isoTrue.mp4",""
"","","","call-function","416","1253615","0.0-416.0","d3ml0pg6","","","","","","","",""
"2101.2549999998882","{""judgement"":1}","[0]","survey-likert","417","1255718","0.0-417.0","d3ml0pg6","","","","","","","","1"
"1285.1149999999907","{""confidence"":3}","[0]","survey-likert","418","1257004","0.0-418.0","d3ml0pg6","","","","","","","",""
"2047.6500000001397","","","instructions","419","1259053","0.0-419.0","d3ml0pg6","[{""page_index"":0,""viewing_time"":1155.7700000000186},{""page_index"":1,""viewing_time"":504.6950000000652},{""page_index"":2,""viewing_time"":386.9799999999814}]","","","","","","",""
"1400.5799999998417","","","instructions","420","1260454","0.0-420.0","d3ml0pg6","[{""page_index"":0,""viewing_time"":350.30000000004657},{""page_index"":1,""viewing_time"":381.1799999999348},{""page_index"":2,""viewing_time"":668.9899999999907}]","","","","","","",""
"","","","call-function","421","1260455","0.0-421.0","d3ml0pg6","","","","","","","",""
"null","","","html-keyboard-response","422","1261956","0.0-422.0","d3ml0pg6","","<span style=""color:Black; font-size:50px;"">Agent A","null","","","","",""
"null","","","video-keyboard-response","423","1265024","0.0-423.0","d3ml0pg6","","","null","","Agent A","veridical","STIM_SET_2/713652.bmp_pp89_L1_V1_veridical_freeview_isoTrue.mp4",""
"null","","","html-keyboard-response","424","1266526","0.0-424.0","d3ml0pg6","","<span style=""color:Black; font-size:50px;"">Agent B","null","","","","",""
"null","","","video-keyboard-response","425","1269595","0.0-425.0","d3ml0pg6","","","null","","Agent B","scrambled","STIM_SET_2/713652.bmp_pp89_L1_V1_scrambled_freeview_isoTrue.mp4",""
"","","","call-function","426","1269595","0.0-426.0","d3ml0pg6","","","","","","","",""
"2216.75","{""judgement"":0}","[0]","survey-likert","427","1271813","0.0-427.0","d3ml0pg6","","","","","","","","0"
"1337.8000000000466","{""confidence"":1}","[0]","survey-likert","428","1273152","0.0-428.0","d3ml0pg6","","","","","","","",""
"","","","call-function","429","1273153","0.0-429.0","d3ml0pg6","","","","","","","",""
"null","","","html-keyboard-response","430","1274654","0.0-430.0","d3ml0pg6","","<span style=""color:Black; font-size:50px;"">Agent A","null","","","","",""
"null","","","video-keyboard-response","431","1277755","0.0-431.0","d3ml0pg6","","","null","","Agent A","veridical","STIM_SET_2/1592305.bmp_pp65_L3_V1.0_veridical_freeview_isoTrue.mp4",""
"null","","","html-keyboard-response","432","1279261","0.0-432.0","d3ml0pg6","","<span style=""color:Black; font-size:50px;"">Agent B","null","","","","",""
"null","","","video-keyboard-response","433","1282365","0.0-433.0","d3ml0pg6","","","null","","Agent B","scrambled","STIM_SET_2/1592305.bmp_pp65_L3_V1.0_scrambled_freeview_isoTrue.mp4",""
"","","","call-function","434","1282365","0.0-434.0","d3ml0pg6","","","","","","","",""
"2112.4250000000466","{""judgement"":0}","[0]","survey-likert","435","1284479","0.0-435.0","d3ml0pg6","","","","","","","","0"
"13982.36499999999","{""confidence"":2}","[0]","survey-likert","436","1298462","0.0-436.0","d3ml0pg6","","","","","","","",""
"","","","call-function","437","1298463","0.0-437.0","d3ml0pg6","","","","","","","",""
"null","","","html-keyboard-response","438","1299966","0.0-438.0","d3ml0pg6","","<span style=""color:Black; font-size:50px;"">Agent A","null","","","","",""
"null","","","video-keyboard-response","439","1303066","0.0-439.0","d3ml0pg6","","","null","","Agent A","scrambled","STIM_SET_2/1592921.bmp_pp69_L3_V1.0_scrambled_freeview_isoTrue.mp4",""
"null","","","html-keyboard-response","440","1304568","0.0-440.0","d3ml0pg6","","<span style=""color:Black; font-size:50px;"">Agent B","null","","","","",""
"null","","","video-keyboard-response","441","1307669","0.0-441.0","d3ml0pg6","","","null","","Agent B","veridical","STIM_SET_2/1592921.bmp_pp69_L3_V1.0_veridical_freeview_isoTrue.mp4",""
"","","","call-function","442","1307670","0.0-442.0","d3ml0pg6","","","","","","","",""
"2564.155000000028","{""judgement"":1}","[0]","survey-likert","443","1310235","0.0-443.0","d3ml0pg6","","","","","","","","1"
"1599.0250000001397","{""confidence"":0}","[0]","survey-likert","444","1311835","0.0-444.0","d3ml0pg6","","","","","","","",""
"","","","call-function","445","1311836","0.0-445.0","d3ml0pg6","","","","","","","",""
"null","","","html-keyboard-response","446","1313338","0.0-446.0","d3ml0pg6","","<span style=""color:Black; font-size:50px;"">Agent A","null","","","","",""
"null","","","video-keyboard-response","447","1316403","0.0-447.0","d3ml0pg6","","","null","","Agent A","scrambled","STIM_SET_2/1592044.bmp_pp94_L2_V1.0_scrambled_freeview_isoTrue.mp4",""
"null","","","html-keyboard-response","448","1317906","0.0-448.0","d3ml0pg6","","<span style=""color:Black; font-size:50px;"">Agent B","null","","","","",""
"null","","","video-keyboard-response","449","1320974","0.0-449.0","d3ml0pg6","","","null","","Agent B","veridical","STIM_SET_2/1592044.bmp_pp94_L2_V1.0_veridical_freeview_isoTrue.mp4",""
"","","","call-function","450","1320975","0.0-450.0","d3ml0pg6","","","","","","","",""
"1786.0900000000838","{""judgement"":1}","[0]","survey-likert","451","1322762","0.0-451.0","d3ml0pg6","","","","","","","","1"
"2945.649999999907","{""confidence"":2}","[0]","survey-likert","452","1325709","0.0-452.0","d3ml0pg6","","","","","","","",""
"","","","call-function","453","1325710","0.0-453.0","d3ml0pg6","","","","","","","",""
"null","","","html-keyboard-response","454","1327211","0.0-454.0","d3ml0pg6","","<span style=""color:Black; font-size:50px;"">Agent A","null","","","","",""
"null","","","video-keyboard-response","455","1330288","0.0-455.0","d3ml0pg6","","","null","","Agent A","scrambled","STIM_SET_2/713381.bmp_pp82_L2_V1.0_scrambled_freeview_isoTrue.mp4",""
"null","","","html-keyboard-response","456","1331791","0.0-456.0","d3ml0pg6","","<span style=""color:Black; font-size:50px;"">Agent B","null","","","","",""
"null","","","video-keyboard-response","457","1334870","0.0-457.0","d3ml0pg6","","","null","","Agent B","veridical","STIM_SET_2/713381.bmp_pp82_L2_V1.0_veridical_freeview_isoTrue.mp4",""
"","","","call-function","458","1334871","0.0-458.0","d3ml0pg6","","","","","","","",""
"2985.0399999998044","{""judgement"":1}","[0]","survey-likert","459","1337858","0.0-459.0","d3ml0pg6","","","","","","","","1"
"1355.5400000000373","{""confidence"":1}","[0]","survey-likert","460","1339216","0.0-460.0","d3ml0pg6","","","","","","","",""
"","","","call-function","461","1339217","0.0-461.0","d3ml0pg6","","","","","","","",""
"null","","","html-keyboard-response","462","1340720","0.0-462.0","d3ml0pg6","","<span style=""color:Black; font-size:50px;"">Agent A","null","","","","",""
"null","","","video-keyboard-response","463","1343793","0.0-463.0","d3ml0pg6","","","null","","Agent A","scrambled","STIM_SET_2/713920.bmp_pp76_L1_V1.0_scrambled_freeview_isoTrue.mp4",""
"null","","","html-keyboard-response","464","1345295","0.0-464.0","d3ml0pg6","","<span style=""color:Black; font-size:50px;"">Agent B","null","","","","",""
"null","","","video-keyboard-response","465","1348369","0.0-465.0","d3ml0pg6","","","null","","Agent B","veridical","STIM_SET_2/713920.bmp_pp76_L1_V1.0_veridical_freeview_isoTrue.mp4",""
"","","","call-function","466","1348370","0.0-466.0","d3ml0pg6","","","","","","","",""
"2912.905000000028","{""judgement"":1}","[0]","survey-likert","467","1351284","0.0-467.0","d3ml0pg6","","","","","","","","1"
"2145.445000000065","{""confidence"":2}","[0]","survey-likert","468","1353431","0.0-468.0","d3ml0pg6","","","","","","","",""
"","","","call-function","469","1353432","0.0-469.0","d3ml0pg6","","","","","","","",""
"null","","","html-keyboard-response","470","1354937","0.0-470.0","d3ml0pg6","","<span style=""color:Black; font-size:50px;"">Agent A","null","","","","",""
"null","","","video-keyboard-response","471","1358015","0.0-471.0","d3ml0pg6","","","null","","Agent A","scrambled","STIM_SET_2/1159874.bmp_pp96_L2_V1.0_scrambled_freeview_isoTrue.mp4",""
"null","","","html-keyboard-response","472","1359519","0.0-472.0","d3ml0pg6","","<span style=""color:Black; font-size:50px;"">Agent B","null","","","","",""
"null","","","video-keyboard-response","473","1362619","0.0-473.0","d3ml0pg6","","","null","","Agent B","veridical","STIM_SET_2/1159874.bmp_pp96_L2_V1.0_veridical_freeview_isoTrue.mp4",""
"","","","call-function","474","1362619","0.0-474.0","d3ml0pg6","","","","","","","",""
"1637.0200000000186","{""judgement"":1}","[0]","survey-likert","475","1364257","0.0-475.0","d3ml0pg6","","","","","","","","1"
"2845.4799999999814","{""confidence"":2}","[0]","survey-likert","476","1367104","0.0-476.0","d3ml0pg6","","","","","","","",""
"","","","call-function","477","1367105","0.0-477.0","d3ml0pg6","","","","","","","",""
"null","","","html-keyboard-response","478","1368608","0.0-478.0","d3ml0pg6","","<span style=""color:Black; font-size:50px;"">Agent A","null","","","","",""
"null","","","video-keyboard-response","479","1371666","0.0-479.0","d3ml0pg6","","","null","","Agent A","scrambled","STIM_SET_2/1159860.bmp_pp152_L2_V1.0_scrambled_freeview_isoTrue.mp4",""
"null","","","html-keyboard-response","480","1373170","0.0-480.0","d3ml0pg6","","<span style=""color:Black; font-size:50px;"">Agent B","null","","","","",""
"null","","","video-keyboard-response","481","1376227","0.0-481.0","d3ml0pg6","","","null","","Agent B","veridical","STIM_SET_2/1159860.bmp_pp152_L2_V1.0_veridical_freeview_isoTrue.mp4",""
"","","","call-function","482","1376228","0.0-482.0","d3ml0pg6","","","","","","","",""
"3316.9550000000745","{""judgement"":0}","[0]","survey-likert","483","1379546","0.0-483.0","d3ml0pg6","","","","","","","","1"
"2746.969999999972","{""confidence"":2}","[0]","survey-likert","484","1382294","0.0-484.0","d3ml0pg6","","","","","","","",""
"","","","call-function","485","1382294","0.0-485.0","d3ml0pg6","","","","","","","",""
"null","","","html-keyboard-response","486","1383795","0.0-486.0","d3ml0pg6","","<span style=""color:Black; font-size:50px;"">Agent A","null","","","","",""
"null","","","video-keyboard-response","487","1386865","0.0-487.0","d3ml0pg6","","","null","","Agent A","veridical","STIM_SET_2/1592168.bmp_pp71_L1_V1.0_veridical_freeview_isoTrue.mp4",""
"null","","","html-keyboard-response","488","1388367","0.0-488.0","d3ml0pg6","","<span style=""color:Black; font-size:50px;"">Agent B","null","","","","",""
"null","","","video-keyboard-response","489","1391433","0.0-489.0","d3ml0pg6","","","null","","Agent B","scrambled","STIM_SET_2/1592168.bmp_pp71_L1_V1.0_scrambled_freeview_isoTrue.mp4",""
"","","","call-function","490","1391433","0.0-490.0","d3ml0pg6","","","","","","","",""
"1668.970000000205","{""judgement"":0}","[0]","survey-likert","491","1393103","0.0-491.0","d3ml0pg6","","","","","","","","0"
"1265.5849999999627","{""confidence"":2}","[0]","survey-likert","492","1394370","0.0-492.0","d3ml0pg6","","","","","","","",""
"","","","call-function","493","1394371","0.0-493.0","d3ml0pg6","","","","","","","",""
"null","","","html-keyboard-response","494","1395873","0.0-494.0","d3ml0pg6","","<span style=""color:Black; font-size:50px;"">Agent A","null","","","","",""
"null","","","video-keyboard-response","495","1398937","0.0-495.0","d3ml0pg6","","","null","","Agent A","scrambled","STIM_SET_2/286034.bmp_pp69_L3_V1.0_scrambled_freeview_isoTrue.mp4",""
"null","","","html-keyboard-response","496","1400440","0.0-496.0","d3ml0pg6","","<span style=""color:Black; font-size:50px;"">Agent B","null","","","","",""
"null","","","video-keyboard-response","497","1403529","0.0-497.0","d3ml0pg6","","","null","","Agent B","veridical","STIM_SET_2/286034.bmp_pp69_L3_V1.0_veridical_freeview_isoTrue.mp4",""
"","","","call-function","498","1403529","0.0-498.0","d3ml0pg6","","","","","","","",""
"1474.5100000000093","{""judgement"":1}","[0]","survey-likert","499","1405005","0.0-499.0","d3ml0pg6","","","","","","","","1"
"1220.4599999999627","{""confidence"":0}","[0]","survey-likert","500","1406226","0.0-500.0","d3ml0pg6","","","","","","","",""
"451569.4500000002","","","instructions","501","1857798","0.0-501.0","d3ml0pg6","[{""page_index"":0,""viewing_time"":450381.3500000001},{""page_index"":1,""viewing_time"":595.5500000000466},{""page_index"":2,""viewing_time"":591.9599999999627}]","","","","","","",""
"1762.780000000028","","","instructions","502","1859563","0.0-502.0","d3ml0pg6","[{""page_index"":0,""viewing_time"":603.2349999998696},{""page_index"":1,""viewing_time"":703.4550000000745},{""page_index"":2,""viewing_time"":455.9899999999907}]","","","","","","",""
"","","","call-function","503","1859564","0.0-503.0","d3ml0pg6","","","","","","","",""
"null","","","html-keyboard-response","504","1861066","0.0-504.0","d3ml0pg6","","<span style=""color:Black; font-size:50px;"">Agent A","null","","","","",""
"null","","","video-keyboard-response","505","1864145","0.0-505.0","d3ml0pg6","","","null","","Agent A","scrambled","STIM_SET_2/1592038.bmp_pp79_L2_V1.0_scrambled_freeview_isoTrue.mp4",""
"null","","","html-keyboard-response","506","1865649","0.0-506.0","d3ml0pg6","","<span style=""color:Black; font-size:50px;"">Agent B","null","","","","",""
"null","","","video-keyboard-response","507","1868727","0.0-507.0","d3ml0pg6","","","null","","Agent B","veridical","STIM_SET_2/1592038.bmp_pp79_L2_V1.0_veridical_freeview_isoTrue.mp4",""
"","","","call-function","508","1868728","0.0-508.0","d3ml0pg6","","","","","","","",""
"2320.0849999999627","{""judgement"":0}","[0]","survey-likert","509","1871049","0.0-509.0","d3ml0pg6","","","","","","","","1"
"1136.5549999999348","{""confidence"":0}","[0]","survey-likert","510","1872187","0.0-510.0","d3ml0pg6","","","","","","","",""
"","","","call-function","511","1872187","0.0-511.0","d3ml0pg6","","","","","","","",""
"null","","","html-keyboard-response","512","1873690","0.0-512.0","d3ml0pg6","","<span style=""color:Black; font-size:50px;"">Agent A","null","","","","",""
"null","","","video-keyboard-response","513","1876762","0.0-513.0","d3ml0pg6","","","null","","Agent A","scrambled","STIM_SET_2/498258.bmp_pp51_L1_V1.0_scrambled_freeview_isoTrue.mp4",""
"null","","","html-keyboard-response","514","1878265","0.0-514.0","d3ml0pg6","","<span style=""color:Black; font-size:50px;"">Agent B","null","","","","",""
"null","","","video-keyboard-response","515","1881336","0.0-515.0","d3ml0pg6","","","null","","Agent B","veridical","STIM_SET_2/498258.bmp_pp51_L1_V1.0_veridical_freeview_isoTrue.mp4",""
"","","","call-function","516","1881337","0.0-516.0","d3ml0pg6","","","","","","","",""
"1404.3900000001304","{""judgement"":1}","[0]","survey-likert","517","1882742","0.0-517.0","d3ml0pg6","","","","","","","","1"
"1024.755000000121","{""confidence"":2}","[0]","survey-likert","518","1883768","0.0-518.0","d3ml0pg6","","","","","","","",""
"","","","call-function","519","1883769","0.0-519.0","d3ml0pg6","","","","","","","",""
"null","","","html-keyboard-response","520","1885273","0.0-520.0","d3ml0pg6","","<span style=""color:Black; font-size:50px;"">Agent A","null","","","","",""
"null","","","video-keyboard-response","521","1888377","0.0-521.0","d3ml0pg6","","","null","","Agent A","scrambled","STIM_SET_2/498372.bmp_pp95_L2_V1_scrambled_freeview_isoTrue.mp4",""
"null","","","html-keyboard-response","522","1889881","0.0-522.0","d3ml0pg6","","<span style=""color:Black; font-size:50px;"">Agent B","null","","","","",""
"null","","","video-keyboard-response","523","1892981","0.0-523.0","d3ml0pg6","","","null","","Agent B","veridical","STIM_SET_2/498372.bmp_pp95_L2_V1_veridical_freeview_isoTrue.mp4",""
"","","","call-function","524","1892981","0.0-524.0","d3ml0pg6","","","","","","","",""
"2074.189999999944","{""judgement"":0}","[0]","survey-likert","525","1895056","0.0-525.0","d3ml0pg6","","","","","","","","1"
"1590.9450000000652","{""confidence"":1}","[0]","survey-likert","526","1896648","0.0-526.0","d3ml0pg6","","","","","","","",""
"","","","call-function","527","1896649","0.0-527.0","d3ml0pg6","","","","","","","",""
"null","","","html-keyboard-response","528","1898152","0.0-528.0","d3ml0pg6","","<span style=""color:Black; font-size:50px;"">Agent A","null","","","","",""
"null","","","video-keyboard-response","529","1901246","0.0-529.0","d3ml0pg6","","","null","","Agent A","veridical","STIM_SET_2/1160189.bmp_pp64_L1_V1.0_veridical_freeview_isoTrue.mp4",""
"null","","","html-keyboard-response","530","1902752","0.0-530.0","d3ml0pg6","","<span style=""color:Black; font-size:50px;"">Agent B","null","","","","",""
"null","","","video-keyboard-response","531","1905846","0.0-531.0","d3ml0pg6","","","null","","Agent B","scrambled","STIM_SET_2/1160189.bmp_pp64_L1_V1.0_scrambled_freeview_isoTrue.mp4",""
"","","","call-function","532","1905846","0.0-532.0","d3ml0pg6","","","","","","","",""
"2674.219999999972","{""judgement"":0}","[0]","survey-likert","533","1908521","0.0-533.0","d3ml0pg6","","","","","","","","0"
"1108.0400000000373","{""confidence"":3}","[0]","survey-likert","534","1909631","0.0-534.0","d3ml0pg6","","","","","","","",""
"","","","call-function","535","1909631","0.0-535.0","d3ml0pg6","","","","","","","",""
"null","","","html-keyboard-response","536","1911133","0.0-536.0","d3ml0pg6","","<span style=""color:Black; font-size:50px;"">Agent A","null","","","","",""
"null","","","video-keyboard-response","537","1914189","0.0-537.0","d3ml0pg6","","","null","","Agent A","veridical","STIM_SET_2/713328.bmp_pp86_L2_V1.0_veridical_freeview_isoTrue.mp4",""
"null","","","html-keyboard-response","538","1915695","0.0-538.0","d3ml0pg6","","<span style=""color:Black; font-size:50px;"">Agent B","null","","","","",""
"null","","","video-keyboard-response","539","1918755","0.0-539.0","d3ml0pg6","","","null","","Agent B","scrambled","STIM_SET_2/713328.bmp_pp86_L2_V1.0_scrambled_freeview_isoTrue.mp4",""
"","","","call-function","540","1918757","0.0-540.0","d3ml0pg6","","","","","","","",""
"1677.3200000000652","{""judgement"":0}","[0]","survey-likert","541","1920436","0.0-541.0","d3ml0pg6","","","","","","","","0"
"1104.4599999999627","{""confidence"":3}","[0]","survey-likert","542","1921542","0.0-542.0","d3ml0pg6","","","","","","","",""
"","","","call-function","543","1921543","0.0-543.0","d3ml0pg6","","","","","","","",""
"null","","","html-keyboard-response","544","1923049","0.0-544.0","d3ml0pg6","","<span style=""color:Black; font-size:50px;"">Agent A","null","","","","",""
"null","","","video-keyboard-response","545","1926131","0.0-545.0","d3ml0pg6","","","null","","Agent A","veridical","STIM_SET_2/1592201.bmp_pp97_L3_V1.0_veridical_freeview_isoTrue.mp4",""
"null","","","html-keyboard-response","546","1927637","0.0-546.0","d3ml0pg6","","<span style=""color:Black; font-size:50px;"">Agent B","null","","","","",""
"null","","","video-keyboard-response","547","1930709","0.0-547.0","d3ml0pg6","","","null","","Agent B","scrambled","STIM_SET_2/1592201.bmp_pp97_L3_V1.0_scrambled_freeview_isoTrue.mp4",""
"","","","call-function","548","1930710","0.0-548.0","d3ml0pg6","","","","","","","",""
"1914.3349999999627","{""judgement"":0}","[0]","survey-likert","549","1932626","0.0-549.0","d3ml0pg6","","","","","","","","0"
"1246.815000000177","{""confidence"":0}","[0]","survey-likert","550","1933875","0.0-550.0","d3ml0pg6","","","","","","","",""
"","","","call-function","551","1933875","0.0-551.0","d3ml0pg6","","","","","","","",""
"null","","","html-keyboard-response","552","1935382","0.0-552.0","d3ml0pg6","","<span style=""color:Black; font-size:50px;"">Agent A","null","","","","",""
"null","","","video-keyboard-response","553","1938451","0.0-553.0","d3ml0pg6","","","null","","Agent A","scrambled","STIM_SET_2/1160049.bmp_pp53_L2_V1.0_scrambled_freeview_isoTrue.mp4",""
"null","","","html-keyboard-response","554","1939956","0.0-554.0","d3ml0pg6","","<span style=""color:Black; font-size:50px;"">Agent B","null","","","","",""
"null","","","video-keyboard-response","555","1943026","0.0-555.0","d3ml0pg6","","","null","","Agent B","veridical","STIM_SET_2/1160049.bmp_pp53_L2_V1.0_veridical_freeview_isoTrue.mp4",""
"","","","call-function","556","1943027","0.0-556.0","d3ml0pg6","","","","","","","",""
"1774.5649999999441","{""judgement"":1}","[0]","survey-likert","557","1944802","0.0-557.0","d3ml0pg6","","","","","","","","1"
"2095.869999999879","{""confidence"":3}","[0]","survey-likert","558","1946900","0.0-558.0","d3ml0pg6","","","","","","","",""
"","","","call-function","559","1946900","0.0-559.0","d3ml0pg6","","","","","","","",""
"null","","","html-keyboard-response","560","1948402","0.0-560.0","d3ml0pg6","","<span style=""color:Black; font-size:50px;"">Agent A","null","","","","",""
"null","","","video-keyboard-response","561","1951505","0.0-561.0","d3ml0pg6","","","null","","Agent A","scrambled","STIM_SET_2/1160247.bmp_pp54_L2_V1.0_scrambled_freeview_isoTrue.mp4",""
"null","","","html-keyboard-response","562","1953007","0.0-562.0","d3ml0pg6","","<span style=""color:Black; font-size:50px;"">Agent B","null","","","","",""
"null","","","video-keyboard-response","563","1956104","0.0-563.0","d3ml0pg6","","","null","","Agent B","veridical","STIM_SET_2/1160247.bmp_pp54_L2_V1.0_veridical_freeview_isoTrue.mp4",""
"","","","call-function","564","1956105","0.0-564.0","d3ml0pg6","","","","","","","",""
"1581.530000000028","{""judgement"":1}","[0]","survey-likert","565","1957687","0.0-565.0","d3ml0pg6","","","","","","","","1"
"2630.1149999999907","{""confidence"":3}","[0]","survey-likert","566","1960319","0.0-566.0","d3ml0pg6","","","","","","","",""
"","","","call-function","567","1960319","0.0-567.0","d3ml0pg6","","","","","","","",""
"null","","","html-keyboard-response","568","1961822","0.0-568.0","d3ml0pg6","","<span style=""color:Black; font-size:50px;"">Agent A","null","","","","",""
"null","","","video-keyboard-response","569","1964921","0.0-569.0","d3ml0pg6","","","null","","Agent A","scrambled","STIM_SET_2/1592129.bmp_pp153_L3_V1.0_scrambled_freeview_isoTrue.mp4",""
"null","","","html-keyboard-response","570","1966428","0.0-570.0","d3ml0pg6","","<span style=""color:Black; font-size:50px;"">Agent B","null","","","","",""
"null","","","video-keyboard-response","571","1969522","0.0-571.0","d3ml0pg6","","","null","","Agent B","veridical","STIM_SET_2/1592129.bmp_pp153_L3_V1.0_veridical_freeview_isoTrue.mp4",""
"","","","call-function","572","1969523","0.0-572.0","d3ml0pg6","","","","","","","",""
"1723.2399999999907","{""judgement"":1}","[0]","survey-likert","573","1971247","0.0-573.0","d3ml0pg6","","","","","","","","1"
"3197.1800000001676","{""confidence"":2}","[0]","survey-likert","574","1974445","0.0-574.0","d3ml0pg6","","","","","","","",""
"","","","call-function","575","1974446","0.0-575.0","d3ml0pg6","","","","","","","",""
"null","","","html-keyboard-response","576","1975949","0.0-576.0","d3ml0pg6","","<span style=""color:Black; font-size:50px;"">Agent A","null","","","","",""
"null","","","video-keyboard-response","577","1979053","0.0-577.0","d3ml0pg6","","","null","","Agent A","veridical","STIM_SET_2/498396.bmp_pp99_L2_V1.0_veridical_freeview_isoTrue.mp4",""
"null","","","html-keyboard-response","578","1980560","0.0-578.0","d3ml0pg6","","<span style=""color:Black; font-size:50px;"">Agent B","null","","","","",""
"null","","","video-keyboard-response","579","1983660","0.0-579.0","d3ml0pg6","","","null","","Agent B","scrambled","STIM_SET_2/498396.bmp_pp99_L2_V1.0_scrambled_freeview_isoTrue.mp4",""
"","","","call-function","580","1983660","0.0-580.0","d3ml0pg6","","","","","","","",""
"1760.0700000000652","{""judgement"":0}","[0]","survey-likert","581","1985421","0.0-581.0","d3ml0pg6","","","","","","","","0"
"988.6799999999348","{""confidence"":2}","[0]","survey-likert","582","1986412","0.0-582.0","d3ml0pg6","","","","","","","",""
"1652.2700000000186","","","instructions","583","1988065","0.0-583.0","d3ml0pg6","[{""page_index"":0,""viewing_time"":1652.1350000000093}]","","","","","","",""
"4482.325000000186","","","instructions","584","1992548","0.0-584.0","d3ml0pg6","[{""page_index"":0,""viewing_time"":4482.130000000121}]","","","","","","",""
"11646.875","{""post-1"":3}","[0]","survey-likert","585","2004196","0.0-585.0","d3ml0pg6","","","","","","","",""
"4386.524999999907","{""post-1"":1}","[0]","survey-likert","586","2008584","0.0-586.0","d3ml0pg6","","","","","","","",""
"8160.125","{""post-2"":3}","[0]","survey-likert","587","2016746","0.0-587.0","d3ml0pg6","","","","","","","",""
"2207.8899999998976","{""post-2"":1}","[0]","survey-likert","588","2018956","0.0-588.0","d3ml0pg6","","","","","","","",""
"6279.479999999981","{""post-3"":2}","[0]","survey-likert","589","2025237","0.0-589.0","d3ml0pg6","","","","","","","",""
"1508.719999999972","{""post-3"":1}","[0]","survey-likert","590","2026748","0.0-590.0","d3ml0pg6","","","","","","","",""
"5131.410000000149","{""post-4"":1}","[0]","survey-likert","591","2031881","0.0-591.0","d3ml0pg6","","","","","","","",""
"1805.8049999999348","{""post-4"":0}","[0]","survey-likert","592","2033688","0.0-592.0","d3ml0pg6","","","","","","","",""
"8231.264999999898","{""post-5"":0}","[0]","survey-likert","593","2041921","0.0-593.0","d3ml0pg6","","","","","","","",""
"1927.7249999998603","{""post-5"":2}","[0]","survey-likert","594","2043850","0.0-594.0","d3ml0pg6","","","","","","","",""
"8503.850000000093","{""Q0"":""none""}","","survey-text","595","2052360","0.0-595.0","d3ml0pg6","","","","","","","",""
"35317.52499999991","{""Q0"":""i thought that watching without the images was much easier. I mostly thought that the smoother ones were more human""}","","survey-text","596","2087681","0.0-596.0","d3ml0pg6","","","","","","","",""
"6806.199999999953","{""Q0"":""staying focused""}","","survey-text","597","2094491","0.0-597.0","d3ml0pg6","","","","","","","",""
"1303.6099999998696","","","instructions","598","2095796","0.0-598.0","d3ml0pg6","[{""page_index"":0,""viewing_time"":1303.4749999998603}]","","","","","","",""
"84820.92499999981","{""Experimenter_end"":[""Printed ID# d3ml0pg6 on consent form"",""Given subject SONA credit or payment"",""Given the subject debrief form""]}","[0]","survey-multi-select","599","2180619","0.0-599.0","d3ml0pg6","","","","","","","",""
