"rt","responses","question_order","trial_type","trial_index","time_elapsed","internal_node_id","ID","view_history","stimulus","key_press","value","agent","condition","image","correct_answer"
"6836.93","{""Experimenter"":[""Confirmed subject's identity (ID card)"",""Confirmed normal or corrected-to-normal vision"",""Obtained consent (signature and date)"",""Checked the test room lighting"",""Checked computer screen lighting"",""Checked distance from screen to chin rest (50cm)"",""Cleaned and adjusted chin rest"",""Counterbalanced the order of the tasks"",""Opened the experiment in Firefox"",""Made the experiment full screen"",""Encouraged subject to silence phone, put away distractors, etc.""]}","[0]","survey-multi-select","0","6846","0.0-0.0","d9jc26z3","","","","","","","",""
"19394.66","","","instructions","1","26243","0.0-1.0","d9jc26z3","[{""page_index"":0,""viewing_time"":19394.045000000002}]","","","","","","",""
"45149.380000000005","","","instructions","2","71394","0.0-2.0","d9jc26z3","[{""page_index"":0,""viewing_time"":29799.345000000005},{""page_index"":1,""viewing_time"":6765.004999999997},{""page_index"":2,""viewing_time"":8584.904999999999}]","","","","","","",""
"3606.4850000000006","","","instructions","3","75001","0.0-3.0","d9jc26z3","[{""page_index"":0,""viewing_time"":3606.3800000000047}]","","","","","","",""
"null","","","video-keyboard-response","4","78075","0.0-4.0","d9jc26z3","","","null","","","","",""
"19622.92","","","instructions","5","97699","0.0-5.0","d9jc26z3","[{""page_index"":0,""viewing_time"":4719.884999999995},{""page_index"":1,""viewing_time"":3945.0050000000047},{""page_index"":2,""viewing_time"":1173.9600000000064},{""page_index"":3,""viewing_time"":3852.0650000000023},{""page_index"":4,""viewing_time"":5931.875}]","","","","","","",""
"3628.6500000000087","","","instructions","6","101328","0.0-6.0","d9jc26z3","[{""page_index"":0,""viewing_time"":3628.5250000000087}]","","","","","","",""
"","","","call-function","7","101329","0.0-7.0","d9jc26z3","","","","","","","",""
"null","","","html-keyboard-response","8","102832","0.0-8.0","d9jc26z3","","<span style=""color:Black; font-size:50px;"">Agent A","null","","","","",""
"null","","","video-keyboard-response","9","105899","0.0-9.0","d9jc26z3","","","null","","Agent A","veridical","STIM_SET_1_REAL/713403.bmp_pp80_L3_V1.0_veridical_freeview_isoFalse_fps144.mp4",""
"null","","","html-keyboard-response","10","107403","0.0-10.0","d9jc26z3","","<span style=""color:Black; font-size:50px;"">Agent B","null","","","","",""
"null","","","video-keyboard-response","11","110466","0.0-11.0","d9jc26z3","","","null","","Agent B","scrambled","STIM_SET_3/286034.bmp_pp69_L3_V2_veridical_freeview_isoFalsemismatch_713403.bmp_L3_fps90.mp4",""
"","","","call-function","12","110467","0.0-12.0","d9jc26z3","","","","","","","",""
"4081.3050000000076","{""judgement"":0}","[0]","survey-likert","13","114550","0.0-13.0","d9jc26z3","","","","","","","","0"
"1713.3699999999953","{""confidence"":3}","[0]","survey-likert","14","116265","0.0-14.0","d9jc26z3","","","","","","","",""
"","","","call-function","15","116265","0.0-15.0","d9jc26z3","","","","","","","",""
"null","","","html-keyboard-response","16","117769","0.0-16.0","d9jc26z3","","<span style=""color:Black; font-size:50px;"">Agent A","null","","","","",""
"null","","","video-keyboard-response","17","120836","0.0-17.0","d9jc26z3","","","null","","Agent A","scrambled","STIM_SET_3/107955.bmp_pp90_L2_V2_veridical_freeview_isoFalsemismatch_498149.bmp_L2_fps90.mp4",""
"null","","","html-keyboard-response","18","122340","0.0-18.0","d9jc26z3","","<span style=""color:Black; font-size:50px;"">Agent B","null","","","","",""
"null","","","video-keyboard-response","19","125433","0.0-19.0","d9jc26z3","","","null","","Agent B","veridical","STIM_SET_1_REAL/498149.bmp_pp99_L2_V1.0_veridical_freeview_isoFalse_fps144.mp4",""
"","","","call-function","20","125434","0.0-20.0","d9jc26z3","","","","","","","",""
"1373.840000000011","{""judgement"":1}","[0]","survey-likert","21","126809","0.0-21.0","d9jc26z3","","","","","","","","1"
"1331.3999999999942","{""confidence"":3}","[0]","survey-likert","22","128142","0.0-22.0","d9jc26z3","","","","","","","",""
"","","","call-function","23","128143","0.0-23.0","d9jc26z3","","","","","","","",""
"null","","","html-keyboard-response","24","129646","0.0-24.0","d9jc26z3","","<span style=""color:Black; font-size:50px;"">Agent A","null","","","","",""
"null","","","video-keyboard-response","25","132745","0.0-25.0","d9jc26z3","","","null","","Agent A","scrambled","STIM_SET_3/1592857.bmp_pp52_L1_V2_veridical_freeview_isoFalsemismatch_1160168.bmp_L2_fps90.mp4",""
"null","","","html-keyboard-response","26","134248","0.0-26.0","d9jc26z3","","<span style=""color:Black; font-size:50px;"">Agent B","null","","","","",""
"null","","","video-keyboard-response","27","137352","0.0-27.0","d9jc26z3","","","null","","Agent B","veridical","STIM_SET_1_REAL/1160168.bmp_pp53_L2_V1.0_veridical_freeview_isoFalse_fps144.mp4",""
"","","","call-function","28","137353","0.0-28.0","d9jc26z3","","","","","","","",""
"1421.054999999993","{""judgement"":1}","[0]","survey-likert","29","138774","0.0-29.0","d9jc26z3","","","","","","","","1"
"1401.8099999999977","{""confidence"":2}","[0]","survey-likert","30","140177","0.0-30.0","d9jc26z3","","","","","","","",""
"","","","call-function","31","140178","0.0-31.0","d9jc26z3","","","","","","","",""
"null","","","html-keyboard-response","32","141680","0.0-32.0","d9jc26z3","","<span style=""color:Black; font-size:50px;"">Agent A","null","","","","",""
"null","","","video-keyboard-response","33","144753","0.0-33.0","d9jc26z3","","","null","","Agent A","scrambled","STIM_SET_3/107909.bmp_pp95_L2_V2_veridical_freeview_isoFalsemismatch_1592372.bmp_L1_fps90.mp4",""
"null","","","html-keyboard-response","34","146256","0.0-34.0","d9jc26z3","","<span style=""color:Black; font-size:50px;"">Agent B","null","","","","",""
"null","","","video-keyboard-response","35","149359","0.0-35.0","d9jc26z3","","","null","","Agent B","veridical","STIM_SET_1_REAL/1592372.bmp_pp76_L1_V1.0_veridical_freeview_isoFalse_fps144.mp4",""
"","","","call-function","36","149360","0.0-36.0","d9jc26z3","","","","","","","",""
"2311.7299999999814","{""judgement"":0}","[0]","survey-likert","37","151672","0.0-37.0","d9jc26z3","","","","","","","","1"
"1448.7400000000198","{""confidence"":1}","[0]","survey-likert","38","153122","0.0-38.0","d9jc26z3","","","","","","","",""
"","","","call-function","39","153123","0.0-39.0","d9jc26z3","","","","","","","",""
"null","","","html-keyboard-response","40","154626","0.0-40.0","d9jc26z3","","<span style=""color:Black; font-size:50px;"">Agent A","null","","","","",""
"null","","","video-keyboard-response","41","157729","0.0-41.0","d9jc26z3","","","null","","Agent A","veridical","STIM_SET_1_REAL/1592397.bmp_pp85_L3_V1.0_veridical_freeview_isoFalse_fps144.mp4",""
"null","","","html-keyboard-response","42","159231","0.0-42.0","d9jc26z3","","<span style=""color:Black; font-size:50px;"">Agent B","null","","","","",""
"null","","","video-keyboard-response","43","162403","0.0-43.0","d9jc26z3","","","null","","Agent B","scrambled","STIM_SET_3/713790.bmp_pp100_L3_V2_veridical_freeview_isoFalsemismatch_1592397.bmp_L3_fps90.mp4",""
"","","","call-function","44","162403","0.0-44.0","d9jc26z3","","","","","","","",""
"1365.179999999993","{""judgement"":0}","[0]","survey-likert","45","163769","0.0-45.0","d9jc26z3","","","","","","","","0"
"1024.6849999999977","{""confidence"":3}","[0]","survey-likert","46","164795","0.0-46.0","d9jc26z3","","","","","","","",""
"","","","call-function","47","164796","0.0-47.0","d9jc26z3","","","","","","","",""
"null","","","html-keyboard-response","48","166299","0.0-48.0","d9jc26z3","","<span style=""color:Black; font-size:50px;"">Agent A","null","","","","",""
"null","","","video-keyboard-response","49","169376","0.0-49.0","d9jc26z3","","","null","","Agent A","scrambled","STIM_SET_3/713633.bmp_pp58_L1_V2_veridical_freeview_isoFalsemismatch_713796.bmp_L3_fps90.mp4",""
"null","","","html-keyboard-response","50","170882","0.0-50.0","d9jc26z3","","<span style=""color:Black; font-size:50px;"">Agent B","null","","","","",""
"null","","","video-keyboard-response","51","173952","0.0-51.0","d9jc26z3","","","null","","Agent B","veridical","STIM_SET_1_REAL/713796.bmp_pp84_L3_V1.0_veridical_freeview_isoFalse_fps144.mp4",""
"","","","call-function","52","173953","0.0-52.0","d9jc26z3","","","","","","","",""
"1310.0799999999872","{""judgement"":1}","[0]","survey-likert","53","175263","0.0-53.0","d9jc26z3","","","","","","","","1"
"2874.5750000000116","{""confidence"":2}","[0]","survey-likert","54","178139","0.0-54.0","d9jc26z3","","","","","","","",""
"","","","call-function","55","178140","0.0-55.0","d9jc26z3","","","","","","","",""
"null","","","html-keyboard-response","56","179641","0.0-56.0","d9jc26z3","","<span style=""color:Black; font-size:50px;"">Agent A","null","","","","",""
"null","","","video-keyboard-response","57","182742","0.0-57.0","d9jc26z3","","","null","","Agent A","veridical","STIM_SET_1_REAL/1592934.bmp_pp63_L1_V1.0_veridical_freeview_isoFalse_fps144.mp4",""
"null","","","html-keyboard-response","58","184249","0.0-58.0","d9jc26z3","","<span style=""color:Black; font-size:50px;"">Agent B","null","","","","",""
"null","","","video-keyboard-response","59","187329","0.0-59.0","d9jc26z3","","","null","","Agent B","scrambled","STIM_SET_3/1159392.bmp_pp96_L2_V2_veridical_freeview_isoFalsemismatch_1592934.bmp_L1_fps90.mp4",""
"","","","call-function","60","187330","0.0-60.0","d9jc26z3","","","","","","","",""
"1178.625","{""judgement"":0}","[0]","survey-likert","61","188511","0.0-61.0","d9jc26z3","","","","","","","","0"
"2393.3000000000175","{""confidence"":2}","[0]","survey-likert","62","190907","0.0-62.0","d9jc26z3","","","","","","","",""
"","","","call-function","63","190908","0.0-63.0","d9jc26z3","","","","","","","",""
"null","","","html-keyboard-response","64","192409","0.0-64.0","d9jc26z3","","<span style=""color:Black; font-size:50px;"">Agent A","null","","","","",""
"null","","","video-keyboard-response","65","195486","0.0-65.0","d9jc26z3","","","null","","Agent A","scrambled","STIM_SET_3/285959.bmp_pp93_L1_V2_veridical_freeview_isoFalsemismatch_498253.bmp_L2_fps90.mp4",""
"null","","","html-keyboard-response","66","196988","0.0-66.0","d9jc26z3","","<span style=""color:Black; font-size:50px;"">Agent B","null","","","","",""
"null","","","video-keyboard-response","67","200064","0.0-67.0","d9jc26z3","","","null","","Agent B","veridical","STIM_SET_1_REAL/498253.bmp_pp67_L2_V1.0_veridical_freeview_isoFalse_fps144.mp4",""
"","","","call-function","68","200065","0.0-68.0","d9jc26z3","","","","","","","",""
"1835.8249999999825","{""judgement"":0}","[0]","survey-likert","69","201902","0.0-69.0","d9jc26z3","","","","","","","","1"
"1977.7850000000035","{""confidence"":2}","[0]","survey-likert","70","203881","0.0-70.0","d9jc26z3","","","","","","","",""
"","","","call-function","71","203882","0.0-71.0","d9jc26z3","","","","","","","",""
"null","","","html-keyboard-response","72","205384","0.0-72.0","d9jc26z3","","<span style=""color:Black; font-size:50px;"">Agent A","null","","","","",""
"null","","","video-keyboard-response","73","208455","0.0-73.0","d9jc26z3","","","null","","Agent A","scrambled","STIM_SET_3/713788.bmp_pp52_L1_V2_veridical_freeview_isoFalsemismatch_1159768.bmp_L1_fps90.mp4",""
"null","","","html-keyboard-response","74","209960","0.0-74.0","d9jc26z3","","<span style=""color:Black; font-size:50px;"">Agent B","null","","","","",""
"null","","","video-keyboard-response","75","213066","0.0-75.0","d9jc26z3","","","null","","Agent B","veridical","STIM_SET_1_REAL/1159768.bmp_pp89_L1_V1.0_veridical_freeview_isoFalse_fps144.mp4",""
"","","","call-function","76","213067","0.0-76.0","d9jc26z3","","","","","","","",""
"1957.9649999999965","{""judgement"":1}","[0]","survey-likert","77","215025","0.0-77.0","d9jc26z3","","","","","","","","1"
"1610.1650000000081","{""confidence"":2}","[0]","survey-likert","78","216637","0.0-78.0","d9jc26z3","","","","","","","",""
"","","","call-function","79","216637","0.0-79.0","d9jc26z3","","","","","","","",""
"null","","","html-keyboard-response","80","218138","0.0-80.0","d9jc26z3","","<span style=""color:Black; font-size:50px;"">Agent A","null","","","","",""
"null","","","video-keyboard-response","81","221244","0.0-81.0","d9jc26z3","","","null","","Agent A","veridical","STIM_SET_1_REAL/713017.bmp_pp152_L2_V1.0_veridical_freeview_isoFalse_fps144.mp4",""
"null","","","html-keyboard-response","82","222748","0.0-82.0","d9jc26z3","","<span style=""color:Black; font-size:50px;"">Agent B","null","","","","",""
"null","","","video-keyboard-response","83","225838","0.0-83.0","d9jc26z3","","","null","","Agent B","scrambled","STIM_SET_3/1591975.bmp_pp88_L2_V2_veridical_freeview_isoFalsemismatch_713017.bmp_L2_fps90.mp4",""
"","","","call-function","84","225838","0.0-84.0","d9jc26z3","","","","","","","",""
"1321.7200000000012","{""judgement"":0}","[0]","survey-likert","85","227161","0.0-85.0","d9jc26z3","","","","","","","","0"
"1220.0149999999849","{""confidence"":3}","[0]","survey-likert","86","228383","0.0-86.0","d9jc26z3","","","","","","","",""
"46636.22999999998","","","instructions","87","275020","0.0-87.0","d9jc26z3","[{""page_index"":0,""viewing_time"":4469.029999999999},{""page_index"":1,""viewing_time"":2400.1299999999756},{""page_index"":2,""viewing_time"":39766.90500000003}]","","","","","","",""
"2575.625","","","instructions","88","277596","0.0-88.0","d9jc26z3","[{""page_index"":0,""viewing_time"":581.3799999999464},{""page_index"":1,""viewing_time"":1534.8600000000442},{""page_index"":2,""viewing_time"":459.2749999999651}]","","","","","","",""
"","","","call-function","89","277597","0.0-89.0","d9jc26z3","","","","","","","",""
"null","","","html-keyboard-response","90","279098","0.0-90.0","d9jc26z3","","<span style=""color:Black; font-size:50px;"">Agent A","null","","","","",""
"null","","","video-keyboard-response","91","282167","0.0-91.0","d9jc26z3","","","null","","Agent A","veridical","STIM_SET_1_REAL/1159829.bmp_pp91_L3_V1.0_veridical_freeview_isoFalse_fps144.mp4",""
"null","","","html-keyboard-response","92","283674","0.0-92.0","d9jc26z3","","<span style=""color:Black; font-size:50px;"">Agent B","null","","","","",""
"null","","","video-keyboard-response","93","286750","0.0-93.0","d9jc26z3","","","null","","Agent B","scrambled","STIM_SET_3/1159956.bmp_pp59_L3_V2_veridical_freeview_isoFalsemismatch_1159829.bmp_L3_fps90.mp4",""
"","","","call-function","94","286751","0.0-94.0","d9jc26z3","","","","","","","",""
"1485.6300000000047","{""judgement"":0}","[0]","survey-likert","95","288237","0.0-95.0","d9jc26z3","","","","","","","","0"
"1259.6599999999744","{""confidence"":1}","[0]","survey-likert","96","289499","0.0-96.0","d9jc26z3","","","","","","","",""
"","","","call-function","97","289499","0.0-97.0","d9jc26z3","","","","","","","",""
"null","","","html-keyboard-response","98","291005","0.0-98.0","d9jc26z3","","<span style=""color:Black; font-size:50px;"">Agent A","null","","","","",""
"null","","","video-keyboard-response","99","294077","0.0-99.0","d9jc26z3","","","null","","Agent A","scrambled","STIM_SET_3/1592305.bmp_pp65_L3_V2_veridical_freeview_isoFalsemismatch_713779.bmp_L2_fps90.mp4",""
"null","","","html-keyboard-response","100","295581","0.0-100.0","d9jc26z3","","<span style=""color:Black; font-size:50px;"">Agent B","null","","","","",""
"null","","","video-keyboard-response","101","298645","0.0-101.0","d9jc26z3","","","null","","Agent B","veridical","STIM_SET_1_REAL/713779.bmp_pp152_L2_V1.0_veridical_freeview_isoFalse_fps144.mp4",""
"","","","call-function","102","298646","0.0-102.0","d9jc26z3","","","","","","","",""
"2311.9949999999953","{""judgement"":0}","[0]","survey-likert","103","300959","0.0-103.0","d9jc26z3","","","","","","","","1"
"1133.9099999999744","{""confidence"":1}","[0]","survey-likert","104","302094","0.0-104.0","d9jc26z3","","","","","","","",""
"","","","call-function","105","302094","0.0-105.0","d9jc26z3","","","","","","","",""
"null","","","html-keyboard-response","106","303597","0.0-106.0","d9jc26z3","","<span style=""color:Black; font-size:50px;"">Agent A","null","","","","",""
"null","","","video-keyboard-response","107","306698","0.0-107.0","d9jc26z3","","","null","","Agent A","veridical","STIM_SET_1_REAL/713513.bmp_pp62_L2_V1.0_veridical_freeview_isoFalse_fps144.mp4",""
"null","","","html-keyboard-response","108","308202","0.0-108.0","d9jc26z3","","<span style=""color:Black; font-size:50px;"">Agent B","null","","","","",""
"null","","","video-keyboard-response","109","311290","0.0-109.0","d9jc26z3","","","null","","Agent B","scrambled","STIM_SET_3/1592047.bmp_pp51_L1_V2_veridical_freeview_isoFalsemismatch_713513.bmp_L2_fps90.mp4",""
"","","","call-function","110","311290","0.0-110.0","d9jc26z3","","","","","","","",""
"2234.0650000000023","{""judgement"":0}","[0]","survey-likert","111","313525","0.0-111.0","d9jc26z3","","","","","","","","0"
"1650.25","{""confidence"":1}","[0]","survey-likert","112","315177","0.0-112.0","d9jc26z3","","","","","","","",""
"","","","call-function","113","315177","0.0-113.0","d9jc26z3","","","","","","","",""
"null","","","html-keyboard-response","114","316678","0.0-114.0","d9jc26z3","","<span style=""color:Black; font-size:50px;"">Agent A","null","","","","",""
"null","","","video-keyboard-response","115","319779","0.0-115.0","d9jc26z3","","","null","","Agent A","veridical","STIM_SET_1_REAL/1159515.bmp_pp84_L3_V1.0_veridical_freeview_isoFalse_fps144.mp4",""
"null","","","html-keyboard-response","116","321284","0.0-116.0","d9jc26z3","","<span style=""color:Black; font-size:50px;"">Agent B","null","","","","",""
"null","","","video-keyboard-response","117","324408","0.0-117.0","d9jc26z3","","","null","","Agent B","scrambled","STIM_SET_3/1159874.bmp_pp96_L2_V2_veridical_freeview_isoFalsemismatch_1159515.bmp_L3_fps90.mp4",""
"","","","call-function","118","324409","0.0-118.0","d9jc26z3","","","","","","","",""
"1788.024999999965","{""judgement"":0}","[0]","survey-likert","119","326199","0.0-119.0","d9jc26z3","","","","","","","","0"
"1856.3699999999953","{""confidence"":3}","[0]","survey-likert","120","328057","0.0-120.0","d9jc26z3","","","","","","","",""
"","","","call-function","121","328059","0.0-121.0","d9jc26z3","","","","","","","",""
"null","","","html-keyboard-response","122","329560","0.0-122.0","d9jc26z3","","<span style=""color:Black; font-size:50px;"">Agent A","null","","","","",""
"null","","","video-keyboard-response","123","332627","0.0-123.0","d9jc26z3","","","null","","Agent A","veridical","STIM_SET_1_REAL/1592362.bmp_pp95_L2_V1.0_veridical_freeview_isoFalse_fps144.mp4",""
"null","","","html-keyboard-response","124","334131","0.0-124.0","d9jc26z3","","<span style=""color:Black; font-size:50px;"">Agent B","null","","","","",""
"null","","","video-keyboard-response","125","337202","0.0-125.0","d9jc26z3","","","null","","Agent B","scrambled","STIM_SET_3/150277.bmp_pp65_L3_V2_veridical_freeview_isoFalsemismatch_1592362.bmp_L2_fps90.mp4",""
"","","","call-function","126","337203","0.0-126.0","d9jc26z3","","","","","","","",""
"2542.125","{""judgement"":0}","[0]","survey-likert","127","339746","0.0-127.0","d9jc26z3","","","","","","","","0"
"1330.8250000000116","{""confidence"":3}","[0]","survey-likert","128","341078","0.0-128.0","d9jc26z3","","","","","","","",""
"","","","call-function","129","341079","0.0-129.0","d9jc26z3","","","","","","","",""
"null","","","html-keyboard-response","130","342581","0.0-130.0","d9jc26z3","","<span style=""color:Black; font-size:50px;"">Agent A","null","","","","",""
"null","","","video-keyboard-response","131","345644","0.0-131.0","d9jc26z3","","","null","","Agent A","veridical","STIM_SET_1_REAL/497950.bmp_pp151_L1_V1.0_veridical_freeview_isoFalse_fps144.mp4",""
"null","","","html-keyboard-response","132","347147","0.0-132.0","d9jc26z3","","<span style=""color:Black; font-size:50px;"">Agent B","null","","","","",""
"null","","","video-keyboard-response","133","350258","0.0-133.0","d9jc26z3","","","null","","Agent B","scrambled","STIM_SET_3/713274.bmp_pp73_L3_V2_veridical_freeview_isoFalsemismatch_497950.bmp_L1_fps90.mp4",""
"","","","call-function","134","350259","0.0-134.0","d9jc26z3","","","","","","","",""
"2999.5","{""judgement"":0}","[0]","survey-likert","135","353260","0.0-135.0","d9jc26z3","","","","","","","","0"
"1638.8250000000116","{""confidence"":3}","[0]","survey-likert","136","354900","0.0-136.0","d9jc26z3","","","","","","","",""
"","","","call-function","137","354901","0.0-137.0","d9jc26z3","","","","","","","",""
"null","","","html-keyboard-response","138","356405","0.0-138.0","d9jc26z3","","<span style=""color:Black; font-size:50px;"">Agent A","null","","","","",""
"null","","","video-keyboard-response","139","359505","0.0-139.0","d9jc26z3","","","null","","Agent A","scrambled","STIM_SET_3/1592567.bmp_pp70_L2_V2_veridical_freeview_isoFalsemismatch_713135.bmp_L2_fps90.mp4",""
"null","","","html-keyboard-response","140","361012","0.0-140.0","d9jc26z3","","<span style=""color:Black; font-size:50px;"">Agent B","null","","","","",""
"null","","","video-keyboard-response","141","364115","0.0-141.0","d9jc26z3","","","null","","Agent B","veridical","STIM_SET_1_REAL/713135.bmp_pp54_L2_V1.0_veridical_freeview_isoFalse_fps144.mp4",""
"","","","call-function","142","364116","0.0-142.0","d9jc26z3","","","","","","","",""
"1674.1049999999814","{""judgement"":1}","[0]","survey-likert","143","365791","0.0-143.0","d9jc26z3","","","","","","","","1"
"1638.1050000000396","{""confidence"":2}","[0]","survey-likert","144","367431","0.0-144.0","d9jc26z3","","","","","","","",""
"","","","call-function","145","367432","0.0-145.0","d9jc26z3","","","","","","","",""
"null","","","html-keyboard-response","146","368934","0.0-146.0","d9jc26z3","","<span style=""color:Black; font-size:50px;"">Agent A","null","","","","",""
"null","","","video-keyboard-response","147","372017","0.0-147.0","d9jc26z3","","","null","","Agent A","scrambled","STIM_SET_3/713689.bmp_pp153_L3_V2_veridical_freeview_isoFalsemismatch_498175.bmp_L1_fps90.mp4",""
"null","","","html-keyboard-response","148","373519","0.0-148.0","d9jc26z3","","<span style=""color:Black; font-size:50px;"">Agent B","null","","","","",""
"null","","","video-keyboard-response","149","376614","0.0-149.0","d9jc26z3","","","null","","Agent B","veridical","STIM_SET_1_REAL/498175.bmp_pp154_L1_V1.0_veridical_freeview_isoFalse_fps144.mp4",""
"","","","call-function","150","376615","0.0-150.0","d9jc26z3","","","","","","","",""
"2925.5050000000047","{""judgement"":0}","[0]","survey-likert","151","379541","0.0-151.0","d9jc26z3","","","","","","","","1"
"2023.8349999999627","{""confidence"":1}","[0]","survey-likert","152","381567","0.0-152.0","d9jc26z3","","","","","","","",""
"","","","call-function","153","381567","0.0-153.0","d9jc26z3","","","","","","","",""
"null","","","html-keyboard-response","154","383069","0.0-154.0","d9jc26z3","","<span style=""color:Black; font-size:50px;"">Agent A","null","","","","",""
"null","","","video-keyboard-response","155","386183","0.0-155.0","d9jc26z3","","","null","","Agent A","scrambled","STIM_SET_3/498025.bmp_pp81_L1_V2_veridical_freeview_isoFalsemismatch_713681.bmp_L2_fps90.mp4",""
"null","","","html-keyboard-response","156","387685","0.0-156.0","d9jc26z3","","<span style=""color:Black; font-size:50px;"">Agent B","null","","","","",""
"null","","","video-keyboard-response","157","390775","0.0-157.0","d9jc26z3","","","null","","Agent B","veridical","STIM_SET_1_REAL/713681.bmp_pp86_L2_V1.0_veridical_freeview_isoFalse_fps144.mp4",""
"","","","call-function","158","390775","0.0-158.0","d9jc26z3","","","","","","","",""
"1451.8949999999604","{""judgement"":1}","[0]","survey-likert","159","392228","0.0-159.0","d9jc26z3","","","","","","","","1"
"1417.640000000014","{""confidence"":2}","[0]","survey-likert","160","393647","0.0-160.0","d9jc26z3","","","","","","","",""
"","","","call-function","161","393649","0.0-161.0","d9jc26z3","","","","","","","",""
"null","","","html-keyboard-response","162","395155","0.0-162.0","d9jc26z3","","<span style=""color:Black; font-size:50px;"">Agent A","null","","","","",""
"null","","","video-keyboard-response","163","398228","0.0-163.0","d9jc26z3","","","null","","Agent A","veridical","STIM_SET_1_REAL/61537.bmp_pp73_L3_V1.0_veridical_freeview_isoFalse_fps144.mp4",""
"null","","","html-keyboard-response","164","399732","0.0-164.0","d9jc26z3","","<span style=""color:Black; font-size:50px;"">Agent B","null","","","","",""
"null","","","video-keyboard-response","165","402807","0.0-165.0","d9jc26z3","","","null","","Agent B","scrambled","STIM_SET_3/713770.bmp_pp89_L1_V2_veridical_freeview_isoFalsemismatch_61537.bmp_L3_fps90.mp4",""
"","","","call-function","166","402808","0.0-166.0","d9jc26z3","","","","","","","",""
"2599.2000000000116","{""judgement"":0}","[0]","survey-likert","167","405408","0.0-167.0","d9jc26z3","","","","","","","","0"
"2012.6300000000047","{""confidence"":2}","[0]","survey-likert","168","407422","0.0-168.0","d9jc26z3","","","","","","","",""
"48983.25","","","instructions","169","456406","0.0-169.0","d9jc26z3","[{""page_index"":0,""viewing_time"":47070.07000000001},{""page_index"":1,""viewing_time"":795.164999999979},{""page_index"":2,""viewing_time"":1117.8550000000396}]","","","","","","",""
"1858.734999999986","","","instructions","170","458265","0.0-170.0","d9jc26z3","[{""page_index"":0,""viewing_time"":745.3099999999977},{""page_index"":1,""viewing_time"":679.039999999979},{""page_index"":2,""viewing_time"":434.2849999999744}]","","","","","","",""
"","","","call-function","171","458266","0.0-171.0","d9jc26z3","","","","","","","",""
"null","","","html-keyboard-response","172","459769","0.0-172.0","d9jc26z3","","<span style=""color:Black; font-size:50px;"">Agent A","null","","","","",""
"null","","","video-keyboard-response","173","462843","0.0-173.0","d9jc26z3","","","null","","Agent A","veridical","STIM_SET_1_REAL/498111.bmp_pp88_L2_V1.0_veridical_freeview_isoFalse_fps144.mp4",""
"null","","","html-keyboard-response","174","464346","0.0-174.0","d9jc26z3","","<span style=""color:Black; font-size:50px;"">Agent B","null","","","","",""
"null","","","video-keyboard-response","175","467412","0.0-175.0","d9jc26z3","","","null","","Agent B","scrambled","STIM_SET_3/1592350.bmp_pp55_L3_V2_veridical_freeview_isoFalsemismatch_498111.bmp_L2_fps90.mp4",""
"","","","call-function","176","467412","0.0-176.0","d9jc26z3","","","","","","","",""
"1401.4799999999814","{""judgement"":0}","[0]","survey-likert","177","468815","0.0-177.0","d9jc26z3","","","","","","","","0"
"996.9949999999953","{""confidence"":2}","[0]","survey-likert","178","469813","0.0-178.0","d9jc26z3","","","","","","","",""
"","","","call-function","179","469814","0.0-179.0","d9jc26z3","","","","","","","",""
"null","","","html-keyboard-response","180","471318","0.0-180.0","d9jc26z3","","<span style=""color:Black; font-size:50px;"">Agent A","null","","","","",""
"null","","","video-keyboard-response","181","474390","0.0-181.0","d9jc26z3","","","null","","Agent A","veridical","STIM_SET_1_REAL/1159675.bmp_pp77_L3_V1.0_veridical_freeview_isoFalse_fps144.mp4",""
"null","","","html-keyboard-response","182","475894","0.0-182.0","d9jc26z3","","<span style=""color:Black; font-size:50px;"">Agent B","null","","","","",""
"null","","","video-keyboard-response","183","478963","0.0-183.0","d9jc26z3","","","null","","Agent B","scrambled","STIM_SET_3/1159508.bmp_pp151_L1_V2_veridical_freeview_isoFalsemismatch_1159675.bmp_L3_fps90.mp4",""
"","","","call-function","184","478964","0.0-184.0","d9jc26z3","","","","","","","",""
"1517.3099999999977","{""judgement"":0}","[0]","survey-likert","185","480482","0.0-185.0","d9jc26z3","","","","","","","","0"
"1087.7249999999767","{""confidence"":3}","[0]","survey-likert","186","481571","0.0-186.0","d9jc26z3","","","","","","","",""
"","","","call-function","187","481572","0.0-187.0","d9jc26z3","","","","","","","",""
"null","","","html-keyboard-response","188","483075","0.0-188.0","d9jc26z3","","<span style=""color:Black; font-size:50px;"">Agent A","null","","","","",""
"null","","","video-keyboard-response","189","486167","0.0-189.0","d9jc26z3","","","null","","Agent A","veridical","STIM_SET_1_REAL/1593035.bmp_pp94_L2_V1.0_veridical_freeview_isoFalse_fps144.mp4",""
"null","","","html-keyboard-response","190","487671","0.0-190.0","d9jc26z3","","<span style=""color:Black; font-size:50px;"">Agent B","null","","","","",""
"null","","","video-keyboard-response","191","490760","0.0-191.0","d9jc26z3","","","null","","Agent B","scrambled","STIM_SET_3/1159325.bmp_pp67_L2_V2_veridical_freeview_isoFalsemismatch_1593035.bmp_L2_fps90.mp4",""
"","","","call-function","192","490761","0.0-192.0","d9jc26z3","","","","","","","",""
"1753.554999999993","{""judgement"":0}","[0]","survey-likert","193","492516","0.0-193.0","d9jc26z3","","","","","","","","0"
"2735.640000000014","{""confidence"":1}","[0]","survey-likert","194","495254","0.0-194.0","d9jc26z3","","","","","","","",""
"","","","call-function","195","495255","0.0-195.0","d9jc26z3","","","","","","","",""
"null","","","html-keyboard-response","196","496760","0.0-196.0","d9jc26z3","","<span style=""color:Black; font-size:50px;"">Agent A","null","","","","",""
"null","","","video-keyboard-response","197","499823","0.0-197.0","d9jc26z3","","","null","","Agent A","scrambled","STIM_SET_3/285684.bmp_pp80_L3_V2_veridical_freeview_isoFalsemismatch_713760.bmp_L1_fps90.mp4",""
"null","","","html-keyboard-response","198","501331","0.0-198.0","d9jc26z3","","<span style=""color:Black; font-size:50px;"">Agent B","null","","","","",""
"null","","","video-keyboard-response","199","504406","0.0-199.0","d9jc26z3","","","null","","Agent B","veridical","STIM_SET_1_REAL/713760.bmp_pp81_L1_V1.0_veridical_freeview_isoFalse_fps144.mp4",""
"","","","call-function","200","504406","0.0-200.0","d9jc26z3","","","","","","","",""
"1499.0950000000303","{""judgement"":1}","[0]","survey-likert","201","505906","0.0-201.0","d9jc26z3","","","","","","","","1"
"858.2900000000373","{""confidence"":2}","[0]","survey-likert","202","506766","0.0-202.0","d9jc26z3","","","","","","","",""
"","","","call-function","203","506767","0.0-203.0","d9jc26z3","","","","","","","",""
"null","","","html-keyboard-response","204","508272","0.0-204.0","d9jc26z3","","<span style=""color:Black; font-size:50px;"">Agent A","null","","","","",""
"null","","","video-keyboard-response","205","511350","0.0-205.0","d9jc26z3","","","null","","Agent A","scrambled","STIM_SET_3/1592568.bmp_pp71_L1_V2_veridical_freeview_isoFalsemismatch_285905.bmp_L1_fps90.mp4",""
"null","","","html-keyboard-response","206","512856","0.0-206.0","d9jc26z3","","<span style=""color:Black; font-size:50px;"">Agent B","null","","","","",""
"null","","","video-keyboard-response","207","515924","0.0-207.0","d9jc26z3","","","null","","Agent B","veridical","STIM_SET_1_REAL/285905.bmp_pp57_L1_V1.0_veridical_freeview_isoFalse_fps144.mp4",""
"","","","call-function","208","515925","0.0-208.0","d9jc26z3","","","","","","","",""
"1340.594999999972","{""judgement"":1}","[0]","survey-likert","209","517267","0.0-209.0","d9jc26z3","","","","","","","","1"
"1710.0650000000023","{""confidence"":2}","[0]","survey-likert","210","518979","0.0-210.0","d9jc26z3","","","","","","","",""
"","","","call-function","211","518979","0.0-211.0","d9jc26z3","","","","","","","",""
"null","","","html-keyboard-response","212","520482","0.0-212.0","d9jc26z3","","<span style=""color:Black; font-size:50px;"">Agent A","null","","","","",""
"null","","","video-keyboard-response","213","523579","0.0-213.0","d9jc26z3","","","null","","Agent A","scrambled","STIM_SET_3/150463.bmp_pp55_L3_V2_veridical_freeview_isoFalsemismatch_1592619.bmp_L3_fps90.mp4",""
"null","","","html-keyboard-response","214","525086","0.0-214.0","d9jc26z3","","<span style=""color:Black; font-size:50px;"">Agent B","null","","","","",""
"null","","","video-keyboard-response","215","528176","0.0-215.0","d9jc26z3","","","null","","Agent B","veridical","STIM_SET_1_REAL/1592619.bmp_pp56_L3_V1.0_veridical_freeview_isoFalse_fps144.mp4",""
"","","","call-function","216","528177","0.0-216.0","d9jc26z3","","","","","","","",""
"1484.9550000000745","{""judgement"":0}","[0]","survey-likert","217","529663","0.0-217.0","d9jc26z3","","","","","","","","1"
"1174.1500000000233","{""confidence"":1}","[0]","survey-likert","218","530838","0.0-218.0","d9jc26z3","","","","","","","",""
"","","","call-function","219","530839","0.0-219.0","d9jc26z3","","","","","","","",""
"null","","","html-keyboard-response","220","532343","0.0-220.0","d9jc26z3","","<span style=""color:Black; font-size:50px;"">Agent A","null","","","","",""
"null","","","video-keyboard-response","221","535433","0.0-221.0","d9jc26z3","","","null","","Agent A","scrambled","STIM_SET_3/285715.bmp_pp67_L2_V2_veridical_freeview_isoFalsemismatch_1159882.bmp_L2_fps90.mp4",""
"null","","","html-keyboard-response","222","536935","0.0-222.0","d9jc26z3","","<span style=""color:Black; font-size:50px;"">Agent B","null","","","","",""
"null","","","video-keyboard-response","223","540024","0.0-223.0","d9jc26z3","","","null","","Agent B","veridical","STIM_SET_1_REAL/1159882.bmp_pp61_L2_V1.0_veridical_freeview_isoFalse_fps144.mp4",""
"","","","call-function","224","540025","0.0-224.0","d9jc26z3","","","","","","","",""
"1773.7399999999907","{""judgement"":1}","[0]","survey-likert","225","541799","0.0-225.0","d9jc26z3","","","","","","","","1"
"1713.8399999999674","{""confidence"":2}","[0]","survey-likert","226","543514","0.0-226.0","d9jc26z3","","","","","","","",""
"","","","call-function","227","543515","0.0-227.0","d9jc26z3","","","","","","","",""
"null","","","html-keyboard-response","228","545021","0.0-228.0","d9jc26z3","","<span style=""color:Black; font-size:50px;"">Agent A","null","","","","",""
"null","","","video-keyboard-response","229","548124","0.0-229.0","d9jc26z3","","","null","","Agent A","veridical","STIM_SET_1_REAL/1592657.bmp_pp98_L1_V1.0_veridical_freeview_isoFalse_fps144.mp4",""
"null","","","html-keyboard-response","230","549629","0.0-230.0","d9jc26z3","","<span style=""color:Black; font-size:50px;"">Agent B","null","","","","",""
"null","","","video-keyboard-response","231","552744","0.0-231.0","d9jc26z3","","","null","","Agent B","scrambled","STIM_SET_3/498261.bmp_pp84_L3_V2_veridical_freeview_isoFalsemismatch_1592657.bmp_L1_fps90.mp4",""
"","","","call-function","232","552745","0.0-232.0","d9jc26z3","","","","","","","",""
"3503.5200000000186","{""judgement"":0}","[0]","survey-likert","233","556249","0.0-233.0","d9jc26z3","","","","","","","","0"
"2284.6999999999534","{""confidence"":2}","[0]","survey-likert","234","558535","0.0-234.0","d9jc26z3","","","","","","","",""
"","","","call-function","235","558536","0.0-235.0","d9jc26z3","","","","","","","",""
"null","","","html-keyboard-response","236","560039","0.0-236.0","d9jc26z3","","<span style=""color:Black; font-size:50px;"">Agent A","null","","","","",""
"null","","","video-keyboard-response","237","563101","0.0-237.0","d9jc26z3","","","null","","Agent A","scrambled","STIM_SET_3/713829.bmp_pp60_L3_V2_veridical_freeview_isoFalsemismatch_1159440.bmp_L1_fps90.mp4",""
"null","","","html-keyboard-response","238","564605","0.0-238.0","d9jc26z3","","<span style=""color:Black; font-size:50px;"">Agent B","null","","","","",""
"null","","","video-keyboard-response","239","567673","0.0-239.0","d9jc26z3","","","null","","Agent B","veridical","STIM_SET_1_REAL/1159440.bmp_pp98_L1_V1.0_veridical_freeview_isoFalse_fps144.mp4",""
"","","","call-function","240","567674","0.0-240.0","d9jc26z3","","","","","","","",""
"2421.7399999999907","{""judgement"":1}","[0]","survey-likert","241","570096","0.0-241.0","d9jc26z3","","","","","","","","1"
"1852.7299999999814","{""confidence"":2}","[0]","survey-likert","242","571950","0.0-242.0","d9jc26z3","","","","","","","",""
"","","","call-function","243","571951","0.0-243.0","d9jc26z3","","","","","","","",""
"null","","","html-keyboard-response","244","573456","0.0-244.0","d9jc26z3","","<span style=""color:Black; font-size:50px;"">Agent A","null","","","","",""
"null","","","video-keyboard-response","245","576522","0.0-245.0","d9jc26z3","","","null","","Agent A","scrambled","STIM_SET_3/1592530.bmp_pp75_L1_V2_veridical_freeview_isoFalsemismatch_1591961.bmp_L2_fps90.mp4",""
"null","","","html-keyboard-response","246","578024","0.0-246.0","d9jc26z3","","<span style=""color:Black; font-size:50px;"">Agent B","null","","","","",""
"null","","","video-keyboard-response","247","581094","0.0-247.0","d9jc26z3","","","null","","Agent B","veridical","STIM_SET_1_REAL/1591961.bmp_pp67_L2_V1.0_veridical_freeview_isoFalse_fps144.mp4",""
"","","","call-function","248","581095","0.0-248.0","d9jc26z3","","","","","","","",""
"3226.04999999993","{""judgement"":1}","[0]","survey-likert","249","584323","0.0-249.0","d9jc26z3","","","","","","","","1"
"4557.234999999986","{""confidence"":1}","[0]","survey-likert","250","588882","0.0-250.0","d9jc26z3","","","","","","","",""
"4848.380000000005","","","instructions","251","593732","0.0-251.0","d9jc26z3","[{""page_index"":0,""viewing_time"":2575.2850000000326},{""page_index"":1,""viewing_time"":683.8349999999627},{""page_index"":2,""viewing_time"":1589}]","","","","","","",""
"2213.439999999944","","","instructions","252","595947","0.0-252.0","d9jc26z3","[{""page_index"":0,""viewing_time"":454.38999999989755},{""page_index"":1,""viewing_time"":1042.0950000000885},{""page_index"":2,""viewing_time"":716.7949999999255}]","","","","","","",""
"","","","call-function","253","595948","0.0-253.0","d9jc26z3","","","","","","","",""
"null","","","html-keyboard-response","254","597451","0.0-254.0","d9jc26z3","","<span style=""color:Black; font-size:50px;"">Agent A","null","","","","",""
"null","","","video-keyboard-response","255","600527","0.0-255.0","d9jc26z3","","","null","","Agent A","veridical","STIM_SET_1_REAL/1159784.bmp_pp73_L3_V1.0_veridical_freeview_isoFalse_fps144.mp4",""
"null","","","html-keyboard-response","256","602033","0.0-256.0","d9jc26z3","","<span style=""color:Black; font-size:50px;"">Agent B","null","","","","",""
"null","","","video-keyboard-response","257","605101","0.0-257.0","d9jc26z3","","","null","","Agent B","scrambled","STIM_SET_3/61513.bmp_pp75_L1_V2_veridical_freeview_isoFalsemismatch_1159784.bmp_L3_fps90.mp4",""
"","","","call-function","258","605102","0.0-258.0","d9jc26z3","","","","","","","",""
"2850.4499999999534","{""judgement"":0}","[0]","survey-likert","259","607954","0.0-259.0","d9jc26z3","","","","","","","","0"
"2400.5950000000885","{""confidence"":2}","[0]","survey-likert","260","610356","0.0-260.0","d9jc26z3","","","","","","","",""
"","","","call-function","261","610357","0.0-261.0","d9jc26z3","","","","","","","",""
"null","","","html-keyboard-response","262","611860","0.0-262.0","d9jc26z3","","<span style=""color:Black; font-size:50px;"">Agent A","null","","","","",""
"null","","","video-keyboard-response","263","614926","0.0-263.0","d9jc26z3","","","null","","Agent A","scrambled","STIM_SET_3/1592044.bmp_pp94_L2_V2_veridical_freeview_isoFalsemismatch_1159446.bmp_L3_fps90.mp4",""
"null","","","html-keyboard-response","264","616431","0.0-264.0","d9jc26z3","","<span style=""color:Black; font-size:50px;"">Agent B","null","","","","",""
"null","","","video-keyboard-response","265","619492","0.0-265.0","d9jc26z3","","","null","","Agent B","veridical","STIM_SET_1_REAL/1159446.bmp_pp60_L3_V1.0_veridical_freeview_isoFalse_fps144.mp4",""
"","","","call-function","266","619492","0.0-266.0","d9jc26z3","","","","","","","",""
"1467.3399999999674","{""judgement"":1}","[0]","survey-likert","267","620961","0.0-267.0","d9jc26z3","","","","","","","","1"
"2061.5","{""confidence"":3}","[0]","survey-likert","268","623024","0.0-268.0","d9jc26z3","","","","","","","",""
"","","","call-function","269","623025","0.0-269.0","d9jc26z3","","","","","","","",""
"null","","","html-keyboard-response","270","624529","0.0-270.0","d9jc26z3","","<span style=""color:Black; font-size:50px;"">Agent A","null","","","","",""
"null","","","video-keyboard-response","271","627634","0.0-271.0","d9jc26z3","","","null","","Agent A","veridical","STIM_SET_1_REAL/1160127.bmp_pp90_L2_V1.0_veridical_freeview_isoFalse_fps144.mp4",""
"null","","","html-keyboard-response","272","629137","0.0-272.0","d9jc26z3","","<span style=""color:Black; font-size:50px;"">Agent B","null","","","","",""
"null","","","video-keyboard-response","273","632240","0.0-273.0","d9jc26z3","","","null","","Agent B","scrambled","STIM_SET_3/498372.bmp_pp95_L2_V2_veridical_freeview_isoFalsemismatch_1160127.bmp_L2_fps90.mp4",""
"","","","call-function","274","632241","0.0-274.0","d9jc26z3","","","","","","","",""
"1822.7900000000373","{""judgement"":0}","[0]","survey-likert","275","634065","0.0-275.0","d9jc26z3","","","","","","","","0"
"1034.7249999999767","{""confidence"":1}","[0]","survey-likert","276","635101","0.0-276.0","d9jc26z3","","","","","","","",""
"","","","call-function","277","635101","0.0-277.0","d9jc26z3","","","","","","","",""
"null","","","html-keyboard-response","278","636603","0.0-278.0","d9jc26z3","","<span style=""color:Black; font-size:50px;"">Agent A","null","","","","",""
"null","","","video-keyboard-response","279","639705","0.0-279.0","d9jc26z3","","","null","","Agent A","veridical","STIM_SET_1_REAL/713593.bmp_pp64_L1_V1.0_veridical_freeview_isoFalse_fps144.mp4",""
"null","","","html-keyboard-response","280","641211","0.0-280.0","d9jc26z3","","<span style=""color:Black; font-size:50px;"">Agent B","null","","","","",""
"null","","","video-keyboard-response","281","644306","0.0-281.0","d9jc26z3","","","null","","Agent B","scrambled","STIM_SET_3/1592747.bmp_pp53_L2_V2_veridical_freeview_isoFalsemismatch_713593.bmp_L1_fps90.mp4",""
"","","","call-function","282","644307","0.0-282.0","d9jc26z3","","","","","","","",""
"1931.1350000000093","{""judgement"":0}","[0]","survey-likert","283","646239","0.0-283.0","d9jc26z3","","","","","","","","0"
"1246.0399999999208","{""confidence"":3}","[0]","survey-likert","284","647487","0.0-284.0","d9jc26z3","","","","","","","",""
"","","","call-function","285","647487","0.0-285.0","d9jc26z3","","","","","","","",""
"null","","","html-keyboard-response","286","648992","0.0-286.0","d9jc26z3","","<span style=""color:Black; font-size:50px;"">Agent A","null","","","","",""
"null","","","video-keyboard-response","287","652082","0.0-287.0","d9jc26z3","","","null","","Agent A","scrambled","STIM_SET_3/285932.bmp_pp64_L1_V2_veridical_freeview_isoFalsemismatch_1159855.bmp_L2_fps90.mp4",""
"null","","","html-keyboard-response","288","653584","0.0-288.0","d9jc26z3","","<span style=""color:Black; font-size:50px;"">Agent B","null","","","","",""
"null","","","video-keyboard-response","289","656689","0.0-289.0","d9jc26z3","","","null","","Agent B","veridical","STIM_SET_1_REAL/1159855.bmp_pp99_L2_V1.0_veridical_freeview_isoFalse_fps144.mp4",""
"","","","call-function","290","656690","0.0-290.0","d9jc26z3","","","","","","","",""
"1456.6449999999022","{""judgement"":1}","[0]","survey-likert","291","658148","0.0-291.0","d9jc26z3","","","","","","","","1"
"1584.6199999999953","{""confidence"":3}","[0]","survey-likert","292","659734","0.0-292.0","d9jc26z3","","","","","","","",""
"","","","call-function","293","659734","0.0-293.0","d9jc26z3","","","","","","","",""
"null","","","html-keyboard-response","294","661239","0.0-294.0","d9jc26z3","","<span style=""color:Black; font-size:50px;"">Agent A","null","","","","",""
"null","","","video-keyboard-response","295","664308","0.0-295.0","d9jc26z3","","","null","","Agent A","scrambled","STIM_SET_3/1592025.bmp_pp68_L1_V2_veridical_freeview_isoFalsemismatch_1592351.bmp_L1_fps90.mp4",""
"null","","","html-keyboard-response","296","665811","0.0-296.0","d9jc26z3","","<span style=""color:Black; font-size:50px;"">Agent B","null","","","","",""
"null","","","video-keyboard-response","297","668875","0.0-297.0","d9jc26z3","","","null","","Agent B","veridical","STIM_SET_1_REAL/1592351.bmp_pp51_L1_V1.0_veridical_freeview_isoFalse_fps144.mp4",""
"","","","call-function","298","668876","0.0-298.0","d9jc26z3","","","","","","","",""
"1449.7750000000233","{""judgement"":0}","[0]","survey-likert","299","670327","0.0-299.0","d9jc26z3","","","","","","","","1"
"1605.9049999999115","{""confidence"":2}","[0]","survey-likert","300","671934","0.0-300.0","d9jc26z3","","","","","","","",""
"","","","call-function","301","671934","0.0-301.0","d9jc26z3","","","","","","","",""
"null","","","html-keyboard-response","302","673440","0.0-302.0","d9jc26z3","","<span style=""color:Black; font-size:50px;"">Agent A","null","","","","",""
"null","","","video-keyboard-response","303","676529","0.0-303.0","d9jc26z3","","","null","","Agent A","scrambled","STIM_SET_3/1591920.bmp_pp97_L3_V2_veridical_freeview_isoFalsemismatch_1592804.bmp_L3_fps90.mp4",""
"null","","","html-keyboard-response","304","678035","0.0-304.0","d9jc26z3","","<span style=""color:Black; font-size:50px;"">Agent B","null","","","","",""
"null","","","video-keyboard-response","305","681110","0.0-305.0","d9jc26z3","","","null","","Agent B","veridical","STIM_SET_1_REAL/1592804.bmp_pp91_L3_V1.0_veridical_freeview_isoFalse_fps144.mp4",""
"","","","call-function","306","681110","0.0-306.0","d9jc26z3","","","","","","","",""
"1432.7450000001118","{""judgement"":0}","[0]","survey-likert","307","682544","0.0-307.0","d9jc26z3","","","","","","","","1"
"1359.4500000000698","{""confidence"":2}","[0]","survey-likert","308","683905","0.0-308.0","d9jc26z3","","","","","","","",""
"","","","call-function","309","683905","0.0-309.0","d9jc26z3","","","","","","","",""
"null","","","html-keyboard-response","310","685406","0.0-310.0","d9jc26z3","","<span style=""color:Black; font-size:50px;"">Agent A","null","","","","",""
"null","","","video-keyboard-response","311","688473","0.0-311.0","d9jc26z3","","","null","","Agent A","veridical","STIM_SET_1_REAL/1159621.bmp_pp92_L3_V1.0_veridical_freeview_isoFalse_fps144.mp4",""
"null","","","html-keyboard-response","312","689978","0.0-312.0","d9jc26z3","","<span style=""color:Black; font-size:50px;"">Agent B","null","","","","",""
"null","","","video-keyboard-response","313","693069","0.0-313.0","d9jc26z3","","","null","","Agent B","scrambled","STIM_SET_3/1159860.bmp_pp152_L2_V2_veridical_freeview_isoFalsemismatch_1159621.bmp_L3_fps90.mp4",""
"","","","call-function","314","693070","0.0-314.0","d9jc26z3","","","","","","","",""
"2815.359999999986","{""judgement"":0}","[0]","survey-likert","315","695887","0.0-315.0","d9jc26z3","","","","","","","","0"
"980.7300000000978","{""confidence"":1}","[0]","survey-likert","316","696869","0.0-316.0","d9jc26z3","","","","","","","",""
"","","","call-function","317","696869","0.0-317.0","d9jc26z3","","","","","","","",""
"null","","","html-keyboard-response","318","698376","0.0-318.0","d9jc26z3","","<span style=""color:Black; font-size:50px;"">Agent A","null","","","","",""
"null","","","video-keyboard-response","319","701485","0.0-319.0","d9jc26z3","","","null","","Agent A","veridical","STIM_SET_1_REAL/713707.bmp_pp154_L1_V1.0_veridical_freeview_isoFalse_fps144.mp4",""
"null","","","html-keyboard-response","320","702988","0.0-320.0","d9jc26z3","","<span style=""color:Black; font-size:50px;"">Agent B","null","","","","",""
"null","","","video-keyboard-response","321","706051","0.0-321.0","d9jc26z3","","","null","","Agent B","scrambled","STIM_SET_3/1592314.bmp_pp100_L3_V2_veridical_freeview_isoFalsemismatch_713707.bmp_L1_fps90.mp4",""
"","","","call-function","322","706053","0.0-322.0","d9jc26z3","","","","","","","",""
"1573.4199999999255","{""judgement"":0}","[0]","survey-likert","323","707628","0.0-323.0","d9jc26z3","","","","","","","","0"
"1340.905000000028","{""confidence"":2}","[0]","survey-likert","324","708970","0.0-324.0","d9jc26z3","","","","","","","",""
"","","","call-function","325","708971","0.0-325.0","d9jc26z3","","","","","","","",""
"null","","","html-keyboard-response","326","710472","0.0-326.0","d9jc26z3","","<span style=""color:Black; font-size:50px;"">Agent A","null","","","","",""
"null","","","video-keyboard-response","327","713569","0.0-327.0","d9jc26z3","","","null","","Agent A","scrambled","STIM_SET_3/1160189.bmp_pp64_L1_V2_veridical_freeview_isoFalsemismatch_1592581.bmp_L3_fps90.mp4",""
"null","","","html-keyboard-response","328","715072","0.0-328.0","d9jc26z3","","<span style=""color:Black; font-size:50px;"">Agent B","null","","","","",""
"null","","","video-keyboard-response","329","718142","0.0-329.0","d9jc26z3","","","null","","Agent B","veridical","STIM_SET_1_REAL/1592581.bmp_pp100_L3_V1.0_veridical_freeview_isoFalse_fps144.mp4",""
"","","","call-function","330","718143","0.0-330.0","d9jc26z3","","","","","","","",""
"1785.2149999999674","{""judgement"":1}","[0]","survey-likert","331","719929","0.0-331.0","d9jc26z3","","","","","","","","1"
"1401.844999999972","{""confidence"":3}","[0]","survey-likert","332","721333","0.0-332.0","d9jc26z3","","","","","","","",""
"138353.10499999998","","","instructions","333","859687","0.0-333.0","d9jc26z3","[{""page_index"":0,""viewing_time"":136889.13},{""page_index"":1,""viewing_time"":732.140000000014},{""page_index"":2,""viewing_time"":731.6800000000512}]","","","","","","",""
"1502.484999999986","","","instructions","334","861190","0.0-334.0","d9jc26z3","[{""page_index"":0,""viewing_time"":440.2299999999814},{""page_index"":1,""viewing_time"":577.9799999999814},{""page_index"":2,""viewing_time"":484.1700000000419}]","","","","","","",""
"","","","call-function","335","861191","0.0-335.0","d9jc26z3","","","","","","","",""
"null","","","html-keyboard-response","336","862694","0.0-336.0","d9jc26z3","","<span style=""color:Black; font-size:50px;"">Agent A","null","","","","",""
"null","","","video-keyboard-response","337","865758","0.0-337.0","d9jc26z3","","","null","","Agent A","scrambled","STIM_SET_3/498398.bmp_pp81_L1_V2_veridical_freeview_isoFalsemismatch_713620.bmp_L3_fps90.mp4",""
"null","","","html-keyboard-response","338","867263","0.0-338.0","d9jc26z3","","<span style=""color:Black; font-size:50px;"">Agent B","null","","","","",""
"null","","","video-keyboard-response","339","870339","0.0-339.0","d9jc26z3","","","null","","Agent B","veridical","STIM_SET_1_REAL/713620.bmp_pp65_L3_V1.0_veridical_freeview_isoFalse_fps144.mp4",""
"","","","call-function","340","870340","0.0-340.0","d9jc26z3","","","","","","","",""
"1446.3349999999627","{""judgement"":1}","[0]","survey-likert","341","871787","0.0-341.0","d9jc26z3","","","","","","","","1"
"1237.9899999999907","{""confidence"":2}","[0]","survey-likert","342","873026","0.0-342.0","d9jc26z3","","","","","","","",""
"","","","call-function","343","873027","0.0-343.0","d9jc26z3","","","","","","","",""
"null","","","html-keyboard-response","344","874533","0.0-344.0","d9jc26z3","","<span style=""color:Black; font-size:50px;"">Agent A","null","","","","",""
"null","","","video-keyboard-response","345","877597","0.0-345.0","d9jc26z3","","","null","","Agent A","scrambled","STIM_SET_3/713652.bmp_pp89_L1_V2_veridical_freeview_isoFalsemismatch_1592807.bmp_L1_fps90.mp4",""
"null","","","html-keyboard-response","346","879103","0.0-346.0","d9jc26z3","","<span style=""color:Black; font-size:50px;"">Agent B","null","","","","",""
"null","","","video-keyboard-response","347","882180","0.0-347.0","d9jc26z3","","","null","","Agent B","veridical","STIM_SET_1_REAL/1592807.bmp_pp68_L1_V1.0_veridical_freeview_isoFalse_fps144.mp4",""
"","","","call-function","348","882180","0.0-348.0","d9jc26z3","","","","","","","",""
"1618.3199999999488","{""judgement"":1}","[0]","survey-likert","349","883800","0.0-349.0","d9jc26z3","","","","","","","","1"
"1442.8050000000512","{""confidence"":2}","[0]","survey-likert","350","885244","0.0-350.0","d9jc26z3","","","","","","","",""
"","","","call-function","351","885245","0.0-351.0","d9jc26z3","","","","","","","",""
"null","","","html-keyboard-response","352","886747","0.0-352.0","d9jc26z3","","<span style=""color:Black; font-size:50px;"">Agent A","null","","","","",""
"null","","","video-keyboard-response","353","889851","0.0-353.0","d9jc26z3","","","null","","Agent A","scrambled","STIM_SET_3/1592129.bmp_pp153_L3_V2_veridical_freeview_isoFalsemismatch_1159813.bmp_L2_fps90.mp4",""
"null","","","html-keyboard-response","354","891355","0.0-354.0","d9jc26z3","","<span style=""color:Black; font-size:50px;"">Agent B","null","","","","",""
"null","","","video-keyboard-response","355","894469","0.0-355.0","d9jc26z3","","","null","","Agent B","veridical","STIM_SET_1_REAL/1159813.bmp_pp79_L2_V1.0_veridical_freeview_isoFalse_fps144.mp4",""
"","","","call-function","356","894470","0.0-356.0","d9jc26z3","","","","","","","",""
"2427.4049999999115","{""judgement"":1}","[0]","survey-likert","357","896898","0.0-357.0","d9jc26z3","","","","","","","","1"
"1034.670000000042","{""confidence"":2}","[0]","survey-likert","358","897934","0.0-358.0","d9jc26z3","","","","","","","",""
"","","","call-function","359","897935","0.0-359.0","d9jc26z3","","","","","","","",""
"null","","","html-keyboard-response","360","899442","0.0-360.0","d9jc26z3","","<span style=""color:Black; font-size:50px;"">Agent A","null","","","","",""
"null","","","video-keyboard-response","361","902542","0.0-361.0","d9jc26z3","","","null","","Agent A","scrambled","STIM_SET_3/1591781.bmp_pp63_L1_V2_veridical_freeview_isoFalsemismatch_1593041.bmp_L1_fps90.mp4",""
"null","","","html-keyboard-response","362","904046","0.0-362.0","d9jc26z3","","<span style=""color:Black; font-size:50px;"">Agent B","null","","","","",""
"null","","","video-keyboard-response","363","907152","0.0-363.0","d9jc26z3","","","null","","Agent B","veridical","STIM_SET_1_REAL/1593041.bmp_pp58_L1_V1.0_veridical_freeview_isoFalse_fps144.mp4",""
"","","","call-function","364","907153","0.0-364.0","d9jc26z3","","","","","","","",""
"1719.4349999999395","{""judgement"":0}","[0]","survey-likert","365","908873","0.0-365.0","d9jc26z3","","","","","","","","1"
"951.7900000000373","{""confidence"":2}","[0]","survey-likert","366","909826","0.0-366.0","d9jc26z3","","","","","","","",""
"","","","call-function","367","909827","0.0-367.0","d9jc26z3","","","","","","","",""
"null","","","html-keyboard-response","368","911331","0.0-368.0","d9jc26z3","","<span style=""color:Black; font-size:50px;"">Agent A","null","","","","",""
"null","","","video-keyboard-response","369","914434","0.0-369.0","d9jc26z3","","","null","","Agent A","veridical","STIM_SET_1_REAL/1159777.bmp_pp77_L3_V1.0_veridical_freeview_isoFalse_fps144.mp4",""
"null","","","html-keyboard-response","370","915938","0.0-370.0","d9jc26z3","","<span style=""color:Black; font-size:50px;"">Agent B","null","","","","",""
"null","","","video-keyboard-response","371","919031","0.0-371.0","d9jc26z3","","","null","","Agent B","scrambled","STIM_SET_3/1592017.bmp_pp154_L1_V2_veridical_freeview_isoFalsemismatch_1159777.bmp_L3_fps90.mp4",""
"","","","call-function","372","919032","0.0-372.0","d9jc26z3","","","","","","","",""
"2810.780000000028","{""judgement"":0}","[0]","survey-likert","373","921844","0.0-373.0","d9jc26z3","","","","","","","","0"
"1108.8099999999395","{""confidence"":3}","[0]","survey-likert","374","922954","0.0-374.0","d9jc26z3","","","","","","","",""
"","","","call-function","375","922955","0.0-375.0","d9jc26z3","","","","","","","",""
"null","","","html-keyboard-response","376","924459","0.0-376.0","d9jc26z3","","<span style=""color:Black; font-size:50px;"">Agent A","null","","","","",""
"null","","","video-keyboard-response","377","927552","0.0-377.0","d9jc26z3","","","null","","Agent A","scrambled","STIM_SET_3/1592201.bmp_pp97_L3_V2_veridical_freeview_isoFalsemismatch_713089.bmp_L3_fps90.mp4",""
"null","","","html-keyboard-response","378","929056","0.0-378.0","d9jc26z3","","<span style=""color:Black; font-size:50px;"">Agent B","null","","","","",""
"null","","","video-keyboard-response","379","932117","0.0-379.0","d9jc26z3","","","null","","Agent B","veridical","STIM_SET_1_REAL/713089.bmp_pp60_L3_V1.0_veridical_freeview_isoFalse_fps144.mp4",""
"","","","call-function","380","932117","0.0-380.0","d9jc26z3","","","","","","","",""
"2305.969999999972","{""judgement"":1}","[0]","survey-likert","381","934424","0.0-381.0","d9jc26z3","","","","","","","","1"
"1642.469999999972","{""confidence"":3}","[0]","survey-likert","382","936068","0.0-382.0","d9jc26z3","","","","","","","",""
"","","","call-function","383","936069","0.0-383.0","d9jc26z3","","","","","","","",""
"null","","","html-keyboard-response","384","937572","0.0-384.0","d9jc26z3","","<span style=""color:Black; font-size:50px;"">Agent A","null","","","","",""
"null","","","video-keyboard-response","385","940649","0.0-385.0","d9jc26z3","","","null","","Agent A","veridical","STIM_SET_1_REAL/498155.bmp_pp61_L2_V1.0_veridical_freeview_isoFalse_fps144.mp4",""
"null","","","html-keyboard-response","386","942155","0.0-386.0","d9jc26z3","","<span style=""color:Black; font-size:50px;"">Agent B","null","","","","",""
"null","","","video-keyboard-response","387","945226","0.0-387.0","d9jc26z3","","","null","","Agent B","scrambled","STIM_SET_3/498258.bmp_pp51_L1_V2_veridical_freeview_isoFalsemismatch_498155.bmp_L2_fps90.mp4",""
"","","","call-function","388","945226","0.0-388.0","d9jc26z3","","","","","","","",""
"1472.6450000000186","{""judgement"":0}","[0]","survey-likert","389","946700","0.0-389.0","d9jc26z3","","","","","","","","0"
"1132.6149999999907","{""confidence"":3}","[0]","survey-likert","390","947834","0.0-390.0","d9jc26z3","","","","","","","",""
"","","","call-function","391","947835","0.0-391.0","d9jc26z3","","","","","","","",""
"null","","","html-keyboard-response","392","949341","0.0-392.0","d9jc26z3","","<span style=""color:Black; font-size:50px;"">Agent A","null","","","","",""
"null","","","video-keyboard-response","393","952421","0.0-393.0","d9jc26z3","","","null","","Agent A","veridical","STIM_SET_1_REAL/1591954.bmp_pp62_L2_V1.0_veridical_freeview_isoFalse_fps144.mp4",""
"null","","","html-keyboard-response","394","953923","0.0-394.0","d9jc26z3","","<span style=""color:Black; font-size:50px;"">Agent B","null","","","","",""
"null","","","video-keyboard-response","395","957022","0.0-395.0","d9jc26z3","","","null","","Agent B","scrambled","STIM_SET_3/1160049.bmp_pp53_L2_V2_veridical_freeview_isoFalsemismatch_1591954.bmp_L2_fps90.mp4",""
"","","","call-function","396","957024","0.0-396.0","d9jc26z3","","","","","","","",""
"1481.8649999999907","{""judgement"":0}","[0]","survey-likert","397","958506","0.0-397.0","d9jc26z3","","","","","","","","0"
"1464.2099999999627","{""confidence"":3}","[0]","survey-likert","398","959973","0.0-398.0","d9jc26z3","","","","","","","",""
"","","","call-function","399","959975","0.0-399.0","d9jc26z3","","","","","","","",""
"null","","","html-keyboard-response","400","961478","0.0-400.0","d9jc26z3","","<span style=""color:Black; font-size:50px;"">Agent A","null","","","","",""
"null","","","video-keyboard-response","401","964541","0.0-401.0","d9jc26z3","","","null","","Agent A","veridical","STIM_SET_1_REAL/1592133.bmp_pp75_L1_V1.0_veridical_freeview_isoFalse_fps144.mp4",""
"null","","","html-keyboard-response","402","966043","0.0-402.0","d9jc26z3","","<span style=""color:Black; font-size:50px;"">Agent B","null","","","","",""
"null","","","video-keyboard-response","403","969120","0.0-403.0","d9jc26z3","","","null","","Agent B","scrambled","STIM_SET_3/1160247.bmp_pp54_L2_V2_veridical_freeview_isoFalsemismatch_1592133.bmp_L1_fps90.mp4",""
"","","","call-function","404","969120","0.0-404.0","d9jc26z3","","","","","","","",""
"2566.159999999916","{""judgement"":1}","[0]","survey-likert","405","971688","0.0-405.0","d9jc26z3","","","","","","","","0"
"1006.3950000000186","{""confidence"":2}","[0]","survey-likert","406","972696","0.0-406.0","d9jc26z3","","","","","","","",""
"","","","call-function","407","972697","0.0-407.0","d9jc26z3","","","","","","","",""
"null","","","html-keyboard-response","408","974202","0.0-408.0","d9jc26z3","","<span style=""color:Black; font-size:50px;"">Agent A","null","","","","",""
"null","","","video-keyboard-response","409","977280","0.0-409.0","d9jc26z3","","","null","","Agent A","veridical","STIM_SET_1_REAL/712977.bmp_pp51_L1_V1.0_veridical_freeview_isoFalse_fps144.mp4",""
"null","","","html-keyboard-response","410","978785","0.0-410.0","d9jc26z3","","<span style=""color:Black; font-size:50px;"">Agent B","null","","","","",""
"null","","","video-keyboard-response","411","981917","0.0-411.0","d9jc26z3","","","null","","Agent B","scrambled","STIM_SET_3/1592951.bmp_pp80_L3_V2_veridical_freeview_isoFalsemismatch_712977.bmp_L1_fps90.mp4",""
"","","","call-function","412","981918","0.0-412.0","d9jc26z3","","","","","","","",""
"2372.07500000007","{""judgement"":0}","[0]","survey-likert","413","984291","0.0-413.0","d9jc26z3","","","","","","","","0"
"2370","{""confidence"":0}","[0]","survey-likert","414","986662","0.0-414.0","d9jc26z3","","","","","","","",""
"2217.689999999944","","","instructions","415","988881","0.0-415.0","d9jc26z3","[{""page_index"":0,""viewing_time"":1747.545000000042},{""page_index"":1,""viewing_time"":428.0649999999441},{""page_index"":2,""viewing_time"":41.86499999999069}]","","","","","","",""
"1328.2149999999674","","","instructions","416","990210","0.0-416.0","d9jc26z3","[{""page_index"":0,""viewing_time"":391.70999999996275},{""page_index"":1,""viewing_time"":589.3399999999674},{""page_index"":2,""viewing_time"":346.9300000000512}]","","","","","","",""
"","","","call-function","417","990210","0.0-417.0","d9jc26z3","","","","","","","",""
"null","","","html-keyboard-response","418","991714","0.0-418.0","d9jc26z3","","<span style=""color:Black; font-size:50px;"">Agent A","null","","","","",""
"null","","","video-keyboard-response","419","994810","0.0-419.0","d9jc26z3","","","null","","Agent A","veridical","STIM_SET_1_REAL/1592499.bmp_pp96_L2_V1.0_veridical_freeview_isoFalse_fps144.mp4",""
"null","","","html-keyboard-response","420","996312","0.0-420.0","d9jc26z3","","<span style=""color:Black; font-size:50px;"">Agent B","null","","","","",""
"null","","","video-keyboard-response","421","999408","0.0-421.0","d9jc26z3","","","null","","Agent B","scrambled","STIM_SET_3/1159819.bmp_pp151_L1_V2_veridical_freeview_isoFalsemismatch_1592499.bmp_L2_fps90.mp4",""
"","","","call-function","422","999408","0.0-422.0","d9jc26z3","","","","","","","",""
"1573.1650000000373","{""judgement"":0}","[0]","survey-likert","423","1000983","0.0-423.0","d9jc26z3","","","","","","","","0"
"2525.079999999958","{""confidence"":2}","[0]","survey-likert","424","1003510","0.0-424.0","d9jc26z3","","","","","","","",""
"","","","call-function","425","1003510","0.0-425.0","d9jc26z3","","","","","","","",""
"null","","","html-keyboard-response","426","1005016","0.0-426.0","d9jc26z3","","<span style=""color:Black; font-size:50px;"">Agent A","null","","","","",""
"null","","","video-keyboard-response","427","1008102","0.0-427.0","d9jc26z3","","","null","","Agent A","veridical","STIM_SET_1_REAL/1159447.bmp_pp70_L2_V1.0_veridical_freeview_isoFalse_fps144.mp4",""
"null","","","html-keyboard-response","428","1009608","0.0-428.0","d9jc26z3","","<span style=""color:Black; font-size:50px;"">Agent B","null","","","","",""
"null","","","video-keyboard-response","429","1012698","0.0-429.0","d9jc26z3","","","null","","Agent B","scrambled","STIM_SET_3/1592150.bmp_pp77_L3_V2_veridical_freeview_isoFalsemismatch_1159447.bmp_L2_fps90.mp4",""
"","","","call-function","430","1012699","0.0-430.0","d9jc26z3","","","","","","","",""
"1503.594999999972","{""judgement"":0}","[0]","survey-likert","431","1014203","0.0-431.0","d9jc26z3","","","","","","","","0"
"1924.3549999999814","{""confidence"":3}","[0]","survey-likert","432","1016129","0.0-432.0","d9jc26z3","","","","","","","",""
"","","","call-function","433","1016130","0.0-433.0","d9jc26z3","","","","","","","",""
"null","","","html-keyboard-response","434","1017631","0.0-434.0","d9jc26z3","","<span style=""color:Black; font-size:50px;"">Agent A","null","","","","",""
"null","","","video-keyboard-response","435","1020712","0.0-435.0","d9jc26z3","","","null","","Agent A","veridical","STIM_SET_1_REAL/1591994.bmp_pp69_L3_V1.0_veridical_freeview_isoFalse_fps144.mp4",""
"null","","","html-keyboard-response","436","1022215","0.0-436.0","d9jc26z3","","<span style=""color:Black; font-size:50px;"">Agent B","null","","","","",""
"null","","","video-keyboard-response","437","1025308","0.0-437.0","d9jc26z3","","","null","","Agent B","scrambled","STIM_SET_3/713328.bmp_pp86_L2_V2_veridical_freeview_isoFalsemismatch_1591994.bmp_L3_fps90.mp4",""
"","","","call-function","438","1025309","0.0-438.0","d9jc26z3","","","","","","","",""
"1623.3049999999348","{""judgement"":0}","[0]","survey-likert","439","1026933","0.0-439.0","d9jc26z3","","","","","","","","0"
"1661.9199999999255","{""confidence"":3}","[0]","survey-likert","440","1028596","0.0-440.0","d9jc26z3","","","","","","","",""
"","","","call-function","441","1028597","0.0-441.0","d9jc26z3","","","","","","","",""
"null","","","html-keyboard-response","442","1030099","0.0-442.0","d9jc26z3","","<span style=""color:Black; font-size:50px;"">Agent A","null","","","","",""
"null","","","video-keyboard-response","443","1033178","0.0-443.0","d9jc26z3","","","null","","Agent A","veridical","STIM_SET_1_REAL/1593146.bmp_pp93_L1_V1.0_veridical_freeview_isoFalse_fps144.mp4",""
"null","","","html-keyboard-response","444","1034683","0.0-444.0","d9jc26z3","","<span style=""color:Black; font-size:50px;"">Agent B","null","","","","",""
"null","","","video-keyboard-response","445","1037751","0.0-445.0","d9jc26z3","","","null","","Agent B","scrambled","STIM_SET_3/1592298.bmp_pp56_L3_V2_veridical_freeview_isoFalsemismatch_1593146.bmp_L1_fps90.mp4",""
"","","","call-function","446","1037752","0.0-446.0","d9jc26z3","","","","","","","",""
"1483.5699999999488","{""judgement"":0}","[0]","survey-likert","447","1039236","0.0-447.0","d9jc26z3","","","","","","","","0"
"1285.6500000000233","{""confidence"":1}","[0]","survey-likert","448","1040523","0.0-448.0","d9jc26z3","","","","","","","",""
"","","","call-function","449","1040524","0.0-449.0","d9jc26z3","","","","","","","",""
"null","","","html-keyboard-response","450","1042028","0.0-450.0","d9jc26z3","","<span style=""color:Black; font-size:50px;"">Agent A","null","","","","",""
"null","","","video-keyboard-response","451","1045100","0.0-451.0","d9jc26z3","","","null","","Agent A","scrambled","STIM_SET_3/1159973.bmp_pp98_L1_V2_veridical_freeview_isoFalsemismatch_285933.bmp_L1_fps90.mp4",""
"null","","","html-keyboard-response","452","1046603","0.0-452.0","d9jc26z3","","<span style=""color:Black; font-size:50px;"">Agent B","null","","","","",""
"null","","","video-keyboard-response","453","1049703","0.0-453.0","d9jc26z3","","","null","","Agent B","veridical","STIM_SET_1_REAL/285933.bmp_pp81_L1_V1.0_veridical_freeview_isoFalse_fps144.mp4",""
"","","","call-function","454","1049704","0.0-454.0","d9jc26z3","","","","","","","",""
"3602.0500000000466","{""judgement"":1}","[0]","survey-likert","455","1053308","0.0-455.0","d9jc26z3","","","","","","","","1"
"1080.6850000000559","{""confidence"":1}","[0]","survey-likert","456","1054390","0.0-456.0","d9jc26z3","","","","","","","",""
"","","","call-function","457","1054390","0.0-457.0","d9jc26z3","","","","","","","",""
"null","","","html-keyboard-response","458","1055893","0.0-458.0","d9jc26z3","","<span style=""color:Black; font-size:50px;"">Agent A","null","","","","",""
"null","","","video-keyboard-response","459","1058990","0.0-459.0","d9jc26z3","","","null","","Agent A","veridical","STIM_SET_1_REAL/1592727.bmp_pp59_L3_V1.0_veridical_freeview_isoFalse_fps144.mp4",""
"null","","","html-keyboard-response","460","1060497","0.0-460.0","d9jc26z3","","<span style=""color:Black; font-size:50px;"">Agent B","null","","","","",""
"null","","","video-keyboard-response","461","1063598","0.0-461.0","d9jc26z3","","","null","","Agent B","scrambled","STIM_SET_3/1592038.bmp_pp79_L2_V2_veridical_freeview_isoFalsemismatch_1592727.bmp_L3_fps90.mp4",""
"","","","call-function","462","1063599","0.0-462.0","d9jc26z3","","","","","","","",""
"1422.6700000001583","{""judgement"":0}","[0]","survey-likert","463","1065023","0.0-463.0","d9jc26z3","","","","","","","","0"
"1491.219999999972","{""confidence"":3}","[0]","survey-likert","464","1066516","0.0-464.0","d9jc26z3","","","","","","","",""
"","","","call-function","465","1066518","0.0-465.0","d9jc26z3","","","","","","","",""
"null","","","html-keyboard-response","466","1068020","0.0-466.0","d9jc26z3","","<span style=""color:Black; font-size:50px;"">Agent A","null","","","","",""
"null","","","video-keyboard-response","467","1071094","0.0-467.0","d9jc26z3","","","null","","Agent A","veridical","STIM_SET_1_REAL/713684.bmp_pp85_L3_V1.0_veridical_freeview_isoFalse_fps144.mp4",""
"null","","","html-keyboard-response","468","1072600","0.0-468.0","d9jc26z3","","<span style=""color:Black; font-size:50px;"">Agent B","null","","","","",""
"null","","","video-keyboard-response","469","1075669","0.0-469.0","d9jc26z3","","","null","","Agent B","scrambled","STIM_SET_3/713920.bmp_pp76_L1_V2_veridical_freeview_isoFalsemismatch_713684.bmp_L3_fps90.mp4",""
"","","","call-function","470","1075670","0.0-470.0","d9jc26z3","","","","","","","",""
"1271.1750000000466","{""judgement"":0}","[0]","survey-likert","471","1076942","0.0-471.0","d9jc26z3","","","","","","","","0"
"2420.3899999998976","{""confidence"":2}","[0]","survey-likert","472","1079364","0.0-472.0","d9jc26z3","","","","","","","",""
"","","","call-function","473","1079365","0.0-473.0","d9jc26z3","","","","","","","",""
"null","","","html-keyboard-response","474","1080868","0.0-474.0","d9jc26z3","","<span style=""color:Black; font-size:50px;"">Agent A","null","","","","",""
"null","","","video-keyboard-response","475","1083937","0.0-475.0","d9jc26z3","","","null","","Agent A","scrambled","STIM_SET_3/1592289.bmp_pp92_L3_V2_veridical_freeview_isoFalsemismatch_713666.bmp_L3_fps90.mp4",""
"null","","","html-keyboard-response","476","1085440","0.0-476.0","d9jc26z3","","<span style=""color:Black; font-size:50px;"">Agent B","null","","","","",""
"null","","","video-keyboard-response","477","1088515","0.0-477.0","d9jc26z3","","","null","","Agent B","veridical","STIM_SET_1_REAL/713666.bmp_pp97_L3_V1.0_veridical_freeview_isoFalse_fps144.mp4",""
"","","","call-function","478","1088516","0.0-478.0","d9jc26z3","","","","","","","",""
"2480.1450000000186","{""judgement"":1}","[0]","survey-likert","479","1090997","0.0-479.0","d9jc26z3","","","","","","","","1"
"1160.8149999999441","{""confidence"":1}","[0]","survey-likert","480","1092160","0.0-480.0","d9jc26z3","","","","","","","",""
"","","","call-function","481","1092160","0.0-481.0","d9jc26z3","","","","","","","",""
"null","","","html-keyboard-response","482","1093664","0.0-482.0","d9jc26z3","","<span style=""color:Black; font-size:50px;"">Agent A","null","","","","",""
"null","","","video-keyboard-response","483","1096771","0.0-483.0","d9jc26z3","","","null","","Agent A","scrambled","STIM_SET_3/713858.bmp_pp57_L1_V2_veridical_freeview_isoFalsemismatch_713749.bmp_L2_fps90.mp4",""
"null","","","html-keyboard-response","484","1098276","0.0-484.0","d9jc26z3","","<span style=""color:Black; font-size:50px;"">Agent B","null","","","","",""
"null","","","video-keyboard-response","485","1101379","0.0-485.0","d9jc26z3","","","null","","Agent B","veridical","STIM_SET_1_REAL/713749.bmp_pp88_L2_V1.0_veridical_freeview_isoFalse_fps144.mp4",""
"","","","call-function","486","1101380","0.0-486.0","d9jc26z3","","","","","","","",""
"1134.6599999999162","{""judgement"":1}","[0]","survey-likert","487","1102516","0.0-487.0","d9jc26z3","","","","","","","","1"
"992.339999999851","{""confidence"":3}","[0]","survey-likert","488","1103509","0.0-488.0","d9jc26z3","","","","","","","",""
"","","","call-function","489","1103510","0.0-489.0","d9jc26z3","","","","","","","",""
"null","","","html-keyboard-response","490","1105014","0.0-490.0","d9jc26z3","","<span style=""color:Black; font-size:50px;"">Agent A","null","","","","",""
"null","","","video-keyboard-response","491","1108105","0.0-491.0","d9jc26z3","","","null","","Agent A","veridical","STIM_SET_1_REAL/1159572.bmp_pp71_L1_V1.0_veridical_freeview_isoFalse_fps144.mp4",""
"null","","","html-keyboard-response","492","1109610","0.0-492.0","d9jc26z3","","<span style=""color:Black; font-size:50px;"">Agent B","null","","","","",""
"null","","","video-keyboard-response","493","1112715","0.0-493.0","d9jc26z3","","","null","","Agent B","scrambled","STIM_SET_3/713381.bmp_pp82_L2_V2_veridical_freeview_isoFalsemismatch_1159572.bmp_L1_fps90.mp4",""
"","","","call-function","494","1112715","0.0-494.0","d9jc26z3","","","","","","","",""
"1654.7950000001583","{""judgement"":0}","[0]","survey-likert","495","1114371","0.0-495.0","d9jc26z3","","","","","","","","0"
"1052.3400000000838","{""confidence"":3}","[0]","survey-likert","496","1115425","0.0-496.0","d9jc26z3","","","","","","","",""
"33378.330000000075","","","instructions","497","1148804","0.0-497.0","d9jc26z3","[{""page_index"":0,""viewing_time"":31902.185000000056},{""page_index"":1,""viewing_time"":663.839999999851},{""page_index"":2,""viewing_time"":812.1400000001304}]","","","","","","",""
"1772.2150000000838","","","instructions","498","1150577","0.0-498.0","d9jc26z3","[{""page_index"":0,""viewing_time"":389.38999999989755},{""page_index"":1,""viewing_time"":966.6350000000093},{""page_index"":2,""viewing_time"":416.0800000000745}]","","","","","","",""
"","","","call-function","499","1150577","0.0-499.0","d9jc26z3","","","","","","","",""
"null","","","html-keyboard-response","500","1152078","0.0-500.0","d9jc26z3","","<span style=""color:Black; font-size:50px;"">Agent A","null","","","","",""
"null","","","video-keyboard-response","501","1155153","0.0-501.0","d9jc26z3","","","null","","Agent A","scrambled","STIM_SET_3/1159592.bmp_pp91_L3_V2_veridical_freeview_isoFalsemismatch_285994.bmp_L3_fps90.mp4",""
"null","","","html-keyboard-response","502","1156655","0.0-502.0","d9jc26z3","","<span style=""color:Black; font-size:50px;"">Agent B","null","","","","",""
"null","","","video-keyboard-response","503","1159720","0.0-503.0","d9jc26z3","","","null","","Agent B","veridical","STIM_SET_1_REAL/285994.bmp_pp92_L3_V1.0_veridical_freeview_isoFalse_fps144.mp4",""
"","","","call-function","504","1159721","0.0-504.0","d9jc26z3","","","","","","","",""
"1294.1650000000373","{""judgement"":1}","[0]","survey-likert","505","1161016","0.0-505.0","d9jc26z3","","","","","","","","1"
"1316.4650000000838","{""confidence"":2}","[0]","survey-likert","506","1162334","0.0-506.0","d9jc26z3","","","","","","","",""
"","","","call-function","507","1162335","0.0-507.0","d9jc26z3","","","","","","","",""
"null","","","html-keyboard-response","508","1163840","0.0-508.0","d9jc26z3","","<span style=""color:Black; font-size:50px;"">Agent A","null","","","","",""
"null","","","video-keyboard-response","509","1166904","0.0-509.0","d9jc26z3","","","null","","Agent A","veridical","STIM_SET_1_REAL/498170.bmp_pp153_L3_V1.0_veridical_freeview_isoFalse_fps144.mp4",""
"null","","","html-keyboard-response","510","1168408","0.0-510.0","d9jc26z3","","<span style=""color:Black; font-size:50px;"">Agent B","null","","","","",""
"null","","","video-keyboard-response","511","1171482","0.0-511.0","d9jc26z3","","","null","","Agent B","scrambled","STIM_SET_3/713742.bmp_pp91_L3_V2_veridical_freeview_isoFalsemismatch_498170.bmp_L3_fps90.mp4",""
"","","","call-function","512","1171483","0.0-512.0","d9jc26z3","","","","","","","",""
"1828.0749999999534","{""judgement"":0}","[0]","survey-likert","513","1173312","0.0-513.0","d9jc26z3","","","","","","","","0"
"1739.7700000000186","{""confidence"":0}","[0]","survey-likert","514","1175053","0.0-514.0","d9jc26z3","","","","","","","",""
"","","","call-function","515","1175054","0.0-515.0","d9jc26z3","","","","","","","",""
"null","","","html-keyboard-response","516","1176559","0.0-516.0","d9jc26z3","","<span style=""color:Black; font-size:50px;"">Agent A","null","","","","",""
"null","","","video-keyboard-response","517","1179689","0.0-517.0","d9jc26z3","","","null","","Agent A","scrambled","STIM_SET_3/1592168.bmp_pp71_L1_V2_veridical_freeview_isoFalsemismatch_1592890.bmp_L2_fps90.mp4",""
"null","","","html-keyboard-response","518","1181192","0.0-518.0","d9jc26z3","","<span style=""color:Black; font-size:50px;"">Agent B","null","","","","",""
"null","","","video-keyboard-response","519","1184286","0.0-519.0","d9jc26z3","","","null","","Agent B","veridical","STIM_SET_1_REAL/1592890.bmp_pp82_L2_V1.0_veridical_freeview_isoFalse_fps144.mp4",""
"","","","call-function","520","1184287","0.0-520.0","d9jc26z3","","","","","","","",""
"2026.2349999998696","{""judgement"":1}","[0]","survey-likert","521","1186314","0.0-521.0","d9jc26z3","","","","","","","","1"
"1009.9799999999814","{""confidence"":3}","[0]","survey-likert","522","1187326","0.0-522.0","d9jc26z3","","","","","","","",""
"","","","call-function","523","1187327","0.0-523.0","d9jc26z3","","","","","","","",""
"null","","","html-keyboard-response","524","1188829","0.0-524.0","d9jc26z3","","<span style=""color:Black; font-size:50px;"">Agent A","null","","","","",""
"null","","","video-keyboard-response","525","1191927","0.0-525.0","d9jc26z3","","","null","","Agent A","scrambled","STIM_SET_3/1159329.bmp_pp61_L2_V2_veridical_freeview_isoFalsemismatch_1592817.bmp_L3_fps90.mp4",""
"null","","","html-keyboard-response","526","1193432","0.0-526.0","d9jc26z3","","<span style=""color:Black; font-size:50px;"">Agent B","null","","","","",""
"null","","","video-keyboard-response","527","1196522","0.0-527.0","d9jc26z3","","","null","","Agent B","veridical","STIM_SET_1_REAL/1592817.bmp_pp55_L3_V1.0_veridical_freeview_isoFalse_fps144.mp4",""
"","","","call-function","528","1196523","0.0-528.0","d9jc26z3","","","","","","","",""
"1234.1200000001118","{""judgement"":0}","[0]","survey-likert","529","1197758","0.0-529.0","d9jc26z3","","","","","","","","1"
"1098.7150000000838","{""confidence"":3}","[0]","survey-likert","530","1198858","0.0-530.0","d9jc26z3","","","","","","","",""
"","","","call-function","531","1198859","0.0-531.0","d9jc26z3","","","","","","","",""
"null","","","html-keyboard-response","532","1200360","0.0-532.0","d9jc26z3","","<span style=""color:Black; font-size:50px;"">Agent A","null","","","","",""
"null","","","video-keyboard-response","533","1203454","0.0-533.0","d9jc26z3","","","null","","Agent A","scrambled","STIM_SET_3/1160204.bmp_pp54_L2_V2_veridical_freeview_isoFalsemismatch_286001.bmp_L2_fps90.mp4",""
"null","","","html-keyboard-response","534","1204959","0.0-534.0","d9jc26z3","","<span style=""color:Black; font-size:50px;"">Agent B","null","","","","",""
"null","","","video-keyboard-response","535","1208045","0.0-535.0","d9jc26z3","","","null","","Agent B","veridical","STIM_SET_1_REAL/286001.bmp_pp54_L2_V1.0_veridical_freeview_isoFalse_fps144.mp4",""
"","","","call-function","536","1208046","0.0-536.0","d9jc26z3","","","","","","","",""
"1214.1149999999907","{""judgement"":1}","[0]","survey-likert","537","1209261","0.0-537.0","d9jc26z3","","","","","","","","1"
"1379.130000000121","{""confidence"":2}","[0]","survey-likert","538","1210642","0.0-538.0","d9jc26z3","","","","","","","",""
"","","","call-function","539","1210644","0.0-539.0","d9jc26z3","","","","","","","",""
"null","","","html-keyboard-response","540","1212146","0.0-540.0","d9jc26z3","","<span style=""color:Black; font-size:50px;"">Agent A","null","","","","",""
"null","","","video-keyboard-response","541","1215210","0.0-541.0","d9jc26z3","","","null","","Agent A","scrambled","STIM_SET_3/1159427.bmp_pp98_L1_V2_veridical_freeview_isoFalsemismatch_1591876.bmp_L1_fps90.mp4",""
"null","","","html-keyboard-response","542","1216714","0.0-542.0","d9jc26z3","","<span style=""color:Black; font-size:50px;"">Agent B","null","","","","",""
"null","","","video-keyboard-response","543","1219789","0.0-543.0","d9jc26z3","","","null","","Agent B","veridical","STIM_SET_1_REAL/1591876.bmp_pp63_L1_V1.0_veridical_freeview_isoFalse_fps144.mp4",""
"","","","call-function","544","1219790","0.0-544.0","d9jc26z3","","","","","","","",""
"1796.0850000001956","{""judgement"":1}","[0]","survey-likert","545","1221587","0.0-545.0","d9jc26z3","","","","","","","","1"
"2392.2600000000093","{""confidence"":1}","[0]","survey-likert","546","1223981","0.0-546.0","d9jc26z3","","","","","","","",""
"","","","call-function","547","1223982","0.0-547.0","d9jc26z3","","","","","","","",""
"null","","","html-keyboard-response","548","1225484","0.0-548.0","d9jc26z3","","<span style=""color:Black; font-size:50px;"">Agent A","null","","","","",""
"null","","","video-keyboard-response","549","1228556","0.0-549.0","d9jc26z3","","","null","","Agent A","scrambled","STIM_SET_3/1592921.bmp_pp69_L3_V2_veridical_freeview_isoFalsemismatch_713211.bmp_L3_fps90.mp4",""
"null","","","html-keyboard-response","550","1230062","0.0-550.0","d9jc26z3","","<span style=""color:Black; font-size:50px;"">Agent B","null","","","","",""
"null","","","video-keyboard-response","551","1233142","0.0-551.0","d9jc26z3","","","null","","Agent B","veridical","STIM_SET_1_REAL/713211.bmp_pp100_L3_V1.0_veridical_freeview_isoFalse_fps144.mp4",""
"","","","call-function","552","1233143","0.0-552.0","d9jc26z3","","","","","","","",""
"1624.505000000121","{""judgement"":1}","[0]","survey-likert","553","1234768","0.0-553.0","d9jc26z3","","","","","","","","1"
"1242.1699999999255","{""confidence"":3}","[0]","survey-likert","554","1236012","0.0-554.0","d9jc26z3","","","","","","","",""
"","","","call-function","555","1236013","0.0-555.0","d9jc26z3","","","","","","","",""
"null","","","html-keyboard-response","556","1237515","0.0-556.0","d9jc26z3","","<span style=""color:Black; font-size:50px;"">Agent A","null","","","","",""
"null","","","video-keyboard-response","557","1240619","0.0-557.0","d9jc26z3","","","null","","Agent A","veridical","STIM_SET_1_REAL/713371.bmp_pp68_L1_V1.0_veridical_freeview_isoFalse_fps144.mp4",""
"null","","","html-keyboard-response","558","1242124","0.0-558.0","d9jc26z3","","<span style=""color:Black; font-size:50px;"">Agent B","null","","","","",""
"null","","","video-keyboard-response","559","1245221","0.0-559.0","d9jc26z3","","","null","","Agent B","scrambled","STIM_SET_3/498396.bmp_pp99_L2_V2_veridical_freeview_isoFalsemismatch_713371.bmp_L1_fps90.mp4",""
"","","","call-function","560","1245222","0.0-560.0","d9jc26z3","","","","","","","",""
"1280.3549999999814","{""judgement"":0}","[0]","survey-likert","561","1246503","0.0-561.0","d9jc26z3","","","","","","","","0"
"1816.0200000000186","{""confidence"":3}","[0]","survey-likert","562","1248321","0.0-562.0","d9jc26z3","","","","","","","",""
"","","","call-function","563","1248321","0.0-563.0","d9jc26z3","","","","","","","",""
"null","","","html-keyboard-response","564","1249827","0.0-564.0","d9jc26z3","","<span style=""color:Black; font-size:50px;"">Agent A","null","","","","",""
"null","","","video-keyboard-response","565","1252936","0.0-565.0","d9jc26z3","","","null","","Agent A","scrambled","STIM_SET_3/285946.bmp_pp79_L2_V2_veridical_freeview_isoFalsemismatch_285751.bmp_L3_fps90.mp4",""
"null","","","html-keyboard-response","566","1254442","0.0-566.0","d9jc26z3","","<span style=""color:Black; font-size:50px;"">Agent B","null","","","","",""
"null","","","video-keyboard-response","567","1257544","0.0-567.0","d9jc26z3","","","null","","Agent B","veridical","STIM_SET_1_REAL/285751.bmp_pp55_L3_V1.0_veridical_freeview_isoFalse_fps144.mp4",""
"","","","call-function","568","1257545","0.0-568.0","d9jc26z3","","","","","","","",""
"2455.469999999972","{""judgement"":1}","[0]","survey-likert","569","1260001","0.0-569.0","d9jc26z3","","","","","","","","1"
"2680.690000000177","{""confidence"":2}","[0]","survey-likert","570","1262683","0.0-570.0","d9jc26z3","","","","","","","",""
"","","","call-function","571","1262684","0.0-571.0","d9jc26z3","","","","","","","",""
"null","","","html-keyboard-response","572","1264185","0.0-572.0","d9jc26z3","","<span style=""color:Black; font-size:50px;"">Agent A","null","","","","",""
"null","","","video-keyboard-response","573","1267282","0.0-573.0","d9jc26z3","","","null","","Agent A","veridical","STIM_SET_1_REAL/1592286.bmp_pp52_L1_V1.0_veridical_freeview_isoFalse_fps144.mp4",""
"null","","","html-keyboard-response","574","1268786","0.0-574.0","d9jc26z3","","<span style=""color:Black; font-size:50px;"">Agent B","null","","","","",""
"null","","","video-keyboard-response","575","1271874","0.0-575.0","d9jc26z3","","","null","","Agent B","scrambled","STIM_SET_3/498326.bmp_pp57_L1_V2_veridical_freeview_isoFalsemismatch_1592286.bmp_L1_fps90.mp4",""
"","","","call-function","576","1271875","0.0-576.0","d9jc26z3","","","","","","","",""
"1647.6100000001024","{""judgement"":0}","[0]","survey-likert","577","1273524","0.0-577.0","d9jc26z3","","","","","","","","0"
"1963.9150000000373","{""confidence"":2}","[0]","survey-likert","578","1275490","0.0-578.0","d9jc26z3","","","","","","","",""
"1413.0900000000838","","","instructions","579","1276903","0.0-579.0","d9jc26z3","[{""page_index"":0,""viewing_time"":1412.8200000000652}]","","","","","","",""
"964.0149999998976","","","instructions","580","1277868","0.0-580.0","d9jc26z3","[{""page_index"":0,""viewing_time"":963.9099999999162}]","","","","","","",""
"11457.719999999972","{""post-1"":3}","[0]","survey-likert","581","1289327","0.0-581.0","d9jc26z3","","","","","","","",""
"8099.0800000000745","{""post-1"":1}","[0]","survey-likert","582","1297428","0.0-582.0","d9jc26z3","","","","","","","",""
"11875.330000000075","{""post-2"":2}","[0]","survey-likert","583","1309305","0.0-583.0","d9jc26z3","","","","","","","",""
"6057.260000000009","{""post-2"":0}","[0]","survey-likert","584","1315365","0.0-584.0","d9jc26z3","","","","","","","",""
"10709.780000000028","{""post-3"":2}","[0]","survey-likert","585","1326077","0.0-585.0","d9jc26z3","","","","","","","",""
"4129.030000000028","{""post-3"":0}","[0]","survey-likert","586","1330207","0.0-586.0","d9jc26z3","","","","","","","",""
"9469.325000000186","{""post-4"":1}","[0]","survey-likert","587","1339678","0.0-587.0","d9jc26z3","","","","","","","",""
"2029.2250000000931","{""post-4"":0}","[0]","survey-likert","588","1341709","0.0-588.0","d9jc26z3","","","","","","","",""
"10231.664999999804","{""post-5"":0}","[0]","survey-likert","589","1351942","0.0-589.0","d9jc26z3","","","","","","","",""
"5118","{""post-5"":2}","[0]","survey-likert","590","1357061","0.0-590.0","d9jc26z3","","","","","","","",""
"11763.419999999925","{""Q0"":""I had a good experience.""}","","survey-text","591","1368830","0.0-591.0","d9jc26z3","","","","","","","",""
"70654.49499999988","{""Q0"":""I found this second iteration to be easier than the previous one. In particular, the agents I deemed to be human were often focusing on faces and words, while the ones I deemed to be bots had random focuses.""}","","survey-text","592","1439488","0.0-592.0","d9jc26z3","","","","","","","",""
"49559.35499999998","{""Q0"":""Categorizing agents when the images did not contain faces or words.""}","","survey-text","593","1489052","0.0-593.0","d9jc26z3","","","","","","","",""
"1383.869999999879","","","instructions","594","1490437","0.0-594.0","d9jc26z3","[{""page_index"":0,""viewing_time"":1383.7249999998603}]","","","","","","",""
"96335.6399999999","{""Experimenter_end"":[""Printed ID# d9jc26z3 on consent form"",""Given subject SONA credit or payment"",""Given the subject debrief form""]}","[0]","survey-multi-select","595","1586775","0.0-595.0","d9jc26z3","","","","","","","",""
