"rt","responses","question_order","trial_type","trial_index","time_elapsed","internal_node_id","ID","view_history","stimulus","key_press","value","agent","condition","image","correct_answer"
"14284.035","{""Experimenter"":[""Confirmed subject's identity"",""Confirmed normal or corrected-to-normal vision"",""Obtained consent (signature and date)"",""Checked the test room lighting"",""Checked computer screen lighting"",""Checked distance from screen to chin rest (50cm)"",""Cleaned and adjusted chin rest"",""Counterbalanced the order of the tasks"",""Opened the experiment in Firefox"",""Made the experiment full screen"",""Encouraged subject to silence phone, put away distractors, etc.""]}","[0]","survey-multi-select","0","14292","0.0-0.0","dcz3wszs","","","","","","","",""
"15576.144999999999","","","instructions","1","29869","0.0-1.0","dcz3wszs","[{""page_index"":0,""viewing_time"":15575.995}]","","","","","","",""
"9179.954999999998","","","instructions","2","39050","0.0-2.0","dcz3wszs","[{""page_index"":0,""viewing_time"":3465.8849999999984},{""page_index"":1,""viewing_time"":1035.1050000000032},{""page_index"":2,""viewing_time"":4678.8399999999965}]","","","","","","",""
"1959.5599999999977","","","instructions","3","41010","0.0-3.0","dcz3wszs","[{""page_index"":0,""viewing_time"":1959.4549999999945}]","","","","","","",""
"null","","","video-keyboard-response","4","44084","0.0-4.0","dcz3wszs","","","null","","","","",""
"6751.730000000003","","","instructions","5","50836","0.0-5.0","dcz3wszs","[{""page_index"":0,""viewing_time"":2540.510000000002},{""page_index"":1,""viewing_time"":2000.2999999999956},{""page_index"":2,""viewing_time"":2210.8150000000023}]","","","","","","",""
"1835.3050000000003","","","instructions","6","52672","0.0-6.0","dcz3wszs","[{""page_index"":0,""viewing_time"":1835.199999999997}]","","","","","","",""
"3457.824999999997","","","instructions","7","56130","0.0-7.0","dcz3wszs","[{""page_index"":0,""viewing_time"":3457.604999999996}]","","","","","","",""
"null","","","video-keyboard-response","8","59204","0.0-8.0","dcz3wszs","","","null","","","","",""
"8076.82","","","instructions","9","67282","0.0-9.0","dcz3wszs","[{""page_index"":0,""viewing_time"":1668.4749999999985},{""page_index"":1,""viewing_time"":2957.9500000000044},{""page_index"":2,""viewing_time"":3450.264999999992}]","","","","","","",""
"2161.7000000000116","","","instructions","10","69444","0.0-10.0","dcz3wszs","[{""page_index"":0,""viewing_time"":2161.435000000012}]","","","","","","",""
"","","","call-function","11","69445","0.0-11.0","dcz3wszs","","","","","","","",""
"null","","","html-keyboard-response","12","70949","0.0-12.0","dcz3wszs","","<span style=""color:Black; font-size:50px;"">Agent A","null","","","","",""
"null","","","video-keyboard-response","13","74017","0.0-13.0","dcz3wszs","","","null","","Agent A","veridical","STIM_SET_2_144/1159329.bmp_pp61_L2_V1.0_veridical_freeview_isoTrue_fps144.mp4",""
"null","","","html-keyboard-response","14","75521","0.0-14.0","dcz3wszs","","<span style=""color:Black; font-size:50px;"">Agent B","null","","","","",""
"null","","","video-keyboard-response","15","78593","0.0-15.0","dcz3wszs","","","null","","Agent B","scrambled","STIM_SET_5/1159329.bmp_pp61_L2_V1.0_veridical_freeview_isoTrue_Hflip_fps144.mp4",""
"","","","call-function","16","78593","0.0-16.0","dcz3wszs","","","","","","","",""
"4093.709999999992","{""judgement"":0}","[0]","survey-likert","17","82688","0.0-17.0","dcz3wszs","","","","","","","","0"
"1738.590000000011","{""confidence"":1}","[0]","survey-likert","18","84428","0.0-18.0","dcz3wszs","","","","","","","",""
"","","","call-function","19","84428","0.0-19.0","dcz3wszs","","","","","","","",""
"null","","","html-keyboard-response","20","85932","0.0-20.0","dcz3wszs","","<span style=""color:Black; font-size:50px;"">Agent A","null","","","","",""
"null","","","video-keyboard-response","21","89012","0.0-21.0","dcz3wszs","","","null","","Agent A","scrambled","STIM_SET_5/713328.bmp_pp86_L2_V1.0_veridical_freeview_isoTrue_Hflip_fps144.mp4",""
"null","","","html-keyboard-response","22","90515","0.0-22.0","dcz3wszs","","<span style=""color:Black; font-size:50px;"">Agent B","null","","","","",""
"null","","","video-keyboard-response","23","93590","0.0-23.0","dcz3wszs","","","null","","Agent B","veridical","STIM_SET_2_144/713328.bmp_pp86_L2_V1.0_veridical_freeview_isoTrue_fps144.mp4",""
"","","","call-function","24","93591","0.0-24.0","dcz3wszs","","","","","","","",""
"3318.699999999997","{""judgement"":1}","[0]","survey-likert","25","96910","0.0-25.0","dcz3wszs","","","","","","","","1"
"1743.7600000000093","{""confidence"":1}","[0]","survey-likert","26","98655","0.0-26.0","dcz3wszs","","","","","","","",""
"","","","call-function","27","98656","0.0-27.0","dcz3wszs","","","","","","","",""
"null","","","html-keyboard-response","28","100158","0.0-28.0","dcz3wszs","","<span style=""color:Black; font-size:50px;"">Agent A","null","","","","",""
"null","","","video-keyboard-response","29","103249","0.0-29.0","dcz3wszs","","","null","","Agent A","scrambled","STIM_SET_5/713652.bmp_pp89_L1_V1_veridical_freeview_isoTrue_Hflip_fps144.mp4",""
"null","","","html-keyboard-response","30","104756","0.0-30.0","dcz3wszs","","<span style=""color:Black; font-size:50px;"">Agent B","null","","","","",""
"null","","","video-keyboard-response","31","107826","0.0-31.0","dcz3wszs","","","null","","Agent B","veridical","STIM_SET_2_144/713652.bmp_pp89_L1_V1_veridical_freeview_isoTrue_fps144.mp4",""
"","","","call-function","32","107826","0.0-32.0","dcz3wszs","","","","","","","",""
"2907.87999999999","{""judgement"":1}","[0]","survey-likert","33","110735","0.0-33.0","dcz3wszs","","","","","","","","1"
"1264.7200000000012","{""confidence"":1}","[0]","survey-likert","34","112000","0.0-34.0","dcz3wszs","","","","","","","",""
"","","","call-function","35","112001","0.0-35.0","dcz3wszs","","","","","","","",""
"null","","","html-keyboard-response","36","113503","0.0-36.0","dcz3wszs","","<span style=""color:Black; font-size:50px;"">Agent A","null","","","","",""
"null","","","video-keyboard-response","37","116609","0.0-37.0","dcz3wszs","","","null","","Agent A","scrambled","STIM_SET_5/498372.bmp_pp95_L2_V1_veridical_freeview_isoTrue_Hflip_fps144.mp4",""
"null","","","html-keyboard-response","38","118110","0.0-38.0","dcz3wszs","","<span style=""color:Black; font-size:50px;"">Agent B","null","","","","",""
"null","","","video-keyboard-response","39","121212","0.0-39.0","dcz3wszs","","","null","","Agent B","veridical","STIM_SET_2_144/498372.bmp_pp95_L2_V1_veridical_freeview_isoTrue_fps144.mp4",""
"","","","call-function","40","121212","0.0-40.0","dcz3wszs","","","","","","","",""
"1702.2899999999936","{""judgement"":1}","[0]","survey-likert","41","122916","0.0-41.0","dcz3wszs","","","","","","","","1"
"3508.2699999999895","{""confidence"":1}","[0]","survey-likert","42","126425","0.0-42.0","dcz3wszs","","","","","","","",""
"","","","call-function","43","126426","0.0-43.0","dcz3wszs","","","","","","","",""
"null","","","html-keyboard-response","44","127929","0.0-44.0","dcz3wszs","","<span style=""color:Black; font-size:50px;"">Agent A","null","","","","",""
"null","","","video-keyboard-response","45","130996","0.0-45.0","dcz3wszs","","","null","","Agent A","scrambled","STIM_SET_5/498261.bmp_pp84_L3_V1.0_veridical_freeview_isoTrue_Hflip_fps144.mp4",""
"null","","","html-keyboard-response","46","132502","0.0-46.0","dcz3wszs","","<span style=""color:Black; font-size:50px;"">Agent B","null","","","","",""
"null","","","video-keyboard-response","47","135586","0.0-47.0","dcz3wszs","","","null","","Agent B","veridical","STIM_SET_2_144/498261.bmp_pp84_L3_V1.0_veridical_freeview_isoTrue_fps144.mp4",""
"","","","call-function","48","135587","0.0-48.0","dcz3wszs","","","","","","","",""
"2304.7700000000186","{""judgement"":0}","[0]","survey-likert","49","137892","0.0-49.0","dcz3wszs","","","","","","","","1"
"1985.054999999993","{""confidence"":0}","[0]","survey-likert","50","139879","0.0-50.0","dcz3wszs","","","","","","","",""
"","","","call-function","51","139879","0.0-51.0","dcz3wszs","","","","","","","",""
"null","","","html-keyboard-response","52","141380","0.0-52.0","dcz3wszs","","<span style=""color:Black; font-size:50px;"">Agent A","null","","","","",""
"null","","","video-keyboard-response","53","144449","0.0-53.0","dcz3wszs","","","null","","Agent A","veridical","STIM_SET_2_144/61513.bmp_pp75_L1_V1.0_veridical_freeview_isoTrue_fps144.mp4",""
"null","","","html-keyboard-response","54","145951","0.0-54.0","dcz3wszs","","<span style=""color:Black; font-size:50px;"">Agent B","null","","","","",""
"null","","","video-keyboard-response","55","149022","0.0-55.0","dcz3wszs","","","null","","Agent B","scrambled","STIM_SET_5/61513.bmp_pp75_L1_V1.0_veridical_freeview_isoTrue_Hflip_fps144.mp4",""
"","","","call-function","56","149023","0.0-56.0","dcz3wszs","","","","","","","",""
"3726.7700000000186","{""judgement"":0}","[0]","survey-likert","57","152751","0.0-57.0","dcz3wszs","","","","","","","","0"
"1549.4100000000035","{""confidence"":1}","[0]","survey-likert","58","154303","0.0-58.0","dcz3wszs","","","","","","","",""
"","","","call-function","59","154303","0.0-59.0","dcz3wszs","","","","","","","",""
"null","","","html-keyboard-response","60","155805","0.0-60.0","dcz3wszs","","<span style=""color:Black; font-size:50px;"">Agent A","null","","","","",""
"null","","","video-keyboard-response","61","158865","0.0-61.0","dcz3wszs","","","null","","Agent A","veridical","STIM_SET_2_144/1592567.bmp_pp70_L2_V1.0_veridical_freeview_isoTrue_fps144.mp4",""
"null","","","html-keyboard-response","62","160369","0.0-62.0","dcz3wszs","","<span style=""color:Black; font-size:50px;"">Agent B","null","","","","",""
"null","","","video-keyboard-response","63","163434","0.0-63.0","dcz3wszs","","","null","","Agent B","scrambled","STIM_SET_5/1592567.bmp_pp70_L2_V1.0_veridical_freeview_isoTrue_Hflip_fps144.mp4",""
"","","","call-function","64","163434","0.0-64.0","dcz3wszs","","","","","","","",""
"3370.3150000000023","{""judgement"":1}","[0]","survey-likert","65","166806","0.0-65.0","dcz3wszs","","","","","","","","0"
"1489.195000000007","{""confidence"":0}","[0]","survey-likert","66","168296","0.0-66.0","dcz3wszs","","","","","","","",""
"","","","call-function","67","168297","0.0-67.0","dcz3wszs","","","","","","","",""
"null","","","html-keyboard-response","68","169801","0.0-68.0","dcz3wszs","","<span style=""color:Black; font-size:50px;"">Agent A","null","","","","",""
"null","","","video-keyboard-response","69","172871","0.0-69.0","dcz3wszs","","","null","","Agent A","scrambled","STIM_SET_5/713920.bmp_pp76_L1_V1.0_veridical_freeview_isoTrue_Hflip_fps144.mp4",""
"null","","","html-keyboard-response","70","174374","0.0-70.0","dcz3wszs","","<span style=""color:Black; font-size:50px;"">Agent B","null","","","","",""
"null","","","video-keyboard-response","71","177449","0.0-71.0","dcz3wszs","","","null","","Agent B","veridical","STIM_SET_2_144/713920.bmp_pp76_L1_V1.0_veridical_freeview_isoTrue_fps144.mp4",""
"","","","call-function","72","177450","0.0-72.0","dcz3wszs","","","","","","","",""
"3882.540000000008","{""judgement"":1}","[0]","survey-likert","73","181333","0.0-73.0","dcz3wszs","","","","","","","","1"
"1663.3450000000012","{""confidence"":1}","[0]","survey-likert","74","182998","0.0-74.0","dcz3wszs","","","","","","","",""
"","","","call-function","75","182998","0.0-75.0","dcz3wszs","","","","","","","",""
"null","","","html-keyboard-response","76","184500","0.0-76.0","dcz3wszs","","<span style=""color:Black; font-size:50px;"">Agent A","null","","","","",""
"null","","","video-keyboard-response","77","187585","0.0-77.0","dcz3wszs","","","null","","Agent A","scrambled","STIM_SET_5/1592025.bmp_pp68_L1_V1.0_veridical_freeview_isoTrue_Hflip_fps144.mp4",""
"null","","","html-keyboard-response","78","189092","0.0-78.0","dcz3wszs","","<span style=""color:Black; font-size:50px;"">Agent B","null","","","","",""
"null","","","video-keyboard-response","79","192176","0.0-79.0","dcz3wszs","","","null","","Agent B","veridical","STIM_SET_2_144/1592025.bmp_pp68_L1_V1.0_veridical_freeview_isoTrue_fps144.mp4",""
"","","","call-function","80","192177","0.0-80.0","dcz3wszs","","","","","","","",""
"3251.7149999999965","{""judgement"":0}","[0]","survey-likert","81","195429","0.0-81.0","dcz3wszs","","","","","","","","1"
"1680.6399999999849","{""confidence"":0}","[0]","survey-likert","82","197111","0.0-82.0","dcz3wszs","","","","","","","",""
"","","","call-function","83","197111","0.0-83.0","dcz3wszs","","","","","","","",""
"null","","","html-keyboard-response","84","198613","0.0-84.0","dcz3wszs","","<span style=""color:Black; font-size:50px;"">Agent A","null","","","","",""
"null","","","video-keyboard-response","85","201705","0.0-85.0","dcz3wszs","","","null","","Agent A","scrambled","STIM_SET_5/1160247.bmp_pp54_L2_V1.0_veridical_freeview_isoTrue_Hflip_fps144.mp4",""
"null","","","html-keyboard-response","86","203207","0.0-86.0","dcz3wszs","","<span style=""color:Black; font-size:50px;"">Agent B","null","","","","",""
"null","","","video-keyboard-response","87","206299","0.0-87.0","dcz3wszs","","","null","","Agent B","veridical","STIM_SET_2_144/1160247.bmp_pp54_L2_V1.0_veridical_freeview_isoTrue_fps144.mp4",""
"","","","call-function","88","206300","0.0-88.0","dcz3wszs","","","","","","","",""
"3487.600000000006","{""judgement"":1}","[0]","survey-likert","89","209788","0.0-89.0","dcz3wszs","","","","","","","","1"
"1784.0650000000023","{""confidence"":0}","[0]","survey-likert","90","211573","0.0-90.0","dcz3wszs","","","","","","","",""
"2657.0749999999825","","","instructions","91","214231","0.0-91.0","dcz3wszs","[{""page_index"":0,""viewing_time"":1229.9199999999837},{""page_index"":1,""viewing_time"":841.9750000000058},{""page_index"":2,""viewing_time"":584.9750000000058}]","","","","","","",""
"2122","","","instructions","92","216353","0.0-92.0","dcz3wszs","[{""page_index"":0,""viewing_time"":465.7699999999895},{""page_index"":1,""viewing_time"":1125.8949999999895},{""page_index"":2,""viewing_time"":530.2250000000058}]","","","","","","",""
"","","","call-function","93","216353","0.0-93.0","dcz3wszs","","","","","","","",""
"null","","","html-keyboard-response","94","217858","0.0-94.0","dcz3wszs","","<span style=""color:Black; font-size:50px;"">Agent A","null","","","","",""
"null","","","video-keyboard-response","95","220932","0.0-95.0","dcz3wszs","","","null","","Agent A","veridical","STIM_SET_2_144/1159860.bmp_pp152_L2_V1.0_veridical_freeview_isoTrue_fps144.mp4",""
"null","","","html-keyboard-response","96","222435","0.0-96.0","dcz3wszs","","<span style=""color:Black; font-size:50px;"">Agent B","null","","","","",""
"null","","","video-keyboard-response","97","225498","0.0-97.0","dcz3wszs","","","null","","Agent B","scrambled","STIM_SET_5/1159860.bmp_pp152_L2_V1.0_veridical_freeview_isoTrue_Hflip_fps144.mp4",""
"","","","call-function","98","225498","0.0-98.0","dcz3wszs","","","","","","","",""
"1650.179999999993","{""judgement"":1}","[0]","survey-likert","99","227149","0.0-99.0","dcz3wszs","","","","","","","","0"
"1082.4750000000058","{""confidence"":1}","[0]","survey-likert","100","228233","0.0-100.0","dcz3wszs","","","","","","","",""
"","","","call-function","101","228233","0.0-101.0","dcz3wszs","","","","","","","",""
"null","","","html-keyboard-response","102","229737","0.0-102.0","dcz3wszs","","<span style=""color:Black; font-size:50px;"">Agent A","null","","","","",""
"null","","","video-keyboard-response","103","232808","0.0-103.0","dcz3wszs","","","null","","Agent A","scrambled","STIM_SET_5/1592305.bmp_pp65_L3_V1.0_veridical_freeview_isoTrue_Hflip_fps144.mp4",""
"null","","","html-keyboard-response","104","234311","0.0-104.0","dcz3wszs","","<span style=""color:Black; font-size:50px;"">Agent B","null","","","","",""
"null","","","video-keyboard-response","105","237381","0.0-105.0","dcz3wszs","","","null","","Agent B","veridical","STIM_SET_2_144/1592305.bmp_pp65_L3_V1.0_veridical_freeview_isoTrue_fps144.mp4",""
"","","","call-function","106","237381","0.0-106.0","dcz3wszs","","","","","","","",""
"2191.2549999999756","{""judgement"":1}","[0]","survey-likert","107","239573","0.0-107.0","dcz3wszs","","","","","","","","1"
"1312.8000000000175","{""confidence"":2}","[0]","survey-likert","108","240887","0.0-108.0","dcz3wszs","","","","","","","",""
"","","","call-function","109","240887","0.0-109.0","dcz3wszs","","","","","","","",""
"null","","","html-keyboard-response","110","242389","0.0-110.0","dcz3wszs","","<span style=""color:Black; font-size:50px;"">Agent A","null","","","","",""
"null","","","video-keyboard-response","111","245465","0.0-111.0","dcz3wszs","","","null","","Agent A","scrambled","STIM_SET_5/1159592.bmp_pp91_L3_V1.0_veridical_freeview_isoTrue_Hflip_fps144.mp4",""
"null","","","html-keyboard-response","112","246971","0.0-112.0","dcz3wszs","","<span style=""color:Black; font-size:50px;"">Agent B","null","","","","",""
"null","","","video-keyboard-response","113","250062","0.0-113.0","dcz3wszs","","","null","","Agent B","veridical","STIM_SET_2_144/1159592.bmp_pp91_L3_V1.0_veridical_freeview_isoTrue_fps144.mp4",""
"","","","call-function","114","250063","0.0-114.0","dcz3wszs","","","","","","","",""
"2732.985000000015","{""judgement"":1}","[0]","survey-likert","115","252797","0.0-115.0","dcz3wszs","","","","","","","","1"
"1921.6900000000023","{""confidence"":1}","[0]","survey-likert","116","254720","0.0-116.0","dcz3wszs","","","","","","","",""
"","","","call-function","117","254720","0.0-117.0","dcz3wszs","","","","","","","",""
"null","","","html-keyboard-response","118","256221","0.0-118.0","dcz3wszs","","<span style=""color:Black; font-size:50px;"">Agent A","null","","","","",""
"null","","","video-keyboard-response","119","259311","0.0-119.0","dcz3wszs","","","null","","Agent A","scrambled","STIM_SET_5/498396.bmp_pp99_L2_V1.0_veridical_freeview_isoTrue_Hflip_fps144.mp4",""
"null","","","html-keyboard-response","120","260818","0.0-120.0","dcz3wszs","","<span style=""color:Black; font-size:50px;"">Agent B","null","","","","",""
"null","","","video-keyboard-response","121","263901","0.0-121.0","dcz3wszs","","","null","","Agent B","veridical","STIM_SET_2_144/498396.bmp_pp99_L2_V1.0_veridical_freeview_isoTrue_fps144.mp4",""
"","","","call-function","122","263902","0.0-122.0","dcz3wszs","","","","","","","",""
"2369.7299999999814","{""judgement"":1}","[0]","survey-likert","123","266273","0.0-123.0","dcz3wszs","","","","","","","","1"
"2130.030000000028","{""confidence"":2}","[0]","survey-likert","124","268404","0.0-124.0","dcz3wszs","","","","","","","",""
"","","","call-function","125","268405","0.0-125.0","dcz3wszs","","","","","","","",""
"null","","","html-keyboard-response","126","269908","0.0-126.0","dcz3wszs","","<span style=""color:Black; font-size:50px;"">Agent A","null","","","","",""
"null","","","video-keyboard-response","127","272981","0.0-127.0","dcz3wszs","","","null","","Agent A","veridical","STIM_SET_2_144/1160189.bmp_pp64_L1_V1.0_veridical_freeview_isoTrue_fps144.mp4",""
"null","","","html-keyboard-response","128","274485","0.0-128.0","dcz3wszs","","<span style=""color:Black; font-size:50px;"">Agent B","null","","","","",""
"null","","","video-keyboard-response","129","277557","0.0-129.0","dcz3wszs","","","null","","Agent B","scrambled","STIM_SET_5/1160189.bmp_pp64_L1_V1.0_veridical_freeview_isoTrue_Hflip_fps144.mp4",""
"","","","call-function","130","277558","0.0-130.0","dcz3wszs","","","","","","","",""
"3117.399999999965","{""judgement"":0}","[0]","survey-likert","131","280677","0.0-131.0","dcz3wszs","","","","","","","","0"
"3289.6199999999953","{""confidence"":2}","[0]","survey-likert","132","283968","0.0-132.0","dcz3wszs","","","","","","","",""
"","","","call-function","133","283968","0.0-133.0","dcz3wszs","","","","","","","",""
"null","","","html-keyboard-response","134","285474","0.0-134.0","dcz3wszs","","<span style=""color:Black; font-size:50px;"">Agent A","null","","","","",""
"null","","","video-keyboard-response","135","288543","0.0-135.0","dcz3wszs","","","null","","Agent A","scrambled","STIM_SET_5/1159973.bmp_pp98_L1_V1.0_veridical_freeview_isoTrue_Hflip_fps144.mp4",""
"null","","","html-keyboard-response","136","290045","0.0-136.0","dcz3wszs","","<span style=""color:Black; font-size:50px;"">Agent B","null","","","","",""
"null","","","video-keyboard-response","137","293115","0.0-137.0","dcz3wszs","","","null","","Agent B","veridical","STIM_SET_2_144/1159973.bmp_pp98_L1_V1.0_veridical_freeview_isoTrue_fps144.mp4",""
"","","","call-function","138","293116","0.0-138.0","dcz3wszs","","","","","","","",""
"3926.7600000000093","{""judgement"":0}","[0]","survey-likert","139","297043","0.0-139.0","dcz3wszs","","","","","","","","1"
"1839.649999999965","{""confidence"":0}","[0]","survey-likert","140","298884","0.0-140.0","dcz3wszs","","","","","","","",""
"","","","call-function","141","298885","0.0-141.0","dcz3wszs","","","","","","","",""
"null","","","html-keyboard-response","142","300388","0.0-142.0","dcz3wszs","","<span style=""color:Black; font-size:50px;"">Agent A","null","","","","",""
"null","","","video-keyboard-response","143","303488","0.0-143.0","dcz3wszs","","","null","","Agent A","veridical","STIM_SET_2_144/285946.bmp_pp79_L2_V1.0_veridical_freeview_isoTrue_fps144.mp4",""
"null","","","html-keyboard-response","144","304994","0.0-144.0","dcz3wszs","","<span style=""color:Black; font-size:50px;"">Agent B","null","","","","",""
"null","","","video-keyboard-response","145","308089","0.0-145.0","dcz3wszs","","","null","","Agent B","scrambled","STIM_SET_5/285946.bmp_pp79_L2_V1.0_veridical_freeview_isoTrue_Hflip_fps144.mp4",""
"","","","call-function","146","308089","0.0-146.0","dcz3wszs","","","","","","","",""
"5140.760000000009","{""judgement"":1}","[0]","survey-likert","147","313231","0.0-147.0","dcz3wszs","","","","","","","","0"
"1609.1350000000093","{""confidence"":0}","[0]","survey-likert","148","314841","0.0-148.0","dcz3wszs","","","","","","","",""
"","","","call-function","149","314842","0.0-149.0","dcz3wszs","","","","","","","",""
"null","","","html-keyboard-response","150","316343","0.0-150.0","dcz3wszs","","<span style=""color:Black; font-size:50px;"">Agent A","null","","","","",""
"null","","","video-keyboard-response","151","319434","0.0-151.0","dcz3wszs","","","null","","Agent A","scrambled","STIM_SET_5/713770.bmp_pp89_L1_V1.0_veridical_freeview_isoTrue_Hflip_fps144.mp4",""
"null","","","html-keyboard-response","152","320935","0.0-152.0","dcz3wszs","","<span style=""color:Black; font-size:50px;"">Agent B","null","","","","",""
"null","","","video-keyboard-response","153","324023","0.0-153.0","dcz3wszs","","","null","","Agent B","veridical","STIM_SET_2_144/713770.bmp_pp89_L1_V1.0_veridical_freeview_isoTrue_fps144.mp4",""
"","","","call-function","154","324023","0.0-154.0","dcz3wszs","","","","","","","",""
"2386.314999999944","{""judgement"":0}","[0]","survey-likert","155","326410","0.0-155.0","dcz3wszs","","","","","","","","1"
"2013.9000000000233","{""confidence"":2}","[0]","survey-likert","156","328425","0.0-156.0","dcz3wszs","","","","","","","",""
"","","","call-function","157","328426","0.0-157.0","dcz3wszs","","","","","","","",""
"null","","","html-keyboard-response","158","329927","0.0-158.0","dcz3wszs","","<span style=""color:Black; font-size:50px;"">Agent A","null","","","","",""
"null","","","video-keyboard-response","159","333012","0.0-159.0","dcz3wszs","","","null","","Agent A","veridical","STIM_SET_2_144/1592530.bmp_pp75_L1_V1.0_veridical_freeview_isoTrue_fps144.mp4",""
"null","","","html-keyboard-response","160","334517","0.0-160.0","dcz3wszs","","<span style=""color:Black; font-size:50px;"">Agent B","null","","","","",""
"null","","","video-keyboard-response","161","337584","0.0-161.0","dcz3wszs","","","null","","Agent B","scrambled","STIM_SET_5/1592530.bmp_pp75_L1_V1.0_veridical_freeview_isoTrue_Hflip_fps144.mp4",""
"","","","call-function","162","337584","0.0-162.0","dcz3wszs","","","","","","","",""
"1856.0900000000256","{""judgement"":1}","[0]","survey-likert","163","339441","0.0-163.0","dcz3wszs","","","","","","","","0"
"1437.945000000007","{""confidence"":2}","[0]","survey-likert","164","340880","0.0-164.0","dcz3wszs","","","","","","","",""
"","","","call-function","165","340881","0.0-165.0","dcz3wszs","","","","","","","",""
"null","","","html-keyboard-response","166","342382","0.0-166.0","dcz3wszs","","<span style=""color:Black; font-size:50px;"">Agent A","null","","","","",""
"null","","","video-keyboard-response","167","345449","0.0-167.0","dcz3wszs","","","null","","Agent A","scrambled","STIM_SET_5/1160049.bmp_pp53_L2_V1.0_veridical_freeview_isoTrue_Hflip_fps144.mp4",""
"null","","","html-keyboard-response","168","346953","0.0-168.0","dcz3wszs","","<span style=""color:Black; font-size:50px;"">Agent B","null","","","","",""
"null","","","video-keyboard-response","169","350030","0.0-169.0","dcz3wszs","","","null","","Agent B","veridical","STIM_SET_2_144/1160049.bmp_pp53_L2_V1.0_veridical_freeview_isoTrue_fps144.mp4",""
"","","","call-function","170","350030","0.0-170.0","dcz3wszs","","","","","","","",""
"4452.604999999981","{""judgement"":1}","[0]","survey-likert","171","354484","0.0-171.0","dcz3wszs","","","","","","","","1"
"1206.4700000000303","{""confidence"":2}","[0]","survey-likert","172","355691","0.0-172.0","dcz3wszs","","","","","","","",""
"2358.1050000000396","","","instructions","173","358050","0.0-173.0","dcz3wszs","[{""page_index"":0,""viewing_time"":1022.9500000000116},{""page_index"":1,""viewing_time"":963.015000000014},{""page_index"":2,""viewing_time"":371.9349999999977}]","","","","","","",""
"1297.8149999999441","","","instructions","174","359348","0.0-174.0","dcz3wszs","[{""page_index"":0,""viewing_time"":401.429999999993},{""page_index"":1,""viewing_time"":412.98499999998603},{""page_index"":2,""viewing_time"":483.28999999997905}]","","","","","","",""
"","","","call-function","175","359348","0.0-175.0","dcz3wszs","","","","","","","",""
"null","","","html-keyboard-response","176","360852","0.0-176.0","dcz3wszs","","<span style=""color:Black; font-size:50px;"">Agent A","null","","","","",""
"null","","","video-keyboard-response","177","363929","0.0-177.0","dcz3wszs","","","null","","Agent A","veridical","STIM_SET_2_144/713381.bmp_pp82_L2_V1.0_veridical_freeview_isoTrue_fps144.mp4",""
"null","","","html-keyboard-response","178","365431","0.0-178.0","dcz3wszs","","<span style=""color:Black; font-size:50px;"">Agent B","null","","","","",""
"null","","","video-keyboard-response","179","368510","0.0-179.0","dcz3wszs","","","null","","Agent B","scrambled","STIM_SET_5/713381.bmp_pp82_L2_V1.0_veridical_freeview_isoTrue_Hflip_fps144.mp4",""
"","","","call-function","180","368510","0.0-180.0","dcz3wszs","","","","","","","",""
"2207.685000000056","{""judgement"":0}","[0]","survey-likert","181","370719","0.0-181.0","dcz3wszs","","","","","","","","0"
"1217.4400000000023","{""confidence"":0}","[0]","survey-likert","182","371937","0.0-182.0","dcz3wszs","","","","","","","",""
"","","","call-function","183","371938","0.0-183.0","dcz3wszs","","","","","","","",""
"null","","","html-keyboard-response","184","373439","0.0-184.0","dcz3wszs","","<span style=""color:Black; font-size:50px;"">Agent A","null","","","","",""
"null","","","video-keyboard-response","185","376521","0.0-185.0","dcz3wszs","","","null","","Agent A","scrambled","STIM_SET_5/1592951.bmp_pp80_L3_V1.0_veridical_freeview_isoTrue_Hflip_fps144.mp4",""
"null","","","html-keyboard-response","186","378024","0.0-186.0","dcz3wszs","","<span style=""color:Black; font-size:50px;"">Agent B","null","","","","",""
"null","","","video-keyboard-response","187","381087","0.0-187.0","dcz3wszs","","","null","","Agent B","veridical","STIM_SET_2_144/1592951.bmp_pp80_L3_V1.0_veridical_freeview_isoTrue_fps144.mp4",""
"","","","call-function","188","381088","0.0-188.0","dcz3wszs","","","","","","","",""
"1657.960000000021","{""judgement"":1}","[0]","survey-likert","189","382748","0.0-189.0","dcz3wszs","","","","","","","","1"
"2026.5849999999627","{""confidence"":2}","[0]","survey-likert","190","384776","0.0-190.0","dcz3wszs","","","","","","","",""
"","","","call-function","191","384776","0.0-191.0","dcz3wszs","","","","","","","",""
"null","","","html-keyboard-response","192","386282","0.0-192.0","dcz3wszs","","<span style=""color:Black; font-size:50px;"">Agent A","null","","","","",""
"null","","","video-keyboard-response","193","389345","0.0-193.0","dcz3wszs","","","null","","Agent A","scrambled","STIM_SET_5/713689.bmp_pp153_L3_V1.0_veridical_freeview_isoTrue_Hflip_fps144.mp4",""
"null","","","html-keyboard-response","194","390852","0.0-194.0","dcz3wszs","","<span style=""color:Black; font-size:50px;"">Agent B","null","","","","",""
"null","","","video-keyboard-response","195","393915","0.0-195.0","dcz3wszs","","","null","","Agent B","veridical","STIM_SET_2_144/713689.bmp_pp153_L3_V1.0_veridical_freeview_isoTrue_fps144.mp4",""
"","","","call-function","196","393916","0.0-196.0","dcz3wszs","","","","","","","",""
"3290.0199999999604","{""judgement"":0}","[0]","survey-likert","197","397207","0.0-197.0","dcz3wszs","","","","","","","","1"
"1356.2099999999627","{""confidence"":1}","[0]","survey-likert","198","398564","0.0-198.0","dcz3wszs","","","","","","","",""
"","","","call-function","199","398565","0.0-199.0","dcz3wszs","","","","","","","",""
"null","","","html-keyboard-response","200","400068","0.0-200.0","dcz3wszs","","<span style=""color:Black; font-size:50px;"">Agent A","null","","","","",""
"null","","","video-keyboard-response","201","403138","0.0-201.0","dcz3wszs","","","null","","Agent A","veridical","STIM_SET_2_144/1592921.bmp_pp69_L3_V1.0_veridical_freeview_isoTrue_fps144.mp4",""
"null","","","html-keyboard-response","202","404644","0.0-202.0","dcz3wszs","","<span style=""color:Black; font-size:50px;"">Agent B","null","","","","",""
"null","","","video-keyboard-response","203","407727","0.0-203.0","dcz3wszs","","","null","","Agent B","scrambled","STIM_SET_5/1592921.bmp_pp69_L3_V1.0_veridical_freeview_isoTrue_Hflip_fps144.mp4",""
"","","","call-function","204","407727","0.0-204.0","dcz3wszs","","","","","","","",""
"2120.4099999999744","{""judgement"":0}","[0]","survey-likert","205","409849","0.0-205.0","dcz3wszs","","","","","","","","0"
"3742.725000000035","{""confidence"":2}","[0]","survey-likert","206","413592","0.0-206.0","dcz3wszs","","","","","","","",""
"","","","call-function","207","413594","0.0-207.0","dcz3wszs","","","","","","","",""
"null","","","html-keyboard-response","208","415099","0.0-208.0","dcz3wszs","","<span style=""color:Black; font-size:50px;"">Agent A","null","","","","",""
"null","","","video-keyboard-response","209","418182","0.0-209.0","dcz3wszs","","","null","","Agent A","veridical","STIM_SET_2_144/713274.bmp_pp73_L3_V1.0_veridical_freeview_isoTrue_fps144.mp4",""
"null","","","html-keyboard-response","210","419686","0.0-210.0","dcz3wszs","","<span style=""color:Black; font-size:50px;"">Agent B","null","","","","",""
"null","","","video-keyboard-response","211","422767","0.0-211.0","dcz3wszs","","","null","","Agent B","scrambled","STIM_SET_5/713274.bmp_pp73_L3_V1.0_veridical_freeview_isoTrue_Hflip_fps144.mp4",""
"","","","call-function","212","422768","0.0-212.0","dcz3wszs","","","","","","","",""
"3078.3549999999814","{""judgement"":1}","[0]","survey-likert","213","425847","0.0-213.0","dcz3wszs","","","","","","","","0"
"1924.3050000000512","{""confidence"":0}","[0]","survey-likert","214","427772","0.0-214.0","dcz3wszs","","","","","","","",""
"","","","call-function","215","427772","0.0-215.0","dcz3wszs","","","","","","","",""
"null","","","html-keyboard-response","216","429275","0.0-216.0","dcz3wszs","","<span style=""color:Black; font-size:50px;"">Agent A","null","","","","",""
"null","","","video-keyboard-response","217","432358","0.0-217.0","dcz3wszs","","","null","","Agent A","veridical","STIM_SET_2_144/1159819.bmp_pp151_L1_V1.0_veridical_freeview_isoTrue_fps144.mp4",""
"null","","","html-keyboard-response","218","433864","0.0-218.0","dcz3wszs","","<span style=""color:Black; font-size:50px;"">Agent B","null","","","","",""
"null","","","video-keyboard-response","219","436948","0.0-219.0","dcz3wszs","","","null","","Agent B","scrambled","STIM_SET_5/1159819.bmp_pp151_L1_V1.0_veridical_freeview_isoTrue_Hflip_fps144.mp4",""
"","","","call-function","220","436948","0.0-220.0","dcz3wszs","","","","","","","",""
"2464.4800000000396","{""judgement"":0}","[0]","survey-likert","221","439414","0.0-221.0","dcz3wszs","","","","","","","","0"
"2023.7399999999907","{""confidence"":2}","[0]","survey-likert","222","441439","0.0-222.0","dcz3wszs","","","","","","","",""
"","","","call-function","223","441439","0.0-223.0","dcz3wszs","","","","","","","",""
"null","","","html-keyboard-response","224","442941","0.0-224.0","dcz3wszs","","<span style=""color:Black; font-size:50px;"">Agent A","null","","","","",""
"null","","","video-keyboard-response","225","446018","0.0-225.0","dcz3wszs","","","null","","Agent A","veridical","STIM_SET_2_144/107909.bmp_pp95_L2_V1.0_veridical_freeview_isoTrue_fps144.mp4",""
"null","","","html-keyboard-response","226","447523","0.0-226.0","dcz3wszs","","<span style=""color:Black; font-size:50px;"">Agent B","null","","","","",""
"null","","","video-keyboard-response","227","450612","0.0-227.0","dcz3wszs","","","null","","Agent B","scrambled","STIM_SET_5/107909.bmp_pp95_L2_V1.0_veridical_freeview_isoTrue_Hflip_fps144.mp4",""
"","","","call-function","228","450613","0.0-228.0","dcz3wszs","","","","","","","",""
"1512.1749999999884","{""judgement"":0}","[0]","survey-likert","229","452126","0.0-229.0","dcz3wszs","","","","","","","","0"
"1430.7850000000326","{""confidence"":2}","[0]","survey-likert","230","453558","0.0-230.0","dcz3wszs","","","","","","","",""
"","","","call-function","231","453558","0.0-231.0","dcz3wszs","","","","","","","",""
"null","","","html-keyboard-response","232","455062","0.0-232.0","dcz3wszs","","<span style=""color:Black; font-size:50px;"">Agent A","null","","","","",""
"null","","","video-keyboard-response","233","458125","0.0-233.0","dcz3wszs","","","null","","Agent A","veridical","STIM_SET_2_144/1592047.bmp_pp51_L1_V1.0_veridical_freeview_isoTrue_fps144.mp4",""
"null","","","html-keyboard-response","234","459632","0.0-234.0","dcz3wszs","","<span style=""color:Black; font-size:50px;"">Agent B","null","","","","",""
"null","","","video-keyboard-response","235","462695","0.0-235.0","dcz3wszs","","","null","","Agent B","scrambled","STIM_SET_5/1592047.bmp_pp51_L1_V1.0_veridical_freeview_isoTrue_Hflip_fps144.mp4",""
"","","","call-function","236","462695","0.0-236.0","dcz3wszs","","","","","","","",""
"1896.3649999999907","{""judgement"":0}","[0]","survey-likert","237","464592","0.0-237.0","dcz3wszs","","","","","","","","0"
"1316.4599999999627","{""confidence"":2}","[0]","survey-likert","238","465910","0.0-238.0","dcz3wszs","","","","","","","",""
"","","","call-function","239","465911","0.0-239.0","dcz3wszs","","","","","","","",""
"null","","","html-keyboard-response","240","467417","0.0-240.0","dcz3wszs","","<span style=""color:Black; font-size:50px;"">Agent A","null","","","","",""
"null","","","video-keyboard-response","241","470492","0.0-241.0","dcz3wszs","","","null","","Agent A","scrambled","STIM_SET_5/713790.bmp_pp100_L3_V1_veridical_freeview_isoTrue_Hflip_fps144.mp4",""
"null","","","html-keyboard-response","242","471996","0.0-242.0","dcz3wszs","","<span style=""color:Black; font-size:50px;"">Agent B","null","","","","",""
"null","","","video-keyboard-response","243","475123","0.0-243.0","dcz3wszs","","","null","","Agent B","veridical","STIM_SET_2_144/713790.bmp_pp100_L3_V1_veridical_freeview_isoTrue_fps144.mp4",""
"","","","call-function","244","475124","0.0-244.0","dcz3wszs","","","","","","","",""
"2368.8950000000186","{""judgement"":1}","[0]","survey-likert","245","477493","0.0-245.0","dcz3wszs","","","","","","","","1"
"2635.2799999999697","{""confidence"":2}","[0]","survey-likert","246","480130","0.0-246.0","dcz3wszs","","","","","","","",""
"","","","call-function","247","480130","0.0-247.0","dcz3wszs","","","","","","","",""
"null","","","html-keyboard-response","248","481633","0.0-248.0","dcz3wszs","","<span style=""color:Black; font-size:50px;"">Agent A","null","","","","",""
"null","","","video-keyboard-response","249","484716","0.0-249.0","dcz3wszs","","","null","","Agent A","veridical","STIM_SET_2_144/498025.bmp_pp81_L1_V1.0_veridical_freeview_isoTrue_fps144.mp4",""
"null","","","html-keyboard-response","250","486222","0.0-250.0","dcz3wszs","","<span style=""color:Black; font-size:50px;"">Agent B","null","","","","",""
"null","","","video-keyboard-response","251","489309","0.0-251.0","dcz3wszs","","","null","","Agent B","scrambled","STIM_SET_5/498025.bmp_pp81_L1_V1.0_veridical_freeview_isoTrue_Hflip_fps144.mp4",""
"","","","call-function","252","489310","0.0-252.0","dcz3wszs","","","","","","","",""
"2579.7299999999814","{""judgement"":1}","[0]","survey-likert","253","491891","0.0-253.0","dcz3wszs","","","","","","","","0"
"1872.5800000000163","{""confidence"":2}","[0]","survey-likert","254","493765","0.0-254.0","dcz3wszs","","","","","","","",""
"2291.5050000000047","","","instructions","255","496057","0.0-255.0","dcz3wszs","[{""page_index"":0,""viewing_time"":1433.170000000042},{""page_index"":1,""viewing_time"":492.5799999999581},{""page_index"":2,""viewing_time"":365.55000000004657}]","","","","","","",""
"1259.0350000000326","","","instructions","256","497316","0.0-256.0","dcz3wszs","[{""page_index"":0,""viewing_time"":382.07500000001164},{""page_index"":1,""viewing_time"":416.0449999999837},{""page_index"":2,""viewing_time"":460.8099999999977}]","","","","","","",""
"","","","call-function","257","497316","0.0-257.0","dcz3wszs","","","","","","","",""
"null","","","html-keyboard-response","258","498819","0.0-258.0","dcz3wszs","","<span style=""color:Black; font-size:50px;"">Agent A","null","","","","",""
"null","","","video-keyboard-response","259","501912","0.0-259.0","dcz3wszs","","","null","","Agent A","veridical","STIM_SET_2_144/1591920.bmp_pp97_L3_V1_veridical_freeview_isoTrue_fps144.mp4",""
"null","","","html-keyboard-response","260","503417","0.0-260.0","dcz3wszs","","<span style=""color:Black; font-size:50px;"">Agent B","null","","","","",""
"null","","","video-keyboard-response","261","506498","0.0-261.0","dcz3wszs","","","null","","Agent B","scrambled","STIM_SET_5/1591920.bmp_pp97_L3_V1_veridical_freeview_isoTrue_Hflip_fps144.mp4",""
"","","","call-function","262","506499","0.0-262.0","dcz3wszs","","","","","","","",""
"2698.7600000000093","{""judgement"":0}","[0]","survey-likert","263","509198","0.0-263.0","dcz3wszs","","","","","","","","0"
"1576.25","{""confidence"":0}","[0]","survey-likert","264","510776","0.0-264.0","dcz3wszs","","","","","","","",""
"","","","call-function","265","510776","0.0-265.0","dcz3wszs","","","","","","","",""
"null","","","html-keyboard-response","266","512278","0.0-266.0","dcz3wszs","","<span style=""color:Black; font-size:50px;"">Agent A","null","","","","",""
"null","","","video-keyboard-response","267","515355","0.0-267.0","dcz3wszs","","","null","","Agent A","scrambled","STIM_SET_5/285715.bmp_pp67_L2_V1.0_veridical_freeview_isoTrue_Hflip_fps144.mp4",""
"null","","","html-keyboard-response","268","516857","0.0-268.0","dcz3wszs","","<span style=""color:Black; font-size:50px;"">Agent B","null","","","","",""
"null","","","video-keyboard-response","269","519934","0.0-269.0","dcz3wszs","","","null","","Agent B","veridical","STIM_SET_2_144/285715.bmp_pp67_L2_V1.0_veridical_freeview_isoTrue_fps144.mp4",""
"","","","call-function","270","519934","0.0-270.0","dcz3wszs","","","","","","","",""
"1977.0050000000047","{""judgement"":0}","[0]","survey-likert","271","521912","0.0-271.0","dcz3wszs","","","","","","","","1"
"3841.064999999944","{""confidence"":1}","[0]","survey-likert","272","525755","0.0-272.0","dcz3wszs","","","","","","","",""
"","","","call-function","273","525755","0.0-273.0","dcz3wszs","","","","","","","",""
"null","","","html-keyboard-response","274","527257","0.0-274.0","dcz3wszs","","<span style=""color:Black; font-size:50px;"">Agent A","null","","","","",""
"null","","","video-keyboard-response","275","530336","0.0-275.0","dcz3wszs","","","null","","Agent A","veridical","STIM_SET_2_144/498398.bmp_pp81_L1_V1.0_veridical_freeview_isoTrue_fps144.mp4",""
"null","","","html-keyboard-response","276","531839","0.0-276.0","dcz3wszs","","<span style=""color:Black; font-size:50px;"">Agent B","null","","","","",""
"null","","","video-keyboard-response","277","534915","0.0-277.0","dcz3wszs","","","null","","Agent B","scrambled","STIM_SET_5/498398.bmp_pp81_L1_V1.0_veridical_freeview_isoTrue_Hflip_fps144.mp4",""
"","","","call-function","278","534915","0.0-278.0","dcz3wszs","","","","","","","",""
"2114.2249999999767","{""judgement"":1}","[0]","survey-likert","279","537031","0.0-279.0","dcz3wszs","","","","","","","","0"
"1479.1049999999814","{""confidence"":1}","[0]","survey-likert","280","538511","0.0-280.0","dcz3wszs","","","","","","","",""
"","","","call-function","281","538511","0.0-281.0","dcz3wszs","","","","","","","",""
"null","","","html-keyboard-response","282","540015","0.0-282.0","dcz3wszs","","<span style=""color:Black; font-size:50px;"">Agent A","null","","","","",""
"null","","","video-keyboard-response","283","543096","0.0-283.0","dcz3wszs","","","null","","Agent A","scrambled","STIM_SET_5/1592044.bmp_pp94_L2_V1.0_veridical_freeview_isoTrue_Hflip_fps144.mp4",""
"null","","","html-keyboard-response","284","544598","0.0-284.0","dcz3wszs","","<span style=""color:Black; font-size:50px;"">Agent B","null","","","","",""
"null","","","video-keyboard-response","285","547677","0.0-285.0","dcz3wszs","","","null","","Agent B","veridical","STIM_SET_2_144/1592044.bmp_pp94_L2_V1.0_veridical_freeview_isoTrue_fps144.mp4",""
"","","","call-function","286","547677","0.0-286.0","dcz3wszs","","","","","","","",""
"2687.5950000000885","{""judgement"":0}","[0]","survey-likert","287","550366","0.0-287.0","dcz3wszs","","","","","","","","1"
"1408.8350000000792","{""confidence"":2}","[0]","survey-likert","288","551776","0.0-288.0","dcz3wszs","","","","","","","",""
"","","","call-function","289","551776","0.0-289.0","dcz3wszs","","","","","","","",""
"null","","","html-keyboard-response","290","553278","0.0-290.0","dcz3wszs","","<span style=""color:Black; font-size:50px;"">Agent A","null","","","","",""
"null","","","video-keyboard-response","291","556355","0.0-291.0","dcz3wszs","","","null","","Agent A","scrambled","STIM_SET_5/713633.bmp_pp58_L1_V1.0_veridical_freeview_isoTrue_Hflip_fps144.mp4",""
"null","","","html-keyboard-response","292","557859","0.0-292.0","dcz3wszs","","<span style=""color:Black; font-size:50px;"">Agent B","null","","","","",""
"null","","","video-keyboard-response","293","560937","0.0-293.0","dcz3wszs","","","null","","Agent B","veridical","STIM_SET_2_144/713633.bmp_pp58_L1_V1.0_veridical_freeview_isoTrue_fps144.mp4",""
"","","","call-function","294","560937","0.0-294.0","dcz3wszs","","","","","","","",""
"2118.715000000084","{""judgement"":0}","[0]","survey-likert","295","563057","0.0-295.0","dcz3wszs","","","","","","","","1"
"1471.329999999958","{""confidence"":1}","[0]","survey-likert","296","564529","0.0-296.0","dcz3wszs","","","","","","","",""
"","","","call-function","297","564529","0.0-297.0","dcz3wszs","","","","","","","",""
"null","","","html-keyboard-response","298","566033","0.0-298.0","dcz3wszs","","<span style=""color:Black; font-size:50px;"">Agent A","null","","","","",""
"null","","","video-keyboard-response","299","569095","0.0-299.0","dcz3wszs","","","null","","Agent A","scrambled","STIM_SET_5/286034.bmp_pp69_L3_V1.0_veridical_freeview_isoTrue_Hflip_fps144.mp4",""
"null","","","html-keyboard-response","300","570599","0.0-300.0","dcz3wszs","","<span style=""color:Black; font-size:50px;"">Agent B","null","","","","",""
"null","","","video-keyboard-response","301","573665","0.0-301.0","dcz3wszs","","","null","","Agent B","veridical","STIM_SET_2_144/286034.bmp_pp69_L3_V1.0_veridical_freeview_isoTrue_fps144.mp4",""
"","","","call-function","302","573666","0.0-302.0","dcz3wszs","","","","","","","",""
"2210.1149999999907","{""judgement"":0}","[0]","survey-likert","303","575877","0.0-303.0","dcz3wszs","","","","","","","","1"
"1189.030000000028","{""confidence"":2}","[0]","survey-likert","304","577068","0.0-304.0","dcz3wszs","","","","","","","",""
"","","","call-function","305","577069","0.0-305.0","dcz3wszs","","","","","","","",""
"null","","","html-keyboard-response","306","578576","0.0-306.0","dcz3wszs","","<span style=""color:Black; font-size:50px;"">Agent A","null","","","","",""
"null","","","video-keyboard-response","307","581645","0.0-307.0","dcz3wszs","","","null","","Agent A","veridical","STIM_SET_2_144/1159956.bmp_pp59_L3_V1.0_veridical_freeview_isoTrue_fps144.mp4",""
"null","","","html-keyboard-response","308","583148","0.0-308.0","dcz3wszs","","<span style=""color:Black; font-size:50px;"">Agent B","null","","","","",""
"null","","","video-keyboard-response","309","586216","0.0-309.0","dcz3wszs","","","null","","Agent B","scrambled","STIM_SET_5/1159956.bmp_pp59_L3_V1.0_veridical_freeview_isoTrue_Hflip_fps144.mp4",""
"","","","call-function","310","586217","0.0-310.0","dcz3wszs","","","","","","","",""
"1771.5400000000373","{""judgement"":0}","[0]","survey-likert","311","587989","0.0-311.0","dcz3wszs","","","","","","","","0"
"1539.530000000028","{""confidence"":0}","[0]","survey-likert","312","589530","0.0-312.0","dcz3wszs","","","","","","","",""
"","","","call-function","313","589530","0.0-313.0","dcz3wszs","","","","","","","",""
"null","","","html-keyboard-response","314","591036","0.0-314.0","dcz3wszs","","<span style=""color:Black; font-size:50px;"">Agent A","null","","","","",""
"null","","","video-keyboard-response","315","594113","0.0-315.0","dcz3wszs","","","null","","Agent A","veridical","STIM_SET_2_144/713742.bmp_pp91_L3_V1.0_veridical_freeview_isoTrue_fps144.mp4",""
"null","","","html-keyboard-response","316","595620","0.0-316.0","dcz3wszs","","<span style=""color:Black; font-size:50px;"">Agent B","null","","","","",""
"null","","","video-keyboard-response","317","598694","0.0-317.0","dcz3wszs","","","null","","Agent B","scrambled","STIM_SET_5/713742.bmp_pp91_L3_V1.0_veridical_freeview_isoTrue_Hflip_fps144.mp4",""
"","","","call-function","318","598695","0.0-318.0","dcz3wszs","","","","","","","",""
"2177.625","{""judgement"":1}","[0]","survey-likert","319","600873","0.0-319.0","dcz3wszs","","","","","","","","0"
"1517.3850000000093","{""confidence"":2}","[0]","survey-likert","320","602392","0.0-320.0","dcz3wszs","","","","","","","",""
"","","","call-function","321","602392","0.0-321.0","dcz3wszs","","","","","","","",""
"null","","","html-keyboard-response","322","603895","0.0-322.0","dcz3wszs","","<span style=""color:Black; font-size:50px;"">Agent A","null","","","","",""
"null","","","video-keyboard-response","323","606971","0.0-323.0","dcz3wszs","","","null","","Agent A","veridical","STIM_SET_2_144/498326.bmp_pp57_L1_V1.0_veridical_freeview_isoTrue_fps144.mp4",""
"null","","","html-keyboard-response","324","608474","0.0-324.0","dcz3wszs","","<span style=""color:Black; font-size:50px;"">Agent B","null","","","","",""
"null","","","video-keyboard-response","325","611551","0.0-325.0","dcz3wszs","","","null","","Agent B","scrambled","STIM_SET_5/498326.bmp_pp57_L1_V1.0_veridical_freeview_isoTrue_Hflip_fps144.mp4",""
"","","","call-function","326","611552","0.0-326.0","dcz3wszs","","","","","","","",""
"2096.6049999999814","{""judgement"":1}","[0]","survey-likert","327","613649","0.0-327.0","dcz3wszs","","","","","","","","0"
"1370.030000000028","{""confidence"":0}","[0]","survey-likert","328","615020","0.0-328.0","dcz3wszs","","","","","","","",""
"","","","call-function","329","615021","0.0-329.0","dcz3wszs","","","","","","","",""
"null","","","html-keyboard-response","330","616522","0.0-330.0","dcz3wszs","","<span style=""color:Black; font-size:50px;"">Agent A","null","","","","",""
"null","","","video-keyboard-response","331","619608","0.0-331.0","dcz3wszs","","","null","","Agent A","scrambled","STIM_SET_5/1592289.bmp_pp92_L3_V1.0_veridical_freeview_isoTrue_Hflip_fps144.mp4",""
"null","","","html-keyboard-response","332","621111","0.0-332.0","dcz3wszs","","<span style=""color:Black; font-size:50px;"">Agent B","null","","","","",""
"null","","","video-keyboard-response","333","624195","0.0-333.0","dcz3wszs","","","null","","Agent B","veridical","STIM_SET_2_144/1592289.bmp_pp92_L3_V1.0_veridical_freeview_isoTrue_fps144.mp4",""
"","","","call-function","334","624196","0.0-334.0","dcz3wszs","","","","","","","",""
"4112.334999999963","{""judgement"":0}","[0]","survey-likert","335","628309","0.0-335.0","dcz3wszs","","","","","","","","1"
"1057.890000000014","{""confidence"":1}","[0]","survey-likert","336","629368","0.0-336.0","dcz3wszs","","","","","","","",""
"2417.234999999986","","","instructions","337","631786","0.0-337.0","dcz3wszs","[{""page_index"":0,""viewing_time"":1421.3800000000047},{""page_index"":1,""viewing_time"":611.6300000000047},{""page_index"":2,""viewing_time"":383.9449999999488}]","","","","","","",""
"1327.9399999999441","","","instructions","338","633114","0.0-338.0","dcz3wszs","[{""page_index"":0,""viewing_time"":412.30999999993946},{""page_index"":1,""viewing_time"":428.11000000010245},{""page_index"":2,""viewing_time"":487.4099999999162}]","","","","","","",""
"","","","call-function","339","633114","0.0-339.0","dcz3wszs","","","","","","","",""
"null","","","html-keyboard-response","340","634618","0.0-340.0","dcz3wszs","","<span style=""color:Black; font-size:50px;"">Agent A","null","","","","",""
"null","","","video-keyboard-response","341","637695","0.0-341.0","dcz3wszs","","","null","","Agent A","veridical","STIM_SET_2_144/1592150.bmp_pp77_L3_V1.0_veridical_freeview_isoTrue_fps144.mp4",""
"null","","","html-keyboard-response","342","639196","0.0-342.0","dcz3wszs","","<span style=""color:Black; font-size:50px;"">Agent B","null","","","","",""
"null","","","video-keyboard-response","343","642277","0.0-343.0","dcz3wszs","","","null","","Agent B","scrambled","STIM_SET_5/1592150.bmp_pp77_L3_V1.0_veridical_freeview_isoTrue_Hflip_fps144.mp4",""
"","","","call-function","344","642277","0.0-344.0","dcz3wszs","","","","","","","",""
"7213.914999999921","{""judgement"":0}","[0]","survey-likert","345","649492","0.0-345.0","dcz3wszs","","","","","","","","0"
"1916.3300000000745","{""confidence"":1}","[0]","survey-likert","346","651409","0.0-346.0","dcz3wszs","","","","","","","",""
"","","","call-function","347","651410","0.0-347.0","dcz3wszs","","","","","","","",""
"null","","","html-keyboard-response","348","652914","0.0-348.0","dcz3wszs","","<span style=""color:Black; font-size:50px;"">Agent A","null","","","","",""
"null","","","video-keyboard-response","349","655974","0.0-349.0","dcz3wszs","","","null","","Agent A","veridical","STIM_SET_2_144/107955.bmp_pp90_L2_V1.0_veridical_freeview_isoTrue_fps144.mp4",""
"null","","","html-keyboard-response","350","657479","0.0-350.0","dcz3wszs","","<span style=""color:Black; font-size:50px;"">Agent B","null","","","","",""
"null","","","video-keyboard-response","351","660543","0.0-351.0","dcz3wszs","","","null","","Agent B","scrambled","STIM_SET_5/107955.bmp_pp90_L2_V1.0_veridical_freeview_isoTrue_Hflip_fps144.mp4",""
"","","","call-function","352","660543","0.0-352.0","dcz3wszs","","","","","","","",""
"2486.6300000000047","{""judgement"":1}","[0]","survey-likert","353","663031","0.0-353.0","dcz3wszs","","","","","","","","0"
"1610.0200000000186","{""confidence"":2}","[0]","survey-likert","354","664642","0.0-354.0","dcz3wszs","","","","","","","",""
"","","","call-function","355","664642","0.0-355.0","dcz3wszs","","","","","","","",""
"null","","","html-keyboard-response","356","666149","0.0-356.0","dcz3wszs","","<span style=""color:Black; font-size:50px;"">Agent A","null","","","","",""
"null","","","video-keyboard-response","357","669213","0.0-357.0","dcz3wszs","","","null","","Agent A","veridical","STIM_SET_2_144/1592129.bmp_pp153_L3_V1.0_veridical_freeview_isoTrue_fps144.mp4",""
"null","","","html-keyboard-response","358","670720","0.0-358.0","dcz3wszs","","<span style=""color:Black; font-size:50px;"">Agent B","null","","","","",""
"null","","","video-keyboard-response","359","673783","0.0-359.0","dcz3wszs","","","null","","Agent B","scrambled","STIM_SET_5/1592129.bmp_pp153_L3_V1.0_veridical_freeview_isoTrue_Hflip_fps144.mp4",""
"","","","call-function","360","673783","0.0-360.0","dcz3wszs","","","","","","","",""
"4244.480000000098","{""judgement"":1}","[0]","survey-likert","361","678029","0.0-361.0","dcz3wszs","","","","","","","","0"
"2167.140000000014","{""confidence"":0}","[0]","survey-likert","362","680197","0.0-362.0","dcz3wszs","","","","","","","",""
"","","","call-function","363","680197","0.0-363.0","dcz3wszs","","","","","","","",""
"null","","","html-keyboard-response","364","681700","0.0-364.0","dcz3wszs","","<span style=""color:Black; font-size:50px;"">Agent A","null","","","","",""
"null","","","video-keyboard-response","365","684788","0.0-365.0","dcz3wszs","","","null","","Agent A","scrambled","STIM_SET_5/1160204.bmp_pp54_L2_V1.0_veridical_freeview_isoTrue_Hflip_fps144.mp4",""
"null","","","html-keyboard-response","366","686294","0.0-366.0","dcz3wszs","","<span style=""color:Black; font-size:50px;"">Agent B","null","","","","",""
"null","","","video-keyboard-response","367","689365","0.0-367.0","dcz3wszs","","","null","","Agent B","veridical","STIM_SET_2_144/1160204.bmp_pp54_L2_V1.0_veridical_freeview_isoTrue_fps144.mp4",""
"","","","call-function","368","689366","0.0-368.0","dcz3wszs","","","","","","","",""
"2841.8399999999674","{""judgement"":0}","[0]","survey-likert","369","692210","0.0-369.0","dcz3wszs","","","","","","","","1"
"1799.6149999999907","{""confidence"":0}","[0]","survey-likert","370","694010","0.0-370.0","dcz3wszs","","","","","","","",""
"","","","call-function","371","694011","0.0-371.0","dcz3wszs","","","","","","","",""
"null","","","html-keyboard-response","372","695512","0.0-372.0","dcz3wszs","","<span style=""color:Black; font-size:50px;"">Agent A","null","","","","",""
"null","","","video-keyboard-response","373","698574","0.0-373.0","dcz3wszs","","","null","","Agent A","scrambled","STIM_SET_5/1592314.bmp_pp100_L3_V1.0_veridical_freeview_isoTrue_Hflip_fps144.mp4",""
"null","","","html-keyboard-response","374","700079","0.0-374.0","dcz3wszs","","<span style=""color:Black; font-size:50px;"">Agent B","null","","","","",""
"null","","","video-keyboard-response","375","703145","0.0-375.0","dcz3wszs","","","null","","Agent B","veridical","STIM_SET_2_144/1592314.bmp_pp100_L3_V1.0_veridical_freeview_isoTrue_fps144.mp4",""
"","","","call-function","376","703146","0.0-376.0","dcz3wszs","","","","","","","",""
"2114.734999999986","{""judgement"":1}","[0]","survey-likert","377","705261","0.0-377.0","dcz3wszs","","","","","","","","1"
"1383.2949999999255","{""confidence"":0}","[0]","survey-likert","378","706646","0.0-378.0","dcz3wszs","","","","","","","",""
"","","","call-function","379","706647","0.0-379.0","dcz3wszs","","","","","","","",""
"null","","","html-keyboard-response","380","708150","0.0-380.0","dcz3wszs","","<span style=""color:Black; font-size:50px;"">Agent A","null","","","","",""
"null","","","video-keyboard-response","381","711213","0.0-381.0","dcz3wszs","","","null","","Agent A","veridical","STIM_SET_2_144/285932.bmp_pp64_L1_V1.0_veridical_freeview_isoTrue_fps144.mp4",""
"null","","","html-keyboard-response","382","712717","0.0-382.0","dcz3wszs","","<span style=""color:Black; font-size:50px;"">Agent B","null","","","","",""
"null","","","video-keyboard-response","383","715798","0.0-383.0","dcz3wszs","","","null","","Agent B","scrambled","STIM_SET_5/285932.bmp_pp64_L1_V1.0_veridical_freeview_isoTrue_Hflip_fps144.mp4",""
"","","","call-function","384","715798","0.0-384.0","dcz3wszs","","","","","","","",""
"2973.1600000000326","{""judgement"":0}","[0]","survey-likert","385","718772","0.0-385.0","dcz3wszs","","","","","","","","0"
"2160.984999999986","{""confidence"":1}","[0]","survey-likert","386","720934","0.0-386.0","dcz3wszs","","","","","","","",""
"","","","call-function","387","720935","0.0-387.0","dcz3wszs","","","","","","","",""
"null","","","html-keyboard-response","388","722441","0.0-388.0","dcz3wszs","","<span style=""color:Black; font-size:50px;"">Agent A","null","","","","",""
"null","","","video-keyboard-response","389","725534","0.0-389.0","dcz3wszs","","","null","","Agent A","veridical","STIM_SET_2_144/1159874.bmp_pp96_L2_V1.0_veridical_freeview_isoTrue_fps144.mp4",""
"null","","","html-keyboard-response","390","727037","0.0-390.0","dcz3wszs","","<span style=""color:Black; font-size:50px;"">Agent B","null","","","","",""
"null","","","video-keyboard-response","391","730127","0.0-391.0","dcz3wszs","","","null","","Agent B","scrambled","STIM_SET_5/1159874.bmp_pp96_L2_V1.0_veridical_freeview_isoTrue_Hflip_fps144.mp4",""
"","","","call-function","392","730128","0.0-392.0","dcz3wszs","","","","","","","",""
"3381.3549999999814","{""judgement"":0}","[0]","survey-likert","393","733510","0.0-393.0","dcz3wszs","","","","","","","","0"
"1725.990000000107","{""confidence"":0}","[0]","survey-likert","394","735237","0.0-394.0","dcz3wszs","","","","","","","",""
"","","","call-function","395","735237","0.0-395.0","dcz3wszs","","","","","","","",""
"null","","","html-keyboard-response","396","736739","0.0-396.0","dcz3wszs","","<span style=""color:Black; font-size:50px;"">Agent A","null","","","","",""
"null","","","video-keyboard-response","397","739835","0.0-397.0","dcz3wszs","","","null","","Agent A","veridical","STIM_SET_2_144/713858.bmp_pp57_L1_V1.0_veridical_freeview_isoTrue_fps144.mp4",""
"null","","","html-keyboard-response","398","741341","0.0-398.0","dcz3wszs","","<span style=""color:Black; font-size:50px;"">Agent B","null","","","","",""
"null","","","video-keyboard-response","399","744434","0.0-399.0","dcz3wszs","","","null","","Agent B","scrambled","STIM_SET_5/713858.bmp_pp57_L1_V1.0_veridical_freeview_isoTrue_Hflip_fps144.mp4",""
"","","","call-function","400","744434","0.0-400.0","dcz3wszs","","","","","","","",""
"1745.3100000000559","{""judgement"":0}","[0]","survey-likert","401","746180","0.0-401.0","dcz3wszs","","","","","","","","0"
"1664.780000000028","{""confidence"":1}","[0]","survey-likert","402","747846","0.0-402.0","dcz3wszs","","","","","","","",""
"","","","call-function","403","747846","0.0-403.0","dcz3wszs","","","","","","","",""
"null","","","html-keyboard-response","404","749348","0.0-404.0","dcz3wszs","","<span style=""color:Black; font-size:50px;"">Agent A","null","","","","",""
"null","","","video-keyboard-response","405","752431","0.0-405.0","dcz3wszs","","","null","","Agent A","scrambled","STIM_SET_5/150277.bmp_pp65_L3_V1.0_veridical_freeview_isoTrue_Hflip_fps144.mp4",""
"null","","","html-keyboard-response","406","753933","0.0-406.0","dcz3wszs","","<span style=""color:Black; font-size:50px;"">Agent B","null","","","","",""
"null","","","video-keyboard-response","407","757001","0.0-407.0","dcz3wszs","","","null","","Agent B","veridical","STIM_SET_2_144/150277.bmp_pp65_L3_V1.0_veridical_freeview_isoTrue_fps144.mp4",""
"","","","call-function","408","757001","0.0-408.0","dcz3wszs","","","","","","","",""
"2554.5050000000047","{""judgement"":0}","[0]","survey-likert","409","759557","0.0-409.0","dcz3wszs","","","","","","","","1"
"2085.314999999944","{""confidence"":1}","[0]","survey-likert","410","761644","0.0-410.0","dcz3wszs","","","","","","","",""
"","","","call-function","411","761644","0.0-411.0","dcz3wszs","","","","","","","",""
"null","","","html-keyboard-response","412","763145","0.0-412.0","dcz3wszs","","<span style=""color:Black; font-size:50px;"">Agent A","null","","","","",""
"null","","","video-keyboard-response","413","766223","0.0-413.0","dcz3wszs","","","null","","Agent A","veridical","STIM_SET_2_144/1592568.bmp_pp71_L1_V1.0_veridical_freeview_isoTrue_fps144.mp4",""
"null","","","html-keyboard-response","414","767727","0.0-414.0","dcz3wszs","","<span style=""color:Black; font-size:50px;"">Agent B","null","","","","",""
"null","","","video-keyboard-response","415","770804","0.0-415.0","dcz3wszs","","","null","","Agent B","scrambled","STIM_SET_5/1592568.bmp_pp71_L1_V1.0_veridical_freeview_isoTrue_Hflip_fps144.mp4",""
"","","","call-function","416","770804","0.0-416.0","dcz3wszs","","","","","","","",""
"2270.1450000000186","{""judgement"":0}","[0]","survey-likert","417","773075","0.0-417.0","dcz3wszs","","","","","","","","0"
"1236.405000000028","{""confidence"":2}","[0]","survey-likert","418","774312","0.0-418.0","dcz3wszs","","","","","","","",""
"3564.0400000000373","","","instructions","419","777877","0.0-419.0","dcz3wszs","[{""page_index"":0,""viewing_time"":1148.75},{""page_index"":1,""viewing_time"":1309.0899999999674},{""page_index"":2,""viewing_time"":1105.9949999999953}]","","","","","","",""
"1804.4049999999115","","","instructions","420","779682","0.0-420.0","dcz3wszs","[{""page_index"":0,""viewing_time"":896.2299999999814},{""page_index"":1,""viewing_time"":451.0999999999767},{""page_index"":2,""viewing_time"":456.96999999997206}]","","","","","","",""
"","","","call-function","421","779682","0.0-421.0","dcz3wszs","","","","","","","",""
"null","","","html-keyboard-response","422","781188","0.0-422.0","dcz3wszs","","<span style=""color:Black; font-size:50px;"">Agent A","null","","","","",""
"null","","","video-keyboard-response","423","784249","0.0-423.0","dcz3wszs","","","null","","Agent A","veridical","STIM_SET_2_144/1159427.bmp_pp98_L1_V1.0_veridical_freeview_isoTrue_fps144.mp4",""
"null","","","html-keyboard-response","424","785756","0.0-424.0","dcz3wszs","","<span style=""color:Black; font-size:50px;"">Agent B","null","","","","",""
"null","","","video-keyboard-response","425","788834","0.0-425.0","dcz3wszs","","","null","","Agent B","scrambled","STIM_SET_5/1159427.bmp_pp98_L1_V1.0_veridical_freeview_isoTrue_Hflip_fps144.mp4",""
"","","","call-function","426","788835","0.0-426.0","dcz3wszs","","","","","","","",""
"3101.234999999986","{""judgement"":0}","[0]","survey-likert","427","791937","0.0-427.0","dcz3wszs","","","","","","","","0"
"1618.2200000000885","{""confidence"":2}","[0]","survey-likert","428","793556","0.0-428.0","dcz3wszs","","","","","","","",""
"","","","call-function","429","793557","0.0-429.0","dcz3wszs","","","","","","","",""
"null","","","html-keyboard-response","430","795059","0.0-430.0","dcz3wszs","","<span style=""color:Black; font-size:50px;"">Agent A","null","","","","",""
"null","","","video-keyboard-response","431","798144","0.0-431.0","dcz3wszs","","","null","","Agent A","scrambled","STIM_SET_5/1592201.bmp_pp97_L3_V1.0_veridical_freeview_isoTrue_Hflip_fps144.mp4",""
"null","","","html-keyboard-response","432","799648","0.0-432.0","dcz3wszs","","<span style=""color:Black; font-size:50px;"">Agent B","null","","","","",""
"null","","","video-keyboard-response","433","802735","0.0-433.0","dcz3wszs","","","null","","Agent B","veridical","STIM_SET_2_144/1592201.bmp_pp97_L3_V1.0_veridical_freeview_isoTrue_fps144.mp4",""
"","","","call-function","434","802735","0.0-434.0","dcz3wszs","","","","","","","",""
"2059.4799999999814","{""judgement"":0}","[0]","survey-likert","435","804795","0.0-435.0","dcz3wszs","","","","","","","","1"
"1685.905000000028","{""confidence"":2}","[0]","survey-likert","436","806482","0.0-436.0","dcz3wszs","","","","","","","",""
"","","","call-function","437","806483","0.0-437.0","dcz3wszs","","","","","","","",""
"null","","","html-keyboard-response","438","807989","0.0-438.0","dcz3wszs","","<span style=""color:Black; font-size:50px;"">Agent A","null","","","","",""
"null","","","video-keyboard-response","439","811082","0.0-439.0","dcz3wszs","","","null","","Agent A","scrambled","STIM_SET_5/1592038.bmp_pp79_L2_V1.0_veridical_freeview_isoTrue_Hflip_fps144.mp4",""
"null","","","html-keyboard-response","440","812588","0.0-440.0","dcz3wszs","","<span style=""color:Black; font-size:50px;"">Agent B","null","","","","",""
"null","","","video-keyboard-response","441","815662","0.0-441.0","dcz3wszs","","","null","","Agent B","veridical","STIM_SET_2_144/1592038.bmp_pp79_L2_V1.0_veridical_freeview_isoTrue_fps144.mp4",""
"","","","call-function","442","815663","0.0-442.0","dcz3wszs","","","","","","","",""
"2343.70000000007","{""judgement"":1}","[0]","survey-likert","443","818008","0.0-443.0","dcz3wszs","","","","","","","","1"
"2552.1900000000605","{""confidence"":0}","[0]","survey-likert","444","820562","0.0-444.0","dcz3wszs","","","","","","","",""
"","","","call-function","445","820563","0.0-445.0","dcz3wszs","","","","","","","",""
"null","","","html-keyboard-response","446","822065","0.0-446.0","dcz3wszs","","<span style=""color:Black; font-size:50px;"">Agent A","null","","","","",""
"null","","","video-keyboard-response","447","825132","0.0-447.0","dcz3wszs","","","null","","Agent A","scrambled","STIM_SET_5/1159508.bmp_pp151_L1_V1.0_veridical_freeview_isoTrue_Hflip_fps144.mp4",""
"null","","","html-keyboard-response","448","826636","0.0-448.0","dcz3wszs","","<span style=""color:Black; font-size:50px;"">Agent B","null","","","","",""
"null","","","video-keyboard-response","449","829703","0.0-449.0","dcz3wszs","","","null","","Agent B","veridical","STIM_SET_2_144/1159508.bmp_pp151_L1_V1.0_veridical_freeview_isoTrue_fps144.mp4",""
"","","","call-function","450","829703","0.0-450.0","dcz3wszs","","","","","","","",""
"2364.140000000014","{""judgement"":0}","[0]","survey-likert","451","832068","0.0-451.0","dcz3wszs","","","","","","","","1"
"1895.375","{""confidence"":1}","[0]","survey-likert","452","833965","0.0-452.0","dcz3wszs","","","","","","","",""
"","","","call-function","453","833965","0.0-453.0","dcz3wszs","","","","","","","",""
"null","","","html-keyboard-response","454","835468","0.0-454.0","dcz3wszs","","<span style=""color:Black; font-size:50px;"">Agent A","null","","","","",""
"null","","","video-keyboard-response","455","838537","0.0-455.0","dcz3wszs","","","null","","Agent A","scrambled","STIM_SET_5/150463.bmp_pp55_L3_V1.0_veridical_freeview_isoTrue_Hflip_fps144.mp4",""
"null","","","html-keyboard-response","456","840039","0.0-456.0","dcz3wszs","","<span style=""color:Black; font-size:50px;"">Agent B","null","","","","",""
"null","","","video-keyboard-response","457","843108","0.0-457.0","dcz3wszs","","","null","","Agent B","veridical","STIM_SET_2_144/150463.bmp_pp55_L3_V1.0_veridical_freeview_isoTrue_fps144.mp4",""
"","","","call-function","458","843108","0.0-458.0","dcz3wszs","","","","","","","",""
"3180.75","{""judgement"":0}","[0]","survey-likert","459","846290","0.0-459.0","dcz3wszs","","","","","","","","1"
"1977.8049999999348","{""confidence"":1}","[0]","survey-likert","460","848269","0.0-460.0","dcz3wszs","","","","","","","",""
"","","","call-function","461","848269","0.0-461.0","dcz3wszs","","","","","","","",""
"null","","","html-keyboard-response","462","849772","0.0-462.0","dcz3wszs","","<span style=""color:Black; font-size:50px;"">Agent A","null","","","","",""
"null","","","video-keyboard-response","463","852864","0.0-463.0","dcz3wszs","","","null","","Agent A","veridical","STIM_SET_2_144/1592168.bmp_pp71_L1_V1.0_veridical_freeview_isoTrue_fps144.mp4",""
"null","","","html-keyboard-response","464","854368","0.0-464.0","dcz3wszs","","<span style=""color:Black; font-size:50px;"">Agent B","null","","","","",""
"null","","","video-keyboard-response","465","857456","0.0-465.0","dcz3wszs","","","null","","Agent B","scrambled","STIM_SET_5/1592168.bmp_pp71_L1_V1.0_veridical_freeview_isoTrue_Hflip_fps144.mp4",""
"","","","call-function","466","857457","0.0-466.0","dcz3wszs","","","","","","","",""
"2272.92499999993","{""judgement"":1}","[0]","survey-likert","467","859731","0.0-467.0","dcz3wszs","","","","","","","","0"
"1615.9949999999953","{""confidence"":1}","[0]","survey-likert","468","861348","0.0-468.0","dcz3wszs","","","","","","","",""
"","","","call-function","469","861348","0.0-469.0","dcz3wszs","","","","","","","",""
"null","","","html-keyboard-response","470","862852","0.0-470.0","dcz3wszs","","<span style=""color:Black; font-size:50px;"">Agent A","null","","","","",""
"null","","","video-keyboard-response","471","865925","0.0-471.0","dcz3wszs","","","null","","Agent A","veridical","STIM_SET_2_144/1591975.bmp_pp88_L2_V1.0_veridical_freeview_isoTrue_fps144.mp4",""
"null","","","html-keyboard-response","472","867432","0.0-472.0","dcz3wszs","","<span style=""color:Black; font-size:50px;"">Agent B","null","","","","",""
"null","","","video-keyboard-response","473","870508","0.0-473.0","dcz3wszs","","","null","","Agent B","scrambled","STIM_SET_5/1591975.bmp_pp88_L2_V1.0_veridical_freeview_isoTrue_Hflip_fps144.mp4",""
"","","","call-function","474","870509","0.0-474.0","dcz3wszs","","","","","","","",""
"2724.6849999999395","{""judgement"":1}","[0]","survey-likert","475","873235","0.0-475.0","dcz3wszs","","","","","","","","0"
"1632.2149999999674","{""confidence"":2}","[0]","survey-likert","476","874868","0.0-476.0","dcz3wszs","","","","","","","",""
"","","","call-function","477","874868","0.0-477.0","dcz3wszs","","","","","","","",""
"null","","","html-keyboard-response","478","876371","0.0-478.0","dcz3wszs","","<span style=""color:Black; font-size:50px;"">Agent A","null","","","","",""
"null","","","video-keyboard-response","479","879457","0.0-479.0","dcz3wszs","","","null","","Agent A","veridical","STIM_SET_2_144/1592747.bmp_pp53_L2_V1.0_veridical_freeview_isoTrue_fps144.mp4",""
"null","","","html-keyboard-response","480","880962","0.0-480.0","dcz3wszs","","<span style=""color:Black; font-size:50px;"">Agent B","null","","","","",""
"null","","","video-keyboard-response","481","884046","0.0-481.0","dcz3wszs","","","null","","Agent B","scrambled","STIM_SET_5/1592747.bmp_pp53_L2_V1.0_veridical_freeview_isoTrue_Hflip_fps144.mp4",""
"","","","call-function","482","884046","0.0-482.0","dcz3wszs","","","","","","","",""
"2198.2700000000186","{""judgement"":0}","[0]","survey-likert","483","886245","0.0-483.0","dcz3wszs","","","","","","","","0"
"2649.25","{""confidence"":2}","[0]","survey-likert","484","888896","0.0-484.0","dcz3wszs","","","","","","","",""
"","","","call-function","485","888896","0.0-485.0","dcz3wszs","","","","","","","",""
"null","","","html-keyboard-response","486","890399","0.0-486.0","dcz3wszs","","<span style=""color:Black; font-size:50px;"">Agent A","null","","","","",""
"null","","","video-keyboard-response","487","893473","0.0-487.0","dcz3wszs","","","null","","Agent A","scrambled","STIM_SET_5/1591781.bmp_pp63_L1_V1.0_veridical_freeview_isoTrue_Hflip_fps144.mp4",""
"null","","","html-keyboard-response","488","894980","0.0-488.0","dcz3wszs","","<span style=""color:Black; font-size:50px;"">Agent B","null","","","","",""
"null","","","video-keyboard-response","489","898055","0.0-489.0","dcz3wszs","","","null","","Agent B","veridical","STIM_SET_2_144/1591781.bmp_pp63_L1_V1.0_veridical_freeview_isoTrue_fps144.mp4",""
"","","","call-function","490","898055","0.0-490.0","dcz3wszs","","","","","","","",""
"1473.1750000000466","{""judgement"":0}","[0]","survey-likert","491","899529","0.0-491.0","dcz3wszs","","","","","","","","1"
"965.3099999999395","{""confidence"":2}","[0]","survey-likert","492","900496","0.0-492.0","dcz3wszs","","","","","","","",""
"","","","call-function","493","900496","0.0-493.0","dcz3wszs","","","","","","","",""
"null","","","html-keyboard-response","494","901998","0.0-494.0","dcz3wszs","","<span style=""color:Black; font-size:50px;"">Agent A","null","","","","",""
"null","","","video-keyboard-response","495","905069","0.0-495.0","dcz3wszs","","","null","","Agent A","scrambled","STIM_SET_5/1592298.bmp_pp56_L3_V1.0_veridical_freeview_isoTrue_Hflip_fps144.mp4",""
"null","","","html-keyboard-response","496","906572","0.0-496.0","dcz3wszs","","<span style=""color:Black; font-size:50px;"">Agent B","null","","","","",""
"null","","","video-keyboard-response","497","909642","0.0-497.0","dcz3wszs","","","null","","Agent B","veridical","STIM_SET_2_144/1592298.bmp_pp56_L3_V1.0_veridical_freeview_isoTrue_fps144.mp4",""
"","","","call-function","498","909643","0.0-498.0","dcz3wszs","","","","","","","",""
"1545.5749999999534","{""judgement"":0}","[0]","survey-likert","499","911191","0.0-499.0","dcz3wszs","","","","","","","","1"
"2964.465000000084","{""confidence"":2}","[0]","survey-likert","500","914157","0.0-500.0","dcz3wszs","","","","","","","",""
"4670.4400000000605","","","instructions","501","918828","0.0-501.0","dcz3wszs","[{""page_index"":0,""viewing_time"":1735.25},{""page_index"":1,""viewing_time"":2489.1199999999953},{""page_index"":2,""viewing_time"":445.4300000000512}]","","","","","","",""
"1245.765000000014","","","instructions","502","920076","0.0-502.0","dcz3wszs","[{""page_index"":0,""viewing_time"":359.5},{""page_index"":1,""viewing_time"":446.9200000000419},{""page_index"":2,""viewing_time"":439.1700000000419}]","","","","","","",""
"","","","call-function","503","920077","0.0-503.0","dcz3wszs","","","","","","","",""
"null","","","html-keyboard-response","504","921583","0.0-504.0","dcz3wszs","","<span style=""color:Black; font-size:50px;"">Agent A","null","","","","",""
"null","","","video-keyboard-response","505","924652","0.0-505.0","dcz3wszs","","","null","","Agent A","scrambled","STIM_SET_5/713788.bmp_pp52_L1_V1.0_veridical_freeview_isoTrue_Hflip_fps144.mp4",""
"null","","","html-keyboard-response","506","926157","0.0-506.0","dcz3wszs","","<span style=""color:Black; font-size:50px;"">Agent B","null","","","","",""
"null","","","video-keyboard-response","507","929224","0.0-507.0","dcz3wszs","","","null","","Agent B","veridical","STIM_SET_2_144/713788.bmp_pp52_L1_V1.0_veridical_freeview_isoTrue_fps144.mp4",""
"","","","call-function","508","929225","0.0-508.0","dcz3wszs","","","","","","","",""
"1644.6300000000047","{""judgement"":1}","[0]","survey-likert","509","930870","0.0-509.0","dcz3wszs","","","","","","","","1"
"1137.5","{""confidence"":2}","[0]","survey-likert","510","932009","0.0-510.0","dcz3wszs","","","","","","","",""
"","","","call-function","511","932010","0.0-511.0","dcz3wszs","","","","","","","",""
"null","","","html-keyboard-response","512","933513","0.0-512.0","dcz3wszs","","<span style=""color:Black; font-size:50px;"">Agent A","null","","","","",""
"null","","","video-keyboard-response","513","936576","0.0-513.0","dcz3wszs","","","null","","Agent A","scrambled","STIM_SET_5/285684.bmp_pp80_L3_V1.0_veridical_freeview_isoTrue_Hflip_fps144.mp4",""
"null","","","html-keyboard-response","514","938081","0.0-514.0","dcz3wszs","","<span style=""color:Black; font-size:50px;"">Agent B","null","","","","",""
"null","","","video-keyboard-response","515","941144","0.0-515.0","dcz3wszs","","","null","","Agent B","veridical","STIM_SET_2_144/285684.bmp_pp80_L3_V1.0_veridical_freeview_isoTrue_fps144.mp4",""
"","","","call-function","516","941144","0.0-516.0","dcz3wszs","","","","","","","",""
"1898.4799999999814","{""judgement"":0}","[0]","survey-likert","517","943044","0.0-517.0","dcz3wszs","","","","","","","","1"
"1152.219999999972","{""confidence"":2}","[0]","survey-likert","518","944197","0.0-518.0","dcz3wszs","","","","","","","",""
"","","","call-function","519","944198","0.0-519.0","dcz3wszs","","","","","","","",""
"null","","","html-keyboard-response","520","945699","0.0-520.0","dcz3wszs","","<span style=""color:Black; font-size:50px;"">Agent A","null","","","","",""
"null","","","video-keyboard-response","521","948776","0.0-521.0","dcz3wszs","","","null","","Agent A","veridical","STIM_SET_2_144/1159325.bmp_pp67_L2_V1.0_veridical_freeview_isoTrue_fps144.mp4",""
"null","","","html-keyboard-response","522","950280","0.0-522.0","dcz3wszs","","<span style=""color:Black; font-size:50px;"">Agent B","null","","","","",""
"null","","","video-keyboard-response","523","953359","0.0-523.0","dcz3wszs","","","null","","Agent B","scrambled","STIM_SET_5/1159325.bmp_pp67_L2_V1.0_veridical_freeview_isoTrue_Hflip_fps144.mp4",""
"","","","call-function","524","953359","0.0-524.0","dcz3wszs","","","","","","","",""
"1973.1199999999953","{""judgement"":0}","[0]","survey-likert","525","955334","0.0-525.0","dcz3wszs","","","","","","","","0"
"1494.7900000000373","{""confidence"":2}","[0]","survey-likert","526","956830","0.0-526.0","dcz3wszs","","","","","","","",""
"","","","call-function","527","956830","0.0-527.0","dcz3wszs","","","","","","","",""
"null","","","html-keyboard-response","528","958335","0.0-528.0","dcz3wszs","","<span style=""color:Black; font-size:50px;"">Agent A","null","","","","",""
"null","","","video-keyboard-response","529","961421","0.0-529.0","dcz3wszs","","","null","","Agent A","veridical","STIM_SET_2_144/1592350.bmp_pp55_L3_V1.0_veridical_freeview_isoTrue_fps144.mp4",""
"null","","","html-keyboard-response","530","962924","0.0-530.0","dcz3wszs","","<span style=""color:Black; font-size:50px;"">Agent B","null","","","","",""
"null","","","video-keyboard-response","531","966009","0.0-531.0","dcz3wszs","","","null","","Agent B","scrambled","STIM_SET_5/1592350.bmp_pp55_L3_V1.0_veridical_freeview_isoTrue_Hflip_fps144.mp4",""
"","","","call-function","532","966009","0.0-532.0","dcz3wszs","","","","","","","",""
"1615.5700000000652","{""judgement"":0}","[0]","survey-likert","533","967626","0.0-533.0","dcz3wszs","","","","","","","","0"
"1643.6600000000326","{""confidence"":0}","[0]","survey-likert","534","969271","0.0-534.0","dcz3wszs","","","","","","","",""
"","","","call-function","535","969271","0.0-535.0","dcz3wszs","","","","","","","",""
"null","","","html-keyboard-response","536","970773","0.0-536.0","dcz3wszs","","<span style=""color:Black; font-size:50px;"">Agent A","null","","","","",""
"null","","","video-keyboard-response","537","973858","0.0-537.0","dcz3wszs","","","null","","Agent A","veridical","STIM_SET_2_144/1592857.bmp_pp52_L1_V1_veridical_freeview_isoTrue_fps144.mp4",""
"null","","","html-keyboard-response","538","975364","0.0-538.0","dcz3wszs","","<span style=""color:Black; font-size:50px;"">Agent B","null","","","","",""
"null","","","video-keyboard-response","539","978447","0.0-539.0","dcz3wszs","","","null","","Agent B","scrambled","STIM_SET_5/1592857.bmp_pp52_L1_V1_veridical_freeview_isoTrue_Hflip_fps144.mp4",""
"","","","call-function","540","978447","0.0-540.0","dcz3wszs","","","","","","","",""
"1827.4350000000559","{""judgement"":0}","[0]","survey-likert","541","980276","0.0-541.0","dcz3wszs","","","","","","","","0"
"1134.1450000000186","{""confidence"":0}","[0]","survey-likert","542","981411","0.0-542.0","dcz3wszs","","","","","","","",""
"","","","call-function","543","981411","0.0-543.0","dcz3wszs","","","","","","","",""
"null","","","html-keyboard-response","544","982912","0.0-544.0","dcz3wszs","","<span style=""color:Black; font-size:50px;"">Agent A","null","","","","",""
"null","","","video-keyboard-response","545","986003","0.0-545.0","dcz3wszs","","","null","","Agent A","scrambled","STIM_SET_5/285959.bmp_pp93_L1_V1.0_veridical_freeview_isoTrue_Hflip_fps144.mp4",""
"null","","","html-keyboard-response","546","987508","0.0-546.0","dcz3wszs","","<span style=""color:Black; font-size:50px;"">Agent B","null","","","","",""
"null","","","video-keyboard-response","547","990584","0.0-547.0","dcz3wszs","","","null","","Agent B","veridical","STIM_SET_2_144/285959.bmp_pp93_L1_V1.0_veridical_freeview_isoTrue_fps144.mp4",""
"","","","call-function","548","990585","0.0-548.0","dcz3wszs","","","","","","","",""
"2011.4749999999767","{""judgement"":1}","[0]","survey-likert","549","992597","0.0-549.0","dcz3wszs","","","","","","","","1"
"1126.5499999999302","{""confidence"":1}","[0]","survey-likert","550","993726","0.0-550.0","dcz3wszs","","","","","","","",""
"","","","call-function","551","993726","0.0-551.0","dcz3wszs","","","","","","","",""
"null","","","html-keyboard-response","552","995232","0.0-552.0","dcz3wszs","","<span style=""color:Black; font-size:50px;"">Agent A","null","","","","",""
"null","","","video-keyboard-response","553","998295","0.0-553.0","dcz3wszs","","","null","","Agent A","scrambled","STIM_SET_5/1159392.bmp_pp96_L2_V1.0_veridical_freeview_isoTrue_Hflip_fps144.mp4",""
"null","","","html-keyboard-response","554","999802","0.0-554.0","dcz3wszs","","<span style=""color:Black; font-size:50px;"">Agent B","null","","","","",""
"null","","","video-keyboard-response","555","1002864","0.0-555.0","dcz3wszs","","","null","","Agent B","veridical","STIM_SET_2_144/1159392.bmp_pp96_L2_V1.0_veridical_freeview_isoTrue_fps144.mp4",""
"","","","call-function","556","1002864","0.0-556.0","dcz3wszs","","","","","","","",""
"1738.3500000000931","{""judgement"":1}","[0]","survey-likert","557","1004604","0.0-557.0","dcz3wszs","","","","","","","","1"
"1016.2399999999907","{""confidence"":2}","[0]","survey-likert","558","1005621","0.0-558.0","dcz3wszs","","","","","","","",""
"","","","call-function","559","1005622","0.0-559.0","dcz3wszs","","","","","","","",""
"null","","","html-keyboard-response","560","1007125","0.0-560.0","dcz3wszs","","<span style=""color:Black; font-size:50px;"">Agent A","null","","","","",""
"null","","","video-keyboard-response","561","1010189","0.0-561.0","dcz3wszs","","","null","","Agent A","scrambled","STIM_SET_5/713829.bmp_pp60_L3_V1.0_veridical_freeview_isoTrue_Hflip_fps144.mp4",""
"null","","","html-keyboard-response","562","1011694","0.0-562.0","dcz3wszs","","<span style=""color:Black; font-size:50px;"">Agent B","null","","","","",""
"null","","","video-keyboard-response","563","1014771","0.0-563.0","dcz3wszs","","","null","","Agent B","veridical","STIM_SET_2_144/713829.bmp_pp60_L3_V1.0_veridical_freeview_isoTrue_fps144.mp4",""
"","","","call-function","564","1014771","0.0-564.0","dcz3wszs","","","","","","","",""
"2821.554999999935","{""judgement"":1}","[0]","survey-likert","565","1017594","0.0-565.0","dcz3wszs","","","","","","","","1"
"1384.9000000000233","{""confidence"":2}","[0]","survey-likert","566","1018980","0.0-566.0","dcz3wszs","","","","","","","",""
"","","","call-function","567","1018980","0.0-567.0","dcz3wszs","","","","","","","",""
"null","","","html-keyboard-response","568","1020482","0.0-568.0","dcz3wszs","","<span style=""color:Black; font-size:50px;"">Agent A","null","","","","",""
"null","","","video-keyboard-response","569","1023558","0.0-569.0","dcz3wszs","","","null","","Agent A","scrambled","STIM_SET_5/1592017.bmp_pp154_L1_V1.0_veridical_freeview_isoTrue_Hflip_fps144.mp4",""
"null","","","html-keyboard-response","570","1025064","0.0-570.0","dcz3wszs","","<span style=""color:Black; font-size:50px;"">Agent B","null","","","","",""
"null","","","video-keyboard-response","571","1028144","0.0-571.0","dcz3wszs","","","null","","Agent B","veridical","STIM_SET_2_144/1592017.bmp_pp154_L1_V1.0_veridical_freeview_isoTrue_fps144.mp4",""
"","","","call-function","572","1028144","0.0-572.0","dcz3wszs","","","","","","","",""
"2491.7600000000093","{""judgement"":0}","[0]","survey-likert","573","1030637","0.0-573.0","dcz3wszs","","","","","","","","1"
"2706.8349999999627","{""confidence"":1}","[0]","survey-likert","574","1033345","0.0-574.0","dcz3wszs","","","","","","","",""
"","","","call-function","575","1033345","0.0-575.0","dcz3wszs","","","","","","","",""
"null","","","html-keyboard-response","576","1034848","0.0-576.0","dcz3wszs","","<span style=""color:Black; font-size:50px;"">Agent A","null","","","","",""
"null","","","video-keyboard-response","577","1037936","0.0-577.0","dcz3wszs","","","null","","Agent A","veridical","STIM_SET_2_144/498258.bmp_pp51_L1_V1.0_veridical_freeview_isoTrue_fps144.mp4",""
"null","","","html-keyboard-response","578","1039439","0.0-578.0","dcz3wszs","","<span style=""color:Black; font-size:50px;"">Agent B","null","","","","",""
"null","","","video-keyboard-response","579","1042526","0.0-579.0","dcz3wszs","","","null","","Agent B","scrambled","STIM_SET_5/498258.bmp_pp51_L1_V1.0_veridical_freeview_isoTrue_Hflip_fps144.mp4",""
"","","","call-function","580","1042527","0.0-580.0","dcz3wszs","","","","","","","",""
"2467.609999999986","{""judgement"":1}","[0]","survey-likert","581","1044996","0.0-581.0","dcz3wszs","","","","","","","","0"
"3291.04999999993","{""confidence"":2}","[0]","survey-likert","582","1048289","0.0-582.0","dcz3wszs","","","","","","","",""
"1350.4550000000745","","","instructions","583","1049641","0.0-583.0","dcz3wszs","[{""page_index"":0,""viewing_time"":1350.3249999999534}]","","","","","","",""
"1062.469999999972","","","instructions","584","1050704","0.0-584.0","dcz3wszs","[{""page_index"":0,""viewing_time"":1062.369999999879}]","","","","","","",""
"5099.659999999916","{""post-1"":1}","[0]","survey-likert","585","1055805","0.0-585.0","dcz3wszs","","","","","","","",""
"1954.1350000000093","{""post-1"":1}","[0]","survey-likert","586","1057760","0.0-586.0","dcz3wszs","","","","","","","",""
"3905.2900000000373","{""post-2"":0}","[0]","survey-likert","587","1061667","0.0-587.0","dcz3wszs","","","","","","","",""
"3307.564999999944","{""post-2"":0}","[0]","survey-likert","588","1064975","0.0-588.0","dcz3wszs","","","","","","","",""
"4385.199999999953","{""post-3"":1}","[0]","survey-likert","589","1069362","0.0-589.0","dcz3wszs","","","","","","","",""
"1695.6799999999348","{""post-3"":1}","[0]","survey-likert","590","1071059","0.0-590.0","dcz3wszs","","","","","","","",""
"5420.995000000112","{""post-4"":0}","[0]","survey-likert","591","1076481","0.0-591.0","dcz3wszs","","","","","","","",""
"1784.6699999999255","{""post-4"":0}","[0]","survey-likert","592","1078267","0.0-592.0","dcz3wszs","","","","","","","",""
"10461.449999999953","{""post-5"":1}","[0]","survey-likert","593","1088730","0.0-593.0","dcz3wszs","","","","","","","",""
"2370.2949999999255","{""post-5"":1}","[0]","survey-likert","594","1091101","0.0-594.0","dcz3wszs","","","","","","","",""
"68171.19999999995","{""Q0"":""I feel like it was more ambiguous in this round. It also seemed like A and B sometimes just reflected each other and that there wasn't a difference between them. I was definitely less confident about my answers in this round.""}","","survey-text","595","1159278","0.0-595.0","dcz3wszs","","","","","","","",""
"38420.52000000002","{""Q0"":""I tried following the lights with my eyes again, which sometimes helped. It made it feel like there was a difference depending on how easily I could track the lights.""}","","survey-text","596","1197702","0.0-596.0","dcz3wszs","","","","","","","",""
"30266.284999999916","{""Q0"":""I thought that the lights were going in the same patterns, just reflected, which was confusing. Since they seemed the same I couldn't tell the difference between fake and human.""}","","survey-text","597","1227972","0.0-597.0","dcz3wszs","","","","","","","",""
"1114.3149999999441","","","instructions","598","1229087","0.0-598.0","dcz3wszs","[{""page_index"":0,""viewing_time"":1114.1799999999348}]","","","","","","",""
"89775.82000000007","{""Experimenter_end"":[""Printed ID# dcz3wszs on consent form"",""Given subject SONA credit or payment"",""Given the subject debrief form""]}","[0]","survey-multi-select","599","1318865","0.0-599.0","dcz3wszs","","","","","","","",""
