"rt","responses","question_order","trial_type","trial_index","time_elapsed","internal_node_id","ID","view_history","stimulus","key_press","value","agent","condition","image","correct_answer"
"16412.45","{""Experimenter"":[""Confirmed subject's identity (ID card)"",""Confirmed normal or corrected-to-normal vision"",""Obtained consent (signature and date)"",""Checked the test room lighting"",""Checked computer screen lighting"",""Checked distance from screen to chin rest (50cm)"",""Cleaned and adjusted chin rest"",""Counterbalanced the order of the tasks"",""Opened the experiment in Firefox"",""Made the experiment full screen"",""Encouraged subject to silence phone, put away distractors, etc.""]}","[0]","survey-multi-select","0","16421","0.0-0.0","dhxxfzr9","","","","","","","",""
"90478.63500000001","","","instructions","1","106901","0.0-1.0","dhxxfzr9","[{""page_index"":0,""viewing_time"":90478.49}]","","","","","","",""
"7241.389999999999","","","instructions","2","114143","0.0-2.0","dhxxfzr9","[{""page_index"":0,""viewing_time"":1686.199999999997},{""page_index"":1,""viewing_time"":3429.2050000000017},{""page_index"":2,""viewing_time"":2125.8650000000052}]","","","","","","",""
"1769.1399999999994","","","instructions","3","115913","0.0-3.0","dhxxfzr9","[{""page_index"":0,""viewing_time"":1769.0449999999983}]","","","","","","",""
"null","","","video-keyboard-response","4","118986","0.0-4.0","dhxxfzr9","","","null","","","","",""
"5283.669999999998","","","instructions","5","124270","0.0-5.0","dhxxfzr9","[{""page_index"":0,""viewing_time"":1214.854999999996},{""page_index"":1,""viewing_time"":96.08000000000175},{""page_index"":2,""viewing_time"":878.6949999999924},{""page_index"":3,""viewing_time"":1279.9100000000035},{""page_index"":4,""viewing_time"":1814.0099999999948}]","","","","","","",""
"1342.8699999999953","","","instructions","6","125613","0.0-6.0","dhxxfzr9","[{""page_index"":0,""viewing_time"":1342.7399999999907}]","","","","","","",""
"","","","call-function","7","125614","0.0-7.0","dhxxfzr9","","","","","","","",""
"null","","","html-keyboard-response","8","127115","0.0-8.0","dhxxfzr9","","<span style=""color:Black; font-size:50px;"">Agent A","null","","","","",""
"null","","","video-keyboard-response","9","130183","0.0-9.0","dhxxfzr9","","","null","","Agent A","veridical","STIM_SET_1_REAL/1592581.bmp_pp100_L3_V1.0_veridical_freeview_isoFalse_fps144.mp4",""
"null","","","html-keyboard-response","10","131685","0.0-10.0","dhxxfzr9","","<span style=""color:Black; font-size:50px;"">Agent B","null","","","","",""
"null","","","video-keyboard-response","11","134757","0.0-11.0","dhxxfzr9","","","null","","Agent B","scrambled","STIM_SET_3/1160189.bmp_pp64_L1_V2_veridical_freeview_isoFalsemismatch_1592581.bmp_L3_fps90.mp4",""
"","","","call-function","12","134757","0.0-12.0","dhxxfzr9","","","","","","","",""
"2463.774999999994","{""judgement"":0}","[0]","survey-likert","13","137222","0.0-13.0","dhxxfzr9","","","","","","","","0"
"1848.7449999999953","{""confidence"":3}","[0]","survey-likert","14","139072","0.0-14.0","dhxxfzr9","","","","","","","",""
"","","","call-function","15","139072","0.0-15.0","dhxxfzr9","","","","","","","",""
"null","","","html-keyboard-response","16","140575","0.0-16.0","dhxxfzr9","","<span style=""color:Black; font-size:50px;"">Agent A","null","","","","",""
"null","","","video-keyboard-response","17","143649","0.0-17.0","dhxxfzr9","","","null","","Agent A","veridical","STIM_SET_1_REAL/1591954.bmp_pp62_L2_V1.0_veridical_freeview_isoFalse_fps144.mp4",""
"null","","","html-keyboard-response","18","145151","0.0-18.0","dhxxfzr9","","<span style=""color:Black; font-size:50px;"">Agent B","null","","","","",""
"null","","","video-keyboard-response","19","148248","0.0-19.0","dhxxfzr9","","","null","","Agent B","scrambled","STIM_SET_3/1160049.bmp_pp53_L2_V2_veridical_freeview_isoFalsemismatch_1591954.bmp_L2_fps90.mp4",""
"","","","call-function","20","148249","0.0-20.0","dhxxfzr9","","","","","","","",""
"1964.5450000000128","{""judgement"":1}","[0]","survey-likert","21","150215","0.0-21.0","dhxxfzr9","","","","","","","","0"
"1596.7900000000081","{""confidence"":2}","[0]","survey-likert","22","151813","0.0-22.0","dhxxfzr9","","","","","","","",""
"","","","call-function","23","151813","0.0-23.0","dhxxfzr9","","","","","","","",""
"null","","","html-keyboard-response","24","153315","0.0-24.0","dhxxfzr9","","<span style=""color:Black; font-size:50px;"">Agent A","null","","","","",""
"null","","","video-keyboard-response","25","156417","0.0-25.0","dhxxfzr9","","","null","","Agent A","scrambled","STIM_SET_3/713633.bmp_pp58_L1_V2_veridical_freeview_isoFalsemismatch_713796.bmp_L3_fps90.mp4",""
"null","","","html-keyboard-response","26","157923","0.0-26.0","dhxxfzr9","","<span style=""color:Black; font-size:50px;"">Agent B","null","","","","",""
"null","","","video-keyboard-response","27","161018","0.0-27.0","dhxxfzr9","","","null","","Agent B","veridical","STIM_SET_1_REAL/713796.bmp_pp84_L3_V1.0_veridical_freeview_isoFalse_fps144.mp4",""
"","","","call-function","28","161018","0.0-28.0","dhxxfzr9","","","","","","","",""
"1806.0099999999802","{""judgement"":1}","[0]","survey-likert","29","162825","0.0-29.0","dhxxfzr9","","","","","","","","1"
"1893.1449999999895","{""confidence"":2}","[0]","survey-likert","30","164719","0.0-30.0","dhxxfzr9","","","","","","","",""
"","","","call-function","31","164720","0.0-31.0","dhxxfzr9","","","","","","","",""
"null","","","html-keyboard-response","32","166222","0.0-32.0","dhxxfzr9","","<span style=""color:Black; font-size:50px;"">Agent A","null","","","","",""
"null","","","video-keyboard-response","33","169311","0.0-33.0","dhxxfzr9","","","null","","Agent A","scrambled","STIM_SET_3/1160204.bmp_pp54_L2_V2_veridical_freeview_isoFalsemismatch_286001.bmp_L2_fps90.mp4",""
"null","","","html-keyboard-response","34","170816","0.0-34.0","dhxxfzr9","","<span style=""color:Black; font-size:50px;"">Agent B","null","","","","",""
"null","","","video-keyboard-response","35","173905","0.0-35.0","dhxxfzr9","","","null","","Agent B","veridical","STIM_SET_1_REAL/286001.bmp_pp54_L2_V1.0_veridical_freeview_isoFalse_fps144.mp4",""
"","","","call-function","36","173905","0.0-36.0","dhxxfzr9","","","","","","","",""
"1777.1399999999849","{""judgement"":0}","[0]","survey-likert","37","175683","0.0-37.0","dhxxfzr9","","","","","","","","1"
"2035.6050000000105","{""confidence"":1}","[0]","survey-likert","38","177720","0.0-38.0","dhxxfzr9","","","","","","","",""
"","","","call-function","39","177720","0.0-39.0","dhxxfzr9","","","","","","","",""
"null","","","html-keyboard-response","40","179222","0.0-40.0","dhxxfzr9","","<span style=""color:Black; font-size:50px;"">Agent A","null","","","","",""
"null","","","video-keyboard-response","41","182291","0.0-41.0","dhxxfzr9","","","null","","Agent A","veridical","STIM_SET_1_REAL/285905.bmp_pp57_L1_V1.0_veridical_freeview_isoFalse_fps144.mp4",""
"null","","","html-keyboard-response","42","183797","0.0-42.0","dhxxfzr9","","<span style=""color:Black; font-size:50px;"">Agent B","null","","","","",""
"null","","","video-keyboard-response","43","186913","0.0-43.0","dhxxfzr9","","","null","","Agent B","scrambled","STIM_SET_3/1592568.bmp_pp71_L1_V2_veridical_freeview_isoFalsemismatch_285905.bmp_L1_fps90.mp4",""
"","","","call-function","44","186914","0.0-44.0","dhxxfzr9","","","","","","","",""
"1716.7649999999849","{""judgement"":0}","[0]","survey-likert","45","188631","0.0-45.0","dhxxfzr9","","","","","","","","0"
"1506.9800000000105","{""confidence"":1}","[0]","survey-likert","46","190139","0.0-46.0","dhxxfzr9","","","","","","","",""
"","","","call-function","47","190140","0.0-47.0","dhxxfzr9","","","","","","","",""
"null","","","html-keyboard-response","48","191642","0.0-48.0","dhxxfzr9","","<span style=""color:Black; font-size:50px;"">Agent A","null","","","","",""
"null","","","video-keyboard-response","49","194712","0.0-49.0","dhxxfzr9","","","null","","Agent A","scrambled","STIM_SET_3/1159819.bmp_pp151_L1_V2_veridical_freeview_isoFalsemismatch_1592499.bmp_L2_fps90.mp4",""
"null","","","html-keyboard-response","50","196213","0.0-50.0","dhxxfzr9","","<span style=""color:Black; font-size:50px;"">Agent B","null","","","","",""
"null","","","video-keyboard-response","51","199282","0.0-51.0","dhxxfzr9","","","null","","Agent B","veridical","STIM_SET_1_REAL/1592499.bmp_pp96_L2_V1.0_veridical_freeview_isoFalse_fps144.mp4",""
"","","","call-function","52","199283","0.0-52.0","dhxxfzr9","","","","","","","",""
"1765.5849999999919","{""judgement"":1}","[0]","survey-likert","53","201049","0.0-53.0","dhxxfzr9","","","","","","","","1"
"2033.7550000000047","{""confidence"":3}","[0]","survey-likert","54","203084","0.0-54.0","dhxxfzr9","","","","","","","",""
"","","","call-function","55","203084","0.0-55.0","dhxxfzr9","","","","","","","",""
"null","","","html-keyboard-response","56","204586","0.0-56.0","dhxxfzr9","","<span style=""color:Black; font-size:50px;"">Agent A","null","","","","",""
"null","","","video-keyboard-response","57","207662","0.0-57.0","dhxxfzr9","","","null","","Agent A","veridical","STIM_SET_1_REAL/713707.bmp_pp154_L1_V1.0_veridical_freeview_isoFalse_fps144.mp4",""
"null","","","html-keyboard-response","58","209167","0.0-58.0","dhxxfzr9","","<span style=""color:Black; font-size:50px;"">Agent B","null","","","","",""
"null","","","video-keyboard-response","59","212259","0.0-59.0","dhxxfzr9","","","null","","Agent B","scrambled","STIM_SET_3/1592314.bmp_pp100_L3_V2_veridical_freeview_isoFalsemismatch_713707.bmp_L1_fps90.mp4",""
"","","","call-function","60","212260","0.0-60.0","dhxxfzr9","","","","","","","",""
"5575.470000000001","{""judgement"":1}","[0]","survey-likert","61","217837","0.0-61.0","dhxxfzr9","","","","","","","","0"
"2437.4950000000244","{""confidence"":1}","[0]","survey-likert","62","220276","0.0-62.0","dhxxfzr9","","","","","","","",""
"","","","call-function","63","220277","0.0-63.0","dhxxfzr9","","","","","","","",""
"null","","","html-keyboard-response","64","221781","0.0-64.0","dhxxfzr9","","<span style=""color:Black; font-size:50px;"">Agent A","null","","","","",""
"null","","","video-keyboard-response","65","224862","0.0-65.0","dhxxfzr9","","","null","","Agent A","scrambled","STIM_SET_3/285946.bmp_pp79_L2_V2_veridical_freeview_isoFalsemismatch_285751.bmp_L3_fps90.mp4",""
"null","","","html-keyboard-response","66","226368","0.0-66.0","dhxxfzr9","","<span style=""color:Black; font-size:50px;"">Agent B","null","","","","",""
"null","","","video-keyboard-response","67","229447","0.0-67.0","dhxxfzr9","","","null","","Agent B","veridical","STIM_SET_1_REAL/285751.bmp_pp55_L3_V1.0_veridical_freeview_isoFalse_fps144.mp4",""
"","","","call-function","68","229447","0.0-68.0","dhxxfzr9","","","","","","","",""
"2302.2149999999965","{""judgement"":1}","[0]","survey-likert","69","231750","0.0-69.0","dhxxfzr9","","","","","","","","1"
"2132.75","{""confidence"":3}","[0]","survey-likert","70","233884","0.0-70.0","dhxxfzr9","","","","","","","",""
"","","","call-function","71","233885","0.0-71.0","dhxxfzr9","","","","","","","",""
"null","","","html-keyboard-response","72","235386","0.0-72.0","dhxxfzr9","","<span style=""color:Black; font-size:50px;"">Agent A","null","","","","",""
"null","","","video-keyboard-response","73","238456","0.0-73.0","dhxxfzr9","","","null","","Agent A","scrambled","STIM_SET_3/1159956.bmp_pp59_L3_V2_veridical_freeview_isoFalsemismatch_1159829.bmp_L3_fps90.mp4",""
"null","","","html-keyboard-response","74","239960","0.0-74.0","dhxxfzr9","","<span style=""color:Black; font-size:50px;"">Agent B","null","","","","",""
"null","","","video-keyboard-response","75","243029","0.0-75.0","dhxxfzr9","","","null","","Agent B","veridical","STIM_SET_1_REAL/1159829.bmp_pp91_L3_V1.0_veridical_freeview_isoFalse_fps144.mp4",""
"","","","call-function","76","243029","0.0-76.0","dhxxfzr9","","","","","","","",""
"2885.0749999999825","{""judgement"":1}","[0]","survey-likert","77","245915","0.0-77.0","dhxxfzr9","","","","","","","","1"
"1669.0849999999919","{""confidence"":1}","[0]","survey-likert","78","247585","0.0-78.0","dhxxfzr9","","","","","","","",""
"","","","call-function","79","247586","0.0-79.0","dhxxfzr9","","","","","","","",""
"null","","","html-keyboard-response","80","249091","0.0-80.0","dhxxfzr9","","<span style=""color:Black; font-size:50px;"">Agent A","null","","","","",""
"null","","","video-keyboard-response","81","252195","0.0-81.0","dhxxfzr9","","","null","","Agent A","scrambled","STIM_SET_3/1592530.bmp_pp75_L1_V2_veridical_freeview_isoFalsemismatch_1591961.bmp_L2_fps90.mp4",""
"null","","","html-keyboard-response","82","253701","0.0-82.0","dhxxfzr9","","<span style=""color:Black; font-size:50px;"">Agent B","null","","","","",""
"null","","","video-keyboard-response","83","256805","0.0-83.0","dhxxfzr9","","","null","","Agent B","veridical","STIM_SET_1_REAL/1591961.bmp_pp67_L2_V1.0_veridical_freeview_isoFalse_fps144.mp4",""
"","","","call-function","84","256805","0.0-84.0","dhxxfzr9","","","","","","","",""
"3379.9400000000023","{""judgement"":1}","[0]","survey-likert","85","260186","0.0-85.0","dhxxfzr9","","","","","","","","1"
"2305.5599999999977","{""confidence"":2}","[0]","survey-likert","86","262492","0.0-86.0","dhxxfzr9","","","","","","","",""
"2300.3949999999604","","","instructions","87","264793","0.0-87.0","dhxxfzr9","[{""page_index"":0,""viewing_time"":918.2849999999744},{""page_index"":1,""viewing_time"":585.945000000007},{""page_index"":2,""viewing_time"":795.9650000000256}]","","","","","","",""
"2557.5950000000303","","","instructions","88","267351","0.0-88.0","dhxxfzr9","[{""page_index"":0,""viewing_time"":601.5250000000233},{""page_index"":1,""viewing_time"":1413.0199999999604},{""page_index"":2,""viewing_time"":542.945000000007}]","","","","","","",""
"","","","call-function","89","267351","0.0-89.0","dhxxfzr9","","","","","","","",""
"null","","","html-keyboard-response","90","268853","0.0-90.0","dhxxfzr9","","<span style=""color:Black; font-size:50px;"">Agent A","null","","","","",""
"null","","","video-keyboard-response","91","271944","0.0-91.0","dhxxfzr9","","","null","","Agent A","veridical","STIM_SET_1_REAL/1159882.bmp_pp61_L2_V1.0_veridical_freeview_isoFalse_fps144.mp4",""
"null","","","html-keyboard-response","92","273449","0.0-92.0","dhxxfzr9","","<span style=""color:Black; font-size:50px;"">Agent B","null","","","","",""
"null","","","video-keyboard-response","93","276539","0.0-93.0","dhxxfzr9","","","null","","Agent B","scrambled","STIM_SET_3/285715.bmp_pp67_L2_V2_veridical_freeview_isoFalsemismatch_1159882.bmp_L2_fps90.mp4",""
"","","","call-function","94","276539","0.0-94.0","dhxxfzr9","","","","","","","",""
"3050.6900000000023","{""judgement"":0}","[0]","survey-likert","95","279591","0.0-95.0","dhxxfzr9","","","","","","","","0"
"2861.9749999999767","{""confidence"":2}","[0]","survey-likert","96","282454","0.0-96.0","dhxxfzr9","","","","","","","",""
"","","","call-function","97","282454","0.0-97.0","dhxxfzr9","","","","","","","",""
"null","","","html-keyboard-response","98","283955","0.0-98.0","dhxxfzr9","","<span style=""color:Black; font-size:50px;"">Agent A","null","","","","",""
"null","","","video-keyboard-response","99","287049","0.0-99.0","dhxxfzr9","","","null","","Agent A","scrambled","STIM_SET_3/498261.bmp_pp84_L3_V2_veridical_freeview_isoFalsemismatch_1592657.bmp_L1_fps90.mp4",""
"null","","","html-keyboard-response","100","288552","0.0-100.0","dhxxfzr9","","<span style=""color:Black; font-size:50px;"">Agent B","null","","","","",""
"null","","","video-keyboard-response","101","291627","0.0-101.0","dhxxfzr9","","","null","","Agent B","veridical","STIM_SET_1_REAL/1592657.bmp_pp98_L1_V1.0_veridical_freeview_isoFalse_fps144.mp4",""
"","","","call-function","102","291628","0.0-102.0","dhxxfzr9","","","","","","","",""
"1721.844999999972","{""judgement"":0}","[0]","survey-likert","103","293350","0.0-103.0","dhxxfzr9","","","","","","","","1"
"2087.1300000000047","{""confidence"":1}","[0]","survey-likert","104","295438","0.0-104.0","dhxxfzr9","","","","","","","",""
"","","","call-function","105","295439","0.0-105.0","dhxxfzr9","","","","","","","",""
"null","","","html-keyboard-response","106","296941","0.0-106.0","dhxxfzr9","","<span style=""color:Black; font-size:50px;"">Agent A","null","","","","",""
"null","","","video-keyboard-response","107","300019","0.0-107.0","dhxxfzr9","","","null","","Agent A","veridical","STIM_SET_1_REAL/1591994.bmp_pp69_L3_V1.0_veridical_freeview_isoFalse_fps144.mp4",""
"null","","","html-keyboard-response","108","301523","0.0-108.0","dhxxfzr9","","<span style=""color:Black; font-size:50px;"">Agent B","null","","","","",""
"null","","","video-keyboard-response","109","304585","0.0-109.0","dhxxfzr9","","","null","","Agent B","scrambled","STIM_SET_3/713328.bmp_pp86_L2_V2_veridical_freeview_isoFalsemismatch_1591994.bmp_L3_fps90.mp4",""
"","","","call-function","110","304586","0.0-110.0","dhxxfzr9","","","","","","","",""
"2167.2149999999674","{""judgement"":0}","[0]","survey-likert","111","306754","0.0-111.0","dhxxfzr9","","","","","","","","0"
"1428.905000000028","{""confidence"":1}","[0]","survey-likert","112","308184","0.0-112.0","dhxxfzr9","","","","","","","",""
"","","","call-function","113","308184","0.0-113.0","dhxxfzr9","","","","","","","",""
"null","","","html-keyboard-response","114","309686","0.0-114.0","dhxxfzr9","","<span style=""color:Black; font-size:50px;"">Agent A","null","","","","",""
"null","","","video-keyboard-response","115","312746","0.0-115.0","dhxxfzr9","","","null","","Agent A","veridical","STIM_SET_1_REAL/1159621.bmp_pp92_L3_V1.0_veridical_freeview_isoFalse_fps144.mp4",""
"null","","","html-keyboard-response","116","314248","0.0-116.0","dhxxfzr9","","<span style=""color:Black; font-size:50px;"">Agent B","null","","","","",""
"null","","","video-keyboard-response","117","317336","0.0-117.0","dhxxfzr9","","","null","","Agent B","scrambled","STIM_SET_3/1159860.bmp_pp152_L2_V2_veridical_freeview_isoFalsemismatch_1159621.bmp_L3_fps90.mp4",""
"","","","call-function","118","317337","0.0-118.0","dhxxfzr9","","","","","","","",""
"1508.164999999979","{""judgement"":0}","[0]","survey-likert","119","318846","0.0-119.0","dhxxfzr9","","","","","","","","0"
"3064.1300000000047","{""confidence"":2}","[0]","survey-likert","120","321912","0.0-120.0","dhxxfzr9","","","","","","","",""
"","","","call-function","121","321912","0.0-121.0","dhxxfzr9","","","","","","","",""
"null","","","html-keyboard-response","122","323417","0.0-122.0","dhxxfzr9","","<span style=""color:Black; font-size:50px;"">Agent A","null","","","","",""
"null","","","video-keyboard-response","123","326525","0.0-123.0","dhxxfzr9","","","null","","Agent A","scrambled","STIM_SET_3/713790.bmp_pp100_L3_V2_veridical_freeview_isoFalsemismatch_1592397.bmp_L3_fps90.mp4",""
"null","","","html-keyboard-response","124","328029","0.0-124.0","dhxxfzr9","","<span style=""color:Black; font-size:50px;"">Agent B","null","","","","",""
"null","","","video-keyboard-response","125","331127","0.0-125.0","dhxxfzr9","","","null","","Agent B","veridical","STIM_SET_1_REAL/1592397.bmp_pp85_L3_V1.0_veridical_freeview_isoFalse_fps144.mp4",""
"","","","call-function","126","331128","0.0-126.0","dhxxfzr9","","","","","","","",""
"1891.2050000000163","{""judgement"":1}","[0]","survey-likert","127","333020","0.0-127.0","dhxxfzr9","","","","","","","","1"
"1147.2550000000047","{""confidence"":1}","[0]","survey-likert","128","334169","0.0-128.0","dhxxfzr9","","","","","","","",""
"","","","call-function","129","334170","0.0-129.0","dhxxfzr9","","","","","","","",""
"null","","","html-keyboard-response","130","335677","0.0-130.0","dhxxfzr9","","<span style=""color:Black; font-size:50px;"">Agent A","null","","","","",""
"null","","","video-keyboard-response","131","338740","0.0-131.0","dhxxfzr9","","","null","","Agent A","veridical","STIM_SET_1_REAL/713089.bmp_pp60_L3_V1.0_veridical_freeview_isoFalse_fps144.mp4",""
"null","","","html-keyboard-response","132","340242","0.0-132.0","dhxxfzr9","","<span style=""color:Black; font-size:50px;"">Agent B","null","","","","",""
"null","","","video-keyboard-response","133","343333","0.0-133.0","dhxxfzr9","","","null","","Agent B","scrambled","STIM_SET_3/1592201.bmp_pp97_L3_V2_veridical_freeview_isoFalsemismatch_713089.bmp_L3_fps90.mp4",""
"","","","call-function","134","343333","0.0-134.0","dhxxfzr9","","","","","","","",""
"1704.039999999979","{""judgement"":0}","[0]","survey-likert","135","345038","0.0-135.0","dhxxfzr9","","","","","","","","0"
"1427.115000000049","{""confidence"":3}","[0]","survey-likert","136","346467","0.0-136.0","dhxxfzr9","","","","","","","",""
"","","","call-function","137","346467","0.0-137.0","dhxxfzr9","","","","","","","",""
"null","","","html-keyboard-response","138","347969","0.0-138.0","dhxxfzr9","","<span style=""color:Black; font-size:50px;"">Agent A","null","","","","",""
"null","","","video-keyboard-response","139","351048","0.0-139.0","dhxxfzr9","","","null","","Agent A","scrambled","STIM_SET_3/713858.bmp_pp57_L1_V2_veridical_freeview_isoFalsemismatch_713749.bmp_L2_fps90.mp4",""
"null","","","html-keyboard-response","140","352551","0.0-140.0","dhxxfzr9","","<span style=""color:Black; font-size:50px;"">Agent B","null","","","","",""
"null","","","video-keyboard-response","141","355626","0.0-141.0","dhxxfzr9","","","null","","Agent B","veridical","STIM_SET_1_REAL/713749.bmp_pp88_L2_V1.0_veridical_freeview_isoFalse_fps144.mp4",""
"","","","call-function","142","355627","0.0-142.0","dhxxfzr9","","","","","","","",""
"3297.0250000000233","{""judgement"":1}","[0]","survey-likert","143","358925","0.0-143.0","dhxxfzr9","","","","","","","","1"
"1620.7799999999697","{""confidence"":1}","[0]","survey-likert","144","360547","0.0-144.0","dhxxfzr9","","","","","","","",""
"","","","call-function","145","360547","0.0-145.0","dhxxfzr9","","","","","","","",""
"null","","","html-keyboard-response","146","362051","0.0-146.0","dhxxfzr9","","<span style=""color:Black; font-size:50px;"">Agent A","null","","","","",""
"null","","","video-keyboard-response","147","365155","0.0-147.0","dhxxfzr9","","","null","","Agent A","scrambled","STIM_SET_3/713770.bmp_pp89_L1_V2_veridical_freeview_isoFalsemismatch_61537.bmp_L3_fps90.mp4",""
"null","","","html-keyboard-response","148","366658","0.0-148.0","dhxxfzr9","","<span style=""color:Black; font-size:50px;"">Agent B","null","","","","",""
"null","","","video-keyboard-response","149","369759","0.0-149.0","dhxxfzr9","","","null","","Agent B","veridical","STIM_SET_1_REAL/61537.bmp_pp73_L3_V1.0_veridical_freeview_isoFalse_fps144.mp4",""
"","","","call-function","150","369759","0.0-150.0","dhxxfzr9","","","","","","","",""
"2230.820000000007","{""judgement"":1}","[0]","survey-likert","151","371991","0.0-151.0","dhxxfzr9","","","","","","","","1"
"1714.4400000000023","{""confidence"":2}","[0]","survey-likert","152","373707","0.0-152.0","dhxxfzr9","","","","","","","",""
"","","","call-function","153","373707","0.0-153.0","dhxxfzr9","","","","","","","",""
"null","","","html-keyboard-response","154","375207","0.0-154.0","dhxxfzr9","","<span style=""color:Black; font-size:50px;"">Agent A","null","","","","",""
"null","","","video-keyboard-response","155","378321","0.0-155.0","dhxxfzr9","","","null","","Agent A","veridical","STIM_SET_1_REAL/713666.bmp_pp97_L3_V1.0_veridical_freeview_isoFalse_fps144.mp4",""
"null","","","html-keyboard-response","156","379823","0.0-156.0","dhxxfzr9","","<span style=""color:Black; font-size:50px;"">Agent B","null","","","","",""
"null","","","video-keyboard-response","157","382925","0.0-157.0","dhxxfzr9","","","null","","Agent B","scrambled","STIM_SET_3/1592289.bmp_pp92_L3_V2_veridical_freeview_isoFalsemismatch_713666.bmp_L3_fps90.mp4",""
"","","","call-function","158","382925","0.0-158.0","dhxxfzr9","","","","","","","",""
"1573.9500000000116","{""judgement"":0}","[0]","survey-likert","159","384500","0.0-159.0","dhxxfzr9","","","","","","","","0"
"1946.484999999986","{""confidence"":3}","[0]","survey-likert","160","386448","0.0-160.0","dhxxfzr9","","","","","","","",""
"","","","call-function","161","386448","0.0-161.0","dhxxfzr9","","","","","","","",""
"null","","","html-keyboard-response","162","387952","0.0-162.0","dhxxfzr9","","<span style=""color:Black; font-size:50px;"">Agent A","null","","","","",""
"null","","","video-keyboard-response","163","391049","0.0-163.0","dhxxfzr9","","","null","","Agent A","veridical","STIM_SET_1_REAL/1159515.bmp_pp84_L3_V1.0_veridical_freeview_isoFalse_fps144.mp4",""
"null","","","html-keyboard-response","164","392551","0.0-164.0","dhxxfzr9","","<span style=""color:Black; font-size:50px;"">Agent B","null","","","","",""
"null","","","video-keyboard-response","165","395659","0.0-165.0","dhxxfzr9","","","null","","Agent B","scrambled","STIM_SET_3/1159874.bmp_pp96_L2_V2_veridical_freeview_isoFalsemismatch_1159515.bmp_L3_fps90.mp4",""
"","","","call-function","166","395660","0.0-166.0","dhxxfzr9","","","","","","","",""
"4281.805000000051","{""judgement"":1}","[0]","survey-likert","167","399943","0.0-167.0","dhxxfzr9","","","","","","","","0"
"1277.5750000000116","{""confidence"":1}","[0]","survey-likert","168","401223","0.0-168.0","dhxxfzr9","","","","","","","",""
"138321.51","","","instructions","169","539545","0.0-169.0","dhxxfzr9","[{""page_index"":0,""viewing_time"":1547.2949999999837},{""page_index"":1,""viewing_time"":585.9249999999884},{""page_index"":2,""viewing_time"":136188.005}]","","","","","","",""
"2291.5200000000186","","","instructions","170","541837","0.0-170.0","dhxxfzr9","[{""page_index"":0,""viewing_time"":848.3250000000698},{""page_index"":1,""viewing_time"":870.0749999999534},{""page_index"":2,""viewing_time"":573.015000000014}]","","","","","","",""
"","","","call-function","171","541837","0.0-171.0","dhxxfzr9","","","","","","","",""
"null","","","html-keyboard-response","172","543341","0.0-172.0","dhxxfzr9","","<span style=""color:Black; font-size:50px;"">Agent A","null","","","","",""
"null","","","video-keyboard-response","173","546413","0.0-173.0","dhxxfzr9","","","null","","Agent A","scrambled","STIM_SET_3/1592747.bmp_pp53_L2_V2_veridical_freeview_isoFalsemismatch_713593.bmp_L1_fps90.mp4",""
"null","","","html-keyboard-response","174","547914","0.0-174.0","dhxxfzr9","","<span style=""color:Black; font-size:50px;"">Agent B","null","","","","",""
"null","","","video-keyboard-response","175","550991","0.0-175.0","dhxxfzr9","","","null","","Agent B","veridical","STIM_SET_1_REAL/713593.bmp_pp64_L1_V1.0_veridical_freeview_isoFalse_fps144.mp4",""
"","","","call-function","176","550992","0.0-176.0","dhxxfzr9","","","","","","","",""
"1236.8249999999534","{""judgement"":1}","[0]","survey-likert","177","552229","0.0-177.0","dhxxfzr9","","","","","","","","1"
"2375.039999999921","{""confidence"":3}","[0]","survey-likert","178","554605","0.0-178.0","dhxxfzr9","","","","","","","",""
"","","","call-function","179","554605","0.0-179.0","dhxxfzr9","","","","","","","",""
"null","","","html-keyboard-response","180","556106","0.0-180.0","dhxxfzr9","","<span style=""color:Black; font-size:50px;"">Agent A","null","","","","",""
"null","","","video-keyboard-response","181","559175","0.0-181.0","dhxxfzr9","","","null","","Agent A","veridical","STIM_SET_1_REAL/1592362.bmp_pp95_L2_V1.0_veridical_freeview_isoFalse_fps144.mp4",""
"null","","","html-keyboard-response","182","560677","0.0-182.0","dhxxfzr9","","<span style=""color:Black; font-size:50px;"">Agent B","null","","","","",""
"null","","","video-keyboard-response","183","563747","0.0-183.0","dhxxfzr9","","","null","","Agent B","scrambled","STIM_SET_3/150277.bmp_pp65_L3_V2_veridical_freeview_isoFalsemismatch_1592362.bmp_L2_fps90.mp4",""
"","","","call-function","184","563747","0.0-184.0","dhxxfzr9","","","","","","","",""
"1956.8099999999395","{""judgement"":0}","[0]","survey-likert","185","565705","0.0-185.0","dhxxfzr9","","","","","","","","0"
"2186.859999999986","{""confidence"":2}","[0]","survey-likert","186","567893","0.0-186.0","dhxxfzr9","","","","","","","",""
"","","","call-function","187","567894","0.0-187.0","dhxxfzr9","","","","","","","",""
"null","","","html-keyboard-response","188","569394","0.0-188.0","dhxxfzr9","","<span style=""color:Black; font-size:50px;"">Agent A","null","","","","",""
"null","","","video-keyboard-response","189","572483","0.0-189.0","dhxxfzr9","","","null","","Agent A","veridical","STIM_SET_1_REAL/498149.bmp_pp99_L2_V1.0_veridical_freeview_isoFalse_fps144.mp4",""
"null","","","html-keyboard-response","190","573985","0.0-190.0","dhxxfzr9","","<span style=""color:Black; font-size:50px;"">Agent B","null","","","","",""
"null","","","video-keyboard-response","191","577075","0.0-191.0","dhxxfzr9","","","null","","Agent B","scrambled","STIM_SET_3/107955.bmp_pp90_L2_V2_veridical_freeview_isoFalsemismatch_498149.bmp_L2_fps90.mp4",""
"","","","call-function","192","577076","0.0-192.0","dhxxfzr9","","","","","","","",""
"3847.679999999935","{""judgement"":1}","[0]","survey-likert","193","580925","0.0-193.0","dhxxfzr9","","","","","","","","0"
"1759.9250000000466","{""confidence"":1}","[0]","survey-likert","194","582687","0.0-194.0","dhxxfzr9","","","","","","","",""
"","","","call-function","195","582687","0.0-195.0","dhxxfzr9","","","","","","","",""
"null","","","html-keyboard-response","196","584192","0.0-196.0","dhxxfzr9","","<span style=""color:Black; font-size:50px;"">Agent A","null","","","","",""
"null","","","video-keyboard-response","197","587266","0.0-197.0","dhxxfzr9","","","null","","Agent A","veridical","STIM_SET_1_REAL/712977.bmp_pp51_L1_V1.0_veridical_freeview_isoFalse_fps144.mp4",""
"null","","","html-keyboard-response","198","588772","0.0-198.0","dhxxfzr9","","<span style=""color:Black; font-size:50px;"">Agent B","null","","","","",""
"null","","","video-keyboard-response","199","591837","0.0-199.0","dhxxfzr9","","","null","","Agent B","scrambled","STIM_SET_3/1592951.bmp_pp80_L3_V2_veridical_freeview_isoFalsemismatch_712977.bmp_L1_fps90.mp4",""
"","","","call-function","200","591837","0.0-200.0","dhxxfzr9","","","","","","","",""
"3282.204999999958","{""judgement"":0}","[0]","survey-likert","201","595120","0.0-201.0","dhxxfzr9","","","","","","","","0"
"1993.0750000000698","{""confidence"":1}","[0]","survey-likert","202","597115","0.0-202.0","dhxxfzr9","","","","","","","",""
"","","","call-function","203","597115","0.0-203.0","dhxxfzr9","","","","","","","",""
"null","","","html-keyboard-response","204","598617","0.0-204.0","dhxxfzr9","","<span style=""color:Black; font-size:50px;"">Agent A","null","","","","",""
"null","","","video-keyboard-response","205","601683","0.0-205.0","dhxxfzr9","","","null","","Agent A","veridical","STIM_SET_1_REAL/713779.bmp_pp152_L2_V1.0_veridical_freeview_isoFalse_fps144.mp4",""
"null","","","html-keyboard-response","206","603188","0.0-206.0","dhxxfzr9","","<span style=""color:Black; font-size:50px;"">Agent B","null","","","","",""
"null","","","video-keyboard-response","207","606260","0.0-207.0","dhxxfzr9","","","null","","Agent B","scrambled","STIM_SET_3/1592305.bmp_pp65_L3_V2_veridical_freeview_isoFalsemismatch_713779.bmp_L2_fps90.mp4",""
"","","","call-function","208","606261","0.0-208.0","dhxxfzr9","","","","","","","",""
"2005.3249999999534","{""judgement"":1}","[0]","survey-likert","209","608267","0.0-209.0","dhxxfzr9","","","","","","","","0"
"2173.734999999986","{""confidence"":1}","[0]","survey-likert","210","610442","0.0-210.0","dhxxfzr9","","","","","","","",""
"","","","call-function","211","610443","0.0-211.0","dhxxfzr9","","","","","","","",""
"null","","","html-keyboard-response","212","611945","0.0-212.0","dhxxfzr9","","<span style=""color:Black; font-size:50px;"">Agent A","null","","","","",""
"null","","","video-keyboard-response","213","615054","0.0-213.0","dhxxfzr9","","","null","","Agent A","veridical","STIM_SET_1_REAL/1159855.bmp_pp99_L2_V1.0_veridical_freeview_isoFalse_fps144.mp4",""
"null","","","html-keyboard-response","214","616558","0.0-214.0","dhxxfzr9","","<span style=""color:Black; font-size:50px;"">Agent B","null","","","","",""
"null","","","video-keyboard-response","215","619647","0.0-215.0","dhxxfzr9","","","null","","Agent B","scrambled","STIM_SET_3/285932.bmp_pp64_L1_V2_veridical_freeview_isoFalsemismatch_1159855.bmp_L2_fps90.mp4",""
"","","","call-function","216","619647","0.0-216.0","dhxxfzr9","","","","","","","",""
"1976.1300000000047","{""judgement"":0}","[0]","survey-likert","217","621624","0.0-217.0","dhxxfzr9","","","","","","","","0"
"4974.295000000042","{""confidence"":2}","[0]","survey-likert","218","626600","0.0-218.0","dhxxfzr9","","","","","","","",""
"","","","call-function","219","626600","0.0-219.0","dhxxfzr9","","","","","","","",""
"null","","","html-keyboard-response","220","628106","0.0-220.0","dhxxfzr9","","<span style=""color:Black; font-size:50px;"">Agent A","null","","","","",""
"null","","","video-keyboard-response","221","631194","0.0-221.0","dhxxfzr9","","","null","","Agent A","veridical","STIM_SET_1_REAL/713681.bmp_pp86_L2_V1.0_veridical_freeview_isoFalse_fps144.mp4",""
"null","","","html-keyboard-response","222","632697","0.0-222.0","dhxxfzr9","","<span style=""color:Black; font-size:50px;"">Agent B","null","","","","",""
"null","","","video-keyboard-response","223","635807","0.0-223.0","dhxxfzr9","","","null","","Agent B","scrambled","STIM_SET_3/498025.bmp_pp81_L1_V2_veridical_freeview_isoFalsemismatch_713681.bmp_L2_fps90.mp4",""
"","","","call-function","224","635808","0.0-224.0","dhxxfzr9","","","","","","","",""
"1235.1050000000978","{""judgement"":0}","[0]","survey-likert","225","637044","0.0-225.0","dhxxfzr9","","","","","","","","0"
"1816.6750000000466","{""confidence"":1}","[0]","survey-likert","226","638861","0.0-226.0","dhxxfzr9","","","","","","","",""
"","","","call-function","227","638862","0.0-227.0","dhxxfzr9","","","","","","","",""
"null","","","html-keyboard-response","228","640366","0.0-228.0","dhxxfzr9","","<span style=""color:Black; font-size:50px;"">Agent A","null","","","","",""
"null","","","video-keyboard-response","229","643462","0.0-229.0","dhxxfzr9","","","null","","Agent A","scrambled","STIM_SET_3/498258.bmp_pp51_L1_V2_veridical_freeview_isoFalsemismatch_498155.bmp_L2_fps90.mp4",""
"null","","","html-keyboard-response","230","644967","0.0-230.0","dhxxfzr9","","<span style=""color:Black; font-size:50px;"">Agent B","null","","","","",""
"null","","","video-keyboard-response","231","648071","0.0-231.0","dhxxfzr9","","","null","","Agent B","veridical","STIM_SET_1_REAL/498155.bmp_pp61_L2_V1.0_veridical_freeview_isoFalse_fps144.mp4",""
"","","","call-function","232","648071","0.0-232.0","dhxxfzr9","","","","","","","",""
"1418.4550000000745","{""judgement"":1}","[0]","survey-likert","233","649490","0.0-233.0","dhxxfzr9","","","","","","","","1"
"1344.0350000000326","{""confidence"":2}","[0]","survey-likert","234","650835","0.0-234.0","dhxxfzr9","","","","","","","",""
"","","","call-function","235","650836","0.0-235.0","dhxxfzr9","","","","","","","",""
"null","","","html-keyboard-response","236","652340","0.0-236.0","dhxxfzr9","","<span style=""color:Black; font-size:50px;"">Agent A","null","","","","",""
"null","","","video-keyboard-response","237","655410","0.0-237.0","dhxxfzr9","","","null","","Agent A","scrambled","STIM_SET_3/1592025.bmp_pp68_L1_V2_veridical_freeview_isoFalsemismatch_1592351.bmp_L1_fps90.mp4",""
"null","","","html-keyboard-response","238","656914","0.0-238.0","dhxxfzr9","","<span style=""color:Black; font-size:50px;"">Agent B","null","","","","",""
"null","","","video-keyboard-response","239","659977","0.0-239.0","dhxxfzr9","","","null","","Agent B","veridical","STIM_SET_1_REAL/1592351.bmp_pp51_L1_V1.0_veridical_freeview_isoFalse_fps144.mp4",""
"","","","call-function","240","659978","0.0-240.0","dhxxfzr9","","","","","","","",""
"2081.795000000042","{""judgement"":1}","[0]","survey-likert","241","662060","0.0-241.0","dhxxfzr9","","","","","","","","1"
"1893.109999999986","{""confidence"":2}","[0]","survey-likert","242","663954","0.0-242.0","dhxxfzr9","","","","","","","",""
"","","","call-function","243","663955","0.0-243.0","dhxxfzr9","","","","","","","",""
"null","","","html-keyboard-response","244","665457","0.0-244.0","dhxxfzr9","","<span style=""color:Black; font-size:50px;"">Agent A","null","","","","",""
"null","","","video-keyboard-response","245","668521","0.0-245.0","dhxxfzr9","","","null","","Agent A","veridical","STIM_SET_1_REAL/498170.bmp_pp153_L3_V1.0_veridical_freeview_isoFalse_fps144.mp4",""
"null","","","html-keyboard-response","246","670028","0.0-246.0","dhxxfzr9","","<span style=""color:Black; font-size:50px;"">Agent B","null","","","","",""
"null","","","video-keyboard-response","247","673103","0.0-247.0","dhxxfzr9","","","null","","Agent B","scrambled","STIM_SET_3/713742.bmp_pp91_L3_V2_veridical_freeview_isoFalsemismatch_498170.bmp_L3_fps90.mp4",""
"","","","call-function","248","673104","0.0-248.0","dhxxfzr9","","","","","","","",""
"1894.140000000014","{""judgement"":0}","[0]","survey-likert","249","674999","0.0-249.0","dhxxfzr9","","","","","","","","0"
"1906.9149999999208","{""confidence"":3}","[0]","survey-likert","250","676907","0.0-250.0","dhxxfzr9","","","","","","","",""
"1904.3150000000605","","","instructions","251","678811","0.0-251.0","dhxxfzr9","[{""page_index"":0,""viewing_time"":949.140000000014},{""page_index"":1,""viewing_time"":583.3249999999534},{""page_index"":2,""viewing_time"":371.6150000001071}]","","","","","","",""
"1025.5299999999115","","","instructions","252","679837","0.0-252.0","dhxxfzr9","[{""page_index"":0,""viewing_time"":174.81999999994878},{""page_index"":1,""viewing_time"":418.55000000004657},{""page_index"":2,""viewing_time"":432.0549999999348}]","","","","","","",""
"","","","call-function","253","679838","0.0-253.0","dhxxfzr9","","","","","","","",""
"null","","","html-keyboard-response","254","681341","0.0-254.0","dhxxfzr9","","<span style=""color:Black; font-size:50px;"">Agent A","null","","","","",""
"null","","","video-keyboard-response","255","684449","0.0-255.0","dhxxfzr9","","","null","","Agent A","veridical","STIM_SET_1_REAL/1592807.bmp_pp68_L1_V1.0_veridical_freeview_isoFalse_fps144.mp4",""
"null","","","html-keyboard-response","256","685951","0.0-256.0","dhxxfzr9","","<span style=""color:Black; font-size:50px;"">Agent B","null","","","","",""
"null","","","video-keyboard-response","257","689047","0.0-257.0","dhxxfzr9","","","null","","Agent B","scrambled","STIM_SET_3/713652.bmp_pp89_L1_V2_veridical_freeview_isoFalsemismatch_1592807.bmp_L1_fps90.mp4",""
"","","","call-function","258","689047","0.0-258.0","dhxxfzr9","","","","","","","",""
"1749.670000000042","{""judgement"":0}","[0]","survey-likert","259","690798","0.0-259.0","dhxxfzr9","","","","","","","","0"
"2078.3549999999814","{""confidence"":1}","[0]","survey-likert","260","692877","0.0-260.0","dhxxfzr9","","","","","","","",""
"","","","call-function","261","692878","0.0-261.0","dhxxfzr9","","","","","","","",""
"null","","","html-keyboard-response","262","694381","0.0-262.0","dhxxfzr9","","<span style=""color:Black; font-size:50px;"">Agent A","null","","","","",""
"null","","","video-keyboard-response","263","697472","0.0-263.0","dhxxfzr9","","","null","","Agent A","scrambled","STIM_SET_3/286034.bmp_pp69_L3_V2_veridical_freeview_isoFalsemismatch_713403.bmp_L3_fps90.mp4",""
"null","","","html-keyboard-response","264","698978","0.0-264.0","dhxxfzr9","","<span style=""color:Black; font-size:50px;"">Agent B","null","","","","",""
"null","","","video-keyboard-response","265","702067","0.0-265.0","dhxxfzr9","","","null","","Agent B","veridical","STIM_SET_1_REAL/713403.bmp_pp80_L3_V1.0_veridical_freeview_isoFalse_fps144.mp4",""
"","","","call-function","266","702068","0.0-266.0","dhxxfzr9","","","","","","","",""
"2004.4500000000698","{""judgement"":1}","[0]","survey-likert","267","704074","0.0-267.0","dhxxfzr9","","","","","","","","1"
"1093.7750000000233","{""confidence"":2}","[0]","survey-likert","268","705170","0.0-268.0","dhxxfzr9","","","","","","","",""
"","","","call-function","269","705172","0.0-269.0","dhxxfzr9","","","","","","","",""
"null","","","html-keyboard-response","270","706676","0.0-270.0","dhxxfzr9","","<span style=""color:Black; font-size:50px;"">Agent A","null","","","","",""
"null","","","video-keyboard-response","271","709752","0.0-271.0","dhxxfzr9","","","null","","Agent A","veridical","STIM_SET_1_REAL/713371.bmp_pp68_L1_V1.0_veridical_freeview_isoFalse_fps144.mp4",""
"null","","","html-keyboard-response","272","711255","0.0-272.0","dhxxfzr9","","<span style=""color:Black; font-size:50px;"">Agent B","null","","","","",""
"null","","","video-keyboard-response","273","714325","0.0-273.0","dhxxfzr9","","","null","","Agent B","scrambled","STIM_SET_3/498396.bmp_pp99_L2_V2_veridical_freeview_isoFalsemismatch_713371.bmp_L1_fps90.mp4",""
"","","","call-function","274","714325","0.0-274.0","dhxxfzr9","","","","","","","",""
"1729.6449999999022","{""judgement"":0}","[0]","survey-likert","275","716056","0.0-275.0","dhxxfzr9","","","","","","","","0"
"1745.5749999999534","{""confidence"":2}","[0]","survey-likert","276","717803","0.0-276.0","dhxxfzr9","","","","","","","",""
"","","","call-function","277","717803","0.0-277.0","dhxxfzr9","","","","","","","",""
"null","","","html-keyboard-response","278","719309","0.0-278.0","dhxxfzr9","","<span style=""color:Black; font-size:50px;"">Agent A","null","","","","",""
"null","","","video-keyboard-response","279","722385","0.0-279.0","dhxxfzr9","","","null","","Agent A","scrambled","STIM_SET_3/1592168.bmp_pp71_L1_V2_veridical_freeview_isoFalsemismatch_1592890.bmp_L2_fps90.mp4",""
"null","","","html-keyboard-response","280","723889","0.0-280.0","dhxxfzr9","","<span style=""color:Black; font-size:50px;"">Agent B","null","","","","",""
"null","","","video-keyboard-response","281","726956","0.0-281.0","dhxxfzr9","","","null","","Agent B","veridical","STIM_SET_1_REAL/1592890.bmp_pp82_L2_V1.0_veridical_freeview_isoFalse_fps144.mp4",""
"","","","call-function","282","726956","0.0-282.0","dhxxfzr9","","","","","","","",""
"3561.609999999986","{""judgement"":1}","[0]","survey-likert","283","730519","0.0-283.0","dhxxfzr9","","","","","","","","1"
"2581.1900000000605","{""confidence"":2}","[0]","survey-likert","284","733101","0.0-284.0","dhxxfzr9","","","","","","","",""
"","","","call-function","285","733101","0.0-285.0","dhxxfzr9","","","","","","","",""
"null","","","html-keyboard-response","286","734602","0.0-286.0","dhxxfzr9","","<span style=""color:Black; font-size:50px;"">Agent A","null","","","","",""
"null","","","video-keyboard-response","287","737712","0.0-287.0","dhxxfzr9","","","null","","Agent A","veridical","STIM_SET_1_REAL/1159813.bmp_pp79_L2_V1.0_veridical_freeview_isoFalse_fps144.mp4",""
"null","","","html-keyboard-response","288","739218","0.0-288.0","dhxxfzr9","","<span style=""color:Black; font-size:50px;"">Agent B","null","","","","",""
"null","","","video-keyboard-response","289","742303","0.0-289.0","dhxxfzr9","","","null","","Agent B","scrambled","STIM_SET_3/1592129.bmp_pp153_L3_V2_veridical_freeview_isoFalsemismatch_1159813.bmp_L2_fps90.mp4",""
"","","","call-function","290","742304","0.0-290.0","dhxxfzr9","","","","","","","",""
"1951.3950000000186","{""judgement"":0}","[0]","survey-likert","291","744256","0.0-291.0","dhxxfzr9","","","","","","","","0"
"2533.1650000000373","{""confidence"":2}","[0]","survey-likert","292","746790","0.0-292.0","dhxxfzr9","","","","","","","",""
"","","","call-function","293","746790","0.0-293.0","dhxxfzr9","","","","","","","",""
"null","","","html-keyboard-response","294","748293","0.0-294.0","dhxxfzr9","","<span style=""color:Black; font-size:50px;"">Agent A","null","","","","",""
"null","","","video-keyboard-response","295","751392","0.0-295.0","dhxxfzr9","","","null","","Agent A","scrambled","STIM_SET_3/1592298.bmp_pp56_L3_V2_veridical_freeview_isoFalsemismatch_1593146.bmp_L1_fps90.mp4",""
"null","","","html-keyboard-response","296","752898","0.0-296.0","dhxxfzr9","","<span style=""color:Black; font-size:50px;"">Agent B","null","","","","",""
"null","","","video-keyboard-response","297","756003","0.0-297.0","dhxxfzr9","","","null","","Agent B","veridical","STIM_SET_1_REAL/1593146.bmp_pp93_L1_V1.0_veridical_freeview_isoFalse_fps144.mp4",""
"","","","call-function","298","756003","0.0-298.0","dhxxfzr9","","","","","","","",""
"1951.6799999999348","{""judgement"":1}","[0]","survey-likert","299","757956","0.0-299.0","dhxxfzr9","","","","","","","","1"
"2366.5100000000093","{""confidence"":2}","[0]","survey-likert","300","760324","0.0-300.0","dhxxfzr9","","","","","","","",""
"","","","call-function","301","760324","0.0-301.0","dhxxfzr9","","","","","","","",""
"null","","","html-keyboard-response","302","761826","0.0-302.0","dhxxfzr9","","<span style=""color:Black; font-size:50px;"">Agent A","null","","","","",""
"null","","","video-keyboard-response","303","764935","0.0-303.0","dhxxfzr9","","","null","","Agent A","scrambled","STIM_SET_3/713920.bmp_pp76_L1_V2_veridical_freeview_isoFalsemismatch_713684.bmp_L3_fps90.mp4",""
"null","","","html-keyboard-response","304","766437","0.0-304.0","dhxxfzr9","","<span style=""color:Black; font-size:50px;"">Agent B","null","","","","",""
"null","","","video-keyboard-response","305","769540","0.0-305.0","dhxxfzr9","","","null","","Agent B","veridical","STIM_SET_1_REAL/713684.bmp_pp85_L3_V1.0_veridical_freeview_isoFalse_fps144.mp4",""
"","","","call-function","306","769541","0.0-306.0","dhxxfzr9","","","","","","","",""
"2066.1549999999115","{""judgement"":0}","[0]","survey-likert","307","771608","0.0-307.0","dhxxfzr9","","","","","","","","1"
"2027.8049999999348","{""confidence"":1}","[0]","survey-likert","308","773637","0.0-308.0","dhxxfzr9","","","","","","","",""
"","","","call-function","309","773637","0.0-309.0","dhxxfzr9","","","","","","","",""
"null","","","html-keyboard-response","310","775139","0.0-310.0","dhxxfzr9","","<span style=""color:Black; font-size:50px;"">Agent A","null","","","","",""
"null","","","video-keyboard-response","311","778214","0.0-311.0","dhxxfzr9","","","null","","Agent A","veridical","STIM_SET_1_REAL/498111.bmp_pp88_L2_V1.0_veridical_freeview_isoFalse_fps144.mp4",""
"null","","","html-keyboard-response","312","779717","0.0-312.0","dhxxfzr9","","<span style=""color:Black; font-size:50px;"">Agent B","null","","","","",""
"null","","","video-keyboard-response","313","782788","0.0-313.0","dhxxfzr9","","","null","","Agent B","scrambled","STIM_SET_3/1592350.bmp_pp55_L3_V2_veridical_freeview_isoFalsemismatch_498111.bmp_L2_fps90.mp4",""
"","","","call-function","314","782789","0.0-314.0","dhxxfzr9","","","","","","","",""
"1835.5399999999208","{""judgement"":1}","[0]","survey-likert","315","784625","0.0-315.0","dhxxfzr9","","","","","","","","0"
"1449.6999999999534","{""confidence"":1}","[0]","survey-likert","316","786076","0.0-316.0","dhxxfzr9","","","","","","","",""
"","","","call-function","317","786076","0.0-317.0","dhxxfzr9","","","","","","","",""
"null","","","html-keyboard-response","318","787578","0.0-318.0","dhxxfzr9","","<span style=""color:Black; font-size:50px;"">Agent A","null","","","","",""
"null","","","video-keyboard-response","319","790646","0.0-319.0","dhxxfzr9","","","null","","Agent A","scrambled","STIM_SET_3/1159973.bmp_pp98_L1_V2_veridical_freeview_isoFalsemismatch_285933.bmp_L1_fps90.mp4",""
"null","","","html-keyboard-response","320","792151","0.0-320.0","dhxxfzr9","","<span style=""color:Black; font-size:50px;"">Agent B","null","","","","",""
"null","","","video-keyboard-response","321","795223","0.0-321.0","dhxxfzr9","","","null","","Agent B","veridical","STIM_SET_1_REAL/285933.bmp_pp81_L1_V1.0_veridical_freeview_isoFalse_fps144.mp4",""
"","","","call-function","322","795223","0.0-322.0","dhxxfzr9","","","","","","","",""
"1582.8649999999907","{""judgement"":1}","[0]","survey-likert","323","796807","0.0-323.0","dhxxfzr9","","","","","","","","1"
"2115.3099999999395","{""confidence"":1}","[0]","survey-likert","324","798924","0.0-324.0","dhxxfzr9","","","","","","","",""
"","","","call-function","325","798924","0.0-325.0","dhxxfzr9","","","","","","","",""
"null","","","html-keyboard-response","326","800430","0.0-326.0","dhxxfzr9","","<span style=""color:Black; font-size:50px;"">Agent A","null","","","","",""
"null","","","video-keyboard-response","327","803539","0.0-327.0","dhxxfzr9","","","null","","Agent A","veridical","STIM_SET_1_REAL/713211.bmp_pp100_L3_V1.0_veridical_freeview_isoFalse_fps144.mp4",""
"null","","","html-keyboard-response","328","805042","0.0-328.0","dhxxfzr9","","<span style=""color:Black; font-size:50px;"">Agent B","null","","","","",""
"null","","","video-keyboard-response","329","808142","0.0-329.0","dhxxfzr9","","","null","","Agent B","scrambled","STIM_SET_3/1592921.bmp_pp69_L3_V2_veridical_freeview_isoFalsemismatch_713211.bmp_L3_fps90.mp4",""
"","","","call-function","330","808143","0.0-330.0","dhxxfzr9","","","","","","","",""
"2720.7900000000373","{""judgement"":0}","[0]","survey-likert","331","810864","0.0-331.0","dhxxfzr9","","","","","","","","0"
"2134.935000000056","{""confidence"":2}","[0]","survey-likert","332","813000","0.0-332.0","dhxxfzr9","","","","","","","",""
"162686.005","","","instructions","333","975687","0.0-333.0","dhxxfzr9","[{""page_index"":0,""viewing_time"":880.9450000000652},{""page_index"":1,""viewing_time"":161363.93499999994},{""page_index"":2,""viewing_time"":440.97500000009313}]","","","","","","",""
"1546.4800000000978","","","instructions","334","977234","0.0-334.0","dhxxfzr9","[{""page_index"":0,""viewing_time"":386.50500000000466},{""page_index"":1,""viewing_time"":643.9650000000838},{""page_index"":2,""viewing_time"":515.9099999999162}]","","","","","","",""
"","","","call-function","335","977234","0.0-335.0","dhxxfzr9","","","","","","","",""
"null","","","html-keyboard-response","336","978740","0.0-336.0","dhxxfzr9","","<span style=""color:Black; font-size:50px;"">Agent A","null","","","","",""
"null","","","video-keyboard-response","337","981810","0.0-337.0","dhxxfzr9","","","null","","Agent A","scrambled","STIM_SET_3/1159329.bmp_pp61_L2_V2_veridical_freeview_isoFalsemismatch_1592817.bmp_L3_fps90.mp4",""
"null","","","html-keyboard-response","338","983311","0.0-338.0","dhxxfzr9","","<span style=""color:Black; font-size:50px;"">Agent B","null","","","","",""
"null","","","video-keyboard-response","339","986373","0.0-339.0","dhxxfzr9","","","null","","Agent B","veridical","STIM_SET_1_REAL/1592817.bmp_pp55_L3_V1.0_veridical_freeview_isoFalse_fps144.mp4",""
"","","","call-function","340","986373","0.0-340.0","dhxxfzr9","","","","","","","",""
"2504.1049999999814","{""judgement"":0}","[0]","survey-likert","341","988878","0.0-341.0","dhxxfzr9","","","","","","","","1"
"1858.8350000000792","{""confidence"":1}","[0]","survey-likert","342","990738","0.0-342.0","dhxxfzr9","","","","","","","",""
"","","","call-function","343","990739","0.0-343.0","dhxxfzr9","","","","","","","",""
"null","","","html-keyboard-response","344","992240","0.0-344.0","dhxxfzr9","","<span style=""color:Black; font-size:50px;"">Agent A","null","","","","",""
"null","","","video-keyboard-response","345","995310","0.0-345.0","dhxxfzr9","","","null","","Agent A","veridical","STIM_SET_1_REAL/1592727.bmp_pp59_L3_V1.0_veridical_freeview_isoFalse_fps144.mp4",""
"null","","","html-keyboard-response","346","996814","0.0-346.0","dhxxfzr9","","<span style=""color:Black; font-size:50px;"">Agent B","null","","","","",""
"null","","","video-keyboard-response","347","999889","0.0-347.0","dhxxfzr9","","","null","","Agent B","scrambled","STIM_SET_3/1592038.bmp_pp79_L2_V2_veridical_freeview_isoFalsemismatch_1592727.bmp_L3_fps90.mp4",""
"","","","call-function","348","999890","0.0-348.0","dhxxfzr9","","","","","","","",""
"1469.890000000014","{""judgement"":0}","[0]","survey-likert","349","1001361","0.0-349.0","dhxxfzr9","","","","","","","","0"
"1037.0200000000186","{""confidence"":2}","[0]","survey-likert","350","1002399","0.0-350.0","dhxxfzr9","","","","","","","",""
"","","","call-function","351","1002399","0.0-351.0","dhxxfzr9","","","","","","","",""
"null","","","html-keyboard-response","352","1003904","0.0-352.0","dhxxfzr9","","<span style=""color:Black; font-size:50px;"">Agent A","null","","","","",""
"null","","","video-keyboard-response","353","1006977","0.0-353.0","dhxxfzr9","","","null","","Agent A","veridical","STIM_SET_1_REAL/713760.bmp_pp81_L1_V1.0_veridical_freeview_isoFalse_fps144.mp4",""
"null","","","html-keyboard-response","354","1008482","0.0-354.0","dhxxfzr9","","<span style=""color:Black; font-size:50px;"">Agent B","null","","","","",""
"null","","","video-keyboard-response","355","1011546","0.0-355.0","dhxxfzr9","","","null","","Agent B","scrambled","STIM_SET_3/285684.bmp_pp80_L3_V2_veridical_freeview_isoFalsemismatch_713760.bmp_L1_fps90.mp4",""
"","","","call-function","356","1011546","0.0-356.0","dhxxfzr9","","","","","","","",""
"1832.5","{""judgement"":0}","[0]","survey-likert","357","1013380","0.0-357.0","dhxxfzr9","","","","","","","","0"
"1254.4100000000326","{""confidence"":3}","[0]","survey-likert","358","1014635","0.0-358.0","dhxxfzr9","","","","","","","",""
"","","","call-function","359","1014636","0.0-359.0","dhxxfzr9","","","","","","","",""
"null","","","html-keyboard-response","360","1016142","0.0-360.0","dhxxfzr9","","<span style=""color:Black; font-size:50px;"">Agent A","null","","","","",""
"null","","","video-keyboard-response","361","1019211","0.0-361.0","dhxxfzr9","","","null","","Agent A","veridical","STIM_SET_1_REAL/1159440.bmp_pp98_L1_V1.0_veridical_freeview_isoFalse_fps144.mp4",""
"null","","","html-keyboard-response","362","1020715","0.0-362.0","dhxxfzr9","","<span style=""color:Black; font-size:50px;"">Agent B","null","","","","",""
"null","","","video-keyboard-response","363","1023780","0.0-363.0","dhxxfzr9","","","null","","Agent B","scrambled","STIM_SET_3/713829.bmp_pp60_L3_V2_veridical_freeview_isoFalsemismatch_1159440.bmp_L1_fps90.mp4",""
"","","","call-function","364","1023781","0.0-364.0","dhxxfzr9","","","","","","","",""
"2366.2149999999674","{""judgement"":0}","[0]","survey-likert","365","1026149","0.0-365.0","dhxxfzr9","","","","","","","","0"
"3102.234999999986","{""confidence"":3}","[0]","survey-likert","366","1029252","0.0-366.0","dhxxfzr9","","","","","","","",""
"","","","call-function","367","1029252","0.0-367.0","dhxxfzr9","","","","","","","",""
"null","","","html-keyboard-response","368","1030755","0.0-368.0","dhxxfzr9","","<span style=""color:Black; font-size:50px;"">Agent A","null","","","","",""
"null","","","video-keyboard-response","369","1033842","0.0-369.0","dhxxfzr9","","","null","","Agent A","veridical","STIM_SET_1_REAL/285994.bmp_pp92_L3_V1.0_veridical_freeview_isoFalse_fps144.mp4",""
"null","","","html-keyboard-response","370","1035344","0.0-370.0","dhxxfzr9","","<span style=""color:Black; font-size:50px;"">Agent B","null","","","","",""
"null","","","video-keyboard-response","371","1038446","0.0-371.0","dhxxfzr9","","","null","","Agent B","scrambled","STIM_SET_3/1159592.bmp_pp91_L3_V2_veridical_freeview_isoFalsemismatch_285994.bmp_L3_fps90.mp4",""
"","","","call-function","372","1038446","0.0-372.0","dhxxfzr9","","","","","","","",""
"1723.469999999972","{""judgement"":0}","[0]","survey-likert","373","1040171","0.0-373.0","dhxxfzr9","","","","","","","","0"
"1421.2300000000978","{""confidence"":1}","[0]","survey-likert","374","1041593","0.0-374.0","dhxxfzr9","","","","","","","",""
"","","","call-function","375","1041593","0.0-375.0","dhxxfzr9","","","","","","","",""
"null","","","html-keyboard-response","376","1043100","0.0-376.0","dhxxfzr9","","<span style=""color:Black; font-size:50px;"">Agent A","null","","","","",""
"null","","","video-keyboard-response","377","1046203","0.0-377.0","dhxxfzr9","","","null","","Agent A","veridical","STIM_SET_1_REAL/1159777.bmp_pp77_L3_V1.0_veridical_freeview_isoFalse_fps144.mp4",""
"null","","","html-keyboard-response","378","1047708","0.0-378.0","dhxxfzr9","","<span style=""color:Black; font-size:50px;"">Agent B","null","","","","",""
"null","","","video-keyboard-response","379","1050800","0.0-379.0","dhxxfzr9","","","null","","Agent B","scrambled","STIM_SET_3/1592017.bmp_pp154_L1_V2_veridical_freeview_isoFalsemismatch_1159777.bmp_L3_fps90.mp4",""
"","","","call-function","380","1050800","0.0-380.0","dhxxfzr9","","","","","","","",""
"2297.814999999944","{""judgement"":0}","[0]","survey-likert","381","1053099","0.0-381.0","dhxxfzr9","","","","","","","","0"
"2572.4550000000745","{""confidence"":2}","[0]","survey-likert","382","1055672","0.0-382.0","dhxxfzr9","","","","","","","",""
"","","","call-function","383","1055673","0.0-383.0","dhxxfzr9","","","","","","","",""
"null","","","html-keyboard-response","384","1057176","0.0-384.0","dhxxfzr9","","<span style=""color:Black; font-size:50px;"">Agent A","null","","","","",""
"null","","","video-keyboard-response","385","1060279","0.0-385.0","dhxxfzr9","","","null","","Agent A","veridical","STIM_SET_1_REAL/1591876.bmp_pp63_L1_V1.0_veridical_freeview_isoFalse_fps144.mp4",""
"null","","","html-keyboard-response","386","1061783","0.0-386.0","dhxxfzr9","","<span style=""color:Black; font-size:50px;"">Agent B","null","","","","",""
"null","","","video-keyboard-response","387","1064867","0.0-387.0","dhxxfzr9","","","null","","Agent B","scrambled","STIM_SET_3/1159427.bmp_pp98_L1_V2_veridical_freeview_isoFalsemismatch_1591876.bmp_L1_fps90.mp4",""
"","","","call-function","388","1064868","0.0-388.0","dhxxfzr9","","","","","","","",""
"1649.8999999999069","{""judgement"":0}","[0]","survey-likert","389","1066518","0.0-389.0","dhxxfzr9","","","","","","","","0"
"2580","{""confidence"":0}","[0]","survey-likert","390","1069099","0.0-390.0","dhxxfzr9","","","","","","","",""
"","","","call-function","391","1069100","0.0-391.0","dhxxfzr9","","","","","","","",""
"null","","","html-keyboard-response","392","1070603","0.0-392.0","dhxxfzr9","","<span style=""color:Black; font-size:50px;"">Agent A","null","","","","",""
"null","","","video-keyboard-response","393","1073671","0.0-393.0","dhxxfzr9","","","null","","Agent A","veridical","STIM_SET_1_REAL/713513.bmp_pp62_L2_V1.0_veridical_freeview_isoFalse_fps144.mp4",""
"null","","","html-keyboard-response","394","1075175","0.0-394.0","dhxxfzr9","","<span style=""color:Black; font-size:50px;"">Agent B","null","","","","",""
"null","","","video-keyboard-response","395","1078242","0.0-395.0","dhxxfzr9","","","null","","Agent B","scrambled","STIM_SET_3/1592047.bmp_pp51_L1_V2_veridical_freeview_isoFalsemismatch_713513.bmp_L2_fps90.mp4",""
"","","","call-function","396","1078243","0.0-396.0","dhxxfzr9","","","","","","","",""
"1740.7299999999814","{""judgement"":0}","[0]","survey-likert","397","1079985","0.0-397.0","dhxxfzr9","","","","","","","","0"
"1856.0649999999441","{""confidence"":1}","[0]","survey-likert","398","1081842","0.0-398.0","dhxxfzr9","","","","","","","",""
"","","","call-function","399","1081842","0.0-399.0","dhxxfzr9","","","","","","","",""
"null","","","html-keyboard-response","400","1083347","0.0-400.0","dhxxfzr9","","<span style=""color:Black; font-size:50px;"">Agent A","null","","","","",""
"null","","","video-keyboard-response","401","1086413","0.0-401.0","dhxxfzr9","","","null","","Agent A","scrambled","STIM_SET_3/713689.bmp_pp153_L3_V2_veridical_freeview_isoFalsemismatch_498175.bmp_L1_fps90.mp4",""
"null","","","html-keyboard-response","402","1087917","0.0-402.0","dhxxfzr9","","<span style=""color:Black; font-size:50px;"">Agent B","null","","","","",""
"null","","","video-keyboard-response","403","1090996","0.0-403.0","dhxxfzr9","","","null","","Agent B","veridical","STIM_SET_1_REAL/498175.bmp_pp154_L1_V1.0_veridical_freeview_isoFalse_fps144.mp4",""
"","","","call-function","404","1090996","0.0-404.0","dhxxfzr9","","","","","","","",""
"1903.6000000000931","{""judgement"":1}","[0]","survey-likert","405","1092900","0.0-405.0","dhxxfzr9","","","","","","","","1"
"1480.280000000028","{""confidence"":3}","[0]","survey-likert","406","1094382","0.0-406.0","dhxxfzr9","","","","","","","",""
"","","","call-function","407","1094382","0.0-407.0","dhxxfzr9","","","","","","","",""
"null","","","html-keyboard-response","408","1095888","0.0-408.0","dhxxfzr9","","<span style=""color:Black; font-size:50px;"">Agent A","null","","","","",""
"null","","","video-keyboard-response","409","1098986","0.0-409.0","dhxxfzr9","","","null","","Agent A","scrambled","STIM_SET_3/1592857.bmp_pp52_L1_V2_veridical_freeview_isoFalsemismatch_1160168.bmp_L2_fps90.mp4",""
"null","","","html-keyboard-response","410","1100489","0.0-410.0","dhxxfzr9","","<span style=""color:Black; font-size:50px;"">Agent B","null","","","","",""
"null","","","video-keyboard-response","411","1103598","0.0-411.0","dhxxfzr9","","","null","","Agent B","veridical","STIM_SET_1_REAL/1160168.bmp_pp53_L2_V1.0_veridical_freeview_isoFalse_fps144.mp4",""
"","","","call-function","412","1103599","0.0-412.0","dhxxfzr9","","","","","","","",""
"1994.2299999999814","{""judgement"":1}","[0]","survey-likert","413","1105595","0.0-413.0","dhxxfzr9","","","","","","","","1"
"2261.8300000000745","{""confidence"":2}","[0]","survey-likert","414","1107858","0.0-414.0","dhxxfzr9","","","","","","","",""
"2157.469999999972","","","instructions","415","1110016","0.0-415.0","dhxxfzr9","[{""page_index"":0,""viewing_time"":1002.3799999998882},{""page_index"":1,""viewing_time"":543.8649999999907},{""page_index"":2,""viewing_time"":611.0700000000652}]","","","","","","",""
"1529.4650000000838","","","instructions","416","1111545","0.0-416.0","dhxxfzr9","[{""page_index"":0,""viewing_time"":493.3850000000093},{""page_index"":1,""viewing_time"":573.9899999999907},{""page_index"":2,""viewing_time"":461.9899999999907}]","","","","","","",""
"","","","call-function","417","1111546","0.0-417.0","dhxxfzr9","","","","","","","",""
"null","","","html-keyboard-response","418","1113048","0.0-418.0","dhxxfzr9","","<span style=""color:Black; font-size:50px;"">Agent A","null","","","","",""
"null","","","video-keyboard-response","419","1116147","0.0-419.0","dhxxfzr9","","","null","","Agent A","scrambled","STIM_SET_3/1159508.bmp_pp151_L1_V2_veridical_freeview_isoFalsemismatch_1159675.bmp_L3_fps90.mp4",""
"null","","","html-keyboard-response","420","1117651","0.0-420.0","dhxxfzr9","","<span style=""color:Black; font-size:50px;"">Agent B","null","","","","",""
"null","","","video-keyboard-response","421","1120754","0.0-421.0","dhxxfzr9","","","null","","Agent B","veridical","STIM_SET_1_REAL/1159675.bmp_pp77_L3_V1.0_veridical_freeview_isoFalse_fps144.mp4",""
"","","","call-function","422","1120755","0.0-422.0","dhxxfzr9","","","","","","","",""
"2022.6599999999162","{""judgement"":0}","[0]","survey-likert","423","1122778","0.0-423.0","dhxxfzr9","","","","","","","","1"
"1811.535000000149","{""confidence"":1}","[0]","survey-likert","424","1124591","0.0-424.0","dhxxfzr9","","","","","","","",""
"","","","call-function","425","1124591","0.0-425.0","dhxxfzr9","","","","","","","",""
"null","","","html-keyboard-response","426","1126093","0.0-426.0","dhxxfzr9","","<span style=""color:Black; font-size:50px;"">Agent A","null","","","","",""
"null","","","video-keyboard-response","427","1129167","0.0-427.0","dhxxfzr9","","","null","","Agent A","veridical","STIM_SET_1_REAL/498253.bmp_pp67_L2_V1.0_veridical_freeview_isoFalse_fps144.mp4",""
"null","","","html-keyboard-response","428","1130670","0.0-428.0","dhxxfzr9","","<span style=""color:Black; font-size:50px;"">Agent B","null","","","","",""
"null","","","video-keyboard-response","429","1133748","0.0-429.0","dhxxfzr9","","","null","","Agent B","scrambled","STIM_SET_3/285959.bmp_pp93_L1_V2_veridical_freeview_isoFalsemismatch_498253.bmp_L2_fps90.mp4",""
"","","","call-function","430","1133748","0.0-430.0","dhxxfzr9","","","","","","","",""
"1537.0849999999627","{""judgement"":0}","[0]","survey-likert","431","1135286","0.0-431.0","dhxxfzr9","","","","","","","","0"
"1301.630000000121","{""confidence"":1}","[0]","survey-likert","432","1136589","0.0-432.0","dhxxfzr9","","","","","","","",""
"","","","call-function","433","1136590","0.0-433.0","dhxxfzr9","","","","","","","",""
"null","","","html-keyboard-response","434","1138095","0.0-434.0","dhxxfzr9","","<span style=""color:Black; font-size:50px;"">Agent A","null","","","","",""
"null","","","video-keyboard-response","435","1141160","0.0-435.0","dhxxfzr9","","","null","","Agent A","veridical","STIM_SET_1_REAL/1592619.bmp_pp56_L3_V1.0_veridical_freeview_isoFalse_fps144.mp4",""
"null","","","html-keyboard-response","436","1142662","0.0-436.0","dhxxfzr9","","<span style=""color:Black; font-size:50px;"">Agent B","null","","","","",""
"null","","","video-keyboard-response","437","1145733","0.0-437.0","dhxxfzr9","","","null","","Agent B","scrambled","STIM_SET_3/150463.bmp_pp55_L3_V2_veridical_freeview_isoFalsemismatch_1592619.bmp_L3_fps90.mp4",""
"","","","call-function","438","1145733","0.0-438.0","dhxxfzr9","","","","","","","",""
"2756.5500000000466","{""judgement"":1}","[0]","survey-likert","439","1148491","0.0-439.0","dhxxfzr9","","","","","","","","0"
"1994.339999999851","{""confidence"":1}","[0]","survey-likert","440","1150486","0.0-440.0","dhxxfzr9","","","","","","","",""
"","","","call-function","441","1150487","0.0-441.0","dhxxfzr9","","","","","","","",""
"null","","","html-keyboard-response","442","1151989","0.0-442.0","dhxxfzr9","","<span style=""color:Black; font-size:50px;"">Agent A","null","","","","",""
"null","","","video-keyboard-response","443","1155080","0.0-443.0","dhxxfzr9","","","null","","Agent A","scrambled","STIM_SET_3/61513.bmp_pp75_L1_V2_veridical_freeview_isoFalsemismatch_1159784.bmp_L3_fps90.mp4",""
"null","","","html-keyboard-response","444","1156584","0.0-444.0","dhxxfzr9","","<span style=""color:Black; font-size:50px;"">Agent B","null","","","","",""
"null","","","video-keyboard-response","445","1159686","0.0-445.0","dhxxfzr9","","","null","","Agent B","veridical","STIM_SET_1_REAL/1159784.bmp_pp73_L3_V1.0_veridical_freeview_isoFalse_fps144.mp4",""
"","","","call-function","446","1159686","0.0-446.0","dhxxfzr9","","","","","","","",""
"1547.4199999999255","{""judgement"":1}","[0]","survey-likert","447","1161235","0.0-447.0","dhxxfzr9","","","","","","","","1"
"2099.3850000000093","{""confidence"":3}","[0]","survey-likert","448","1163335","0.0-448.0","dhxxfzr9","","","","","","","",""
"","","","call-function","449","1163335","0.0-449.0","dhxxfzr9","","","","","","","",""
"null","","","html-keyboard-response","450","1164837","0.0-450.0","dhxxfzr9","","<span style=""color:Black; font-size:50px;"">Agent A","null","","","","",""
"null","","","video-keyboard-response","451","1167940","0.0-451.0","dhxxfzr9","","","null","","Agent A","scrambled","STIM_SET_3/1159325.bmp_pp67_L2_V2_veridical_freeview_isoFalsemismatch_1593035.bmp_L2_fps90.mp4",""
"null","","","html-keyboard-response","452","1169443","0.0-452.0","dhxxfzr9","","<span style=""color:Black; font-size:50px;"">Agent B","null","","","","",""
"null","","","video-keyboard-response","453","1172529","0.0-453.0","dhxxfzr9","","","null","","Agent B","veridical","STIM_SET_1_REAL/1593035.bmp_pp94_L2_V1.0_veridical_freeview_isoFalse_fps144.mp4",""
"","","","call-function","454","1172530","0.0-454.0","dhxxfzr9","","","","","","","",""
"2007.530000000028","{""judgement"":0}","[0]","survey-likert","455","1174538","0.0-455.0","dhxxfzr9","","","","","","","","1"
"1127.4550000000745","{""confidence"":1}","[0]","survey-likert","456","1175667","0.0-456.0","dhxxfzr9","","","","","","","",""
"","","","call-function","457","1175667","0.0-457.0","dhxxfzr9","","","","","","","",""
"null","","","html-keyboard-response","458","1177169","0.0-458.0","dhxxfzr9","","<span style=""color:Black; font-size:50px;"">Agent A","null","","","","",""
"null","","","video-keyboard-response","459","1180273","0.0-459.0","dhxxfzr9","","","null","","Agent A","scrambled","STIM_SET_3/498372.bmp_pp95_L2_V2_veridical_freeview_isoFalsemismatch_1160127.bmp_L2_fps90.mp4",""
"null","","","html-keyboard-response","460","1181779","0.0-460.0","dhxxfzr9","","<span style=""color:Black; font-size:50px;"">Agent B","null","","","","",""
"null","","","video-keyboard-response","461","1184883","0.0-461.0","dhxxfzr9","","","null","","Agent B","veridical","STIM_SET_1_REAL/1160127.bmp_pp90_L2_V1.0_veridical_freeview_isoFalse_fps144.mp4",""
"","","","call-function","462","1184883","0.0-462.0","dhxxfzr9","","","","","","","",""
"1615.6200000001118","{""judgement"":1}","[0]","survey-likert","463","1186500","0.0-463.0","dhxxfzr9","","","","","","","","1"
"1868.4299999999348","{""confidence"":2}","[0]","survey-likert","464","1188370","0.0-464.0","dhxxfzr9","","","","","","","",""
"","","","call-function","465","1188370","0.0-465.0","dhxxfzr9","","","","","","","",""
"null","","","html-keyboard-response","466","1189873","0.0-466.0","dhxxfzr9","","<span style=""color:Black; font-size:50px;"">Agent A","null","","","","",""
"null","","","video-keyboard-response","467","1192937","0.0-467.0","dhxxfzr9","","","null","","Agent A","scrambled","STIM_SET_3/498398.bmp_pp81_L1_V2_veridical_freeview_isoFalsemismatch_713620.bmp_L3_fps90.mp4",""
"null","","","html-keyboard-response","468","1194440","0.0-468.0","dhxxfzr9","","<span style=""color:Black; font-size:50px;"">Agent B","null","","","","",""
"null","","","video-keyboard-response","469","1197517","0.0-469.0","dhxxfzr9","","","null","","Agent B","veridical","STIM_SET_1_REAL/713620.bmp_pp65_L3_V1.0_veridical_freeview_isoFalse_fps144.mp4",""
"","","","call-function","470","1197518","0.0-470.0","dhxxfzr9","","","","","","","",""
"1750.3049999999348","{""judgement"":1}","[0]","survey-likert","471","1199269","0.0-471.0","dhxxfzr9","","","","","","","","1"
"1404.1650000000373","{""confidence"":1}","[0]","survey-likert","472","1200674","0.0-472.0","dhxxfzr9","","","","","","","",""
"","","","call-function","473","1200675","0.0-473.0","dhxxfzr9","","","","","","","",""
"null","","","html-keyboard-response","474","1202181","0.0-474.0","dhxxfzr9","","<span style=""color:Black; font-size:50px;"">Agent A","null","","","","",""
"null","","","video-keyboard-response","475","1205244","0.0-475.0","dhxxfzr9","","","null","","Agent A","veridical","STIM_SET_1_REAL/1159446.bmp_pp60_L3_V1.0_veridical_freeview_isoFalse_fps144.mp4",""
"null","","","html-keyboard-response","476","1206747","0.0-476.0","dhxxfzr9","","<span style=""color:Black; font-size:50px;"">Agent B","null","","","","",""
"null","","","video-keyboard-response","477","1209810","0.0-477.0","dhxxfzr9","","","null","","Agent B","scrambled","STIM_SET_3/1592044.bmp_pp94_L2_V2_veridical_freeview_isoFalsemismatch_1159446.bmp_L3_fps90.mp4",""
"","","","call-function","478","1209811","0.0-478.0","dhxxfzr9","","","","","","","",""
"2588.3950000000186","{""judgement"":0}","[0]","survey-likert","479","1212400","0.0-479.0","dhxxfzr9","","","","","","","","0"
"1360.9799999999814","{""confidence"":1}","[0]","survey-likert","480","1213762","0.0-480.0","dhxxfzr9","","","","","","","",""
"","","","call-function","481","1213762","0.0-481.0","dhxxfzr9","","","","","","","",""
"null","","","html-keyboard-response","482","1215266","0.0-482.0","dhxxfzr9","","<span style=""color:Black; font-size:50px;"">Agent A","null","","","","",""
"null","","","video-keyboard-response","483","1218373","0.0-483.0","dhxxfzr9","","","null","","Agent A","veridical","STIM_SET_1_REAL/1593041.bmp_pp58_L1_V1.0_veridical_freeview_isoFalse_fps144.mp4",""
"null","","","html-keyboard-response","484","1219874","0.0-484.0","dhxxfzr9","","<span style=""color:Black; font-size:50px;"">Agent B","null","","","","",""
"null","","","video-keyboard-response","485","1222976","0.0-485.0","dhxxfzr9","","","null","","Agent B","scrambled","STIM_SET_3/1591781.bmp_pp63_L1_V2_veridical_freeview_isoFalsemismatch_1593041.bmp_L1_fps90.mp4",""
"","","","call-function","486","1222977","0.0-486.0","dhxxfzr9","","","","","","","",""
"2057.3300000000745","{""judgement"":0}","[0]","survey-likert","487","1225035","0.0-487.0","dhxxfzr9","","","","","","","","0"
"1126.8300000000745","{""confidence"":2}","[0]","survey-likert","488","1226163","0.0-488.0","dhxxfzr9","","","","","","","",""
"","","","call-function","489","1226164","0.0-489.0","dhxxfzr9","","","","","","","",""
"null","","","html-keyboard-response","490","1227666","0.0-490.0","dhxxfzr9","","<span style=""color:Black; font-size:50px;"">Agent A","null","","","","",""
"null","","","video-keyboard-response","491","1230762","0.0-491.0","dhxxfzr9","","","null","","Agent A","veridical","STIM_SET_1_REAL/1592133.bmp_pp75_L1_V1.0_veridical_freeview_isoFalse_fps144.mp4",""
"null","","","html-keyboard-response","492","1232264","0.0-492.0","dhxxfzr9","","<span style=""color:Black; font-size:50px;"">Agent B","null","","","","",""
"null","","","video-keyboard-response","493","1235369","0.0-493.0","dhxxfzr9","","","null","","Agent B","scrambled","STIM_SET_3/1160247.bmp_pp54_L2_V2_veridical_freeview_isoFalsemismatch_1592133.bmp_L1_fps90.mp4",""
"","","","call-function","494","1235370","0.0-494.0","dhxxfzr9","","","","","","","",""
"1793.6350000000093","{""judgement"":0}","[0]","survey-likert","495","1237164","0.0-495.0","dhxxfzr9","","","","","","","","0"
"2032.2099999999627","{""confidence"":3}","[0]","survey-likert","496","1239198","0.0-496.0","dhxxfzr9","","","","","","","",""
"10280.590000000084","","","instructions","497","1249479","0.0-497.0","dhxxfzr9","[{""page_index"":0,""viewing_time"":1184.6049999999814},{""page_index"":1,""viewing_time"":8356.040000000037},{""page_index"":2,""viewing_time"":739.7900000000373}]","","","","","","",""
"1596.4550000000745","","","instructions","498","1251076","0.0-498.0","dhxxfzr9","[{""page_index"":0,""viewing_time"":541.5700000000652},{""page_index"":1,""viewing_time"":602.1450000000186},{""page_index"":2,""viewing_time"":452.6400000001304}]","","","","","","",""
"","","","call-function","499","1251076","0.0-499.0","dhxxfzr9","","","","","","","",""
"null","","","html-keyboard-response","500","1252578","0.0-500.0","dhxxfzr9","","<span style=""color:Black; font-size:50px;"">Agent A","null","","","","",""
"null","","","video-keyboard-response","501","1255668","0.0-501.0","dhxxfzr9","","","null","","Agent A","scrambled","STIM_SET_3/498326.bmp_pp57_L1_V2_veridical_freeview_isoFalsemismatch_1592286.bmp_L1_fps90.mp4",""
"null","","","html-keyboard-response","502","1257172","0.0-502.0","dhxxfzr9","","<span style=""color:Black; font-size:50px;"">Agent B","null","","","","",""
"null","","","video-keyboard-response","503","1260240","0.0-503.0","dhxxfzr9","","","null","","Agent B","veridical","STIM_SET_1_REAL/1592286.bmp_pp52_L1_V1.0_veridical_freeview_isoFalse_fps144.mp4",""
"","","","call-function","504","1260241","0.0-504.0","dhxxfzr9","","","","","","","",""
"2005.594999999972","{""judgement"":1}","[0]","survey-likert","505","1262247","0.0-505.0","dhxxfzr9","","","","","","","","1"
"1184.5349999999162","{""confidence"":1}","[0]","survey-likert","506","1263433","0.0-506.0","dhxxfzr9","","","","","","","",""
"","","","call-function","507","1263433","0.0-507.0","dhxxfzr9","","","","","","","",""
"null","","","html-keyboard-response","508","1264934","0.0-508.0","dhxxfzr9","","<span style=""color:Black; font-size:50px;"">Agent A","null","","","","",""
"null","","","video-keyboard-response","509","1267998","0.0-509.0","dhxxfzr9","","","null","","Agent A","scrambled","STIM_SET_3/1159392.bmp_pp96_L2_V2_veridical_freeview_isoFalsemismatch_1592934.bmp_L1_fps90.mp4",""
"null","","","html-keyboard-response","510","1269505","0.0-510.0","dhxxfzr9","","<span style=""color:Black; font-size:50px;"">Agent B","null","","","","",""
"null","","","video-keyboard-response","511","1272574","0.0-511.0","dhxxfzr9","","","null","","Agent B","veridical","STIM_SET_1_REAL/1592934.bmp_pp63_L1_V1.0_veridical_freeview_isoFalse_fps144.mp4",""
"","","","call-function","512","1272574","0.0-512.0","dhxxfzr9","","","","","","","",""
"2853.1700000001583","{""judgement"":0}","[0]","survey-likert","513","1275429","0.0-513.0","dhxxfzr9","","","","","","","","1"
"2119.6750000000466","{""confidence"":0}","[0]","survey-likert","514","1277551","0.0-514.0","dhxxfzr9","","","","","","","",""
"","","","call-function","515","1277552","0.0-515.0","dhxxfzr9","","","","","","","",""
"null","","","html-keyboard-response","516","1279055","0.0-516.0","dhxxfzr9","","<span style=""color:Black; font-size:50px;"">Agent A","null","","","","",""
"null","","","video-keyboard-response","517","1282129","0.0-517.0","dhxxfzr9","","","null","","Agent A","scrambled","STIM_SET_3/713381.bmp_pp82_L2_V2_veridical_freeview_isoFalsemismatch_1159572.bmp_L1_fps90.mp4",""
"null","","","html-keyboard-response","518","1283634","0.0-518.0","dhxxfzr9","","<span style=""color:Black; font-size:50px;"">Agent B","null","","","","",""
"null","","","video-keyboard-response","519","1286698","0.0-519.0","dhxxfzr9","","","null","","Agent B","veridical","STIM_SET_1_REAL/1159572.bmp_pp71_L1_V1.0_veridical_freeview_isoFalse_fps144.mp4",""
"","","","call-function","520","1286699","0.0-520.0","dhxxfzr9","","","","","","","",""
"1678.4849999998696","{""judgement"":1}","[0]","survey-likert","521","1288378","0.0-521.0","dhxxfzr9","","","","","","","","1"
"912.4950000001118","{""confidence"":1}","[0]","survey-likert","522","1289292","0.0-522.0","dhxxfzr9","","","","","","","",""
"","","","call-function","523","1289293","0.0-523.0","dhxxfzr9","","","","","","","",""
"null","","","html-keyboard-response","524","1290796","0.0-524.0","dhxxfzr9","","<span style=""color:Black; font-size:50px;"">Agent A","null","","","","",""
"null","","","video-keyboard-response","525","1293878","0.0-525.0","dhxxfzr9","","","null","","Agent A","veridical","STIM_SET_1_REAL/1592804.bmp_pp91_L3_V1.0_veridical_freeview_isoFalse_fps144.mp4",""
"null","","","html-keyboard-response","526","1295382","0.0-526.0","dhxxfzr9","","<span style=""color:Black; font-size:50px;"">Agent B","null","","","","",""
"null","","","video-keyboard-response","527","1298446","0.0-527.0","dhxxfzr9","","","null","","Agent B","scrambled","STIM_SET_3/1591920.bmp_pp97_L3_V2_veridical_freeview_isoFalsemismatch_1592804.bmp_L3_fps90.mp4",""
"","","","call-function","528","1298446","0.0-528.0","dhxxfzr9","","","","","","","",""
"1983.0449999999255","{""judgement"":0}","[0]","survey-likert","529","1300430","0.0-529.0","dhxxfzr9","","","","","","","","0"
"1961.9499999999534","{""confidence"":1}","[0]","survey-likert","530","1302393","0.0-530.0","dhxxfzr9","","","","","","","",""
"","","","call-function","531","1302394","0.0-531.0","dhxxfzr9","","","","","","","",""
"null","","","html-keyboard-response","532","1303897","0.0-532.0","dhxxfzr9","","<span style=""color:Black; font-size:50px;"">Agent A","null","","","","",""
"null","","","video-keyboard-response","533","1307002","0.0-533.0","dhxxfzr9","","","null","","Agent A","scrambled","STIM_SET_3/107909.bmp_pp95_L2_V2_veridical_freeview_isoFalsemismatch_1592372.bmp_L1_fps90.mp4",""
"null","","","html-keyboard-response","534","1308507","0.0-534.0","dhxxfzr9","","<span style=""color:Black; font-size:50px;"">Agent B","null","","","","",""
"null","","","video-keyboard-response","535","1311608","0.0-535.0","dhxxfzr9","","","null","","Agent B","veridical","STIM_SET_1_REAL/1592372.bmp_pp76_L1_V1.0_veridical_freeview_isoFalse_fps144.mp4",""
"","","","call-function","536","1311608","0.0-536.0","dhxxfzr9","","","","","","","",""
"1379.3149999999441","{""judgement"":1}","[0]","survey-likert","537","1312989","0.0-537.0","dhxxfzr9","","","","","","","","1"
"1171.8649999999907","{""confidence"":1}","[0]","survey-likert","538","1314162","0.0-538.0","dhxxfzr9","","","","","","","",""
"","","","call-function","539","1314162","0.0-539.0","dhxxfzr9","","","","","","","",""
"null","","","html-keyboard-response","540","1315663","0.0-540.0","dhxxfzr9","","<span style=""color:Black; font-size:50px;"">Agent A","null","","","","",""
"null","","","video-keyboard-response","541","1318751","0.0-541.0","dhxxfzr9","","","null","","Agent A","scrambled","STIM_SET_3/1591975.bmp_pp88_L2_V2_veridical_freeview_isoFalsemismatch_713017.bmp_L2_fps90.mp4",""
"null","","","html-keyboard-response","542","1320257","0.0-542.0","dhxxfzr9","","<span style=""color:Black; font-size:50px;"">Agent B","null","","","","",""
"null","","","video-keyboard-response","543","1323356","0.0-543.0","dhxxfzr9","","","null","","Agent B","veridical","STIM_SET_1_REAL/713017.bmp_pp152_L2_V1.0_veridical_freeview_isoFalse_fps144.mp4",""
"","","","call-function","544","1323356","0.0-544.0","dhxxfzr9","","","","","","","",""
"3589.905000000028","{""judgement"":1}","[0]","survey-likert","545","1326947","0.0-545.0","dhxxfzr9","","","","","","","","1"
"1592.9799999999814","{""confidence"":3}","[0]","survey-likert","546","1328541","0.0-546.0","dhxxfzr9","","","","","","","",""
"","","","call-function","547","1328542","0.0-547.0","dhxxfzr9","","","","","","","",""
"null","","","html-keyboard-response","548","1330044","0.0-548.0","dhxxfzr9","","<span style=""color:Black; font-size:50px;"">Agent A","null","","","","",""
"null","","","video-keyboard-response","549","1333141","0.0-549.0","dhxxfzr9","","","null","","Agent A","scrambled","STIM_SET_3/1592567.bmp_pp70_L2_V2_veridical_freeview_isoFalsemismatch_713135.bmp_L2_fps90.mp4",""
"null","","","html-keyboard-response","550","1334646","0.0-550.0","dhxxfzr9","","<span style=""color:Black; font-size:50px;"">Agent B","null","","","","",""
"null","","","video-keyboard-response","551","1337753","0.0-551.0","dhxxfzr9","","","null","","Agent B","veridical","STIM_SET_1_REAL/713135.bmp_pp54_L2_V1.0_veridical_freeview_isoFalse_fps144.mp4",""
"","","","call-function","552","1337753","0.0-552.0","dhxxfzr9","","","","","","","",""
"2276.899999999907","{""judgement"":1}","[0]","survey-likert","553","1340032","0.0-553.0","dhxxfzr9","","","","","","","","1"
"1330.0749999999534","{""confidence"":0}","[0]","survey-likert","554","1341363","0.0-554.0","dhxxfzr9","","","","","","","",""
"","","","call-function","555","1341363","0.0-555.0","dhxxfzr9","","","","","","","",""
"null","","","html-keyboard-response","556","1342865","0.0-556.0","dhxxfzr9","","<span style=""color:Black; font-size:50px;"">Agent A","null","","","","",""
"null","","","video-keyboard-response","557","1345935","0.0-557.0","dhxxfzr9","","","null","","Agent A","scrambled","STIM_SET_3/713788.bmp_pp52_L1_V2_veridical_freeview_isoFalsemismatch_1159768.bmp_L1_fps90.mp4",""
"null","","","html-keyboard-response","558","1347436","0.0-558.0","dhxxfzr9","","<span style=""color:Black; font-size:50px;"">Agent B","null","","","","",""
"null","","","video-keyboard-response","559","1350505","0.0-559.0","dhxxfzr9","","","null","","Agent B","veridical","STIM_SET_1_REAL/1159768.bmp_pp89_L1_V1.0_veridical_freeview_isoFalse_fps144.mp4",""
"","","","call-function","560","1350505","0.0-560.0","dhxxfzr9","","","","","","","",""
"1188.5600000000559","{""judgement"":0}","[0]","survey-likert","561","1351695","0.0-561.0","dhxxfzr9","","","","","","","","1"
"1471.8200000000652","{""confidence"":1}","[0]","survey-likert","562","1353168","0.0-562.0","dhxxfzr9","","","","","","","",""
"","","","call-function","563","1353168","0.0-563.0","dhxxfzr9","","","","","","","",""
"null","","","html-keyboard-response","564","1354671","0.0-564.0","dhxxfzr9","","<span style=""color:Black; font-size:50px;"">Agent A","null","","","","",""
"null","","","video-keyboard-response","565","1357735","0.0-565.0","dhxxfzr9","","","null","","Agent A","veridical","STIM_SET_1_REAL/497950.bmp_pp151_L1_V1.0_veridical_freeview_isoFalse_fps144.mp4",""
"null","","","html-keyboard-response","566","1359242","0.0-566.0","dhxxfzr9","","<span style=""color:Black; font-size:50px;"">Agent B","null","","","","",""
"null","","","video-keyboard-response","567","1362312","0.0-567.0","dhxxfzr9","","","null","","Agent B","scrambled","STIM_SET_3/713274.bmp_pp73_L3_V2_veridical_freeview_isoFalsemismatch_497950.bmp_L1_fps90.mp4",""
"","","","call-function","568","1362312","0.0-568.0","dhxxfzr9","","","","","","","",""
"1485.125","{""judgement"":0}","[0]","survey-likert","569","1363798","0.0-569.0","dhxxfzr9","","","","","","","","0"
"1719.3700000001118","{""confidence"":2}","[0]","survey-likert","570","1365519","0.0-570.0","dhxxfzr9","","","","","","","",""
"","","","call-function","571","1365519","0.0-571.0","dhxxfzr9","","","","","","","",""
"null","","","html-keyboard-response","572","1367023","0.0-572.0","dhxxfzr9","","<span style=""color:Black; font-size:50px;"">Agent A","null","","","","",""
"null","","","video-keyboard-response","573","1370113","0.0-573.0","dhxxfzr9","","","null","","Agent A","scrambled","STIM_SET_3/1592150.bmp_pp77_L3_V2_veridical_freeview_isoFalsemismatch_1159447.bmp_L2_fps90.mp4",""
"null","","","html-keyboard-response","574","1371615","0.0-574.0","dhxxfzr9","","<span style=""color:Black; font-size:50px;"">Agent B","null","","","","",""
"null","","","video-keyboard-response","575","1374705","0.0-575.0","dhxxfzr9","","","null","","Agent B","veridical","STIM_SET_1_REAL/1159447.bmp_pp70_L2_V1.0_veridical_freeview_isoFalse_fps144.mp4",""
"","","","call-function","576","1374706","0.0-576.0","dhxxfzr9","","","","","","","",""
"1222.6750000000466","{""judgement"":1}","[0]","survey-likert","577","1375929","0.0-577.0","dhxxfzr9","","","","","","","","1"
"1867.594999999972","{""confidence"":2}","[0]","survey-likert","578","1377798","0.0-578.0","dhxxfzr9","","","","","","","",""
"1140.7399999999907","","","instructions","579","1378939","0.0-579.0","dhxxfzr9","[{""page_index"":0,""viewing_time"":1140.6099999998696}]","","","","","","",""
"1020.3899999998976","","","instructions","580","1379960","0.0-580.0","dhxxfzr9","[{""page_index"":0,""viewing_time"":1020.2900000000373}]","","","","","","",""
"4639.334999999963","{""post-1"":2}","[0]","survey-likert","581","1384601","0.0-581.0","dhxxfzr9","","","","","","","",""
"6588.915000000037","{""post-1"":0}","[0]","survey-likert","582","1391192","0.0-582.0","dhxxfzr9","","","","","","","",""
"5097.9550000000745","{""post-2"":1}","[0]","survey-likert","583","1396292","0.0-583.0","dhxxfzr9","","","","","","","",""
"2666.179999999935","{""post-2"":0}","[0]","survey-likert","584","1398961","0.0-584.0","dhxxfzr9","","","","","","","",""
"3564.6999999999534","{""post-3"":1}","[0]","survey-likert","585","1402527","0.0-585.0","dhxxfzr9","","","","","","","",""
"1576.315000000177","{""post-3"":0}","[0]","survey-likert","586","1404105","0.0-586.0","dhxxfzr9","","","","","","","",""
"3530.844999999972","{""post-4"":1}","[0]","survey-likert","587","1407637","0.0-587.0","dhxxfzr9","","","","","","","",""
"2693.3649999999907","{""post-4"":0}","[0]","survey-likert","588","1410331","0.0-588.0","dhxxfzr9","","","","","","","",""
"3097.035000000149","{""post-5"":0}","[0]","survey-likert","589","1413430","0.0-589.0","dhxxfzr9","","","","","","","",""
"2862.654999999795","{""post-5"":2}","[0]","survey-likert","590","1416293","0.0-590.0","dhxxfzr9","","","","","","","",""
"1821.3700000001118","{""Q0"":""""}","","survey-text","591","1418120","0.0-591.0","dhxxfzr9","","","","","","","",""
"27685.08999999985","{""Q0"":""if i felt like i was avoiding looking at the \""main idea\"" of the picture, I tended to assume it was not a human.""}","","survey-text","592","1445808","0.0-592.0","dhxxfzr9","","","","","","","",""
"1035.9299999999348","{""Q0"":""""}","","survey-text","593","1446847","0.0-593.0","dhxxfzr9","","","","","","","",""
"1170.8900000001304","","","instructions","594","1448018","0.0-594.0","dhxxfzr9","[{""page_index"":0,""viewing_time"":1170.7600000000093}]","","","","","","",""
"209508.89000000013","{""Experimenter_end"":[""Printed ID# dhxxfzr9 on consent form"",""Given subject SONA credit or payment"",""Given the subject debrief form""]}","[0]","survey-multi-select","595","1657530","0.0-595.0","dhxxfzr9","","","","","","","",""
