"rt","responses","question_order","trial_type","trial_index","time_elapsed","internal_node_id","ID","view_history","stimulus","key_press","value","agent","condition","image","correct_answer"
"10967.66","{""Experimenter"":[""Confirmed subject's identity (ID card)"",""Confirmed normal or corrected-to-normal vision"",""Obtained consent (signature and date)"",""Checked the test room lighting"",""Checked computer screen lighting"",""Checked distance from screen to chin rest (50cm)"",""Cleaned and adjusted chin rest"",""Counterbalanced the order of the tasks"",""Opened the experiment in Firefox"",""Made the experiment full screen"",""Encouraged subject to silence phone, put away distractors, etc.""]}","[0]","survey-multi-select","0","10976","0.0-0.0","e1pueloc","","","","","","","",""
"129349.63","","","instructions","1","140328","0.0-1.0","e1pueloc","[{""page_index"":0,""viewing_time"":129349.48000000001}]","","","","","","",""
"6624.084999999992","","","instructions","2","146954","0.0-2.0","e1pueloc","[{""page_index"":0,""viewing_time"":1395.4899999999907},{""page_index"":1,""viewing_time"":3003.484999999986},{""page_index"":2,""viewing_time"":2224.9649999999965}]","","","","","","",""
"2026.054999999993","","","instructions","3","148981","0.0-3.0","e1pueloc","[{""page_index"":0,""viewing_time"":2025.9500000000116}]","","","","","","",""
"null","","","video-keyboard-response","4","152056","0.0-4.0","e1pueloc","","","null","","","","",""
"14603.10500000001","","","instructions","5","166660","0.0-5.0","e1pueloc","[{""page_index"":0,""viewing_time"":3788.085000000021},{""page_index"":1,""viewing_time"":2682},{""page_index"":2,""viewing_time"":918.9899999999907},{""page_index"":3,""viewing_time"":3629.8850000000093},{""page_index"":4,""viewing_time"":3584.0199999999895}]","","","","","","",""
"2508.3649999999907","","","instructions","6","169170","0.0-6.0","e1pueloc","[{""page_index"":0,""viewing_time"":2508.2299999999814}]","","","","","","",""
"","","","call-function","7","169171","0.0-7.0","e1pueloc","","","","","","","",""
"null","","","html-keyboard-response","8","170677","0.0-8.0","e1pueloc","","<span style=""color:Black; font-size:50px;"">Agent A","null","","","","",""
"null","","","video-keyboard-response","9","173759","0.0-9.0","e1pueloc","","","null","","Agent A","scrambled","STIM_SET_3/1592857.bmp_pp52_L1_V2_veridical_freeview_isoFalsemismatch_1160168.bmp_L2_fps90.mp4",""
"null","","","html-keyboard-response","10","175266","0.0-10.0","e1pueloc","","<span style=""color:Black; font-size:50px;"">Agent B","null","","","","",""
"null","","","video-keyboard-response","11","178335","0.0-11.0","e1pueloc","","","null","","Agent B","veridical","STIM_SET_1_REAL/1160168.bmp_pp53_L2_V1.0_veridical_freeview_isoFalse_fps144.mp4",""
"","","","call-function","12","178337","0.0-12.0","e1pueloc","","","","","","","",""
"1363.2250000000058","{""judgement"":1}","[0]","survey-likert","13","179701","0.0-13.0","e1pueloc","","","","","","","","1"
"1239.5899999999965","{""confidence"":2}","[0]","survey-likert","14","180942","0.0-14.0","e1pueloc","","","","","","","",""
"","","","call-function","15","180943","0.0-15.0","e1pueloc","","","","","","","",""
"null","","","html-keyboard-response","16","182446","0.0-16.0","e1pueloc","","<span style=""color:Black; font-size:50px;"">Agent A","null","","","","",""
"null","","","video-keyboard-response","17","185516","0.0-17.0","e1pueloc","","","null","","Agent A","veridical","STIM_SET_1_REAL/1159829.bmp_pp91_L3_V1.0_veridical_freeview_isoFalse_fps144.mp4",""
"null","","","html-keyboard-response","18","187018","0.0-18.0","e1pueloc","","<span style=""color:Black; font-size:50px;"">Agent B","null","","","","",""
"null","","","video-keyboard-response","19","190126","0.0-19.0","e1pueloc","","","null","","Agent B","scrambled","STIM_SET_3/1159956.bmp_pp59_L3_V2_veridical_freeview_isoFalsemismatch_1159829.bmp_L3_fps90.mp4",""
"","","","call-function","20","190127","0.0-20.0","e1pueloc","","","","","","","",""
"2522.2399999999907","{""judgement"":0}","[0]","survey-likert","21","192652","0.0-21.0","e1pueloc","","","","","","","","0"
"2060.0199999999895","{""confidence"":1}","[0]","survey-likert","22","194713","0.0-22.0","e1pueloc","","","","","","","",""
"","","","call-function","23","194714","0.0-23.0","e1pueloc","","","","","","","",""
"null","","","html-keyboard-response","24","196219","0.0-24.0","e1pueloc","","<span style=""color:Black; font-size:50px;"">Agent A","null","","","","",""
"null","","","video-keyboard-response","25","199327","0.0-25.0","e1pueloc","","","null","","Agent A","scrambled","STIM_SET_3/1592150.bmp_pp77_L3_V2_veridical_freeview_isoFalsemismatch_1159447.bmp_L2_fps90.mp4",""
"null","","","html-keyboard-response","26","200829","0.0-26.0","e1pueloc","","<span style=""color:Black; font-size:50px;"">Agent B","null","","","","",""
"null","","","video-keyboard-response","27","203920","0.0-27.0","e1pueloc","","","null","","Agent B","veridical","STIM_SET_1_REAL/1159447.bmp_pp70_L2_V1.0_veridical_freeview_isoFalse_fps144.mp4",""
"","","","call-function","28","203921","0.0-28.0","e1pueloc","","","","","","","",""
"1283.2000000000116","{""judgement"":1}","[0]","survey-likert","29","205205","0.0-29.0","e1pueloc","","","","","","","","1"
"1388.0149999999849","{""confidence"":2}","[0]","survey-likert","30","206595","0.0-30.0","e1pueloc","","","","","","","",""
"","","","call-function","31","206596","0.0-31.0","e1pueloc","","","","","","","",""
"null","","","html-keyboard-response","32","208098","0.0-32.0","e1pueloc","","<span style=""color:Black; font-size:50px;"">Agent A","null","","","","",""
"null","","","video-keyboard-response","33","211189","0.0-33.0","e1pueloc","","","null","","Agent A","veridical","STIM_SET_1_REAL/498170.bmp_pp153_L3_V1.0_veridical_freeview_isoFalse_fps144.mp4",""
"null","","","html-keyboard-response","34","212692","0.0-34.0","e1pueloc","","<span style=""color:Black; font-size:50px;"">Agent B","null","","","","",""
"null","","","video-keyboard-response","35","215784","0.0-35.0","e1pueloc","","","null","","Agent B","scrambled","STIM_SET_3/713742.bmp_pp91_L3_V2_veridical_freeview_isoFalsemismatch_498170.bmp_L3_fps90.mp4",""
"","","","call-function","36","215785","0.0-36.0","e1pueloc","","","","","","","",""
"1772.929999999993","{""judgement"":0}","[0]","survey-likert","37","217558","0.0-37.0","e1pueloc","","","","","","","","0"
"6839.235000000015","{""confidence"":2}","[0]","survey-likert","38","224399","0.0-38.0","e1pueloc","","","","","","","",""
"","","","call-function","39","224400","0.0-39.0","e1pueloc","","","","","","","",""
"null","","","html-keyboard-response","40","225903","0.0-40.0","e1pueloc","","<span style=""color:Black; font-size:50px;"">Agent A","null","","","","",""
"null","","","video-keyboard-response","41","229017","0.0-41.0","e1pueloc","","","null","","Agent A","scrambled","STIM_SET_3/150277.bmp_pp65_L3_V2_veridical_freeview_isoFalsemismatch_1592362.bmp_L2_fps90.mp4",""
"null","","","html-keyboard-response","42","230520","0.0-42.0","e1pueloc","","<span style=""color:Black; font-size:50px;"">Agent B","null","","","","",""
"null","","","video-keyboard-response","43","233610","0.0-43.0","e1pueloc","","","null","","Agent B","veridical","STIM_SET_1_REAL/1592362.bmp_pp95_L2_V1.0_veridical_freeview_isoFalse_fps144.mp4",""
"","","","call-function","44","233612","0.0-44.0","e1pueloc","","","","","","","",""
"3031.2050000000163","{""judgement"":0}","[0]","survey-likert","45","236644","0.0-45.0","e1pueloc","","","","","","","","1"
"2765.625","{""confidence"":2}","[0]","survey-likert","46","239411","0.0-46.0","e1pueloc","","","","","","","",""
"","","","call-function","47","239412","0.0-47.0","e1pueloc","","","","","","","",""
"null","","","html-keyboard-response","48","240915","0.0-48.0","e1pueloc","","<span style=""color:Black; font-size:50px;"">Agent A","null","","","","",""
"null","","","video-keyboard-response","49","244007","0.0-49.0","e1pueloc","","","null","","Agent A","scrambled","STIM_SET_3/285959.bmp_pp93_L1_V2_veridical_freeview_isoFalsemismatch_498253.bmp_L2_fps90.mp4",""
"null","","","html-keyboard-response","50","245512","0.0-50.0","e1pueloc","","<span style=""color:Black; font-size:50px;"">Agent B","null","","","","",""
"null","","","video-keyboard-response","51","248592","0.0-51.0","e1pueloc","","","null","","Agent B","veridical","STIM_SET_1_REAL/498253.bmp_pp67_L2_V1.0_veridical_freeview_isoFalse_fps144.mp4",""
"","","","call-function","52","248594","0.0-52.0","e1pueloc","","","","","","","",""
"2878.9349999999977","{""judgement"":1}","[0]","survey-likert","53","251475","0.0-53.0","e1pueloc","","","","","","","","1"
"7234.850000000006","{""confidence"":3}","[0]","survey-likert","54","258712","0.0-54.0","e1pueloc","","","","","","","",""
"","","","call-function","55","258714","0.0-55.0","e1pueloc","","","","","","","",""
"null","","","html-keyboard-response","56","260216","0.0-56.0","e1pueloc","","<span style=""color:Black; font-size:50px;"">Agent A","null","","","","",""
"null","","","video-keyboard-response","57","263293","0.0-57.0","e1pueloc","","","null","","Agent A","veridical","STIM_SET_1_REAL/1159675.bmp_pp77_L3_V1.0_veridical_freeview_isoFalse_fps144.mp4",""
"null","","","html-keyboard-response","58","264797","0.0-58.0","e1pueloc","","<span style=""color:Black; font-size:50px;"">Agent B","null","","","","",""
"null","","","video-keyboard-response","59","267881","0.0-59.0","e1pueloc","","","null","","Agent B","scrambled","STIM_SET_3/1159508.bmp_pp151_L1_V2_veridical_freeview_isoFalsemismatch_1159675.bmp_L3_fps90.mp4",""
"","","","call-function","60","267882","0.0-60.0","e1pueloc","","","","","","","",""
"1716.484999999986","{""judgement"":0}","[0]","survey-likert","61","269599","0.0-61.0","e1pueloc","","","","","","","","0"
"1321.009999999951","{""confidence"":3}","[0]","survey-likert","62","270922","0.0-62.0","e1pueloc","","","","","","","",""
"","","","call-function","63","270923","0.0-63.0","e1pueloc","","","","","","","",""
"null","","","html-keyboard-response","64","272428","0.0-64.0","e1pueloc","","<span style=""color:Black; font-size:50px;"">Agent A","null","","","","",""
"null","","","video-keyboard-response","65","275515","0.0-65.0","e1pueloc","","","null","","Agent A","scrambled","STIM_SET_3/107955.bmp_pp90_L2_V2_veridical_freeview_isoFalsemismatch_498149.bmp_L2_fps90.mp4",""
"null","","","html-keyboard-response","66","277018","0.0-66.0","e1pueloc","","<span style=""color:Black; font-size:50px;"">Agent B","null","","","","",""
"null","","","video-keyboard-response","67","280082","0.0-67.0","e1pueloc","","","null","","Agent B","veridical","STIM_SET_1_REAL/498149.bmp_pp99_L2_V1.0_veridical_freeview_isoFalse_fps144.mp4",""
"","","","call-function","68","280083","0.0-68.0","e1pueloc","","","","","","","",""
"1428.0499999999884","{""judgement"":1}","[0]","survey-likert","69","281512","0.0-69.0","e1pueloc","","","","","","","","1"
"1474.274999999965","{""confidence"":3}","[0]","survey-likert","70","282988","0.0-70.0","e1pueloc","","","","","","","",""
"","","","call-function","71","282989","0.0-71.0","e1pueloc","","","","","","","",""
"null","","","html-keyboard-response","72","284492","0.0-72.0","e1pueloc","","<span style=""color:Black; font-size:50px;"">Agent A","null","","","","",""
"null","","","video-keyboard-response","73","287591","0.0-73.0","e1pueloc","","","null","","Agent A","veridical","STIM_SET_1_REAL/713796.bmp_pp84_L3_V1.0_veridical_freeview_isoFalse_fps144.mp4",""
"null","","","html-keyboard-response","74","289099","0.0-74.0","e1pueloc","","<span style=""color:Black; font-size:50px;"">Agent B","null","","","","",""
"null","","","video-keyboard-response","75","292221","0.0-75.0","e1pueloc","","","null","","Agent B","scrambled","STIM_SET_3/713633.bmp_pp58_L1_V2_veridical_freeview_isoFalsemismatch_713796.bmp_L3_fps90.mp4",""
"","","","call-function","76","292222","0.0-76.0","e1pueloc","","","","","","","",""
"1692.234999999986","{""judgement"":0}","[0]","survey-likert","77","293915","0.0-77.0","e1pueloc","","","","","","","","0"
"2438.1399999999558","{""confidence"":1}","[0]","survey-likert","78","296355","0.0-78.0","e1pueloc","","","","","","","",""
"","","","call-function","79","296356","0.0-79.0","e1pueloc","","","","","","","",""
"null","","","html-keyboard-response","80","297857","0.0-80.0","e1pueloc","","<span style=""color:Black; font-size:50px;"">Agent A","null","","","","",""
"null","","","video-keyboard-response","81","301079","0.0-81.0","e1pueloc","","","null","","Agent A","scrambled","STIM_SET_3/1159392.bmp_pp96_L2_V2_veridical_freeview_isoFalsemismatch_1592934.bmp_L1_fps90.mp4",""
"null","","","html-keyboard-response","82","302584","0.0-82.0","e1pueloc","","<span style=""color:Black; font-size:50px;"">Agent B","null","","","","",""
"null","","","video-keyboard-response","83","305680","0.0-83.0","e1pueloc","","","null","","Agent B","veridical","STIM_SET_1_REAL/1592934.bmp_pp63_L1_V1.0_veridical_freeview_isoFalse_fps144.mp4",""
"","","","call-function","84","305681","0.0-84.0","e1pueloc","","","","","","","",""
"1618.2000000000116","{""judgement"":0}","[0]","survey-likert","85","307300","0.0-85.0","e1pueloc","","","","","","","","1"
"2320.5599999999977","{""confidence"":2}","[0]","survey-likert","86","309622","0.0-86.0","e1pueloc","","","","","","","",""
"4092.484999999986","","","instructions","87","313716","0.0-87.0","e1pueloc","[{""page_index"":0,""viewing_time"":1582.2999999999884},{""page_index"":1,""viewing_time"":1588.109999999986},{""page_index"":2,""viewing_time"":921.9150000000373}]","","","","","","",""
"1951.085000000021","","","instructions","88","315668","0.0-88.0","e1pueloc","[{""page_index"":0,""viewing_time"":671.109999999986},{""page_index"":1,""viewing_time"":611.2399999999907},{""page_index"":2,""viewing_time"":668.625}]","","","","","","",""
"","","","call-function","89","315669","0.0-89.0","e1pueloc","","","","","","","",""
"null","","","html-keyboard-response","90","317173","0.0-90.0","e1pueloc","","<span style=""color:Black; font-size:50px;"">Agent A","null","","","","",""
"null","","","video-keyboard-response","91","320286","0.0-91.0","e1pueloc","","","null","","Agent A","scrambled","STIM_SET_3/1159329.bmp_pp61_L2_V2_veridical_freeview_isoFalsemismatch_1592817.bmp_L3_fps90.mp4",""
"null","","","html-keyboard-response","92","321792","0.0-92.0","e1pueloc","","<span style=""color:Black; font-size:50px;"">Agent B","null","","","","",""
"null","","","video-keyboard-response","93","324883","0.0-93.0","e1pueloc","","","null","","Agent B","veridical","STIM_SET_1_REAL/1592817.bmp_pp55_L3_V1.0_veridical_freeview_isoFalse_fps144.mp4",""
"","","","call-function","94","324885","0.0-94.0","e1pueloc","","","","","","","",""
"1949.2900000000373","{""judgement"":0}","[0]","survey-likert","95","326835","0.0-95.0","e1pueloc","","","","","","","","1"
"1385.75","{""confidence"":1}","[0]","survey-likert","96","328222","0.0-96.0","e1pueloc","","","","","","","",""
"","","","call-function","97","328223","0.0-97.0","e1pueloc","","","","","","","",""
"null","","","html-keyboard-response","98","329728","0.0-98.0","e1pueloc","","<span style=""color:Black; font-size:50px;"">Agent A","null","","","","",""
"null","","","video-keyboard-response","99","332805","0.0-99.0","e1pueloc","","","null","","Agent A","veridical","STIM_SET_1_REAL/1591954.bmp_pp62_L2_V1.0_veridical_freeview_isoFalse_fps144.mp4",""
"null","","","html-keyboard-response","100","334309","0.0-100.0","e1pueloc","","<span style=""color:Black; font-size:50px;"">Agent B","null","","","","",""
"null","","","video-keyboard-response","101","337390","0.0-101.0","e1pueloc","","","null","","Agent B","scrambled","STIM_SET_3/1160049.bmp_pp53_L2_V2_veridical_freeview_isoFalsemismatch_1591954.bmp_L2_fps90.mp4",""
"","","","call-function","102","337391","0.0-102.0","e1pueloc","","","","","","","",""
"2819.9799999999814","{""judgement"":0}","[0]","survey-likert","103","340212","0.0-103.0","e1pueloc","","","","","","","","0"
"1180.7799999999697","{""confidence"":2}","[0]","survey-likert","104","341395","0.0-104.0","e1pueloc","","","","","","","",""
"","","","call-function","105","341396","0.0-105.0","e1pueloc","","","","","","","",""
"null","","","html-keyboard-response","106","342897","0.0-106.0","e1pueloc","","<span style=""color:Black; font-size:50px;"">Agent A","null","","","","",""
"null","","","video-keyboard-response","107","347408","0.0-107.0","e1pueloc","","","null","","Agent A","scrambled","STIM_SET_3/285946.bmp_pp79_L2_V2_veridical_freeview_isoFalsemismatch_285751.bmp_L3_fps90.mp4",""
"null","","","html-keyboard-response","108","348911","0.0-108.0","e1pueloc","","<span style=""color:Black; font-size:50px;"">Agent B","null","","","","",""
"null","","","video-keyboard-response","109","351991","0.0-109.0","e1pueloc","","","null","","Agent B","veridical","STIM_SET_1_REAL/285751.bmp_pp55_L3_V1.0_veridical_freeview_isoFalse_fps144.mp4",""
"","","","call-function","110","351993","0.0-110.0","e1pueloc","","","","","","","",""
"2898.4500000000116","{""judgement"":1}","[0]","survey-likert","111","354893","0.0-111.0","e1pueloc","","","","","","","","1"
"2073.0849999999627","{""confidence"":2}","[0]","survey-likert","112","356968","0.0-112.0","e1pueloc","","","","","","","",""
"","","","call-function","113","356969","0.0-113.0","e1pueloc","","","","","","","",""
"null","","","html-keyboard-response","114","358471","0.0-114.0","e1pueloc","","<span style=""color:Black; font-size:50px;"">Agent A","null","","","","",""
"null","","","video-keyboard-response","115","361553","0.0-115.0","e1pueloc","","","null","","Agent A","scrambled","STIM_SET_3/1591975.bmp_pp88_L2_V2_veridical_freeview_isoFalsemismatch_713017.bmp_L2_fps90.mp4",""
"null","","","html-keyboard-response","116","363056","0.0-116.0","e1pueloc","","<span style=""color:Black; font-size:50px;"">Agent B","null","","","","",""
"null","","","video-keyboard-response","117","366127","0.0-117.0","e1pueloc","","","null","","Agent B","veridical","STIM_SET_1_REAL/713017.bmp_pp152_L2_V1.0_veridical_freeview_isoFalse_fps144.mp4",""
"","","","call-function","118","366128","0.0-118.0","e1pueloc","","","","","","","",""
"1832.4949999999953","{""judgement"":1}","[0]","survey-likert","119","367962","0.0-119.0","e1pueloc","","","","","","","","1"
"1150.045000000042","{""confidence"":3}","[0]","survey-likert","120","369114","0.0-120.0","e1pueloc","","","","","","","",""
"","","","call-function","121","369115","0.0-121.0","e1pueloc","","","","","","","",""
"null","","","html-keyboard-response","122","370619","0.0-122.0","e1pueloc","","<span style=""color:Black; font-size:50px;"">Agent A","null","","","","",""
"null","","","video-keyboard-response","123","373728","0.0-123.0","e1pueloc","","","null","","Agent A","veridical","STIM_SET_1_REAL/1159855.bmp_pp99_L2_V1.0_veridical_freeview_isoFalse_fps144.mp4",""
"null","","","html-keyboard-response","124","375231","0.0-124.0","e1pueloc","","<span style=""color:Black; font-size:50px;"">Agent B","null","","","","",""
"null","","","video-keyboard-response","125","378334","0.0-125.0","e1pueloc","","","null","","Agent B","scrambled","STIM_SET_3/285932.bmp_pp64_L1_V2_veridical_freeview_isoFalsemismatch_1159855.bmp_L2_fps90.mp4",""
"","","","call-function","126","378335","0.0-126.0","e1pueloc","","","","","","","",""
"1457.5349999999744","{""judgement"":0}","[0]","survey-likert","127","379793","0.0-127.0","e1pueloc","","","","","","","","0"
"1450.3499999999767","{""confidence"":2}","[0]","survey-likert","128","381246","0.0-128.0","e1pueloc","","","","","","","",""
"","","","call-function","129","381249","0.0-129.0","e1pueloc","","","","","","","",""
"null","","","html-keyboard-response","130","382754","0.0-130.0","e1pueloc","","<span style=""color:Black; font-size:50px;"">Agent A","null","","","","",""
"null","","","video-keyboard-response","131","385886","0.0-131.0","e1pueloc","","","null","","Agent A","scrambled","STIM_SET_3/1592038.bmp_pp79_L2_V2_veridical_freeview_isoFalsemismatch_1592727.bmp_L3_fps90.mp4",""
"null","","","html-keyboard-response","132","387387","0.0-132.0","e1pueloc","","<span style=""color:Black; font-size:50px;"">Agent B","null","","","","",""
"null","","","video-keyboard-response","133","390481","0.0-133.0","e1pueloc","","","null","","Agent B","veridical","STIM_SET_1_REAL/1592727.bmp_pp59_L3_V1.0_veridical_freeview_isoFalse_fps144.mp4",""
"","","","call-function","134","390482","0.0-134.0","e1pueloc","","","","","","","",""
"1368.7449999999953","{""judgement"":1}","[0]","survey-likert","135","391852","0.0-135.0","e1pueloc","","","","","","","","1"
"1520.179999999993","{""confidence"":2}","[0]","survey-likert","136","393374","0.0-136.0","e1pueloc","","","","","","","",""
"","","","call-function","137","393375","0.0-137.0","e1pueloc","","","","","","","",""
"null","","","html-keyboard-response","138","394877","0.0-138.0","e1pueloc","","<span style=""color:Black; font-size:50px;"">Agent A","null","","","","",""
"null","","","video-keyboard-response","139","397986","0.0-139.0","e1pueloc","","","null","","Agent A","veridical","STIM_SET_1_REAL/1160127.bmp_pp90_L2_V1.0_veridical_freeview_isoFalse_fps144.mp4",""
"null","","","html-keyboard-response","140","399491","0.0-140.0","e1pueloc","","<span style=""color:Black; font-size:50px;"">Agent B","null","","","","",""
"null","","","video-keyboard-response","141","402617","0.0-141.0","e1pueloc","","","null","","Agent B","scrambled","STIM_SET_3/498372.bmp_pp95_L2_V2_veridical_freeview_isoFalsemismatch_1160127.bmp_L2_fps90.mp4",""
"","","","call-function","142","402618","0.0-142.0","e1pueloc","","","","","","","",""
"1213.3600000000442","{""judgement"":0}","[0]","survey-likert","143","403832","0.0-143.0","e1pueloc","","","","","","","","0"
"1130.280000000028","{""confidence"":2}","[0]","survey-likert","144","404964","0.0-144.0","e1pueloc","","","","","","","",""
"","","","call-function","145","404965","0.0-145.0","e1pueloc","","","","","","","",""
"null","","","html-keyboard-response","146","406469","0.0-146.0","e1pueloc","","<span style=""color:Black; font-size:50px;"">Agent A","null","","","","",""
"null","","","video-keyboard-response","147","409664","0.0-147.0","e1pueloc","","","null","","Agent A","scrambled","STIM_SET_3/1592201.bmp_pp97_L3_V2_veridical_freeview_isoFalsemismatch_713089.bmp_L3_fps90.mp4",""
"null","","","html-keyboard-response","148","411168","0.0-148.0","e1pueloc","","<span style=""color:Black; font-size:50px;"">Agent B","null","","","","",""
"null","","","video-keyboard-response","149","414230","0.0-149.0","e1pueloc","","","null","","Agent B","veridical","STIM_SET_1_REAL/713089.bmp_pp60_L3_V1.0_veridical_freeview_isoFalse_fps144.mp4",""
"","","","call-function","150","414231","0.0-150.0","e1pueloc","","","","","","","",""
"1303.1749999999884","{""judgement"":1}","[0]","survey-likert","151","415535","0.0-151.0","e1pueloc","","","","","","","","1"
"1469.5200000000186","{""confidence"":2}","[0]","survey-likert","152","417006","0.0-152.0","e1pueloc","","","","","","","",""
"","","","call-function","153","417007","0.0-153.0","e1pueloc","","","","","","","",""
"null","","","html-keyboard-response","154","418509","0.0-154.0","e1pueloc","","<span style=""color:Black; font-size:50px;"">Agent A","null","","","","",""
"null","","","video-keyboard-response","155","421604","0.0-155.0","e1pueloc","","","null","","Agent A","scrambled","STIM_SET_3/1159592.bmp_pp91_L3_V2_veridical_freeview_isoFalsemismatch_285994.bmp_L3_fps90.mp4",""
"null","","","html-keyboard-response","156","423108","0.0-156.0","e1pueloc","","<span style=""color:Black; font-size:50px;"">Agent B","null","","","","",""
"null","","","video-keyboard-response","157","426176","0.0-157.0","e1pueloc","","","null","","Agent B","veridical","STIM_SET_1_REAL/285994.bmp_pp92_L3_V1.0_veridical_freeview_isoFalse_fps144.mp4",""
"","","","call-function","158","426177","0.0-158.0","e1pueloc","","","","","","","",""
"2058.929999999993","{""judgement"":1}","[0]","survey-likert","159","428237","0.0-159.0","e1pueloc","","","","","","","","1"
"1834.804999999993","{""confidence"":2}","[0]","survey-likert","160","430073","0.0-160.0","e1pueloc","","","","","","","",""
"","","","call-function","161","430074","0.0-161.0","e1pueloc","","","","","","","",""
"null","","","html-keyboard-response","162","431577","0.0-162.0","e1pueloc","","<span style=""color:Black; font-size:50px;"">Agent A","null","","","","",""
"null","","","video-keyboard-response","163","434655","0.0-163.0","e1pueloc","","","null","","Agent A","veridical","STIM_SET_1_REAL/1592657.bmp_pp98_L1_V1.0_veridical_freeview_isoFalse_fps144.mp4",""
"null","","","html-keyboard-response","164","436162","0.0-164.0","e1pueloc","","<span style=""color:Black; font-size:50px;"">Agent B","null","","","","",""
"null","","","video-keyboard-response","165","439276","0.0-165.0","e1pueloc","","","null","","Agent B","scrambled","STIM_SET_3/498261.bmp_pp84_L3_V2_veridical_freeview_isoFalsemismatch_1592657.bmp_L1_fps90.mp4",""
"","","","call-function","166","439278","0.0-166.0","e1pueloc","","","","","","","",""
"2028.1450000000186","{""judgement"":1}","[0]","survey-likert","167","441307","0.0-167.0","e1pueloc","","","","","","","","0"
"1689.975000000035","{""confidence"":2}","[0]","survey-likert","168","442999","0.0-168.0","e1pueloc","","","","","","","",""
"3657.530000000028","","","instructions","169","446658","0.0-169.0","e1pueloc","[{""page_index"":0,""viewing_time"":1914.5250000000233},{""page_index"":1,""viewing_time"":1051.9349999999977},{""page_index"":2,""viewing_time"":690.914999999979}]","","","","","","",""
"1177.2000000000116","","","instructions","170","447837","0.0-170.0","e1pueloc","[{""page_index"":0,""viewing_time"":438.24499999999534},{""page_index"":1,""viewing_time"":373.76500000001397},{""page_index"":2,""viewing_time"":365.08500000002095}]","","","","","","",""
"","","","call-function","171","447839","0.0-171.0","e1pueloc","","","","","","","",""
"null","","","html-keyboard-response","172","449343","0.0-172.0","e1pueloc","","<span style=""color:Black; font-size:50px;"">Agent A","null","","","","",""
"null","","","video-keyboard-response","173","452433","0.0-173.0","e1pueloc","","","null","","Agent A","scrambled","STIM_SET_3/713920.bmp_pp76_L1_V2_veridical_freeview_isoFalsemismatch_713684.bmp_L3_fps90.mp4",""
"null","","","html-keyboard-response","174","453938","0.0-174.0","e1pueloc","","<span style=""color:Black; font-size:50px;"">Agent B","null","","","","",""
"null","","","video-keyboard-response","175","457015","0.0-175.0","e1pueloc","","","null","","Agent B","veridical","STIM_SET_1_REAL/713684.bmp_pp85_L3_V1.0_veridical_freeview_isoFalse_fps144.mp4",""
"","","","call-function","176","457016","0.0-176.0","e1pueloc","","","","","","","",""
"3119.2600000000093","{""judgement"":0}","[0]","survey-likert","177","460137","0.0-177.0","e1pueloc","","","","","","","","1"
"1581.0899999999674","{""confidence"":2}","[0]","survey-likert","178","461720","0.0-178.0","e1pueloc","","","","","","","",""
"","","","call-function","179","461721","0.0-179.0","e1pueloc","","","","","","","",""
"null","","","html-keyboard-response","180","463224","0.0-180.0","e1pueloc","","<span style=""color:Black; font-size:50px;"">Agent A","null","","","","",""
"null","","","video-keyboard-response","181","466303","0.0-181.0","e1pueloc","","","null","","Agent A","scrambled","STIM_SET_3/1160204.bmp_pp54_L2_V2_veridical_freeview_isoFalsemismatch_286001.bmp_L2_fps90.mp4",""
"null","","","html-keyboard-response","182","467806","0.0-182.0","e1pueloc","","<span style=""color:Black; font-size:50px;"">Agent B","null","","","","",""
"null","","","video-keyboard-response","183","470868","0.0-183.0","e1pueloc","","","null","","Agent B","veridical","STIM_SET_1_REAL/286001.bmp_pp54_L2_V1.0_veridical_freeview_isoFalse_fps144.mp4",""
"","","","call-function","184","470869","0.0-184.0","e1pueloc","","","","","","","",""
"1564.350000000035","{""judgement"":0}","[0]","survey-likert","185","472434","0.0-185.0","e1pueloc","","","","","","","","1"
"2913.4199999999837","{""confidence"":2}","[0]","survey-likert","186","475349","0.0-186.0","e1pueloc","","","","","","","",""
"","","","call-function","187","475350","0.0-187.0","e1pueloc","","","","","","","",""
"null","","","html-keyboard-response","188","476854","0.0-188.0","e1pueloc","","<span style=""color:Black; font-size:50px;"">Agent A","null","","","","",""
"null","","","video-keyboard-response","189","479955","0.0-189.0","e1pueloc","","","null","","Agent A","veridical","STIM_SET_1_REAL/1593146.bmp_pp93_L1_V1.0_veridical_freeview_isoFalse_fps144.mp4",""
"null","","","html-keyboard-response","190","481461","0.0-190.0","e1pueloc","","<span style=""color:Black; font-size:50px;"">Agent B","null","","","","",""
"null","","","video-keyboard-response","191","484575","0.0-191.0","e1pueloc","","","null","","Agent B","scrambled","STIM_SET_3/1592298.bmp_pp56_L3_V2_veridical_freeview_isoFalsemismatch_1593146.bmp_L1_fps90.mp4",""
"","","","call-function","192","484576","0.0-192.0","e1pueloc","","","","","","","",""
"1844.554999999993","{""judgement"":0}","[0]","survey-likert","193","486422","0.0-193.0","e1pueloc","","","","","","","","0"
"1802.7050000000163","{""confidence"":3}","[0]","survey-likert","194","488226","0.0-194.0","e1pueloc","","","","","","","",""
"","","","call-function","195","488227","0.0-195.0","e1pueloc","","","","","","","",""
"null","","","html-keyboard-response","196","489730","0.0-196.0","e1pueloc","","<span style=""color:Black; font-size:50px;"">Agent A","null","","","","",""
"null","","","video-keyboard-response","197","492832","0.0-197.0","e1pueloc","","","null","","Agent A","veridical","STIM_SET_1_REAL/1159777.bmp_pp77_L3_V1.0_veridical_freeview_isoFalse_fps144.mp4",""
"null","","","html-keyboard-response","198","494335","0.0-198.0","e1pueloc","","<span style=""color:Black; font-size:50px;"">Agent B","null","","","","",""
"null","","","video-keyboard-response","199","497451","0.0-199.0","e1pueloc","","","null","","Agent B","scrambled","STIM_SET_3/1592017.bmp_pp154_L1_V2_veridical_freeview_isoFalsemismatch_1159777.bmp_L3_fps90.mp4",""
"","","","call-function","200","497452","0.0-200.0","e1pueloc","","","","","","","",""
"3114.969999999972","{""judgement"":1}","[0]","survey-likert","201","500568","0.0-201.0","e1pueloc","","","","","","","","0"
"2739.6149999999907","{""confidence"":2}","[0]","survey-likert","202","503309","0.0-202.0","e1pueloc","","","","","","","",""
"","","","call-function","203","503310","0.0-203.0","e1pueloc","","","","","","","",""
"null","","","html-keyboard-response","204","504812","0.0-204.0","e1pueloc","","<span style=""color:Black; font-size:50px;"">Agent A","null","","","","",""
"null","","","video-keyboard-response","205","507930","0.0-205.0","e1pueloc","","","null","","Agent A","scrambled","STIM_SET_3/1159874.bmp_pp96_L2_V2_veridical_freeview_isoFalsemismatch_1159515.bmp_L3_fps90.mp4",""
"null","","","html-keyboard-response","206","509436","0.0-206.0","e1pueloc","","<span style=""color:Black; font-size:50px;"">Agent B","null","","","","",""
"null","","","video-keyboard-response","207","512536","0.0-207.0","e1pueloc","","","null","","Agent B","veridical","STIM_SET_1_REAL/1159515.bmp_pp84_L3_V1.0_veridical_freeview_isoFalse_fps144.mp4",""
"","","","call-function","208","512538","0.0-208.0","e1pueloc","","","","","","","",""
"5358.450000000012","{""judgement"":1}","[0]","survey-likert","209","517898","0.0-209.0","e1pueloc","","","","","","","","1"
"1722.3150000000023","{""confidence"":3}","[0]","survey-likert","210","519622","0.0-210.0","e1pueloc","","","","","","","",""
"","","","call-function","211","519623","0.0-211.0","e1pueloc","","","","","","","",""
"null","","","html-keyboard-response","212","521124","0.0-212.0","e1pueloc","","<span style=""color:Black; font-size:50px;"">Agent A","null","","","","",""
"null","","","video-keyboard-response","213","524206","0.0-213.0","e1pueloc","","","null","","Agent A","veridical","STIM_SET_1_REAL/713371.bmp_pp68_L1_V1.0_veridical_freeview_isoFalse_fps144.mp4",""
"null","","","html-keyboard-response","214","525710","0.0-214.0","e1pueloc","","<span style=""color:Black; font-size:50px;"">Agent B","null","","","","",""
"null","","","video-keyboard-response","215","528794","0.0-215.0","e1pueloc","","","null","","Agent B","scrambled","STIM_SET_3/498396.bmp_pp99_L2_V2_veridical_freeview_isoFalsemismatch_713371.bmp_L1_fps90.mp4",""
"","","","call-function","216","528796","0.0-216.0","e1pueloc","","","","","","","",""
"4123.369999999995","{""judgement"":0}","[0]","survey-likert","217","532921","0.0-217.0","e1pueloc","","","","","","","","0"
"1158.4299999999348","{""confidence"":1}","[0]","survey-likert","218","534082","0.0-218.0","e1pueloc","","","","","","","",""
"","","","call-function","219","534084","0.0-219.0","e1pueloc","","","","","","","",""
"null","","","html-keyboard-response","220","535588","0.0-220.0","e1pueloc","","<span style=""color:Black; font-size:50px;"">Agent A","null","","","","",""
"null","","","video-keyboard-response","221","538650","0.0-221.0","e1pueloc","","","null","","Agent A","veridical","STIM_SET_1_REAL/1593035.bmp_pp94_L2_V1.0_veridical_freeview_isoFalse_fps144.mp4",""
"null","","","html-keyboard-response","222","540155","0.0-222.0","e1pueloc","","<span style=""color:Black; font-size:50px;"">Agent B","null","","","","",""
"null","","","video-keyboard-response","223","543238","0.0-223.0","e1pueloc","","","null","","Agent B","scrambled","STIM_SET_3/1159325.bmp_pp67_L2_V2_veridical_freeview_isoFalsemismatch_1593035.bmp_L2_fps90.mp4",""
"","","","call-function","224","543239","0.0-224.0","e1pueloc","","","","","","","",""
"7145.104999999981","{""judgement"":1}","[0]","survey-likert","225","550386","0.0-225.0","e1pueloc","","","","","","","","0"
"2409.2099999999627","{""confidence"":2}","[0]","survey-likert","226","552797","0.0-226.0","e1pueloc","","","","","","","",""
"","","","call-function","227","552798","0.0-227.0","e1pueloc","","","","","","","",""
"null","","","html-keyboard-response","228","554300","0.0-228.0","e1pueloc","","<span style=""color:Black; font-size:50px;"">Agent A","null","","","","",""
"null","","","video-keyboard-response","229","557366","0.0-229.0","e1pueloc","","","null","","Agent A","veridical","STIM_SET_1_REAL/497950.bmp_pp151_L1_V1.0_veridical_freeview_isoFalse_fps144.mp4",""
"null","","","html-keyboard-response","230","558869","0.0-230.0","e1pueloc","","<span style=""color:Black; font-size:50px;"">Agent B","null","","","","",""
"null","","","video-keyboard-response","231","561956","0.0-231.0","e1pueloc","","","null","","Agent B","scrambled","STIM_SET_3/713274.bmp_pp73_L3_V2_veridical_freeview_isoFalsemismatch_497950.bmp_L1_fps90.mp4",""
"","","","call-function","232","561957","0.0-232.0","e1pueloc","","","","","","","",""
"2003.4949999999953","{""judgement"":0}","[0]","survey-likert","233","563961","0.0-233.0","e1pueloc","","","","","","","","0"
"1106.4449999999488","{""confidence"":3}","[0]","survey-likert","234","565069","0.0-234.0","e1pueloc","","","","","","","",""
"","","","call-function","235","565070","0.0-235.0","e1pueloc","","","","","","","",""
"null","","","html-keyboard-response","236","566573","0.0-236.0","e1pueloc","","<span style=""color:Black; font-size:50px;"">Agent A","null","","","","",""
"null","","","video-keyboard-response","237","569682","0.0-237.0","e1pueloc","","","null","","Agent A","scrambled","STIM_SET_3/285715.bmp_pp67_L2_V2_veridical_freeview_isoFalsemismatch_1159882.bmp_L2_fps90.mp4",""
"null","","","html-keyboard-response","238","571191","0.0-238.0","e1pueloc","","<span style=""color:Black; font-size:50px;"">Agent B","null","","","","",""
"null","","","video-keyboard-response","239","574281","0.0-239.0","e1pueloc","","","null","","Agent B","veridical","STIM_SET_1_REAL/1159882.bmp_pp61_L2_V1.0_veridical_freeview_isoFalse_fps144.mp4",""
"","","","call-function","240","574282","0.0-240.0","e1pueloc","","","","","","","",""
"2046.1999999999534","{""judgement"":1}","[0]","survey-likert","241","576329","0.0-241.0","e1pueloc","","","","","","","","1"
"1675.954999999958","{""confidence"":2}","[0]","survey-likert","242","578007","0.0-242.0","e1pueloc","","","","","","","",""
"","","","call-function","243","578008","0.0-243.0","e1pueloc","","","","","","","",""
"null","","","html-keyboard-response","244","579510","0.0-244.0","e1pueloc","","<span style=""color:Black; font-size:50px;"">Agent A","null","","","","",""
"null","","","video-keyboard-response","245","582603","0.0-245.0","e1pueloc","","","null","","Agent A","scrambled","STIM_SET_3/498326.bmp_pp57_L1_V2_veridical_freeview_isoFalsemismatch_1592286.bmp_L1_fps90.mp4",""
"null","","","html-keyboard-response","246","584109","0.0-246.0","e1pueloc","","<span style=""color:Black; font-size:50px;"">Agent B","null","","","","",""
"null","","","video-keyboard-response","247","587208","0.0-247.0","e1pueloc","","","null","","Agent B","veridical","STIM_SET_1_REAL/1592286.bmp_pp52_L1_V1.0_veridical_freeview_isoFalse_fps144.mp4",""
"","","","call-function","248","587209","0.0-248.0","e1pueloc","","","","","","","",""
"1985.9150000000373","{""judgement"":0}","[0]","survey-likert","249","589196","0.0-249.0","e1pueloc","","","","","","","","1"
"3442.5250000000233","{""confidence"":2}","[0]","survey-likert","250","592640","0.0-250.0","e1pueloc","","","","","","","",""
"31423.415000000037","","","instructions","251","624065","0.0-251.0","e1pueloc","[{""page_index"":0,""viewing_time"":29656.52000000002},{""page_index"":1,""viewing_time"":833},{""page_index"":2,""viewing_time"":933.6499999999069}]","","","","","","",""
"2135.725000000093","","","instructions","252","626202","0.0-252.0","e1pueloc","[{""page_index"":0,""viewing_time"":878.5750000000698},{""page_index"":1,""viewing_time"":831.2750000000233},{""page_index"":2,""viewing_time"":425.76499999989755}]","","","","","","",""
"","","","call-function","253","626203","0.0-253.0","e1pueloc","","","","","","","",""
"null","","","html-keyboard-response","254","627709","0.0-254.0","e1pueloc","","<span style=""color:Black; font-size:50px;"">Agent A","null","","","","",""
"null","","","video-keyboard-response","255","630785","0.0-255.0","e1pueloc","","","null","","Agent A","veridical","STIM_SET_1_REAL/498111.bmp_pp88_L2_V1.0_veridical_freeview_isoFalse_fps144.mp4",""
"null","","","html-keyboard-response","256","632290","0.0-256.0","e1pueloc","","<span style=""color:Black; font-size:50px;"">Agent B","null","","","","",""
"null","","","video-keyboard-response","257","635374","0.0-257.0","e1pueloc","","","null","","Agent B","scrambled","STIM_SET_3/1592350.bmp_pp55_L3_V2_veridical_freeview_isoFalsemismatch_498111.bmp_L2_fps90.mp4",""
"","","","call-function","258","635375","0.0-258.0","e1pueloc","","","","","","","",""
"4100.275000000023","{""judgement"":0}","[0]","survey-likert","259","639476","0.0-259.0","e1pueloc","","","","","","","","0"
"1136.1650000000373","{""confidence"":1}","[0]","survey-likert","260","640614","0.0-260.0","e1pueloc","","","","","","","",""
"","","","call-function","261","640615","0.0-261.0","e1pueloc","","","","","","","",""
"null","","","html-keyboard-response","262","642118","0.0-262.0","e1pueloc","","<span style=""color:Black; font-size:50px;"">Agent A","null","","","","",""
"null","","","video-keyboard-response","263","645183","0.0-263.0","e1pueloc","","","null","","Agent A","veridical","STIM_SET_1_REAL/1159572.bmp_pp71_L1_V1.0_veridical_freeview_isoFalse_fps144.mp4",""
"null","","","html-keyboard-response","264","646686","0.0-264.0","e1pueloc","","<span style=""color:Black; font-size:50px;"">Agent B","null","","","","",""
"null","","","video-keyboard-response","265","649768","0.0-265.0","e1pueloc","","","null","","Agent B","scrambled","STIM_SET_3/713381.bmp_pp82_L2_V2_veridical_freeview_isoFalsemismatch_1159572.bmp_L1_fps90.mp4",""
"","","","call-function","266","649770","0.0-266.0","e1pueloc","","","","","","","",""
"1406.5250000000233","{""judgement"":0}","[0]","survey-likert","267","651178","0.0-267.0","e1pueloc","","","","","","","","0"
"1335.0649999999441","{""confidence"":2}","[0]","survey-likert","268","652515","0.0-268.0","e1pueloc","","","","","","","",""
"","","","call-function","269","652517","0.0-269.0","e1pueloc","","","","","","","",""
"null","","","html-keyboard-response","270","654017","0.0-270.0","e1pueloc","","<span style=""color:Black; font-size:50px;"">Agent A","null","","","","",""
"null","","","video-keyboard-response","271","657082","0.0-271.0","e1pueloc","","","null","","Agent A","veridical","STIM_SET_1_REAL/713681.bmp_pp86_L2_V1.0_veridical_freeview_isoFalse_fps144.mp4",""
"null","","","html-keyboard-response","272","658585","0.0-272.0","e1pueloc","","<span style=""color:Black; font-size:50px;"">Agent B","null","","","","",""
"null","","","video-keyboard-response","273","661693","0.0-273.0","e1pueloc","","","null","","Agent B","scrambled","STIM_SET_3/498025.bmp_pp81_L1_V2_veridical_freeview_isoFalsemismatch_713681.bmp_L2_fps90.mp4",""
"","","","call-function","274","661694","0.0-274.0","e1pueloc","","","","","","","",""
"1649.734999999986","{""judgement"":1}","[0]","survey-likert","275","663345","0.0-275.0","e1pueloc","","","","","","","","0"
"2981.969999999972","{""confidence"":1}","[0]","survey-likert","276","666329","0.0-276.0","e1pueloc","","","","","","","",""
"","","","call-function","277","666330","0.0-277.0","e1pueloc","","","","","","","",""
"null","","","html-keyboard-response","278","667832","0.0-278.0","e1pueloc","","<span style=""color:Black; font-size:50px;"">Agent A","null","","","","",""
"null","","","video-keyboard-response","279","670921","0.0-279.0","e1pueloc","","","null","","Agent A","scrambled","STIM_SET_3/107909.bmp_pp95_L2_V2_veridical_freeview_isoFalsemismatch_1592372.bmp_L1_fps90.mp4",""
"null","","","html-keyboard-response","280","672427","0.0-280.0","e1pueloc","","<span style=""color:Black; font-size:50px;"">Agent B","null","","","","",""
"null","","","video-keyboard-response","281","675532","0.0-281.0","e1pueloc","","","null","","Agent B","veridical","STIM_SET_1_REAL/1592372.bmp_pp76_L1_V1.0_veridical_freeview_isoFalse_fps144.mp4",""
"","","","call-function","282","675533","0.0-282.0","e1pueloc","","","","","","","",""
"2416.4599999999627","{""judgement"":1}","[0]","survey-likert","283","677950","0.0-283.0","e1pueloc","","","","","","","","1"
"1602.7299999999814","{""confidence"":2}","[0]","survey-likert","284","679555","0.0-284.0","e1pueloc","","","","","","","",""
"","","","call-function","285","679556","0.0-285.0","e1pueloc","","","","","","","",""
"null","","","html-keyboard-response","286","681057","0.0-286.0","e1pueloc","","<span style=""color:Black; font-size:50px;"">Agent A","null","","","","",""
"null","","","video-keyboard-response","287","684156","0.0-287.0","e1pueloc","","","null","","Agent A","scrambled","STIM_SET_3/1592047.bmp_pp51_L1_V2_veridical_freeview_isoFalsemismatch_713513.bmp_L2_fps90.mp4",""
"null","","","html-keyboard-response","288","685659","0.0-288.0","e1pueloc","","<span style=""color:Black; font-size:50px;"">Agent B","null","","","","",""
"null","","","video-keyboard-response","289","688755","0.0-289.0","e1pueloc","","","null","","Agent B","veridical","STIM_SET_1_REAL/713513.bmp_pp62_L2_V1.0_veridical_freeview_isoFalse_fps144.mp4",""
"","","","call-function","290","688756","0.0-290.0","e1pueloc","","","","","","","",""
"2090.75","{""judgement"":0}","[0]","survey-likert","291","690847","0.0-291.0","e1pueloc","","","","","","","","1"
"1281.3549999999814","{""confidence"":1}","[0]","survey-likert","292","692130","0.0-292.0","e1pueloc","","","","","","","",""
"","","","call-function","293","692131","0.0-293.0","e1pueloc","","","","","","","",""
"null","","","html-keyboard-response","294","693636","0.0-294.0","e1pueloc","","<span style=""color:Black; font-size:50px;"">Agent A","null","","","","",""
"null","","","video-keyboard-response","295","696745","0.0-295.0","e1pueloc","","","null","","Agent A","scrambled","STIM_SET_3/1592314.bmp_pp100_L3_V2_veridical_freeview_isoFalsemismatch_713707.bmp_L1_fps90.mp4",""
"null","","","html-keyboard-response","296","698250","0.0-296.0","e1pueloc","","<span style=""color:Black; font-size:50px;"">Agent B","null","","","","",""
"null","","","video-keyboard-response","297","701357","0.0-297.0","e1pueloc","","","null","","Agent B","veridical","STIM_SET_1_REAL/713707.bmp_pp154_L1_V1.0_veridical_freeview_isoFalse_fps144.mp4",""
"","","","call-function","298","701358","0.0-298.0","e1pueloc","","","","","","","",""
"3593.890000000014","{""judgement"":0}","[0]","survey-likert","299","704953","0.0-299.0","e1pueloc","","","","","","","","1"
"2215.215000000084","{""confidence"":1}","[0]","survey-likert","300","707170","0.0-300.0","e1pueloc","","","","","","","",""
"","","","call-function","301","707171","0.0-301.0","e1pueloc","","","","","","","",""
"null","","","html-keyboard-response","302","708676","0.0-302.0","e1pueloc","","<span style=""color:Black; font-size:50px;"">Agent A","null","","","","",""
"null","","","video-keyboard-response","303","711808","0.0-303.0","e1pueloc","","","null","","Agent A","scrambled","STIM_SET_3/1592568.bmp_pp71_L1_V2_veridical_freeview_isoFalsemismatch_285905.bmp_L1_fps90.mp4",""
"null","","","html-keyboard-response","304","713312","0.0-304.0","e1pueloc","","<span style=""color:Black; font-size:50px;"">Agent B","null","","","","",""
"null","","","video-keyboard-response","305","716384","0.0-305.0","e1pueloc","","","null","","Agent B","veridical","STIM_SET_1_REAL/285905.bmp_pp57_L1_V1.0_veridical_freeview_isoFalse_fps144.mp4",""
"","","","call-function","306","716385","0.0-306.0","e1pueloc","","","","","","","",""
"2341.9000000000233","{""judgement"":1}","[0]","survey-likert","307","718727","0.0-307.0","e1pueloc","","","","","","","","1"
"2104.4599999999627","{""confidence"":3}","[0]","survey-likert","308","720834","0.0-308.0","e1pueloc","","","","","","","",""
"","","","call-function","309","720835","0.0-309.0","e1pueloc","","","","","","","",""
"null","","","html-keyboard-response","310","722339","0.0-310.0","e1pueloc","","<span style=""color:Black; font-size:50px;"">Agent A","null","","","","",""
"null","","","video-keyboard-response","311","725437","0.0-311.0","e1pueloc","","","null","","Agent A","scrambled","STIM_SET_3/1160247.bmp_pp54_L2_V2_veridical_freeview_isoFalsemismatch_1592133.bmp_L1_fps90.mp4",""
"null","","","html-keyboard-response","312","726944","0.0-312.0","e1pueloc","","<span style=""color:Black; font-size:50px;"">Agent B","null","","","","",""
"null","","","video-keyboard-response","313","730009","0.0-313.0","e1pueloc","","","null","","Agent B","veridical","STIM_SET_1_REAL/1592133.bmp_pp75_L1_V1.0_veridical_freeview_isoFalse_fps144.mp4",""
"","","","call-function","314","730010","0.0-314.0","e1pueloc","","","","","","","",""
"1498.6899999999441","{""judgement"":0}","[0]","survey-likert","315","731509","0.0-315.0","e1pueloc","","","","","","","","1"
"1956.3050000000512","{""confidence"":0}","[0]","survey-likert","316","733467","0.0-316.0","e1pueloc","","","","","","","",""
"","","","call-function","317","733469","0.0-317.0","e1pueloc","","","","","","","",""
"null","","","html-keyboard-response","318","734971","0.0-318.0","e1pueloc","","<span style=""color:Black; font-size:50px;"">Agent A","null","","","","",""
"null","","","video-keyboard-response","319","738056","0.0-319.0","e1pueloc","","","null","","Agent A","scrambled","STIM_SET_3/498398.bmp_pp81_L1_V2_veridical_freeview_isoFalsemismatch_713620.bmp_L3_fps90.mp4",""
"null","","","html-keyboard-response","320","739562","0.0-320.0","e1pueloc","","<span style=""color:Black; font-size:50px;"">Agent B","null","","","","",""
"null","","","video-keyboard-response","321","742668","0.0-321.0","e1pueloc","","","null","","Agent B","veridical","STIM_SET_1_REAL/713620.bmp_pp65_L3_V1.0_veridical_freeview_isoFalse_fps144.mp4",""
"","","","call-function","322","742669","0.0-322.0","e1pueloc","","","","","","","",""
"2125.25","{""judgement"":1}","[0]","survey-likert","323","744796","0.0-323.0","e1pueloc","","","","","","","","1"
"1125.4300000000512","{""confidence"":2}","[0]","survey-likert","324","745923","0.0-324.0","e1pueloc","","","","","","","",""
"","","","call-function","325","745924","0.0-325.0","e1pueloc","","","","","","","",""
"null","","","html-keyboard-response","326","747427","0.0-326.0","e1pueloc","","<span style=""color:Black; font-size:50px;"">Agent A","null","","","","",""
"null","","","video-keyboard-response","327","750537","0.0-327.0","e1pueloc","","","null","","Agent A","veridical","STIM_SET_1_REAL/713760.bmp_pp81_L1_V1.0_veridical_freeview_isoFalse_fps144.mp4",""
"null","","","html-keyboard-response","328","752045","0.0-328.0","e1pueloc","","<span style=""color:Black; font-size:50px;"">Agent B","null","","","","",""
"null","","","video-keyboard-response","329","755130","0.0-329.0","e1pueloc","","","null","","Agent B","scrambled","STIM_SET_3/285684.bmp_pp80_L3_V2_veridical_freeview_isoFalsemismatch_713760.bmp_L1_fps90.mp4",""
"","","","call-function","330","755132","0.0-330.0","e1pueloc","","","","","","","",""
"3038.95000000007","{""judgement"":0}","[0]","survey-likert","331","758173","0.0-331.0","e1pueloc","","","","","","","","0"
"1783.8699999999953","{""confidence"":2}","[0]","survey-likert","332","759959","0.0-332.0","e1pueloc","","","","","","","",""
"9074.344999999972","","","instructions","333","769034","0.0-333.0","e1pueloc","[{""page_index"":0,""viewing_time"":7128.890000000014},{""page_index"":1,""viewing_time"":1221.079999999958},{""page_index"":2,""viewing_time"":724.0750000000698}]","","","","","","",""
"4412.5800000000745","","","instructions","334","773448","0.0-334.0","e1pueloc","[{""page_index"":0,""viewing_time"":916.484999999986},{""page_index"":1,""viewing_time"":2866.810000000056},{""page_index"":2,""viewing_time"":629.1749999999302}]","","","","","","",""
"","","","call-function","335","773449","0.0-335.0","e1pueloc","","","","","","","",""
"null","","","html-keyboard-response","336","774952","0.0-336.0","e1pueloc","","<span style=""color:Black; font-size:50px;"">Agent A","null","","","","",""
"null","","","video-keyboard-response","337","778068","0.0-337.0","e1pueloc","","","null","","Agent A","scrambled","STIM_SET_3/1592168.bmp_pp71_L1_V2_veridical_freeview_isoFalsemismatch_1592890.bmp_L2_fps90.mp4",""
"null","","","html-keyboard-response","338","779574","0.0-338.0","e1pueloc","","<span style=""color:Black; font-size:50px;"">Agent B","null","","","","",""
"null","","","video-keyboard-response","339","782639","0.0-339.0","e1pueloc","","","null","","Agent B","veridical","STIM_SET_1_REAL/1592890.bmp_pp82_L2_V1.0_veridical_freeview_isoFalse_fps144.mp4",""
"","","","call-function","340","782641","0.0-340.0","e1pueloc","","","","","","","",""
"2751.8850000000093","{""judgement"":0}","[0]","survey-likert","341","785394","0.0-341.0","e1pueloc","","","","","","","","1"
"912.5649999999441","{""confidence"":2}","[0]","survey-likert","342","786308","0.0-342.0","e1pueloc","","","","","","","",""
"","","","call-function","343","786309","0.0-343.0","e1pueloc","","","","","","","",""
"null","","","html-keyboard-response","344","787811","0.0-344.0","e1pueloc","","<span style=""color:Black; font-size:50px;"">Agent A","null","","","","",""
"null","","","video-keyboard-response","345","790901","0.0-345.0","e1pueloc","","","null","","Agent A","scrambled","STIM_SET_3/713858.bmp_pp57_L1_V2_veridical_freeview_isoFalsemismatch_713749.bmp_L2_fps90.mp4",""
"null","","","html-keyboard-response","346","792404","0.0-346.0","e1pueloc","","<span style=""color:Black; font-size:50px;"">Agent B","null","","","","",""
"null","","","video-keyboard-response","347","795507","0.0-347.0","e1pueloc","","","null","","Agent B","veridical","STIM_SET_1_REAL/713749.bmp_pp88_L2_V1.0_veridical_freeview_isoFalse_fps144.mp4",""
"","","","call-function","348","795508","0.0-348.0","e1pueloc","","","","","","","",""
"1735.655000000028","{""judgement"":1}","[0]","survey-likert","349","797244","0.0-349.0","e1pueloc","","","","","","","","1"
"2057.7099999999627","{""confidence"":2}","[0]","survey-likert","350","799304","0.0-350.0","e1pueloc","","","","","","","",""
"","","","call-function","351","799305","0.0-351.0","e1pueloc","","","","","","","",""
"null","","","html-keyboard-response","352","800806","0.0-352.0","e1pueloc","","<span style=""color:Black; font-size:50px;"">Agent A","null","","","","",""
"null","","","video-keyboard-response","353","803908","0.0-353.0","e1pueloc","","","null","","Agent A","veridical","STIM_SET_1_REAL/498155.bmp_pp61_L2_V1.0_veridical_freeview_isoFalse_fps144.mp4",""
"null","","","html-keyboard-response","354","805413","0.0-354.0","e1pueloc","","<span style=""color:Black; font-size:50px;"">Agent B","null","","","","",""
"null","","","video-keyboard-response","355","808592","0.0-355.0","e1pueloc","","","null","","Agent B","scrambled","STIM_SET_3/498258.bmp_pp51_L1_V2_veridical_freeview_isoFalsemismatch_498155.bmp_L2_fps90.mp4",""
"","","","call-function","356","808593","0.0-356.0","e1pueloc","","","","","","","",""
"1600.9449999999488","{""judgement"":0}","[0]","survey-likert","357","810195","0.0-357.0","e1pueloc","","","","","","","","0"
"1559.640000000014","{""confidence"":3}","[0]","survey-likert","358","811757","0.0-358.0","e1pueloc","","","","","","","",""
"","","","call-function","359","811758","0.0-359.0","e1pueloc","","","","","","","",""
"null","","","html-keyboard-response","360","813260","0.0-360.0","e1pueloc","","<span style=""color:Black; font-size:50px;"">Agent A","null","","","","",""
"null","","","video-keyboard-response","361","816372","0.0-361.0","e1pueloc","","","null","","Agent A","veridical","STIM_SET_1_REAL/713135.bmp_pp54_L2_V1.0_veridical_freeview_isoFalse_fps144.mp4",""
"null","","","html-keyboard-response","362","817876","0.0-362.0","e1pueloc","","<span style=""color:Black; font-size:50px;"">Agent B","null","","","","",""
"null","","","video-keyboard-response","363","820956","0.0-363.0","e1pueloc","","","null","","Agent B","scrambled","STIM_SET_3/1592567.bmp_pp70_L2_V2_veridical_freeview_isoFalsemismatch_713135.bmp_L2_fps90.mp4",""
"","","","call-function","364","820957","0.0-364.0","e1pueloc","","","","","","","",""
"1603.7849999999162","{""judgement"":0}","[0]","survey-likert","365","822561","0.0-365.0","e1pueloc","","","","","","","","0"
"1188.3300000000745","{""confidence"":3}","[0]","survey-likert","366","823751","0.0-366.0","e1pueloc","","","","","","","",""
"","","","call-function","367","823753","0.0-367.0","e1pueloc","","","","","","","",""
"null","","","html-keyboard-response","368","825257","0.0-368.0","e1pueloc","","<span style=""color:Black; font-size:50px;"">Agent A","null","","","","",""
"null","","","video-keyboard-response","369","828379","0.0-369.0","e1pueloc","","","null","","Agent A","scrambled","STIM_SET_3/1592530.bmp_pp75_L1_V2_veridical_freeview_isoFalsemismatch_1591961.bmp_L2_fps90.mp4",""
"null","","","html-keyboard-response","370","829884","0.0-370.0","e1pueloc","","<span style=""color:Black; font-size:50px;"">Agent B","null","","","","",""
"null","","","video-keyboard-response","371","832987","0.0-371.0","e1pueloc","","","null","","Agent B","veridical","STIM_SET_1_REAL/1591961.bmp_pp67_L2_V1.0_veridical_freeview_isoFalse_fps144.mp4",""
"","","","call-function","372","832989","0.0-372.0","e1pueloc","","","","","","","",""
"1690.6450000000186","{""judgement"":1}","[0]","survey-likert","373","834681","0.0-373.0","e1pueloc","","","","","","","","1"
"1256.234999999986","{""confidence"":3}","[0]","survey-likert","374","835940","0.0-374.0","e1pueloc","","","","","","","",""
"","","","call-function","375","835942","0.0-375.0","e1pueloc","","","","","","","",""
"null","","","html-keyboard-response","376","837447","0.0-376.0","e1pueloc","","<span style=""color:Black; font-size:50px;"">Agent A","null","","","","",""
"null","","","video-keyboard-response","377","840523","0.0-377.0","e1pueloc","","","null","","Agent A","veridical","STIM_SET_1_REAL/61537.bmp_pp73_L3_V1.0_veridical_freeview_isoFalse_fps144.mp4",""
"null","","","html-keyboard-response","378","842025","0.0-378.0","e1pueloc","","<span style=""color:Black; font-size:50px;"">Agent B","null","","","","",""
"null","","","video-keyboard-response","379","845121","0.0-379.0","e1pueloc","","","null","","Agent B","scrambled","STIM_SET_3/713770.bmp_pp89_L1_V2_veridical_freeview_isoFalsemismatch_61537.bmp_L3_fps90.mp4",""
"","","","call-function","380","845122","0.0-380.0","e1pueloc","","","","","","","",""
"2967.57500000007","{""judgement"":1}","[0]","survey-likert","381","848091","0.0-381.0","e1pueloc","","","","","","","","0"
"1886.9649999999674","{""confidence"":1}","[0]","survey-likert","382","849980","0.0-382.0","e1pueloc","","","","","","","",""
"","","","call-function","383","849981","0.0-383.0","e1pueloc","","","","","","","",""
"null","","","html-keyboard-response","384","851485","0.0-384.0","e1pueloc","","<span style=""color:Black; font-size:50px;"">Agent A","null","","","","",""
"null","","","video-keyboard-response","385","854563","0.0-385.0","e1pueloc","","","null","","Agent A","veridical","STIM_SET_1_REAL/713211.bmp_pp100_L3_V1.0_veridical_freeview_isoFalse_fps144.mp4",""
"null","","","html-keyboard-response","386","856071","0.0-386.0","e1pueloc","","<span style=""color:Black; font-size:50px;"">Agent B","null","","","","",""
"null","","","video-keyboard-response","387","859142","0.0-387.0","e1pueloc","","","null","","Agent B","scrambled","STIM_SET_3/1592921.bmp_pp69_L3_V2_veridical_freeview_isoFalsemismatch_713211.bmp_L3_fps90.mp4",""
"","","","call-function","388","859144","0.0-388.0","e1pueloc","","","","","","","",""
"1993.8850000000093","{""judgement"":1}","[0]","survey-likert","389","861138","0.0-389.0","e1pueloc","","","","","","","","0"
"1592.5550000000512","{""confidence"":1}","[0]","survey-likert","390","862733","0.0-390.0","e1pueloc","","","","","","","",""
"","","","call-function","391","862734","0.0-391.0","e1pueloc","","","","","","","",""
"null","","","html-keyboard-response","392","864238","0.0-392.0","e1pueloc","","<span style=""color:Black; font-size:50px;"">Agent A","null","","","","",""
"null","","","video-keyboard-response","393","867329","0.0-393.0","e1pueloc","","","null","","Agent A","veridical","STIM_SET_1_REAL/1592351.bmp_pp51_L1_V1.0_veridical_freeview_isoFalse_fps144.mp4",""
"null","","","html-keyboard-response","394","868835","0.0-394.0","e1pueloc","","<span style=""color:Black; font-size:50px;"">Agent B","null","","","","",""
"null","","","video-keyboard-response","395","871941","0.0-395.0","e1pueloc","","","null","","Agent B","scrambled","STIM_SET_3/1592025.bmp_pp68_L1_V2_veridical_freeview_isoFalsemismatch_1592351.bmp_L1_fps90.mp4",""
"","","","call-function","396","871943","0.0-396.0","e1pueloc","","","","","","","",""
"3504.4949999999953","{""judgement"":1}","[0]","survey-likert","397","875448","0.0-397.0","e1pueloc","","","","","","","","0"
"1611.8850000000093","{""confidence"":1}","[0]","survey-likert","398","877062","0.0-398.0","e1pueloc","","","","","","","",""
"","","","call-function","399","877063","0.0-399.0","e1pueloc","","","","","","","",""
"null","","","html-keyboard-response","400","878565","0.0-400.0","e1pueloc","","<span style=""color:Black; font-size:50px;"">Agent A","null","","","","",""
"null","","","video-keyboard-response","401","881672","0.0-401.0","e1pueloc","","","null","","Agent A","veridical","STIM_SET_1_REAL/1159440.bmp_pp98_L1_V1.0_veridical_freeview_isoFalse_fps144.mp4",""
"null","","","html-keyboard-response","402","883175","0.0-402.0","e1pueloc","","<span style=""color:Black; font-size:50px;"">Agent B","null","","","","",""
"null","","","video-keyboard-response","403","886292","0.0-403.0","e1pueloc","","","null","","Agent B","scrambled","STIM_SET_3/713829.bmp_pp60_L3_V2_veridical_freeview_isoFalsemismatch_1159440.bmp_L1_fps90.mp4",""
"","","","call-function","404","886293","0.0-404.0","e1pueloc","","","","","","","",""
"1251.4150000000373","{""judgement"":0}","[0]","survey-likert","405","887546","0.0-405.0","e1pueloc","","","","","","","","0"
"1970.4250000000466","{""confidence"":3}","[0]","survey-likert","406","889518","0.0-406.0","e1pueloc","","","","","","","",""
"","","","call-function","407","889519","0.0-407.0","e1pueloc","","","","","","","",""
"null","","","html-keyboard-response","408","891022","0.0-408.0","e1pueloc","","<span style=""color:Black; font-size:50px;"">Agent A","null","","","","",""
"null","","","video-keyboard-response","409","894146","0.0-409.0","e1pueloc","","","null","","Agent A","scrambled","STIM_SET_3/1592289.bmp_pp92_L3_V2_veridical_freeview_isoFalsemismatch_713666.bmp_L3_fps90.mp4",""
"null","","","html-keyboard-response","410","895653","0.0-410.0","e1pueloc","","<span style=""color:Black; font-size:50px;"">Agent B","null","","","","",""
"null","","","video-keyboard-response","411","898764","0.0-411.0","e1pueloc","","","null","","Agent B","veridical","STIM_SET_1_REAL/713666.bmp_pp97_L3_V1.0_veridical_freeview_isoFalse_fps144.mp4",""
"","","","call-function","412","898765","0.0-412.0","e1pueloc","","","","","","","",""
"1981.6000000000931","{""judgement"":1}","[0]","survey-likert","413","900748","0.0-413.0","e1pueloc","","","","","","","","1"
"2032.8249999999534","{""confidence"":3}","[0]","survey-likert","414","902783","0.0-414.0","e1pueloc","","","","","","","",""
"4002.655000000028","","","instructions","415","906787","0.0-415.0","e1pueloc","[{""page_index"":0,""viewing_time"":2014.0800000000745},{""page_index"":1,""viewing_time"":851.0100000000093},{""page_index"":2,""viewing_time"":1137.3099999999395}]","","","","","","",""
"5088.594999999972","","","instructions","416","911877","0.0-416.0","e1pueloc","[{""page_index"":0,""viewing_time"":793.5849999999627},{""page_index"":1,""viewing_time"":3278.7750000000233},{""page_index"":2,""viewing_time"":1016.0749999999534}]","","","","","","",""
"","","","call-function","417","911879","0.0-417.0","e1pueloc","","","","","","","",""
"null","","","html-keyboard-response","418","913382","0.0-418.0","e1pueloc","","<span style=""color:Black; font-size:50px;"">Agent A","null","","","","",""
"null","","","video-keyboard-response","419","916446","0.0-419.0","e1pueloc","","","null","","Agent A","veridical","STIM_SET_1_REAL/713779.bmp_pp152_L2_V1.0_veridical_freeview_isoFalse_fps144.mp4",""
"null","","","html-keyboard-response","420","917951","0.0-420.0","e1pueloc","","<span style=""color:Black; font-size:50px;"">Agent B","null","","","","",""
"null","","","video-keyboard-response","421","921037","0.0-421.0","e1pueloc","","","null","","Agent B","scrambled","STIM_SET_3/1592305.bmp_pp65_L3_V2_veridical_freeview_isoFalsemismatch_713779.bmp_L2_fps90.mp4",""
"","","","call-function","422","921038","0.0-422.0","e1pueloc","","","","","","","",""
"1643.4150000000373","{""judgement"":0}","[0]","survey-likert","423","922682","0.0-423.0","e1pueloc","","","","","","","","0"
"2541.149999999907","{""confidence"":1}","[0]","survey-likert","424","925225","0.0-424.0","e1pueloc","","","","","","","",""
"","","","call-function","425","925226","0.0-425.0","e1pueloc","","","","","","","",""
"null","","","html-keyboard-response","426","926728","0.0-426.0","e1pueloc","","<span style=""color:Black; font-size:50px;"">Agent A","null","","","","",""
"null","","","video-keyboard-response","427","929812","0.0-427.0","e1pueloc","","","null","","Agent A","scrambled","STIM_SET_3/1592747.bmp_pp53_L2_V2_veridical_freeview_isoFalsemismatch_713593.bmp_L1_fps90.mp4",""
"null","","","html-keyboard-response","428","931318","0.0-428.0","e1pueloc","","<span style=""color:Black; font-size:50px;"">Agent B","null","","","","",""
"null","","","video-keyboard-response","429","934395","0.0-429.0","e1pueloc","","","null","","Agent B","veridical","STIM_SET_1_REAL/713593.bmp_pp64_L1_V1.0_veridical_freeview_isoFalse_fps144.mp4",""
"","","","call-function","430","934396","0.0-430.0","e1pueloc","","","","","","","",""
"1739.859999999986","{""judgement"":1}","[0]","survey-likert","431","936137","0.0-431.0","e1pueloc","","","","","","","","1"
"1275.8499999999767","{""confidence"":3}","[0]","survey-likert","432","937415","0.0-432.0","e1pueloc","","","","","","","",""
"","","","call-function","433","937416","0.0-433.0","e1pueloc","","","","","","","",""
"null","","","html-keyboard-response","434","938918","0.0-434.0","e1pueloc","","<span style=""color:Black; font-size:50px;"">Agent A","null","","","","",""
"null","","","video-keyboard-response","435","942035","0.0-435.0","e1pueloc","","","null","","Agent A","scrambled","STIM_SET_3/1160189.bmp_pp64_L1_V2_veridical_freeview_isoFalsemismatch_1592581.bmp_L3_fps90.mp4",""
"null","","","html-keyboard-response","436","943540","0.0-436.0","e1pueloc","","<span style=""color:Black; font-size:50px;"">Agent B","null","","","","",""
"null","","","video-keyboard-response","437","946637","0.0-437.0","e1pueloc","","","null","","Agent B","veridical","STIM_SET_1_REAL/1592581.bmp_pp100_L3_V1.0_veridical_freeview_isoFalse_fps144.mp4",""
"","","","call-function","438","946638","0.0-438.0","e1pueloc","","","","","","","",""
"2322.2299999999814","{""judgement"":1}","[0]","survey-likert","439","948961","0.0-439.0","e1pueloc","","","","","","","","1"
"1123.2149999999674","{""confidence"":1}","[0]","survey-likert","440","950086","0.0-440.0","e1pueloc","","","","","","","",""
"","","","call-function","441","950087","0.0-441.0","e1pueloc","","","","","","","",""
"null","","","html-keyboard-response","442","951588","0.0-442.0","e1pueloc","","<span style=""color:Black; font-size:50px;"">Agent A","null","","","","",""
"null","","","video-keyboard-response","443","954678","0.0-443.0","e1pueloc","","","null","","Agent A","veridical","STIM_SET_1_REAL/1592619.bmp_pp56_L3_V1.0_veridical_freeview_isoFalse_fps144.mp4",""
"null","","","html-keyboard-response","444","956181","0.0-444.0","e1pueloc","","<span style=""color:Black; font-size:50px;"">Agent B","null","","","","",""
"null","","","video-keyboard-response","445","959298","0.0-445.0","e1pueloc","","","null","","Agent B","scrambled","STIM_SET_3/150463.bmp_pp55_L3_V2_veridical_freeview_isoFalsemismatch_1592619.bmp_L3_fps90.mp4",""
"","","","call-function","446","959299","0.0-446.0","e1pueloc","","","","","","","",""
"4299.090000000084","{""judgement"":1}","[0]","survey-likert","447","963599","0.0-447.0","e1pueloc","","","","","","","","0"
"1876.7149999999674","{""confidence"":2}","[0]","survey-likert","448","965478","0.0-448.0","e1pueloc","","","","","","","",""
"","","","call-function","449","965479","0.0-449.0","e1pueloc","","","","","","","",""
"null","","","html-keyboard-response","450","966983","0.0-450.0","e1pueloc","","<span style=""color:Black; font-size:50px;"">Agent A","null","","","","",""
"null","","","video-keyboard-response","451","970073","0.0-451.0","e1pueloc","","","null","","Agent A","veridical","STIM_SET_1_REAL/1159446.bmp_pp60_L3_V1.0_veridical_freeview_isoFalse_fps144.mp4",""
"null","","","html-keyboard-response","452","971576","0.0-452.0","e1pueloc","","<span style=""color:Black; font-size:50px;"">Agent B","null","","","","",""
"null","","","video-keyboard-response","453","974675","0.0-453.0","e1pueloc","","","null","","Agent B","scrambled","STIM_SET_3/1592044.bmp_pp94_L2_V2_veridical_freeview_isoFalsemismatch_1159446.bmp_L3_fps90.mp4",""
"","","","call-function","454","974676","0.0-454.0","e1pueloc","","","","","","","",""
"1453.8399999999674","{""judgement"":0}","[0]","survey-likert","455","976131","0.0-455.0","e1pueloc","","","","","","","","0"
"1226.3499999999767","{""confidence"":3}","[0]","survey-likert","456","977359","0.0-456.0","e1pueloc","","","","","","","",""
"","","","call-function","457","977360","0.0-457.0","e1pueloc","","","","","","","",""
"null","","","html-keyboard-response","458","978861","0.0-458.0","e1pueloc","","<span style=""color:Black; font-size:50px;"">Agent A","null","","","","",""
"null","","","video-keyboard-response","459","981933","0.0-459.0","e1pueloc","","","null","","Agent A","veridical","STIM_SET_1_REAL/1592499.bmp_pp96_L2_V1.0_veridical_freeview_isoFalse_fps144.mp4",""
"null","","","html-keyboard-response","460","983438","0.0-460.0","e1pueloc","","<span style=""color:Black; font-size:50px;"">Agent B","null","","","","",""
"null","","","video-keyboard-response","461","986523","0.0-461.0","e1pueloc","","","null","","Agent B","scrambled","STIM_SET_3/1159819.bmp_pp151_L1_V2_veridical_freeview_isoFalsemismatch_1592499.bmp_L2_fps90.mp4",""
"","","","call-function","462","986524","0.0-462.0","e1pueloc","","","","","","","",""
"3314.265000000014","{""judgement"":0}","[0]","survey-likert","463","989839","0.0-463.0","e1pueloc","","","","","","","","0"
"1301.9099999999162","{""confidence"":2}","[0]","survey-likert","464","991143","0.0-464.0","e1pueloc","","","","","","","",""
"","","","call-function","465","991144","0.0-465.0","e1pueloc","","","","","","","",""
"null","","","html-keyboard-response","466","992648","0.0-466.0","e1pueloc","","<span style=""color:Black; font-size:50px;"">Agent A","null","","","","",""
"null","","","video-keyboard-response","467","995731","0.0-467.0","e1pueloc","","","null","","Agent A","scrambled","STIM_SET_3/713328.bmp_pp86_L2_V2_veridical_freeview_isoFalsemismatch_1591994.bmp_L3_fps90.mp4",""
"null","","","html-keyboard-response","468","997235","0.0-468.0","e1pueloc","","<span style=""color:Black; font-size:50px;"">Agent B","null","","","","",""
"null","","","video-keyboard-response","469","1000313","0.0-469.0","e1pueloc","","","null","","Agent B","veridical","STIM_SET_1_REAL/1591994.bmp_pp69_L3_V1.0_veridical_freeview_isoFalse_fps144.mp4",""
"","","","call-function","470","1000314","0.0-470.0","e1pueloc","","","","","","","",""
"1813.3200000000652","{""judgement"":0}","[0]","survey-likert","471","1002129","0.0-471.0","e1pueloc","","","","","","","","1"
"1275.0449999999255","{""confidence"":2}","[0]","survey-likert","472","1003406","0.0-472.0","e1pueloc","","","","","","","",""
"","","","call-function","473","1003408","0.0-473.0","e1pueloc","","","","","","","",""
"null","","","html-keyboard-response","474","1004912","0.0-474.0","e1pueloc","","<span style=""color:Black; font-size:50px;"">Agent A","null","","","","",""
"null","","","video-keyboard-response","475","1007992","0.0-475.0","e1pueloc","","","null","","Agent A","veridical","STIM_SET_1_REAL/1591876.bmp_pp63_L1_V1.0_veridical_freeview_isoFalse_fps144.mp4",""
"null","","","html-keyboard-response","476","1009495","0.0-476.0","e1pueloc","","<span style=""color:Black; font-size:50px;"">Agent B","null","","","","",""
"null","","","video-keyboard-response","477","1012579","0.0-477.0","e1pueloc","","","null","","Agent B","scrambled","STIM_SET_3/1159427.bmp_pp98_L1_V2_veridical_freeview_isoFalsemismatch_1591876.bmp_L1_fps90.mp4",""
"","","","call-function","478","1012580","0.0-478.0","e1pueloc","","","","","","","",""
"4270.969999999972","{""judgement"":0}","[0]","survey-likert","479","1016852","0.0-479.0","e1pueloc","","","","","","","","0"
"2330.57500000007","{""confidence"":2}","[0]","survey-likert","480","1019185","0.0-480.0","e1pueloc","","","","","","","",""
"","","","call-function","481","1019186","0.0-481.0","e1pueloc","","","","","","","",""
"null","","","html-keyboard-response","482","1020688","0.0-482.0","e1pueloc","","<span style=""color:Black; font-size:50px;"">Agent A","null","","","","",""
"null","","","video-keyboard-response","483","1023769","0.0-483.0","e1pueloc","","","null","","Agent A","veridical","STIM_SET_1_REAL/712977.bmp_pp51_L1_V1.0_veridical_freeview_isoFalse_fps144.mp4",""
"null","","","html-keyboard-response","484","1025272","0.0-484.0","e1pueloc","","<span style=""color:Black; font-size:50px;"">Agent B","null","","","","",""
"null","","","video-keyboard-response","485","1028362","0.0-485.0","e1pueloc","","","null","","Agent B","scrambled","STIM_SET_3/1592951.bmp_pp80_L3_V2_veridical_freeview_isoFalsemismatch_712977.bmp_L1_fps90.mp4",""
"","","","call-function","486","1028363","0.0-486.0","e1pueloc","","","","","","","",""
"2592.3349999999627","{""judgement"":1}","[0]","survey-likert","487","1030956","0.0-487.0","e1pueloc","","","","","","","","0"
"3320.555000000051","{""confidence"":2}","[0]","survey-likert","488","1034279","0.0-488.0","e1pueloc","","","","","","","",""
"","","","call-function","489","1034280","0.0-489.0","e1pueloc","","","","","","","",""
"null","","","html-keyboard-response","490","1035784","0.0-490.0","e1pueloc","","<span style=""color:Black; font-size:50px;"">Agent A","null","","","","",""
"null","","","video-keyboard-response","491","1038888","0.0-491.0","e1pueloc","","","null","","Agent A","veridical","STIM_SET_1_REAL/1592804.bmp_pp91_L3_V1.0_veridical_freeview_isoFalse_fps144.mp4",""
"null","","","html-keyboard-response","492","1040394","0.0-492.0","e1pueloc","","<span style=""color:Black; font-size:50px;"">Agent B","null","","","","",""
"null","","","video-keyboard-response","493","1043485","0.0-493.0","e1pueloc","","","null","","Agent B","scrambled","STIM_SET_3/1591920.bmp_pp97_L3_V2_veridical_freeview_isoFalsemismatch_1592804.bmp_L3_fps90.mp4",""
"","","","call-function","494","1043487","0.0-494.0","e1pueloc","","","","","","","",""
"2231.0999999999767","{""judgement"":0}","[0]","survey-likert","495","1045719","0.0-495.0","e1pueloc","","","","","","","","0"
"1966.0849999999627","{""confidence"":1}","[0]","survey-likert","496","1047687","0.0-496.0","e1pueloc","","","","","","","",""
"2203.9949999999953","","","instructions","497","1049892","0.0-497.0","e1pueloc","[{""page_index"":0,""viewing_time"":1230.5649999998277},{""page_index"":1,""viewing_time"":892.0750000001863},{""page_index"":2,""viewing_time"":81.18499999982305}]","","","","","","",""
"18580.719999999972","","","instructions","498","1068474","0.0-498.0","e1pueloc","[{""page_index"":0,""viewing_time"":1034.1499999999069},{""page_index"":1,""viewing_time"":463.05000000004657},{""page_index"":2,""viewing_time"":17083.409999999916}]","","","","","","",""
"","","","call-function","499","1068475","0.0-499.0","e1pueloc","","","","","","","",""
"null","","","html-keyboard-response","500","1069977","0.0-500.0","e1pueloc","","<span style=""color:Black; font-size:50px;"">Agent A","null","","","","",""
"null","","","video-keyboard-response","501","1073060","0.0-501.0","e1pueloc","","","null","","Agent A","scrambled","STIM_SET_3/1159860.bmp_pp152_L2_V2_veridical_freeview_isoFalsemismatch_1159621.bmp_L3_fps90.mp4",""
"null","","","html-keyboard-response","502","1074564","0.0-502.0","e1pueloc","","<span style=""color:Black; font-size:50px;"">Agent B","null","","","","",""
"null","","","video-keyboard-response","503","1077630","0.0-503.0","e1pueloc","","","null","","Agent B","veridical","STIM_SET_1_REAL/1159621.bmp_pp92_L3_V1.0_veridical_freeview_isoFalse_fps144.mp4",""
"","","","call-function","504","1077631","0.0-504.0","e1pueloc","","","","","","","",""
"1611.434999999823","{""judgement"":0}","[0]","survey-likert","505","1079243","0.0-505.0","e1pueloc","","","","","","","","1"
"1819.470000000205","{""confidence"":2}","[0]","survey-likert","506","1081065","0.0-506.0","e1pueloc","","","","","","","",""
"","","","call-function","507","1081066","0.0-507.0","e1pueloc","","","","","","","",""
"null","","","html-keyboard-response","508","1082568","0.0-508.0","e1pueloc","","<span style=""color:Black; font-size:50px;"">Agent A","null","","","","",""
"null","","","video-keyboard-response","509","1085670","0.0-509.0","e1pueloc","","","null","","Agent A","veridical","STIM_SET_1_REAL/1159768.bmp_pp89_L1_V1.0_veridical_freeview_isoFalse_fps144.mp4",""
"null","","","html-keyboard-response","510","1087172","0.0-510.0","e1pueloc","","<span style=""color:Black; font-size:50px;"">Agent B","null","","","","",""
"null","","","video-keyboard-response","511","1090262","0.0-511.0","e1pueloc","","","null","","Agent B","scrambled","STIM_SET_3/713788.bmp_pp52_L1_V2_veridical_freeview_isoFalsemismatch_1159768.bmp_L1_fps90.mp4",""
"","","","call-function","512","1090263","0.0-512.0","e1pueloc","","","","","","","",""
"1661.0400000000373","{""judgement"":1}","[0]","survey-likert","513","1091925","0.0-513.0","e1pueloc","","","","","","","","0"
"2872.939999999944","{""confidence"":3}","[0]","survey-likert","514","1094800","0.0-514.0","e1pueloc","","","","","","","",""
"","","","call-function","515","1094801","0.0-515.0","e1pueloc","","","","","","","",""
"null","","","html-keyboard-response","516","1096303","0.0-516.0","e1pueloc","","<span style=""color:Black; font-size:50px;"">Agent A","null","","","","",""
"null","","","video-keyboard-response","517","1099381","0.0-517.0","e1pueloc","","","null","","Agent A","veridical","STIM_SET_1_REAL/1159784.bmp_pp73_L3_V1.0_veridical_freeview_isoFalse_fps144.mp4",""
"null","","","html-keyboard-response","518","1100884","0.0-518.0","e1pueloc","","<span style=""color:Black; font-size:50px;"">Agent B","null","","","","",""
"null","","","video-keyboard-response","519","1104007","0.0-519.0","e1pueloc","","","null","","Agent B","scrambled","STIM_SET_3/61513.bmp_pp75_L1_V2_veridical_freeview_isoFalsemismatch_1159784.bmp_L3_fps90.mp4",""
"","","","call-function","520","1104009","0.0-520.0","e1pueloc","","","","","","","",""
"1904.8649999999907","{""judgement"":0}","[0]","survey-likert","521","1105915","0.0-521.0","e1pueloc","","","","","","","","0"
"2251.1450000000186","{""confidence"":2}","[0]","survey-likert","522","1108169","0.0-522.0","e1pueloc","","","","","","","",""
"","","","call-function","523","1108171","0.0-523.0","e1pueloc","","","","","","","",""
"null","","","html-keyboard-response","524","1109676","0.0-524.0","e1pueloc","","<span style=""color:Black; font-size:50px;"">Agent A","null","","","","",""
"null","","","video-keyboard-response","525","1112757","0.0-525.0","e1pueloc","","","null","","Agent A","scrambled","STIM_SET_3/713689.bmp_pp153_L3_V2_veridical_freeview_isoFalsemismatch_498175.bmp_L1_fps90.mp4",""
"null","","","html-keyboard-response","526","1114259","0.0-526.0","e1pueloc","","<span style=""color:Black; font-size:50px;"">Agent B","null","","","","",""
"null","","","video-keyboard-response","527","1117338","0.0-527.0","e1pueloc","","","null","","Agent B","veridical","STIM_SET_1_REAL/498175.bmp_pp154_L1_V1.0_veridical_freeview_isoFalse_fps144.mp4",""
"","","","call-function","528","1117339","0.0-528.0","e1pueloc","","","","","","","",""
"1765.530000000028","{""judgement"":1}","[0]","survey-likert","529","1119106","0.0-529.0","e1pueloc","","","","","","","","1"
"1863.5","{""confidence"":2}","[0]","survey-likert","530","1120971","0.0-530.0","e1pueloc","","","","","","","",""
"","","","call-function","531","1120972","0.0-531.0","e1pueloc","","","","","","","",""
"null","","","html-keyboard-response","532","1122475","0.0-532.0","e1pueloc","","<span style=""color:Black; font-size:50px;"">Agent A","null","","","","",""
"null","","","video-keyboard-response","533","1125584","0.0-533.0","e1pueloc","","","null","","Agent A","scrambled","STIM_SET_3/713652.bmp_pp89_L1_V2_veridical_freeview_isoFalsemismatch_1592807.bmp_L1_fps90.mp4",""
"null","","","html-keyboard-response","534","1127090","0.0-534.0","e1pueloc","","<span style=""color:Black; font-size:50px;"">Agent B","null","","","","",""
"null","","","video-keyboard-response","535","1130194","0.0-535.0","e1pueloc","","","null","","Agent B","veridical","STIM_SET_1_REAL/1592807.bmp_pp68_L1_V1.0_veridical_freeview_isoFalse_fps144.mp4",""
"","","","call-function","536","1130195","0.0-536.0","e1pueloc","","","","","","","",""
"1757.9500000001863","{""judgement"":1}","[0]","survey-likert","537","1131953","0.0-537.0","e1pueloc","","","","","","","","1"
"1653.4250000000466","{""confidence"":3}","[0]","survey-likert","538","1133609","0.0-538.0","e1pueloc","","","","","","","",""
"","","","call-function","539","1133610","0.0-539.0","e1pueloc","","","","","","","",""
"null","","","html-keyboard-response","540","1135115","0.0-540.0","e1pueloc","","<span style=""color:Black; font-size:50px;"">Agent A","null","","","","",""
"null","","","video-keyboard-response","541","1138217","0.0-541.0","e1pueloc","","","null","","Agent A","veridical","STIM_SET_1_REAL/1592397.bmp_pp85_L3_V1.0_veridical_freeview_isoFalse_fps144.mp4",""
"null","","","html-keyboard-response","542","1139722","0.0-542.0","e1pueloc","","<span style=""color:Black; font-size:50px;"">Agent B","null","","","","",""
"null","","","video-keyboard-response","543","1142843","0.0-543.0","e1pueloc","","","null","","Agent B","scrambled","STIM_SET_3/713790.bmp_pp100_L3_V2_veridical_freeview_isoFalsemismatch_1592397.bmp_L3_fps90.mp4",""
"","","","call-function","544","1142844","0.0-544.0","e1pueloc","","","","","","","",""
"3971.2900000000373","{""judgement"":1}","[0]","survey-likert","545","1146816","0.0-545.0","e1pueloc","","","","","","","","0"
"2825.219999999972","{""confidence"":2}","[0]","survey-likert","546","1149643","0.0-546.0","e1pueloc","","","","","","","",""
"","","","call-function","547","1149644","0.0-547.0","e1pueloc","","","","","","","",""
"null","","","html-keyboard-response","548","1151147","0.0-548.0","e1pueloc","","<span style=""color:Black; font-size:50px;"">Agent A","null","","","","",""
"null","","","video-keyboard-response","549","1154246","0.0-549.0","e1pueloc","","","null","","Agent A","veridical","STIM_SET_1_REAL/285933.bmp_pp81_L1_V1.0_veridical_freeview_isoFalse_fps144.mp4",""
"null","","","html-keyboard-response","550","1155754","0.0-550.0","e1pueloc","","<span style=""color:Black; font-size:50px;"">Agent B","null","","","","",""
"null","","","video-keyboard-response","551","1158882","0.0-551.0","e1pueloc","","","null","","Agent B","scrambled","STIM_SET_3/1159973.bmp_pp98_L1_V2_veridical_freeview_isoFalsemismatch_285933.bmp_L1_fps90.mp4",""
"","","","call-function","552","1158884","0.0-552.0","e1pueloc","","","","","","","",""
"2573.4449999998324","{""judgement"":0}","[0]","survey-likert","553","1161459","0.0-553.0","e1pueloc","","","","","","","","0"
"1656.5200000000186","{""confidence"":3}","[0]","survey-likert","554","1163118","0.0-554.0","e1pueloc","","","","","","","",""
"","","","call-function","555","1163119","0.0-555.0","e1pueloc","","","","","","","",""
"null","","","html-keyboard-response","556","1164623","0.0-556.0","e1pueloc","","<span style=""color:Black; font-size:50px;"">Agent A","null","","","","",""
"null","","","video-keyboard-response","557","1167686","0.0-557.0","e1pueloc","","","null","","Agent A","scrambled","STIM_SET_3/286034.bmp_pp69_L3_V2_veridical_freeview_isoFalsemismatch_713403.bmp_L3_fps90.mp4",""
"null","","","html-keyboard-response","558","1169192","0.0-558.0","e1pueloc","","<span style=""color:Black; font-size:50px;"">Agent B","null","","","","",""
"null","","","video-keyboard-response","559","1172259","0.0-559.0","e1pueloc","","","null","","Agent B","veridical","STIM_SET_1_REAL/713403.bmp_pp80_L3_V1.0_veridical_freeview_isoFalse_fps144.mp4",""
"","","","call-function","560","1172260","0.0-560.0","e1pueloc","","","","","","","",""
"1902.7649999998976","{""judgement"":1}","[0]","survey-likert","561","1174164","0.0-561.0","e1pueloc","","","","","","","","1"
"1430.9450000000652","{""confidence"":3}","[0]","survey-likert","562","1175597","0.0-562.0","e1pueloc","","","","","","","",""
"","","","call-function","563","1175598","0.0-563.0","e1pueloc","","","","","","","",""
"null","","","html-keyboard-response","564","1177100","0.0-564.0","e1pueloc","","<span style=""color:Black; font-size:50px;"">Agent A","null","","","","",""
"null","","","video-keyboard-response","565","1180194","0.0-565.0","e1pueloc","","","null","","Agent A","scrambled","STIM_SET_3/1591781.bmp_pp63_L1_V2_veridical_freeview_isoFalsemismatch_1593041.bmp_L1_fps90.mp4",""
"null","","","html-keyboard-response","566","1181701","0.0-566.0","e1pueloc","","<span style=""color:Black; font-size:50px;"">Agent B","null","","","","",""
"null","","","video-keyboard-response","567","1184787","0.0-567.0","e1pueloc","","","null","","Agent B","veridical","STIM_SET_1_REAL/1593041.bmp_pp58_L1_V1.0_veridical_freeview_isoFalse_fps144.mp4",""
"","","","call-function","568","1184788","0.0-568.0","e1pueloc","","","","","","","",""
"1827.8149999999441","{""judgement"":0}","[0]","survey-likert","569","1186617","0.0-569.0","e1pueloc","","","","","","","","1"
"1174.2849999999162","{""confidence"":2}","[0]","survey-likert","570","1187793","0.0-570.0","e1pueloc","","","","","","","",""
"","","","call-function","571","1187794","0.0-571.0","e1pueloc","","","","","","","",""
"null","","","html-keyboard-response","572","1189300","0.0-572.0","e1pueloc","","<span style=""color:Black; font-size:50px;"">Agent A","null","","","","",""
"null","","","video-keyboard-response","573","1192411","0.0-573.0","e1pueloc","","","null","","Agent A","scrambled","STIM_SET_3/1592129.bmp_pp153_L3_V2_veridical_freeview_isoFalsemismatch_1159813.bmp_L2_fps90.mp4",""
"null","","","html-keyboard-response","574","1193914","0.0-574.0","e1pueloc","","<span style=""color:Black; font-size:50px;"">Agent B","null","","","","",""
"null","","","video-keyboard-response","575","1197032","0.0-575.0","e1pueloc","","","null","","Agent B","veridical","STIM_SET_1_REAL/1159813.bmp_pp79_L2_V1.0_veridical_freeview_isoFalse_fps144.mp4",""
"","","","call-function","576","1197034","0.0-576.0","e1pueloc","","","","","","","",""
"2068.2099999999627","{""judgement"":1}","[0]","survey-likert","577","1199103","0.0-577.0","e1pueloc","","","","","","","","1"
"1838.1800000001676","{""confidence"":1}","[0]","survey-likert","578","1200943","0.0-578.0","e1pueloc","","","","","","","",""
"2353.4600000001956","","","instructions","579","1203297","0.0-579.0","e1pueloc","[{""page_index"":0,""viewing_time"":2353.3250000001863}]","","","","","","",""
"1471.910000000149","","","instructions","580","1204770","0.0-580.0","e1pueloc","[{""page_index"":0,""viewing_time"":1471.8000000000466}]","","","","","","",""
"7077.239999999991","{""post-1"":2}","[0]","survey-likert","581","1211849","0.0-581.0","e1pueloc","","","","","","","",""
"2641.3249999999534","{""post-1"":0}","[0]","survey-likert","582","1214492","0.0-582.0","e1pueloc","","","","","","","",""
"8158.465000000084","{""post-2"":2}","[0]","survey-likert","583","1222652","0.0-583.0","e1pueloc","","","","","","","",""
"2801.435000000056","{""post-2"":0}","[0]","survey-likert","584","1225456","0.0-584.0","e1pueloc","","","","","","","",""
"7466.090000000084","{""post-3"":3}","[0]","survey-likert","585","1232923","0.0-585.0","e1pueloc","","","","","","","",""
"3483.3600000001024","{""post-3"":0}","[0]","survey-likert","586","1236409","0.0-586.0","e1pueloc","","","","","","","",""
"4220.475000000093","{""post-4"":2}","[0]","survey-likert","587","1240631","0.0-587.0","e1pueloc","","","","","","","",""
"3428.755000000121","{""post-4"":1}","[0]","survey-likert","588","1244062","0.0-588.0","e1pueloc","","","","","","","",""
"6757.639999999898","{""post-5"":0}","[0]","survey-likert","589","1250822","0.0-589.0","e1pueloc","","","","","","","",""
"2056.8549999999814","{""post-5"":3}","[0]","survey-likert","590","1252882","0.0-590.0","e1pueloc","","","","","","","",""
"27793.66000000015","{""Q0"":""once again I thought it was engaging. i felt better at comparing in this round""}","","survey-text","591","1280684","0.0-591.0","e1pueloc","","","","","","","",""
"43848.90500000003","{""Q0"":""The easiest trials were when there were faces present because I feel like a human would be more likely to look at the face rather than anywhere else""}","","survey-text","592","1324537","0.0-592.0","e1pueloc","","","","","","","",""
"41943.89999999991","{""Q0"":""I thought the more difficult trials were the ones without faces but i tried to follow the paths of the views and see which one looked more drawn out and which one seemed more natural""}","","survey-text","593","1366484","0.0-593.0","e1pueloc","","","","","","","",""
"1156.1350000000093","","","instructions","594","1367643","0.0-594.0","e1pueloc","[{""page_index"":0,""viewing_time"":1156}]","","","","","","",""
"50413.97999999998","{""Experimenter_end"":[""Printed ID# e1pueloc on consent form"",""Given subject SONA credit or payment"",""Given the subject debrief form""]}","[0]","survey-multi-select","595","1418060","0.0-595.0","e1pueloc","","","","","","","",""
