"rt","responses","question_order","trial_type","trial_index","time_elapsed","internal_node_id","ID","view_history","stimulus","key_press","value","agent","condition","image","correct_answer"
"9087.925","{""Experimenter"":[""Confirmed subject's identity (ID card)"",""Confirmed normal or corrected-to-normal vision"",""Obtained consent (signature and date)"",""Checked the test room lighting"",""Checked computer screen lighting"",""Checked distance from screen to chin rest (50cm)"",""Cleaned and adjusted chin rest"",""Counterbalanced the order of the tasks"",""Opened the experiment in Firefox"",""Made the experiment full screen"",""Encouraged subject to silence phone, put away distractors, etc.""]}","[0]","survey-multi-select","0","9095","0.0-0.0","e3gaamyz","","","","","","","",""
"162991.12000000002","","","instructions","1","172088","0.0-1.0","e3gaamyz","[{""page_index"":0,""viewing_time"":162990.97}]","","","","","","",""
"5929.635000000009","","","instructions","2","178019","0.0-2.0","e3gaamyz","[{""page_index"":0,""viewing_time"":2068.540000000008},{""page_index"":1,""viewing_time"":2366.13499999998},{""page_index"":2,""viewing_time"":1494.8400000000256}]","","","","","","",""
"1945.2600000000093","","","instructions","3","179965","0.0-3.0","e3gaamyz","[{""page_index"":0,""viewing_time"":1945.1549999999988}]","","","","","","",""
"null","","","video-keyboard-response","4","183041","0.0-4.0","e3gaamyz","","","null","","","","",""
"12449.190000000002","","","instructions","5","195491","0.0-5.0","e3gaamyz","[{""page_index"":0,""viewing_time"":2519.970000000001},{""page_index"":1,""viewing_time"":4190.029999999999},{""page_index"":2,""viewing_time"":1207.0350000000035},{""page_index"":3,""viewing_time"":1566.3500000000058},{""page_index"":4,""viewing_time"":2965.670000000013}]","","","","","","",""
"5718.529999999999","","","instructions","6","201210","0.0-6.0","e3gaamyz","[{""page_index"":0,""viewing_time"":5718.390000000014}]","","","","","","",""
"","","","call-function","7","201211","0.0-7.0","e3gaamyz","","","","","","","",""
"null","","","html-keyboard-response","8","202715","0.0-8.0","e3gaamyz","","<span style=""color:Black; font-size:50px;"">Agent A","null","","","","",""
"null","","","video-keyboard-response","9","205784","0.0-9.0","e3gaamyz","","","null","","Agent A","veridical","STIM_SET_1_REAL/285933.bmp_pp81_L1_V1.0_veridical_freeview_isoFalse_fps144.mp4",""
"null","","","html-keyboard-response","10","207286","0.0-10.0","e3gaamyz","","<span style=""color:Black; font-size:50px;"">Agent B","null","","","","",""
"null","","","video-keyboard-response","11","210355","0.0-11.0","e3gaamyz","","","null","","Agent B","scrambled","STIM_SET_3/1159973.bmp_pp98_L1_V2_veridical_freeview_isoFalsemismatch_285933.bmp_L1_fps90.mp4",""
"","","","call-function","12","210356","0.0-12.0","e3gaamyz","","","","","","","",""
"1846.1100000000151","{""judgement"":0}","[0]","survey-likert","13","212203","0.0-13.0","e3gaamyz","","","","","","","","0"
"1904.5100000000093","{""confidence"":3}","[0]","survey-likert","14","214109","0.0-14.0","e3gaamyz","","","","","","","",""
"","","","call-function","15","214110","0.0-15.0","e3gaamyz","","","","","","","",""
"null","","","html-keyboard-response","16","215612","0.0-16.0","e3gaamyz","","<span style=""color:Black; font-size:50px;"">Agent A","null","","","","",""
"null","","","video-keyboard-response","17","218683","0.0-17.0","e3gaamyz","","","null","","Agent A","scrambled","STIM_SET_3/1159329.bmp_pp61_L2_V2_veridical_freeview_isoFalsemismatch_1592817.bmp_L3_fps90.mp4",""
"null","","","html-keyboard-response","18","220187","0.0-18.0","e3gaamyz","","<span style=""color:Black; font-size:50px;"">Agent B","null","","","","",""
"null","","","video-keyboard-response","19","223279","0.0-19.0","e3gaamyz","","","null","","Agent B","veridical","STIM_SET_1_REAL/1592817.bmp_pp55_L3_V1.0_veridical_freeview_isoFalse_fps144.mp4",""
"","","","call-function","20","223279","0.0-20.0","e3gaamyz","","","","","","","",""
"2143.149999999994","{""judgement"":1}","[0]","survey-likert","21","225424","0.0-21.0","e3gaamyz","","","","","","","","1"
"2449.2299999999814","{""confidence"":3}","[0]","survey-likert","22","227875","0.0-22.0","e3gaamyz","","","","","","","",""
"","","","call-function","23","227875","0.0-23.0","e3gaamyz","","","","","","","",""
"null","","","html-keyboard-response","24","229380","0.0-24.0","e3gaamyz","","<span style=""color:Black; font-size:50px;"">Agent A","null","","","","",""
"null","","","video-keyboard-response","25","232471","0.0-25.0","e3gaamyz","","","null","","Agent A","scrambled","STIM_SET_3/1592305.bmp_pp65_L3_V2_veridical_freeview_isoFalsemismatch_713779.bmp_L2_fps90.mp4",""
"null","","","html-keyboard-response","26","233978","0.0-26.0","e3gaamyz","","<span style=""color:Black; font-size:50px;"">Agent B","null","","","","",""
"null","","","video-keyboard-response","27","237066","0.0-27.0","e3gaamyz","","","null","","Agent B","veridical","STIM_SET_1_REAL/713779.bmp_pp152_L2_V1.0_veridical_freeview_isoFalse_fps144.mp4",""
"","","","call-function","28","237067","0.0-28.0","e3gaamyz","","","","","","","",""
"1900.2950000000128","{""judgement"":1}","[0]","survey-likert","29","238969","0.0-29.0","e3gaamyz","","","","","","","","1"
"1494.4100000000035","{""confidence"":1}","[0]","survey-likert","30","240465","0.0-30.0","e3gaamyz","","","","","","","",""
"","","","call-function","31","240466","0.0-31.0","e3gaamyz","","","","","","","",""
"null","","","html-keyboard-response","32","241971","0.0-32.0","e3gaamyz","","<span style=""color:Black; font-size:50px;"">Agent A","null","","","","",""
"null","","","video-keyboard-response","33","245045","0.0-33.0","e3gaamyz","","","null","","Agent A","scrambled","STIM_SET_3/713858.bmp_pp57_L1_V2_veridical_freeview_isoFalsemismatch_713749.bmp_L2_fps90.mp4",""
"null","","","html-keyboard-response","34","246551","0.0-34.0","e3gaamyz","","<span style=""color:Black; font-size:50px;"">Agent B","null","","","","",""
"null","","","video-keyboard-response","35","249627","0.0-35.0","e3gaamyz","","","null","","Agent B","veridical","STIM_SET_1_REAL/713749.bmp_pp88_L2_V1.0_veridical_freeview_isoFalse_fps144.mp4",""
"","","","call-function","36","249628","0.0-36.0","e3gaamyz","","","","","","","",""
"1780.1699999999837","{""judgement"":1}","[0]","survey-likert","37","251410","0.0-37.0","e3gaamyz","","","","","","","","1"
"1498.4949999999953","{""confidence"":3}","[0]","survey-likert","38","252910","0.0-38.0","e3gaamyz","","","","","","","",""
"","","","call-function","39","252911","0.0-39.0","e3gaamyz","","","","","","","",""
"null","","","html-keyboard-response","40","254412","0.0-40.0","e3gaamyz","","<span style=""color:Black; font-size:50px;"">Agent A","null","","","","",""
"null","","","video-keyboard-response","41","257481","0.0-41.0","e3gaamyz","","","null","","Agent A","veridical","STIM_SET_1_REAL/1591961.bmp_pp67_L2_V1.0_veridical_freeview_isoFalse_fps144.mp4",""
"null","","","html-keyboard-response","42","258987","0.0-42.0","e3gaamyz","","<span style=""color:Black; font-size:50px;"">Agent B","null","","","","",""
"null","","","video-keyboard-response","43","262059","0.0-43.0","e3gaamyz","","","null","","Agent B","scrambled","STIM_SET_3/1592530.bmp_pp75_L1_V2_veridical_freeview_isoFalsemismatch_1591961.bmp_L2_fps90.mp4",""
"","","","call-function","44","262060","0.0-44.0","e3gaamyz","","","","","","","",""
"2794.5499999999884","{""judgement"":0}","[0]","survey-likert","45","264855","0.0-45.0","e3gaamyz","","","","","","","","0"
"1512.3850000000093","{""confidence"":1}","[0]","survey-likert","46","266369","0.0-46.0","e3gaamyz","","","","","","","",""
"","","","call-function","47","266369","0.0-47.0","e3gaamyz","","","","","","","",""
"null","","","html-keyboard-response","48","267870","0.0-48.0","e3gaamyz","","<span style=""color:Black; font-size:50px;"">Agent A","null","","","","",""
"null","","","video-keyboard-response","49","270977","0.0-49.0","e3gaamyz","","","null","","Agent A","veridical","STIM_SET_1_REAL/1159855.bmp_pp99_L2_V1.0_veridical_freeview_isoFalse_fps144.mp4",""
"null","","","html-keyboard-response","50","272481","0.0-50.0","e3gaamyz","","<span style=""color:Black; font-size:50px;"">Agent B","null","","","","",""
"null","","","video-keyboard-response","51","275572","0.0-51.0","e3gaamyz","","","null","","Agent B","scrambled","STIM_SET_3/285932.bmp_pp64_L1_V2_veridical_freeview_isoFalsemismatch_1159855.bmp_L2_fps90.mp4",""
"","","","call-function","52","275572","0.0-52.0","e3gaamyz","","","","","","","",""
"2254.0650000000023","{""judgement"":0}","[0]","survey-likert","53","277827","0.0-53.0","e3gaamyz","","","","","","","","0"
"1279.7099999999627","{""confidence"":3}","[0]","survey-likert","54","279108","0.0-54.0","e3gaamyz","","","","","","","",""
"","","","call-function","55","279109","0.0-55.0","e3gaamyz","","","","","","","",""
"null","","","html-keyboard-response","56","280611","0.0-56.0","e3gaamyz","","<span style=""color:Black; font-size:50px;"">Agent A","null","","","","",""
"null","","","video-keyboard-response","57","283704","0.0-57.0","e3gaamyz","","","null","","Agent A","veridical","STIM_SET_1_REAL/1592362.bmp_pp95_L2_V1.0_veridical_freeview_isoFalse_fps144.mp4",""
"null","","","html-keyboard-response","58","285207","0.0-58.0","e3gaamyz","","<span style=""color:Black; font-size:50px;"">Agent B","null","","","","",""
"null","","","video-keyboard-response","59","288300","0.0-59.0","e3gaamyz","","","null","","Agent B","scrambled","STIM_SET_3/150277.bmp_pp65_L3_V2_veridical_freeview_isoFalsemismatch_1592362.bmp_L2_fps90.mp4",""
"","","","call-function","60","288300","0.0-60.0","e3gaamyz","","","","","","","",""
"1447.359999999986","{""judgement"":0}","[0]","survey-likert","61","289748","0.0-61.0","e3gaamyz","","","","","","","","0"
"2177.0599999999977","{""confidence"":3}","[0]","survey-likert","62","291926","0.0-62.0","e3gaamyz","","","","","","","",""
"","","","call-function","63","291927","0.0-63.0","e3gaamyz","","","","","","","",""
"null","","","html-keyboard-response","64","293431","0.0-64.0","e3gaamyz","","<span style=""color:Black; font-size:50px;"">Agent A","null","","","","",""
"null","","","video-keyboard-response","65","296529","0.0-65.0","e3gaamyz","","","null","","Agent A","scrambled","STIM_SET_3/61513.bmp_pp75_L1_V2_veridical_freeview_isoFalsemismatch_1159784.bmp_L3_fps90.mp4",""
"null","","","html-keyboard-response","66","298036","0.0-66.0","e3gaamyz","","<span style=""color:Black; font-size:50px;"">Agent B","null","","","","",""
"null","","","video-keyboard-response","67","301139","0.0-67.0","e3gaamyz","","","null","","Agent B","veridical","STIM_SET_1_REAL/1159784.bmp_pp73_L3_V1.0_veridical_freeview_isoFalse_fps144.mp4",""
"","","","call-function","68","301139","0.0-68.0","e3gaamyz","","","","","","","",""
"2853.1699999999837","{""judgement"":1}","[0]","survey-likert","69","303993","0.0-69.0","e3gaamyz","","","","","","","","1"
"1401.8649999999907","{""confidence"":2}","[0]","survey-likert","70","305396","0.0-70.0","e3gaamyz","","","","","","","",""
"","","","call-function","71","305397","0.0-71.0","e3gaamyz","","","","","","","",""
"null","","","html-keyboard-response","72","306902","0.0-72.0","e3gaamyz","","<span style=""color:Black; font-size:50px;"">Agent A","null","","","","",""
"null","","","video-keyboard-response","73","309970","0.0-73.0","e3gaamyz","","","null","","Agent A","scrambled","STIM_SET_3/1592025.bmp_pp68_L1_V2_veridical_freeview_isoFalsemismatch_1592351.bmp_L1_fps90.mp4",""
"null","","","html-keyboard-response","74","311474","0.0-74.0","e3gaamyz","","<span style=""color:Black; font-size:50px;"">Agent B","null","","","","",""
"null","","","video-keyboard-response","75","314536","0.0-75.0","e3gaamyz","","","null","","Agent B","veridical","STIM_SET_1_REAL/1592351.bmp_pp51_L1_V1.0_veridical_freeview_isoFalse_fps144.mp4",""
"","","","call-function","76","314536","0.0-76.0","e3gaamyz","","","","","","","",""
"1767.179999999993","{""judgement"":1}","[0]","survey-likert","77","316304","0.0-77.0","e3gaamyz","","","","","","","","1"
"1680.710000000021","{""confidence"":3}","[0]","survey-likert","78","317986","0.0-78.0","e3gaamyz","","","","","","","",""
"","","","call-function","79","317987","0.0-79.0","e3gaamyz","","","","","","","",""
"null","","","html-keyboard-response","80","319489","0.0-80.0","e3gaamyz","","<span style=""color:Black; font-size:50px;"">Agent A","null","","","","",""
"null","","","video-keyboard-response","81","322550","0.0-81.0","e3gaamyz","","","null","","Agent A","scrambled","STIM_SET_3/1159392.bmp_pp96_L2_V2_veridical_freeview_isoFalsemismatch_1592934.bmp_L1_fps90.mp4",""
"null","","","html-keyboard-response","82","324057","0.0-82.0","e3gaamyz","","<span style=""color:Black; font-size:50px;"">Agent B","null","","","","",""
"null","","","video-keyboard-response","83","327129","0.0-83.0","e3gaamyz","","","null","","Agent B","veridical","STIM_SET_1_REAL/1592934.bmp_pp63_L1_V1.0_veridical_freeview_isoFalse_fps144.mp4",""
"","","","call-function","84","327130","0.0-84.0","e3gaamyz","","","","","","","",""
"2079.4799999999814","{""judgement"":0}","[0]","survey-likert","85","329210","0.0-85.0","e3gaamyz","","","","","","","","1"
"3277.7300000000396","{""confidence"":1}","[0]","survey-likert","86","332489","0.0-86.0","e3gaamyz","","","","","","","",""
"2469.0200000000186","","","instructions","87","334959","0.0-87.0","e3gaamyz","[{""page_index"":0,""viewing_time"":1202.6199999999953},{""page_index"":1,""viewing_time"":511.23500000004424},{""page_index"":2,""viewing_time"":755.0149999999558}]","","","","","","",""
"1775.640000000014","","","instructions","88","336736","0.0-88.0","e3gaamyz","[{""page_index"":0,""viewing_time"":593.7550000000047},{""page_index"":1,""viewing_time"":614.1550000000279},{""page_index"":2,""viewing_time"":567.6149999999907}]","","","","","","",""
"","","","call-function","89","336737","0.0-89.0","e3gaamyz","","","","","","","",""
"null","","","html-keyboard-response","90","338240","0.0-90.0","e3gaamyz","","<span style=""color:Black; font-size:50px;"">Agent A","null","","","","",""
"null","","","video-keyboard-response","91","341312","0.0-91.0","e3gaamyz","","","null","","Agent A","veridical","STIM_SET_1_REAL/1592397.bmp_pp85_L3_V1.0_veridical_freeview_isoFalse_fps144.mp4",""
"null","","","html-keyboard-response","92","342816","0.0-92.0","e3gaamyz","","<span style=""color:Black; font-size:50px;"">Agent B","null","","","","",""
"null","","","video-keyboard-response","93","345892","0.0-93.0","e3gaamyz","","","null","","Agent B","scrambled","STIM_SET_3/713790.bmp_pp100_L3_V2_veridical_freeview_isoFalsemismatch_1592397.bmp_L3_fps90.mp4",""
"","","","call-function","94","345893","0.0-94.0","e3gaamyz","","","","","","","",""
"2170.4500000000116","{""judgement"":0}","[0]","survey-likert","95","348064","0.0-95.0","e3gaamyz","","","","","","","","0"
"2208.015000000014","{""confidence"":2}","[0]","survey-likert","96","350273","0.0-96.0","e3gaamyz","","","","","","","",""
"","","","call-function","97","350274","0.0-97.0","e3gaamyz","","","","","","","",""
"null","","","html-keyboard-response","98","351777","0.0-98.0","e3gaamyz","","<span style=""color:Black; font-size:50px;"">Agent A","null","","","","",""
"null","","","video-keyboard-response","99","354841","0.0-99.0","e3gaamyz","","","null","","Agent A","scrambled","STIM_SET_3/1592150.bmp_pp77_L3_V2_veridical_freeview_isoFalsemismatch_1159447.bmp_L2_fps90.mp4",""
"null","","","html-keyboard-response","100","356348","0.0-100.0","e3gaamyz","","<span style=""color:Black; font-size:50px;"">Agent B","null","","","","",""
"null","","","video-keyboard-response","101","359409","0.0-101.0","e3gaamyz","","","null","","Agent B","veridical","STIM_SET_1_REAL/1159447.bmp_pp70_L2_V1.0_veridical_freeview_isoFalse_fps144.mp4",""
"","","","call-function","102","359409","0.0-102.0","e3gaamyz","","","","","","","",""
"2598.7399999999907","{""judgement"":1}","[0]","survey-likert","103","362009","0.0-103.0","e3gaamyz","","","","","","","","1"
"2136.9199999999837","{""confidence"":3}","[0]","survey-likert","104","364147","0.0-104.0","e3gaamyz","","","","","","","",""
"","","","call-function","105","364148","0.0-105.0","e3gaamyz","","","","","","","",""
"null","","","html-keyboard-response","106","365649","0.0-106.0","e3gaamyz","","<span style=""color:Black; font-size:50px;"">Agent A","null","","","","",""
"null","","","video-keyboard-response","107","368742","0.0-107.0","e3gaamyz","","","null","","Agent A","veridical","STIM_SET_1_REAL/713513.bmp_pp62_L2_V1.0_veridical_freeview_isoFalse_fps144.mp4",""
"null","","","html-keyboard-response","108","370247","0.0-108.0","e3gaamyz","","<span style=""color:Black; font-size:50px;"">Agent B","null","","","","",""
"null","","","video-keyboard-response","109","373331","0.0-109.0","e3gaamyz","","","null","","Agent B","scrambled","STIM_SET_3/1592047.bmp_pp51_L1_V2_veridical_freeview_isoFalsemismatch_713513.bmp_L2_fps90.mp4",""
"","","","call-function","110","373331","0.0-110.0","e3gaamyz","","","","","","","",""
"2352.810000000056","{""judgement"":0}","[0]","survey-likert","111","375685","0.0-111.0","e3gaamyz","","","","","","","","0"
"2285.7799999999697","{""confidence"":3}","[0]","survey-likert","112","377972","0.0-112.0","e3gaamyz","","","","","","","",""
"","","","call-function","113","377972","0.0-113.0","e3gaamyz","","","","","","","",""
"null","","","html-keyboard-response","114","379474","0.0-114.0","e3gaamyz","","<span style=""color:Black; font-size:50px;"">Agent A","null","","","","",""
"null","","","video-keyboard-response","115","382561","0.0-115.0","e3gaamyz","","","null","","Agent A","veridical","STIM_SET_1_REAL/285994.bmp_pp92_L3_V1.0_veridical_freeview_isoFalse_fps144.mp4",""
"null","","","html-keyboard-response","116","384066","0.0-116.0","e3gaamyz","","<span style=""color:Black; font-size:50px;"">Agent B","null","","","","",""
"null","","","video-keyboard-response","117","387170","0.0-117.0","e3gaamyz","","","null","","Agent B","scrambled","STIM_SET_3/1159592.bmp_pp91_L3_V2_veridical_freeview_isoFalsemismatch_285994.bmp_L3_fps90.mp4",""
"","","","call-function","118","387171","0.0-118.0","e3gaamyz","","","","","","","",""
"1837.6599999999744","{""judgement"":1}","[0]","survey-likert","119","389009","0.0-119.0","e3gaamyz","","","","","","","","0"
"2047.890000000014","{""confidence"":1}","[0]","survey-likert","120","391058","0.0-120.0","e3gaamyz","","","","","","","",""
"","","","call-function","121","391058","0.0-121.0","e3gaamyz","","","","","","","",""
"null","","","html-keyboard-response","122","392560","0.0-122.0","e3gaamyz","","<span style=""color:Black; font-size:50px;"">Agent A","null","","","","",""
"null","","","video-keyboard-response","123","395666","0.0-123.0","e3gaamyz","","","null","","Agent A","veridical","STIM_SET_1_REAL/713135.bmp_pp54_L2_V1.0_veridical_freeview_isoFalse_fps144.mp4",""
"null","","","html-keyboard-response","124","397169","0.0-124.0","e3gaamyz","","<span style=""color:Black; font-size:50px;"">Agent B","null","","","","",""
"null","","","video-keyboard-response","125","400273","0.0-125.0","e3gaamyz","","","null","","Agent B","scrambled","STIM_SET_3/1592567.bmp_pp70_L2_V2_veridical_freeview_isoFalsemismatch_713135.bmp_L2_fps90.mp4",""
"","","","call-function","126","400274","0.0-126.0","e3gaamyz","","","","","","","",""
"2730.6599999999744","{""judgement"":0}","[0]","survey-likert","127","403006","0.0-127.0","e3gaamyz","","","","","","","","0"
"4080.210000000021","{""confidence"":3}","[0]","survey-likert","128","407087","0.0-128.0","e3gaamyz","","","","","","","",""
"","","","call-function","129","407088","0.0-129.0","e3gaamyz","","","","","","","",""
"null","","","html-keyboard-response","130","408594","0.0-130.0","e3gaamyz","","<span style=""color:Black; font-size:50px;"">Agent A","null","","","","",""
"null","","","video-keyboard-response","131","411670","0.0-131.0","e3gaamyz","","","null","","Agent A","scrambled","STIM_SET_3/1159874.bmp_pp96_L2_V2_veridical_freeview_isoFalsemismatch_1159515.bmp_L3_fps90.mp4",""
"null","","","html-keyboard-response","132","413173","0.0-132.0","e3gaamyz","","<span style=""color:Black; font-size:50px;"">Agent B","null","","","","",""
"null","","","video-keyboard-response","133","416247","0.0-133.0","e3gaamyz","","","null","","Agent B","veridical","STIM_SET_1_REAL/1159515.bmp_pp84_L3_V1.0_veridical_freeview_isoFalse_fps144.mp4",""
"","","","call-function","134","416248","0.0-134.0","e3gaamyz","","","","","","","",""
"8889.695000000007","{""judgement"":1}","[0]","survey-likert","135","425140","0.0-135.0","e3gaamyz","","","","","","","","1"
"2648.0200000000186","{""confidence"":3}","[0]","survey-likert","136","427789","0.0-136.0","e3gaamyz","","","","","","","",""
"","","","call-function","137","427790","0.0-137.0","e3gaamyz","","","","","","","",""
"null","","","html-keyboard-response","138","429295","0.0-138.0","e3gaamyz","","<span style=""color:Black; font-size:50px;"">Agent A","null","","","","",""
"null","","","video-keyboard-response","139","432364","0.0-139.0","e3gaamyz","","","null","","Agent A","scrambled","STIM_SET_3/1592298.bmp_pp56_L3_V2_veridical_freeview_isoFalsemismatch_1593146.bmp_L1_fps90.mp4",""
"null","","","html-keyboard-response","140","433867","0.0-140.0","e3gaamyz","","<span style=""color:Black; font-size:50px;"">Agent B","null","","","","",""
"null","","","video-keyboard-response","141","436944","0.0-141.0","e3gaamyz","","","null","","Agent B","veridical","STIM_SET_1_REAL/1593146.bmp_pp93_L1_V1.0_veridical_freeview_isoFalse_fps144.mp4",""
"","","","call-function","142","436945","0.0-142.0","e3gaamyz","","","","","","","",""
"2781.5199999999604","{""judgement"":1}","[0]","survey-likert","143","439728","0.0-143.0","e3gaamyz","","","","","","","","1"
"2072.7849999999744","{""confidence"":3}","[0]","survey-likert","144","441802","0.0-144.0","e3gaamyz","","","","","","","",""
"","","","call-function","145","441803","0.0-145.0","e3gaamyz","","","","","","","",""
"null","","","html-keyboard-response","146","443303","0.0-146.0","e3gaamyz","","<span style=""color:Black; font-size:50px;"">Agent A","null","","","","",""
"null","","","video-keyboard-response","147","446380","0.0-147.0","e3gaamyz","","","null","","Agent A","scrambled","STIM_SET_3/285959.bmp_pp93_L1_V2_veridical_freeview_isoFalsemismatch_498253.bmp_L2_fps90.mp4",""
"null","","","html-keyboard-response","148","447883","0.0-148.0","e3gaamyz","","<span style=""color:Black; font-size:50px;"">Agent B","null","","","","",""
"null","","","video-keyboard-response","149","450986","0.0-149.0","e3gaamyz","","","null","","Agent B","veridical","STIM_SET_1_REAL/498253.bmp_pp67_L2_V1.0_veridical_freeview_isoFalse_fps144.mp4",""
"","","","call-function","150","450986","0.0-150.0","e3gaamyz","","","","","","","",""
"2852.609999999986","{""judgement"":1}","[0]","survey-likert","151","453840","0.0-151.0","e3gaamyz","","","","","","","","1"
"1551.695000000007","{""confidence"":3}","[0]","survey-likert","152","455393","0.0-152.0","e3gaamyz","","","","","","","",""
"","","","call-function","153","455393","0.0-153.0","e3gaamyz","","","","","","","",""
"null","","","html-keyboard-response","154","456894","0.0-154.0","e3gaamyz","","<span style=""color:Black; font-size:50px;"">Agent A","null","","","","",""
"null","","","video-keyboard-response","155","459979","0.0-155.0","e3gaamyz","","","null","","Agent A","scrambled","STIM_SET_3/498398.bmp_pp81_L1_V2_veridical_freeview_isoFalsemismatch_713620.bmp_L3_fps90.mp4",""
"null","","","html-keyboard-response","156","461483","0.0-156.0","e3gaamyz","","<span style=""color:Black; font-size:50px;"">Agent B","null","","","","",""
"null","","","video-keyboard-response","157","464587","0.0-157.0","e3gaamyz","","","null","","Agent B","veridical","STIM_SET_1_REAL/713620.bmp_pp65_L3_V1.0_veridical_freeview_isoFalse_fps144.mp4",""
"","","","call-function","158","464587","0.0-158.0","e3gaamyz","","","","","","","",""
"2511.7299999999814","{""judgement"":1}","[0]","survey-likert","159","467100","0.0-159.0","e3gaamyz","","","","","","","","1"
"2025.7999999999884","{""confidence"":2}","[0]","survey-likert","160","469127","0.0-160.0","e3gaamyz","","","","","","","",""
"","","","call-function","161","469127","0.0-161.0","e3gaamyz","","","","","","","",""
"null","","","html-keyboard-response","162","470633","0.0-162.0","e3gaamyz","","<span style=""color:Black; font-size:50px;"">Agent A","null","","","","",""
"null","","","video-keyboard-response","163","473735","0.0-163.0","e3gaamyz","","","null","","Agent A","scrambled","STIM_SET_3/1592038.bmp_pp79_L2_V2_veridical_freeview_isoFalsemismatch_1592727.bmp_L3_fps90.mp4",""
"null","","","html-keyboard-response","164","475242","0.0-164.0","e3gaamyz","","<span style=""color:Black; font-size:50px;"">Agent B","null","","","","",""
"null","","","video-keyboard-response","165","478337","0.0-165.0","e3gaamyz","","","null","","Agent B","veridical","STIM_SET_1_REAL/1592727.bmp_pp59_L3_V1.0_veridical_freeview_isoFalse_fps144.mp4",""
"","","","call-function","166","478338","0.0-166.0","e3gaamyz","","","","","","","",""
"1540.2600000000093","{""judgement"":1}","[0]","survey-likert","167","479879","0.0-167.0","e3gaamyz","","","","","","","","1"
"1931.3250000000116","{""confidence"":3}","[0]","survey-likert","168","481813","0.0-168.0","e3gaamyz","","","","","","","",""
"2142.585000000021","","","instructions","169","483956","0.0-169.0","e3gaamyz","[{""page_index"":0,""viewing_time"":908.0050000000047},{""page_index"":1,""viewing_time"":434.0599999999977},{""page_index"":2,""viewing_time"":800.359999999986}]","","","","","","",""
"1137.954999999958","","","instructions","170","485095","0.0-170.0","e3gaamyz","[{""page_index"":0,""viewing_time"":381.0449999999837},{""page_index"":1,""viewing_time"":377.61999999999534},{""page_index"":2,""viewing_time"":379.179999999993}]","","","","","","",""
"","","","call-function","171","485096","0.0-171.0","e3gaamyz","","","","","","","",""
"null","","","html-keyboard-response","172","486601","0.0-172.0","e3gaamyz","","<span style=""color:Black; font-size:50px;"">Agent A","null","","","","",""
"null","","","video-keyboard-response","173","489678","0.0-173.0","e3gaamyz","","","null","","Agent A","veridical","STIM_SET_1_REAL/1159777.bmp_pp77_L3_V1.0_veridical_freeview_isoFalse_fps144.mp4",""
"null","","","html-keyboard-response","174","491185","0.0-174.0","e3gaamyz","","<span style=""color:Black; font-size:50px;"">Agent B","null","","","","",""
"null","","","video-keyboard-response","175","494249","0.0-175.0","e3gaamyz","","","null","","Agent B","scrambled","STIM_SET_3/1592017.bmp_pp154_L1_V2_veridical_freeview_isoFalsemismatch_1159777.bmp_L3_fps90.mp4",""
"","","","call-function","176","494249","0.0-176.0","e3gaamyz","","","","","","","",""
"3242.109999999986","{""judgement"":0}","[0]","survey-likert","177","497493","0.0-177.0","e3gaamyz","","","","","","","","0"
"1837.8549999999814","{""confidence"":3}","[0]","survey-likert","178","499333","0.0-178.0","e3gaamyz","","","","","","","",""
"","","","call-function","179","499333","0.0-179.0","e3gaamyz","","","","","","","",""
"null","","","html-keyboard-response","180","500835","0.0-180.0","e3gaamyz","","<span style=""color:Black; font-size:50px;"">Agent A","null","","","","",""
"null","","","video-keyboard-response","181","503900","0.0-181.0","e3gaamyz","","","null","","Agent A","scrambled","STIM_SET_3/285715.bmp_pp67_L2_V2_veridical_freeview_isoFalsemismatch_1159882.bmp_L2_fps90.mp4",""
"null","","","html-keyboard-response","182","505402","0.0-182.0","e3gaamyz","","<span style=""color:Black; font-size:50px;"">Agent B","null","","","","",""
"null","","","video-keyboard-response","183","508463","0.0-183.0","e3gaamyz","","","null","","Agent B","veridical","STIM_SET_1_REAL/1159882.bmp_pp61_L2_V1.0_veridical_freeview_isoFalse_fps144.mp4",""
"","","","call-function","184","508464","0.0-184.0","e3gaamyz","","","","","","","",""
"2932.149999999965","{""judgement"":1}","[0]","survey-likert","185","511397","0.0-185.0","e3gaamyz","","","","","","","","1"
"2392.6900000000023","{""confidence"":3}","[0]","survey-likert","186","513791","0.0-186.0","e3gaamyz","","","","","","","",""
"","","","call-function","187","513791","0.0-187.0","e3gaamyz","","","","","","","",""
"null","","","html-keyboard-response","188","515294","0.0-188.0","e3gaamyz","","<span style=""color:Black; font-size:50px;"">Agent A","null","","","","",""
"null","","","video-keyboard-response","189","518380","0.0-189.0","e3gaamyz","","","null","","Agent A","scrambled","STIM_SET_3/1592129.bmp_pp153_L3_V2_veridical_freeview_isoFalsemismatch_1159813.bmp_L2_fps90.mp4",""
"null","","","html-keyboard-response","190","519886","0.0-190.0","e3gaamyz","","<span style=""color:Black; font-size:50px;"">Agent B","null","","","","",""
"null","","","video-keyboard-response","191","523002","0.0-191.0","e3gaamyz","","","null","","Agent B","veridical","STIM_SET_1_REAL/1159813.bmp_pp79_L2_V1.0_veridical_freeview_isoFalse_fps144.mp4",""
"","","","call-function","192","523002","0.0-192.0","e3gaamyz","","","","","","","",""
"2980.3950000000186","{""judgement"":1}","[0]","survey-likert","193","525984","0.0-193.0","e3gaamyz","","","","","","","","1"
"1847.4649999999674","{""confidence"":1}","[0]","survey-likert","194","527832","0.0-194.0","e3gaamyz","","","","","","","",""
"","","","call-function","195","527833","0.0-195.0","e3gaamyz","","","","","","","",""
"null","","","html-keyboard-response","196","529334","0.0-196.0","e3gaamyz","","<span style=""color:Black; font-size:50px;"">Agent A","null","","","","",""
"null","","","video-keyboard-response","197","532441","0.0-197.0","e3gaamyz","","","null","","Agent A","veridical","STIM_SET_1_REAL/1160168.bmp_pp53_L2_V1.0_veridical_freeview_isoFalse_fps144.mp4",""
"null","","","html-keyboard-response","198","533945","0.0-198.0","e3gaamyz","","<span style=""color:Black; font-size:50px;"">Agent B","null","","","","",""
"null","","","video-keyboard-response","199","537046","0.0-199.0","e3gaamyz","","","null","","Agent B","scrambled","STIM_SET_3/1592857.bmp_pp52_L1_V2_veridical_freeview_isoFalsemismatch_1160168.bmp_L2_fps90.mp4",""
"","","","call-function","200","537047","0.0-200.0","e3gaamyz","","","","","","","",""
"2205.530000000028","{""judgement"":0}","[0]","survey-likert","201","539253","0.0-201.0","e3gaamyz","","","","","","","","0"
"1772.3699999999953","{""confidence"":3}","[0]","survey-likert","202","541027","0.0-202.0","e3gaamyz","","","","","","","",""
"","","","call-function","203","541027","0.0-203.0","e3gaamyz","","","","","","","",""
"null","","","html-keyboard-response","204","542531","0.0-204.0","e3gaamyz","","<span style=""color:Black; font-size:50px;"">Agent A","null","","","","",""
"null","","","video-keyboard-response","205","545618","0.0-205.0","e3gaamyz","","","null","","Agent A","veridical","STIM_SET_1_REAL/1159572.bmp_pp71_L1_V1.0_veridical_freeview_isoFalse_fps144.mp4",""
"null","","","html-keyboard-response","206","547119","0.0-206.0","e3gaamyz","","<span style=""color:Black; font-size:50px;"">Agent B","null","","","","",""
"null","","","video-keyboard-response","207","550225","0.0-207.0","e3gaamyz","","","null","","Agent B","scrambled","STIM_SET_3/713381.bmp_pp82_L2_V2_veridical_freeview_isoFalsemismatch_1159572.bmp_L1_fps90.mp4",""
"","","","call-function","208","550226","0.0-208.0","e3gaamyz","","","","","","","",""
"3068.1199999999953","{""judgement"":0}","[0]","survey-likert","209","553295","0.0-209.0","e3gaamyz","","","","","","","","0"
"1959.655000000028","{""confidence"":1}","[0]","survey-likert","210","555255","0.0-210.0","e3gaamyz","","","","","","","",""
"","","","call-function","211","555256","0.0-211.0","e3gaamyz","","","","","","","",""
"null","","","html-keyboard-response","212","556759","0.0-212.0","e3gaamyz","","<span style=""color:Black; font-size:50px;"">Agent A","null","","","","",""
"null","","","video-keyboard-response","213","559835","0.0-213.0","e3gaamyz","","","null","","Agent A","veridical","STIM_SET_1_REAL/1591994.bmp_pp69_L3_V1.0_veridical_freeview_isoFalse_fps144.mp4",""
"null","","","html-keyboard-response","214","561343","0.0-214.0","e3gaamyz","","<span style=""color:Black; font-size:50px;"">Agent B","null","","","","",""
"null","","","video-keyboard-response","215","564412","0.0-215.0","e3gaamyz","","","null","","Agent B","scrambled","STIM_SET_3/713328.bmp_pp86_L2_V2_veridical_freeview_isoFalsemismatch_1591994.bmp_L3_fps90.mp4",""
"","","","call-function","216","564413","0.0-216.0","e3gaamyz","","","","","","","",""
"2632.45000000007","{""judgement"":0}","[0]","survey-likert","217","567046","0.0-217.0","e3gaamyz","","","","","","","","0"
"1762.984999999986","{""confidence"":3}","[0]","survey-likert","218","568810","0.0-218.0","e3gaamyz","","","","","","","",""
"","","","call-function","219","568811","0.0-219.0","e3gaamyz","","","","","","","",""
"null","","","html-keyboard-response","220","570312","0.0-220.0","e3gaamyz","","<span style=""color:Black; font-size:50px;"">Agent A","null","","","","",""
"null","","","video-keyboard-response","221","573394","0.0-221.0","e3gaamyz","","","null","","Agent A","veridical","STIM_SET_1_REAL/1591876.bmp_pp63_L1_V1.0_veridical_freeview_isoFalse_fps144.mp4",""
"null","","","html-keyboard-response","222","574901","0.0-222.0","e3gaamyz","","<span style=""color:Black; font-size:50px;"">Agent B","null","","","","",""
"null","","","video-keyboard-response","223","577970","0.0-223.0","e3gaamyz","","","null","","Agent B","scrambled","STIM_SET_3/1159427.bmp_pp98_L1_V2_veridical_freeview_isoFalsemismatch_1591876.bmp_L1_fps90.mp4",""
"","","","call-function","224","577971","0.0-224.0","e3gaamyz","","","","","","","",""
"3338.8000000000466","{""judgement"":0}","[0]","survey-likert","225","581311","0.0-225.0","e3gaamyz","","","","","","","","0"
"1907.3050000000512","{""confidence"":3}","[0]","survey-likert","226","583219","0.0-226.0","e3gaamyz","","","","","","","",""
"","","","call-function","227","583220","0.0-227.0","e3gaamyz","","","","","","","",""
"null","","","html-keyboard-response","228","584724","0.0-228.0","e3gaamyz","","<span style=""color:Black; font-size:50px;"">Agent A","null","","","","",""
"null","","","video-keyboard-response","229","587811","0.0-229.0","e3gaamyz","","","null","","Agent A","scrambled","STIM_SET_3/286034.bmp_pp69_L3_V2_veridical_freeview_isoFalsemismatch_713403.bmp_L3_fps90.mp4",""
"null","","","html-keyboard-response","230","589313","0.0-230.0","e3gaamyz","","<span style=""color:Black; font-size:50px;"">Agent B","null","","","","",""
"null","","","video-keyboard-response","231","592404","0.0-231.0","e3gaamyz","","","null","","Agent B","veridical","STIM_SET_1_REAL/713403.bmp_pp80_L3_V1.0_veridical_freeview_isoFalse_fps144.mp4",""
"","","","call-function","232","592404","0.0-232.0","e3gaamyz","","","","","","","",""
"3134.234999999986","{""judgement"":1}","[0]","survey-likert","233","595540","0.0-233.0","e3gaamyz","","","","","","","","1"
"1844.1899999999441","{""confidence"":3}","[0]","survey-likert","234","597385","0.0-234.0","e3gaamyz","","","","","","","",""
"","","","call-function","235","597385","0.0-235.0","e3gaamyz","","","","","","","",""
"null","","","html-keyboard-response","236","598889","0.0-236.0","e3gaamyz","","<span style=""color:Black; font-size:50px;"">Agent A","null","","","","",""
"null","","","video-keyboard-response","237","601991","0.0-237.0","e3gaamyz","","","null","","Agent A","veridical","STIM_SET_1_REAL/61537.bmp_pp73_L3_V1.0_veridical_freeview_isoFalse_fps144.mp4",""
"null","","","html-keyboard-response","238","603492","0.0-238.0","e3gaamyz","","<span style=""color:Black; font-size:50px;"">Agent B","null","","","","",""
"null","","","video-keyboard-response","239","606595","0.0-239.0","e3gaamyz","","","null","","Agent B","scrambled","STIM_SET_3/713770.bmp_pp89_L1_V2_veridical_freeview_isoFalsemismatch_61537.bmp_L3_fps90.mp4",""
"","","","call-function","240","606595","0.0-240.0","e3gaamyz","","","","","","","",""
"2517.7249999999767","{""judgement"":0}","[0]","survey-likert","241","609114","0.0-241.0","e3gaamyz","","","","","","","","0"
"1446.7699999999022","{""confidence"":3}","[0]","survey-likert","242","610562","0.0-242.0","e3gaamyz","","","","","","","",""
"","","","call-function","243","610562","0.0-243.0","e3gaamyz","","","","","","","",""
"null","","","html-keyboard-response","244","612064","0.0-244.0","e3gaamyz","","<span style=""color:Black; font-size:50px;"">Agent A","null","","","","",""
"null","","","video-keyboard-response","245","615165","0.0-245.0","e3gaamyz","","","null","","Agent A","veridical","STIM_SET_1_REAL/713707.bmp_pp154_L1_V1.0_veridical_freeview_isoFalse_fps144.mp4",""
"null","","","html-keyboard-response","246","616672","0.0-246.0","e3gaamyz","","<span style=""color:Black; font-size:50px;"">Agent B","null","","","","",""
"null","","","video-keyboard-response","247","619764","0.0-247.0","e3gaamyz","","","null","","Agent B","scrambled","STIM_SET_3/1592314.bmp_pp100_L3_V2_veridical_freeview_isoFalsemismatch_713707.bmp_L1_fps90.mp4",""
"","","","call-function","248","619764","0.0-248.0","e3gaamyz","","","","","","","",""
"2145.5200000000186","{""judgement"":0}","[0]","survey-likert","249","621911","0.0-249.0","e3gaamyz","","","","","","","","0"
"1605.6300000000047","{""confidence"":3}","[0]","survey-likert","250","623518","0.0-250.0","e3gaamyz","","","","","","","",""
"2989.314999999944","","","instructions","251","626508","0.0-251.0","e3gaamyz","[{""page_index"":0,""viewing_time"":1123.8499999999767},{""page_index"":1,""viewing_time"":1308.109999999986},{""page_index"":2,""viewing_time"":557.1950000000652}]","","","","","","",""
"1397.4300000000512","","","instructions","252","627906","0.0-252.0","e3gaamyz","[{""page_index"":0,""viewing_time"":472.2249999999767},{""page_index"":1,""viewing_time"":438.0600000000559},{""page_index"":2,""viewing_time"":486.91500000003725}]","","","","","","",""
"","","","call-function","253","627907","0.0-253.0","e3gaamyz","","","","","","","",""
"null","","","html-keyboard-response","254","629412","0.0-254.0","e3gaamyz","","<span style=""color:Black; font-size:50px;"">Agent A","null","","","","",""
"null","","","video-keyboard-response","255","632489","0.0-255.0","e3gaamyz","","","null","","Agent A","scrambled","STIM_SET_3/713633.bmp_pp58_L1_V2_veridical_freeview_isoFalsemismatch_713796.bmp_L3_fps90.mp4",""
"null","","","html-keyboard-response","256","633992","0.0-256.0","e3gaamyz","","<span style=""color:Black; font-size:50px;"">Agent B","null","","","","",""
"null","","","video-keyboard-response","257","637063","0.0-257.0","e3gaamyz","","","null","","Agent B","veridical","STIM_SET_1_REAL/713796.bmp_pp84_L3_V1.0_veridical_freeview_isoFalse_fps144.mp4",""
"","","","call-function","258","637064","0.0-258.0","e3gaamyz","","","","","","","",""
"2173.6300000000047","{""judgement"":1}","[0]","survey-likert","259","639239","0.0-259.0","e3gaamyz","","","","","","","","1"
"2343.9499999999534","{""confidence"":1}","[0]","survey-likert","260","641584","0.0-260.0","e3gaamyz","","","","","","","",""
"","","","call-function","261","641585","0.0-261.0","e3gaamyz","","","","","","","",""
"null","","","html-keyboard-response","262","643086","0.0-262.0","e3gaamyz","","<span style=""color:Black; font-size:50px;"">Agent A","null","","","","",""
"null","","","video-keyboard-response","263","646165","0.0-263.0","e3gaamyz","","","null","","Agent A","veridical","STIM_SET_1_REAL/498155.bmp_pp61_L2_V1.0_veridical_freeview_isoFalse_fps144.mp4",""
"null","","","html-keyboard-response","264","647670","0.0-264.0","e3gaamyz","","<span style=""color:Black; font-size:50px;"">Agent B","null","","","","",""
"null","","","video-keyboard-response","265","650738","0.0-265.0","e3gaamyz","","","null","","Agent B","scrambled","STIM_SET_3/498258.bmp_pp51_L1_V2_veridical_freeview_isoFalsemismatch_498155.bmp_L2_fps90.mp4",""
"","","","call-function","266","650739","0.0-266.0","e3gaamyz","","","","","","","",""
"2115.8499999999767","{""judgement"":0}","[0]","survey-likert","267","652856","0.0-267.0","e3gaamyz","","","","","","","","0"
"1451.2700000000186","{""confidence"":2}","[0]","survey-likert","268","654309","0.0-268.0","e3gaamyz","","","","","","","",""
"","","","call-function","269","654310","0.0-269.0","e3gaamyz","","","","","","","",""
"null","","","html-keyboard-response","270","655810","0.0-270.0","e3gaamyz","","<span style=""color:Black; font-size:50px;"">Agent A","null","","","","",""
"null","","","video-keyboard-response","271","658891","0.0-271.0","e3gaamyz","","","null","","Agent A","scrambled","STIM_SET_3/1160247.bmp_pp54_L2_V2_veridical_freeview_isoFalsemismatch_1592133.bmp_L1_fps90.mp4",""
"null","","","html-keyboard-response","272","660393","0.0-272.0","e3gaamyz","","<span style=""color:Black; font-size:50px;"">Agent B","null","","","","",""
"null","","","video-keyboard-response","273","663486","0.0-273.0","e3gaamyz","","","null","","Agent B","veridical","STIM_SET_1_REAL/1592133.bmp_pp75_L1_V1.0_veridical_freeview_isoFalse_fps144.mp4",""
"","","","call-function","274","663487","0.0-274.0","e3gaamyz","","","","","","","",""
"2085.57500000007","{""judgement"":0}","[0]","survey-likert","275","665573","0.0-275.0","e3gaamyz","","","","","","","","1"
"1629.609999999986","{""confidence"":3}","[0]","survey-likert","276","667204","0.0-276.0","e3gaamyz","","","","","","","",""
"","","","call-function","277","667205","0.0-277.0","e3gaamyz","","","","","","","",""
"null","","","html-keyboard-response","278","668709","0.0-278.0","e3gaamyz","","<span style=""color:Black; font-size:50px;"">Agent A","null","","","","",""
"null","","","video-keyboard-response","279","671813","0.0-279.0","e3gaamyz","","","null","","Agent A","scrambled","STIM_SET_3/713788.bmp_pp52_L1_V2_veridical_freeview_isoFalsemismatch_1159768.bmp_L1_fps90.mp4",""
"null","","","html-keyboard-response","280","673315","0.0-280.0","e3gaamyz","","<span style=""color:Black; font-size:50px;"">Agent B","null","","","","",""
"null","","","video-keyboard-response","281","676423","0.0-281.0","e3gaamyz","","","null","","Agent B","veridical","STIM_SET_1_REAL/1159768.bmp_pp89_L1_V1.0_veridical_freeview_isoFalse_fps144.mp4",""
"","","","call-function","282","676423","0.0-282.0","e3gaamyz","","","","","","","",""
"1470.984999999986","{""judgement"":1}","[0]","survey-likert","283","677896","0.0-283.0","e3gaamyz","","","","","","","","1"
"819.8649999999907","{""confidence"":3}","[0]","survey-likert","284","678717","0.0-284.0","e3gaamyz","","","","","","","",""
"","","","call-function","285","678717","0.0-285.0","e3gaamyz","","","","","","","",""
"null","","","html-keyboard-response","286","680222","0.0-286.0","e3gaamyz","","<span style=""color:Black; font-size:50px;"">Agent A","null","","","","",""
"null","","","video-keyboard-response","287","683321","0.0-287.0","e3gaamyz","","","null","","Agent A","veridical","STIM_SET_1_REAL/1592286.bmp_pp52_L1_V1.0_veridical_freeview_isoFalse_fps144.mp4",""
"null","","","html-keyboard-response","288","684822","0.0-288.0","e3gaamyz","","<span style=""color:Black; font-size:50px;"">Agent B","null","","","","",""
"null","","","video-keyboard-response","289","687908","0.0-289.0","e3gaamyz","","","null","","Agent B","scrambled","STIM_SET_3/498326.bmp_pp57_L1_V2_veridical_freeview_isoFalsemismatch_1592286.bmp_L1_fps90.mp4",""
"","","","call-function","290","687909","0.0-290.0","e3gaamyz","","","","","","","",""
"3597.715000000084","{""judgement"":1}","[0]","survey-likert","291","691507","0.0-291.0","e3gaamyz","","","","","","","","0"
"1468.234999999986","{""confidence"":3}","[0]","survey-likert","292","692977","0.0-292.0","e3gaamyz","","","","","","","",""
"","","","call-function","293","692978","0.0-293.0","e3gaamyz","","","","","","","",""
"null","","","html-keyboard-response","294","694480","0.0-294.0","e3gaamyz","","<span style=""color:Black; font-size:50px;"">Agent A","null","","","","",""
"null","","","video-keyboard-response","295","697573","0.0-295.0","e3gaamyz","","","null","","Agent A","veridical","STIM_SET_1_REAL/1592619.bmp_pp56_L3_V1.0_veridical_freeview_isoFalse_fps144.mp4",""
"null","","","html-keyboard-response","296","699077","0.0-296.0","e3gaamyz","","<span style=""color:Black; font-size:50px;"">Agent B","null","","","","",""
"null","","","video-keyboard-response","297","702146","0.0-297.0","e3gaamyz","","","null","","Agent B","scrambled","STIM_SET_3/150463.bmp_pp55_L3_V2_veridical_freeview_isoFalsemismatch_1592619.bmp_L3_fps90.mp4",""
"","","","call-function","298","702147","0.0-298.0","e3gaamyz","","","","","","","",""
"2364.329999999958","{""judgement"":0}","[0]","survey-likert","299","704512","0.0-299.0","e3gaamyz","","","","","","","","0"
"3017.8349999999627","{""confidence"":3}","[0]","survey-likert","300","707531","0.0-300.0","e3gaamyz","","","","","","","",""
"","","","call-function","301","707532","0.0-301.0","e3gaamyz","","","","","","","",""
"null","","","html-keyboard-response","302","709034","0.0-302.0","e3gaamyz","","<span style=""color:Black; font-size:50px;"">Agent A","null","","","","",""
"null","","","video-keyboard-response","303","712099","0.0-303.0","e3gaamyz","","","null","","Agent A","veridical","STIM_SET_1_REAL/497950.bmp_pp151_L1_V1.0_veridical_freeview_isoFalse_fps144.mp4",""
"null","","","html-keyboard-response","304","713602","0.0-304.0","e3gaamyz","","<span style=""color:Black; font-size:50px;"">Agent B","null","","","","",""
"null","","","video-keyboard-response","305","716676","0.0-305.0","e3gaamyz","","","null","","Agent B","scrambled","STIM_SET_3/713274.bmp_pp73_L3_V2_veridical_freeview_isoFalsemismatch_497950.bmp_L1_fps90.mp4",""
"","","","call-function","306","716677","0.0-306.0","e3gaamyz","","","","","","","",""
"1574.5349999999162","{""judgement"":0}","[0]","survey-likert","307","718253","0.0-307.0","e3gaamyz","","","","","","","","0"
"1105.5600000000559","{""confidence"":2}","[0]","survey-likert","308","719360","0.0-308.0","e3gaamyz","","","","","","","",""
"","","","call-function","309","719361","0.0-309.0","e3gaamyz","","","","","","","",""
"null","","","html-keyboard-response","310","720867","0.0-310.0","e3gaamyz","","<span style=""color:Black; font-size:50px;"">Agent A","null","","","","",""
"null","","","video-keyboard-response","311","723945","0.0-311.0","e3gaamyz","","","null","","Agent A","scrambled","STIM_SET_3/1159325.bmp_pp67_L2_V2_veridical_freeview_isoFalsemismatch_1593035.bmp_L2_fps90.mp4",""
"null","","","html-keyboard-response","312","725452","0.0-312.0","e3gaamyz","","<span style=""color:Black; font-size:50px;"">Agent B","null","","","","",""
"null","","","video-keyboard-response","313","728514","0.0-313.0","e3gaamyz","","","null","","Agent B","veridical","STIM_SET_1_REAL/1593035.bmp_pp94_L2_V1.0_veridical_freeview_isoFalse_fps144.mp4",""
"","","","call-function","314","728515","0.0-314.0","e3gaamyz","","","","","","","",""
"1748.5649999999441","{""judgement"":1}","[0]","survey-likert","315","730264","0.0-315.0","e3gaamyz","","","","","","","","1"
"1171.3050000000512","{""confidence"":3}","[0]","survey-likert","316","731437","0.0-316.0","e3gaamyz","","","","","","","",""
"","","","call-function","317","731438","0.0-317.0","e3gaamyz","","","","","","","",""
"null","","","html-keyboard-response","318","732944","0.0-318.0","e3gaamyz","","<span style=""color:Black; font-size:50px;"">Agent A","null","","","","",""
"null","","","video-keyboard-response","319","736014","0.0-319.0","e3gaamyz","","","null","","Agent A","veridical","STIM_SET_1_REAL/1592581.bmp_pp100_L3_V1.0_veridical_freeview_isoFalse_fps144.mp4",""
"null","","","html-keyboard-response","320","737515","0.0-320.0","e3gaamyz","","<span style=""color:Black; font-size:50px;"">Agent B","null","","","","",""
"null","","","video-keyboard-response","321","740612","0.0-321.0","e3gaamyz","","","null","","Agent B","scrambled","STIM_SET_3/1160189.bmp_pp64_L1_V2_veridical_freeview_isoFalsemismatch_1592581.bmp_L3_fps90.mp4",""
"","","","call-function","322","740613","0.0-322.0","e3gaamyz","","","","","","","",""
"1911.9300000000512","{""judgement"":0}","[0]","survey-likert","323","742526","0.0-323.0","e3gaamyz","","","","","","","","0"
"2207.314999999944","{""confidence"":2}","[0]","survey-likert","324","744734","0.0-324.0","e3gaamyz","","","","","","","",""
"","","","call-function","325","744735","0.0-325.0","e3gaamyz","","","","","","","",""
"null","","","html-keyboard-response","326","746238","0.0-326.0","e3gaamyz","","<span style=""color:Black; font-size:50px;"">Agent A","null","","","","",""
"null","","","video-keyboard-response","327","749338","0.0-327.0","e3gaamyz","","","null","","Agent A","veridical","STIM_SET_1_REAL/498175.bmp_pp154_L1_V1.0_veridical_freeview_isoFalse_fps144.mp4",""
"null","","","html-keyboard-response","328","750840","0.0-328.0","e3gaamyz","","<span style=""color:Black; font-size:50px;"">Agent B","null","","","","",""
"null","","","video-keyboard-response","329","753925","0.0-329.0","e3gaamyz","","","null","","Agent B","scrambled","STIM_SET_3/713689.bmp_pp153_L3_V2_veridical_freeview_isoFalsemismatch_498175.bmp_L1_fps90.mp4",""
"","","","call-function","330","753926","0.0-330.0","e3gaamyz","","","","","","","",""
"1793.780000000028","{""judgement"":0}","[0]","survey-likert","331","755720","0.0-331.0","e3gaamyz","","","","","","","","0"
"1244.8000000000466","{""confidence"":1}","[0]","survey-likert","332","756966","0.0-332.0","e3gaamyz","","","","","","","",""
"1791.219999999972","","","instructions","333","758758","0.0-333.0","e3gaamyz","[{""page_index"":0,""viewing_time"":925.4799999999814},{""page_index"":1,""viewing_time"":462.2299999999814},{""page_index"":2,""viewing_time"":403.3299999999581}]","","","","","","",""
"2616.140000000014","","","instructions","334","761376","0.0-334.0","e3gaamyz","[{""page_index"":0,""viewing_time"":821.0799999999581},{""page_index"":1,""viewing_time"":819.2150000000838},{""page_index"":2,""viewing_time"":975.734999999986}]","","","","","","",""
"","","","call-function","335","761376","0.0-335.0","e3gaamyz","","","","","","","",""
"null","","","html-keyboard-response","336","762881","0.0-336.0","e3gaamyz","","<span style=""color:Black; font-size:50px;"">Agent A","null","","","","",""
"null","","","video-keyboard-response","337","765985","0.0-337.0","e3gaamyz","","","null","","Agent A","veridical","STIM_SET_1_REAL/285905.bmp_pp57_L1_V1.0_veridical_freeview_isoFalse_fps144.mp4",""
"null","","","html-keyboard-response","338","767487","0.0-338.0","e3gaamyz","","<span style=""color:Black; font-size:50px;"">Agent B","null","","","","",""
"null","","","video-keyboard-response","339","770598","0.0-339.0","e3gaamyz","","","null","","Agent B","scrambled","STIM_SET_3/1592568.bmp_pp71_L1_V2_veridical_freeview_isoFalsemismatch_285905.bmp_L1_fps90.mp4",""
"","","","call-function","340","770598","0.0-340.0","e3gaamyz","","","","","","","",""
"4664.494999999995","{""judgement"":0}","[0]","survey-likert","341","775264","0.0-341.0","e3gaamyz","","","","","","","","0"
"2581.534999999916","{""confidence"":2}","[0]","survey-likert","342","777846","0.0-342.0","e3gaamyz","","","","","","","",""
"","","","call-function","343","777847","0.0-343.0","e3gaamyz","","","","","","","",""
"null","","","html-keyboard-response","344","779350","0.0-344.0","e3gaamyz","","<span style=""color:Black; font-size:50px;"">Agent A","null","","","","",""
"null","","","video-keyboard-response","345","782421","0.0-345.0","e3gaamyz","","","null","","Agent A","scrambled","STIM_SET_3/1159508.bmp_pp151_L1_V2_veridical_freeview_isoFalsemismatch_1159675.bmp_L3_fps90.mp4",""
"null","","","html-keyboard-response","346","783926","0.0-346.0","e3gaamyz","","<span style=""color:Black; font-size:50px;"">Agent B","null","","","","",""
"null","","","video-keyboard-response","347","787032","0.0-347.0","e3gaamyz","","","null","","Agent B","veridical","STIM_SET_1_REAL/1159675.bmp_pp77_L3_V1.0_veridical_freeview_isoFalse_fps144.mp4",""
"","","","call-function","348","787033","0.0-348.0","e3gaamyz","","","","","","","",""
"3826.4700000000885","{""judgement"":1}","[0]","survey-likert","349","790860","0.0-349.0","e3gaamyz","","","","","","","","1"
"1871","{""confidence"":3}","[0]","survey-likert","350","792732","0.0-350.0","e3gaamyz","","","","","","","",""
"","","","call-function","351","792733","0.0-351.0","e3gaamyz","","","","","","","",""
"null","","","html-keyboard-response","352","794235","0.0-352.0","e3gaamyz","","<span style=""color:Black; font-size:50px;"">Agent A","null","","","","",""
"null","","","video-keyboard-response","353","797295","0.0-353.0","e3gaamyz","","","null","","Agent A","veridical","STIM_SET_1_REAL/1159621.bmp_pp92_L3_V1.0_veridical_freeview_isoFalse_fps144.mp4",""
"null","","","html-keyboard-response","354","798797","0.0-354.0","e3gaamyz","","<span style=""color:Black; font-size:50px;"">Agent B","null","","","","",""
"null","","","video-keyboard-response","355","801858","0.0-355.0","e3gaamyz","","","null","","Agent B","scrambled","STIM_SET_3/1159860.bmp_pp152_L2_V2_veridical_freeview_isoFalsemismatch_1159621.bmp_L3_fps90.mp4",""
"","","","call-function","356","801859","0.0-356.0","e3gaamyz","","","","","","","",""
"1947.5849999999627","{""judgement"":0}","[0]","survey-likert","357","803807","0.0-357.0","e3gaamyz","","","","","","","","0"
"1647.0899999999674","{""confidence"":2}","[0]","survey-likert","358","805455","0.0-358.0","e3gaamyz","","","","","","","",""
"","","","call-function","359","805456","0.0-359.0","e3gaamyz","","","","","","","",""
"null","","","html-keyboard-response","360","806958","0.0-360.0","e3gaamyz","","<span style=""color:Black; font-size:50px;"">Agent A","null","","","","",""
"null","","","video-keyboard-response","361","810030","0.0-361.0","e3gaamyz","","","null","","Agent A","scrambled","STIM_SET_3/498396.bmp_pp99_L2_V2_veridical_freeview_isoFalsemismatch_713371.bmp_L1_fps90.mp4",""
"null","","","html-keyboard-response","362","811533","0.0-362.0","e3gaamyz","","<span style=""color:Black; font-size:50px;"">Agent B","null","","","","",""
"null","","","video-keyboard-response","363","814640","0.0-363.0","e3gaamyz","","","null","","Agent B","veridical","STIM_SET_1_REAL/713371.bmp_pp68_L1_V1.0_veridical_freeview_isoFalse_fps144.mp4",""
"","","","call-function","364","814642","0.0-364.0","e3gaamyz","","","","","","","",""
"2221.5749999999534","{""judgement"":1}","[0]","survey-likert","365","816865","0.0-365.0","e3gaamyz","","","","","","","","1"
"2349.6399999998976","{""confidence"":3}","[0]","survey-likert","366","819216","0.0-366.0","e3gaamyz","","","","","","","",""
"","","","call-function","367","819218","0.0-367.0","e3gaamyz","","","","","","","",""
"null","","","html-keyboard-response","368","820721","0.0-368.0","e3gaamyz","","<span style=""color:Black; font-size:50px;"">Agent A","null","","","","",""
"null","","","video-keyboard-response","369","823782","0.0-369.0","e3gaamyz","","","null","","Agent A","veridical","STIM_SET_1_REAL/498170.bmp_pp153_L3_V1.0_veridical_freeview_isoFalse_fps144.mp4",""
"null","","","html-keyboard-response","370","825283","0.0-370.0","e3gaamyz","","<span style=""color:Black; font-size:50px;"">Agent B","null","","","","",""
"null","","","video-keyboard-response","371","828360","0.0-371.0","e3gaamyz","","","null","","Agent B","scrambled","STIM_SET_3/713742.bmp_pp91_L3_V2_veridical_freeview_isoFalsemismatch_498170.bmp_L3_fps90.mp4",""
"","","","call-function","372","828361","0.0-372.0","e3gaamyz","","","","","","","",""
"2860.75","{""judgement"":1}","[0]","survey-likert","373","831222","0.0-373.0","e3gaamyz","","","","","","","","0"
"3099.9949999999953","{""confidence"":2}","[0]","survey-likert","374","834324","0.0-374.0","e3gaamyz","","","","","","","",""
"","","","call-function","375","834324","0.0-375.0","e3gaamyz","","","","","","","",""
"null","","","html-keyboard-response","376","835827","0.0-376.0","e3gaamyz","","<span style=""color:Black; font-size:50px;"">Agent A","null","","","","",""
"null","","","video-keyboard-response","377","838904","0.0-377.0","e3gaamyz","","","null","","Agent A","scrambled","STIM_SET_3/1591781.bmp_pp63_L1_V2_veridical_freeview_isoFalsemismatch_1593041.bmp_L1_fps90.mp4",""
"null","","","html-keyboard-response","378","840410","0.0-378.0","e3gaamyz","","<span style=""color:Black; font-size:50px;"">Agent B","null","","","","",""
"null","","","video-keyboard-response","379","843494","0.0-379.0","e3gaamyz","","","null","","Agent B","veridical","STIM_SET_1_REAL/1593041.bmp_pp58_L1_V1.0_veridical_freeview_isoFalse_fps144.mp4",""
"","","","call-function","380","843495","0.0-380.0","e3gaamyz","","","","","","","",""
"3597.0599999999395","{""judgement"":1}","[0]","survey-likert","381","847093","0.0-381.0","e3gaamyz","","","","","","","","1"
"2264.2750000000233","{""confidence"":1}","[0]","survey-likert","382","849358","0.0-382.0","e3gaamyz","","","","","","","",""
"","","","call-function","383","849359","0.0-383.0","e3gaamyz","","","","","","","",""
"null","","","html-keyboard-response","384","850863","0.0-384.0","e3gaamyz","","<span style=""color:Black; font-size:50px;"">Agent A","null","","","","",""
"null","","","video-keyboard-response","385","853965","0.0-385.0","e3gaamyz","","","null","","Agent A","scrambled","STIM_SET_3/498372.bmp_pp95_L2_V2_veridical_freeview_isoFalsemismatch_1160127.bmp_L2_fps90.mp4",""
"null","","","html-keyboard-response","386","855472","0.0-386.0","e3gaamyz","","<span style=""color:Black; font-size:50px;"">Agent B","null","","","","",""
"null","","","video-keyboard-response","387","858577","0.0-387.0","e3gaamyz","","","null","","Agent B","veridical","STIM_SET_1_REAL/1160127.bmp_pp90_L2_V1.0_veridical_freeview_isoFalse_fps144.mp4",""
"","","","call-function","388","858578","0.0-388.0","e3gaamyz","","","","","","","",""
"2453.3000000000466","{""judgement"":1}","[0]","survey-likert","389","861033","0.0-389.0","e3gaamyz","","","","","","","","1"
"1223.5499999999302","{""confidence"":2}","[0]","survey-likert","390","862257","0.0-390.0","e3gaamyz","","","","","","","",""
"","","","call-function","391","862258","0.0-391.0","e3gaamyz","","","","","","","",""
"null","","","html-keyboard-response","392","863759","0.0-392.0","e3gaamyz","","<span style=""color:Black; font-size:50px;"">Agent A","null","","","","",""
"null","","","video-keyboard-response","393","866865","0.0-393.0","e3gaamyz","","","null","","Agent A","veridical","STIM_SET_1_REAL/1592804.bmp_pp91_L3_V1.0_veridical_freeview_isoFalse_fps144.mp4",""
"null","","","html-keyboard-response","394","868366","0.0-394.0","e3gaamyz","","<span style=""color:Black; font-size:50px;"">Agent B","null","","","","",""
"null","","","video-keyboard-response","395","871458","0.0-395.0","e3gaamyz","","","null","","Agent B","scrambled","STIM_SET_3/1591920.bmp_pp97_L3_V2_veridical_freeview_isoFalsemismatch_1592804.bmp_L3_fps90.mp4",""
"","","","call-function","396","871459","0.0-396.0","e3gaamyz","","","","","","","",""
"1430.6650000000373","{""judgement"":1}","[0]","survey-likert","397","872890","0.0-397.0","e3gaamyz","","","","","","","","0"
"1300.1350000000093","{""confidence"":3}","[0]","survey-likert","398","874192","0.0-398.0","e3gaamyz","","","","","","","",""
"","","","call-function","399","874192","0.0-399.0","e3gaamyz","","","","","","","",""
"null","","","html-keyboard-response","400","875694","0.0-400.0","e3gaamyz","","<span style=""color:Black; font-size:50px;"">Agent A","null","","","","",""
"null","","","video-keyboard-response","401","878791","0.0-401.0","e3gaamyz","","","null","","Agent A","scrambled","STIM_SET_3/498261.bmp_pp84_L3_V2_veridical_freeview_isoFalsemismatch_1592657.bmp_L1_fps90.mp4",""
"null","","","html-keyboard-response","402","880293","0.0-402.0","e3gaamyz","","<span style=""color:Black; font-size:50px;"">Agent B","null","","","","",""
"null","","","video-keyboard-response","403","883396","0.0-403.0","e3gaamyz","","","null","","Agent B","veridical","STIM_SET_1_REAL/1592657.bmp_pp98_L1_V1.0_veridical_freeview_isoFalse_fps144.mp4",""
"","","","call-function","404","883397","0.0-404.0","e3gaamyz","","","","","","","",""
"2264.555000000051","{""judgement"":1}","[0]","survey-likert","405","885662","0.0-405.0","e3gaamyz","","","","","","","","1"
"2404.4499999999534","{""confidence"":2}","[0]","survey-likert","406","888069","0.0-406.0","e3gaamyz","","","","","","","",""
"","","","call-function","407","888069","0.0-407.0","e3gaamyz","","","","","","","",""
"null","","","html-keyboard-response","408","889571","0.0-408.0","e3gaamyz","","<span style=""color:Black; font-size:50px;"">Agent A","null","","","","",""
"null","","","video-keyboard-response","409","892648","0.0-409.0","e3gaamyz","","","null","","Agent A","veridical","STIM_SET_1_REAL/713684.bmp_pp85_L3_V1.0_veridical_freeview_isoFalse_fps144.mp4",""
"null","","","html-keyboard-response","410","894155","0.0-410.0","e3gaamyz","","<span style=""color:Black; font-size:50px;"">Agent B","null","","","","",""
"null","","","video-keyboard-response","411","897227","0.0-411.0","e3gaamyz","","","null","","Agent B","scrambled","STIM_SET_3/713920.bmp_pp76_L1_V2_veridical_freeview_isoFalsemismatch_713684.bmp_L3_fps90.mp4",""
"","","","call-function","412","897228","0.0-412.0","e3gaamyz","","","","","","","",""
"2590.0350000000326","{""judgement"":0}","[0]","survey-likert","413","899819","0.0-413.0","e3gaamyz","","","","","","","","0"
"1911.6149999999907","{""confidence"":3}","[0]","survey-likert","414","901732","0.0-414.0","e3gaamyz","","","","","","","",""
"2351.060000000056","","","instructions","415","904084","0.0-415.0","e3gaamyz","[{""page_index"":0,""viewing_time"":1061.1000000000931},{""page_index"":1,""viewing_time"":924.2999999999302},{""page_index"":2,""viewing_time"":365.50500000000466}]","","","","","","",""
"2414.4499999999534","","","instructions","416","906499","0.0-416.0","e3gaamyz","[{""page_index"":0,""viewing_time"":1637.9199999999255},{""page_index"":1,""viewing_time"":383.56500000006054},{""page_index"":2,""viewing_time"":392.8549999999814}]","","","","","","",""
"","","","call-function","417","906499","0.0-417.0","e3gaamyz","","","","","","","",""
"null","","","html-keyboard-response","418","908002","0.0-418.0","e3gaamyz","","<span style=""color:Black; font-size:50px;"">Agent A","null","","","","",""
"null","","","video-keyboard-response","419","911071","0.0-419.0","e3gaamyz","","","null","","Agent A","scrambled","STIM_SET_3/1592747.bmp_pp53_L2_V2_veridical_freeview_isoFalsemismatch_713593.bmp_L1_fps90.mp4",""
"null","","","html-keyboard-response","420","912575","0.0-420.0","e3gaamyz","","<span style=""color:Black; font-size:50px;"">Agent B","null","","","","",""
"null","","","video-keyboard-response","421","915652","0.0-421.0","e3gaamyz","","","null","","Agent B","veridical","STIM_SET_1_REAL/713593.bmp_pp64_L1_V1.0_veridical_freeview_isoFalse_fps144.mp4",""
"","","","call-function","422","915652","0.0-422.0","e3gaamyz","","","","","","","",""
"2354.5050000000047","{""judgement"":1}","[0]","survey-likert","423","918008","0.0-423.0","e3gaamyz","","","","","","","","1"
"1295.9199999999255","{""confidence"":3}","[0]","survey-likert","424","919305","0.0-424.0","e3gaamyz","","","","","","","",""
"","","","call-function","425","919305","0.0-425.0","e3gaamyz","","","","","","","",""
"null","","","html-keyboard-response","426","920807","0.0-426.0","e3gaamyz","","<span style=""color:Black; font-size:50px;"">Agent A","null","","","","",""
"null","","","video-keyboard-response","427","923895","0.0-427.0","e3gaamyz","","","null","","Agent A","scrambled","STIM_SET_3/1592044.bmp_pp94_L2_V2_veridical_freeview_isoFalsemismatch_1159446.bmp_L3_fps90.mp4",""
"null","","","html-keyboard-response","428","925400","0.0-428.0","e3gaamyz","","<span style=""color:Black; font-size:50px;"">Agent B","null","","","","",""
"null","","","video-keyboard-response","429","928490","0.0-429.0","e3gaamyz","","","null","","Agent B","veridical","STIM_SET_1_REAL/1159446.bmp_pp60_L3_V1.0_veridical_freeview_isoFalse_fps144.mp4",""
"","","","call-function","430","928490","0.0-430.0","e3gaamyz","","","","","","","",""
"2358.5849999999627","{""judgement"":1}","[0]","survey-likert","431","930850","0.0-431.0","e3gaamyz","","","","","","","","1"
"1437.125","{""confidence"":3}","[0]","survey-likert","432","932289","0.0-432.0","e3gaamyz","","","","","","","",""
"","","","call-function","433","932289","0.0-433.0","e3gaamyz","","","","","","","",""
"null","","","html-keyboard-response","434","933794","0.0-434.0","e3gaamyz","","<span style=""color:Black; font-size:50px;"">Agent A","null","","","","",""
"null","","","video-keyboard-response","435","936892","0.0-435.0","e3gaamyz","","","null","","Agent A","veridical","STIM_SET_1_REAL/1592890.bmp_pp82_L2_V1.0_veridical_freeview_isoFalse_fps144.mp4",""
"null","","","html-keyboard-response","436","938394","0.0-436.0","e3gaamyz","","<span style=""color:Black; font-size:50px;"">Agent B","null","","","","",""
"null","","","video-keyboard-response","437","941507","0.0-437.0","e3gaamyz","","","null","","Agent B","scrambled","STIM_SET_3/1592168.bmp_pp71_L1_V2_veridical_freeview_isoFalsemismatch_1592890.bmp_L2_fps90.mp4",""
"","","","call-function","438","941507","0.0-438.0","e3gaamyz","","","","","","","",""
"2007.3950000000186","{""judgement"":1}","[0]","survey-likert","439","943516","0.0-439.0","e3gaamyz","","","","","","","","0"
"1633.3999999999069","{""confidence"":1}","[0]","survey-likert","440","945150","0.0-440.0","e3gaamyz","","","","","","","",""
"","","","call-function","441","945151","0.0-441.0","e3gaamyz","","","","","","","",""
"null","","","html-keyboard-response","442","946656","0.0-442.0","e3gaamyz","","<span style=""color:Black; font-size:50px;"">Agent A","null","","","","",""
"null","","","video-keyboard-response","443","949751","0.0-443.0","e3gaamyz","","","null","","Agent A","scrambled","STIM_SET_3/713829.bmp_pp60_L3_V2_veridical_freeview_isoFalsemismatch_1159440.bmp_L1_fps90.mp4",""
"null","","","html-keyboard-response","444","951254","0.0-444.0","e3gaamyz","","<span style=""color:Black; font-size:50px;"">Agent B","null","","","","",""
"null","","","video-keyboard-response","445","954357","0.0-445.0","e3gaamyz","","","null","","Agent B","veridical","STIM_SET_1_REAL/1159440.bmp_pp98_L1_V1.0_veridical_freeview_isoFalse_fps144.mp4",""
"","","","call-function","446","954358","0.0-446.0","e3gaamyz","","","","","","","",""
"1870.9150000000373","{""judgement"":0}","[0]","survey-likert","447","956229","0.0-447.0","e3gaamyz","","","","","","","","1"
"3029.3349999999627","{""confidence"":1}","[0]","survey-likert","448","959260","0.0-448.0","e3gaamyz","","","","","","","",""
"","","","call-function","449","959261","0.0-449.0","e3gaamyz","","","","","","","",""
"null","","","html-keyboard-response","450","960766","0.0-450.0","e3gaamyz","","<span style=""color:Black; font-size:50px;"">Agent A","null","","","","",""
"null","","","video-keyboard-response","451","963834","0.0-451.0","e3gaamyz","","","null","","Agent A","scrambled","STIM_SET_3/1159956.bmp_pp59_L3_V2_veridical_freeview_isoFalsemismatch_1159829.bmp_L3_fps90.mp4",""
"null","","","html-keyboard-response","452","965337","0.0-452.0","e3gaamyz","","<span style=""color:Black; font-size:50px;"">Agent B","null","","","","",""
"null","","","video-keyboard-response","453","968407","0.0-453.0","e3gaamyz","","","null","","Agent B","veridical","STIM_SET_1_REAL/1159829.bmp_pp91_L3_V1.0_veridical_freeview_isoFalse_fps144.mp4",""
"","","","call-function","454","968409","0.0-454.0","e3gaamyz","","","","","","","",""
"3526.694999999949","{""judgement"":1}","[0]","survey-likert","455","971937","0.0-455.0","e3gaamyz","","","","","","","","1"
"2150.310000000056","{""confidence"":3}","[0]","survey-likert","456","974089","0.0-456.0","e3gaamyz","","","","","","","",""
"","","","call-function","457","974091","0.0-457.0","e3gaamyz","","","","","","","",""
"null","","","html-keyboard-response","458","975595","0.0-458.0","e3gaamyz","","<span style=""color:Black; font-size:50px;"">Agent A","null","","","","",""
"null","","","video-keyboard-response","459","978670","0.0-459.0","e3gaamyz","","","null","","Agent A","veridical","STIM_SET_1_REAL/713760.bmp_pp81_L1_V1.0_veridical_freeview_isoFalse_fps144.mp4",""
"null","","","html-keyboard-response","460","980176","0.0-460.0","e3gaamyz","","<span style=""color:Black; font-size:50px;"">Agent B","null","","","","",""
"null","","","video-keyboard-response","461","983238","0.0-461.0","e3gaamyz","","","null","","Agent B","scrambled","STIM_SET_3/285684.bmp_pp80_L3_V2_veridical_freeview_isoFalsemismatch_713760.bmp_L1_fps90.mp4",""
"","","","call-function","462","983239","0.0-462.0","e3gaamyz","","","","","","","",""
"3671.1149999999907","{""judgement"":0}","[0]","survey-likert","463","986911","0.0-463.0","e3gaamyz","","","","","","","","0"
"2134.4799999999814","{""confidence"":3}","[0]","survey-likert","464","989047","0.0-464.0","e3gaamyz","","","","","","","",""
"","","","call-function","465","989048","0.0-465.0","e3gaamyz","","","","","","","",""
"null","","","html-keyboard-response","466","990553","0.0-466.0","e3gaamyz","","<span style=""color:Black; font-size:50px;"">Agent A","null","","","","",""
"null","","","video-keyboard-response","467","993624","0.0-467.0","e3gaamyz","","","null","","Agent A","scrambled","STIM_SET_3/1592350.bmp_pp55_L3_V2_veridical_freeview_isoFalsemismatch_498111.bmp_L2_fps90.mp4",""
"null","","","html-keyboard-response","468","995128","0.0-468.0","e3gaamyz","","<span style=""color:Black; font-size:50px;"">Agent B","null","","","","",""
"null","","","video-keyboard-response","469","998203","0.0-469.0","e3gaamyz","","","null","","Agent B","veridical","STIM_SET_1_REAL/498111.bmp_pp88_L2_V1.0_veridical_freeview_isoFalse_fps144.mp4",""
"","","","call-function","470","998204","0.0-470.0","e3gaamyz","","","","","","","",""
"2901.659999999916","{""judgement"":1}","[0]","survey-likert","471","1001106","0.0-471.0","e3gaamyz","","","","","","","","1"
"1476.5599999999395","{""confidence"":3}","[0]","survey-likert","472","1002584","0.0-472.0","e3gaamyz","","","","","","","",""
"","","","call-function","473","1002585","0.0-473.0","e3gaamyz","","","","","","","",""
"null","","","html-keyboard-response","474","1004087","0.0-474.0","e3gaamyz","","<span style=""color:Black; font-size:50px;"">Agent A","null","","","","",""
"null","","","video-keyboard-response","475","1007176","0.0-475.0","e3gaamyz","","","null","","Agent A","scrambled","STIM_SET_3/1592951.bmp_pp80_L3_V2_veridical_freeview_isoFalsemismatch_712977.bmp_L1_fps90.mp4",""
"null","","","html-keyboard-response","476","1008679","0.0-476.0","e3gaamyz","","<span style=""color:Black; font-size:50px;"">Agent B","null","","","","",""
"null","","","video-keyboard-response","477","1011777","0.0-477.0","e3gaamyz","","","null","","Agent B","veridical","STIM_SET_1_REAL/712977.bmp_pp51_L1_V1.0_veridical_freeview_isoFalse_fps144.mp4",""
"","","","call-function","478","1011777","0.0-478.0","e3gaamyz","","","","","","","",""
"2252.9499999999534","{""judgement"":1}","[0]","survey-likert","479","1014032","0.0-479.0","e3gaamyz","","","","","","","","1"
"2027.859999999986","{""confidence"":3}","[0]","survey-likert","480","1016061","0.0-480.0","e3gaamyz","","","","","","","",""
"","","","call-function","481","1016062","0.0-481.0","e3gaamyz","","","","","","","",""
"null","","","html-keyboard-response","482","1017564","0.0-482.0","e3gaamyz","","<span style=""color:Black; font-size:50px;"">Agent A","null","","","","",""
"null","","","video-keyboard-response","483","1020652","0.0-483.0","e3gaamyz","","","null","","Agent A","scrambled","STIM_SET_3/107955.bmp_pp90_L2_V2_veridical_freeview_isoFalsemismatch_498149.bmp_L2_fps90.mp4",""
"null","","","html-keyboard-response","484","1022156","0.0-484.0","e3gaamyz","","<span style=""color:Black; font-size:50px;"">Agent B","null","","","","",""
"null","","","video-keyboard-response","485","1025247","0.0-485.0","e3gaamyz","","","null","","Agent B","veridical","STIM_SET_1_REAL/498149.bmp_pp99_L2_V1.0_veridical_freeview_isoFalse_fps144.mp4",""
"","","","call-function","486","1025247","0.0-486.0","e3gaamyz","","","","","","","",""
"2696.670000000042","{""judgement"":1}","[0]","survey-likert","487","1027945","0.0-487.0","e3gaamyz","","","","","","","","1"
"1459.8249999999534","{""confidence"":3}","[0]","survey-likert","488","1029406","0.0-488.0","e3gaamyz","","","","","","","",""
"","","","call-function","489","1029406","0.0-489.0","e3gaamyz","","","","","","","",""
"null","","","html-keyboard-response","490","1030907","0.0-490.0","e3gaamyz","","<span style=""color:Black; font-size:50px;"">Agent A","null","","","","",""
"null","","","video-keyboard-response","491","1034019","0.0-491.0","e3gaamyz","","","null","","Agent A","veridical","STIM_SET_1_REAL/713211.bmp_pp100_L3_V1.0_veridical_freeview_isoFalse_fps144.mp4",""
"null","","","html-keyboard-response","492","1035525","0.0-492.0","e3gaamyz","","<span style=""color:Black; font-size:50px;"">Agent B","null","","","","",""
"null","","","video-keyboard-response","493","1038627","0.0-493.0","e3gaamyz","","","null","","Agent B","scrambled","STIM_SET_3/1592921.bmp_pp69_L3_V2_veridical_freeview_isoFalsemismatch_713211.bmp_L3_fps90.mp4",""
"","","","call-function","494","1038628","0.0-494.0","e3gaamyz","","","","","","","",""
"3042.780000000028","{""judgement"":1}","[0]","survey-likert","495","1041672","0.0-495.0","e3gaamyz","","","","","","","","0"
"1901.9349999999395","{""confidence"":2}","[0]","survey-likert","496","1043575","0.0-496.0","e3gaamyz","","","","","","","",""
"1670.0500000000466","","","instructions","497","1045246","0.0-497.0","e3gaamyz","[{""page_index"":0,""viewing_time"":865.9499999999534},{""page_index"":1,""viewing_time"":424.1150000001071},{""page_index"":2,""viewing_time"":379.7249999999767}]","","","","","","",""
"1131.3450000000885","","","instructions","498","1046378","0.0-498.0","e3gaamyz","[{""page_index"":0,""viewing_time"":349.1149999999907},{""page_index"":1,""viewing_time"":373.8450000000885},{""page_index"":2,""viewing_time"":408.27499999990687}]","","","","","","",""
"","","","call-function","499","1046378","0.0-499.0","e3gaamyz","","","","","","","",""
"null","","","html-keyboard-response","500","1047879","0.0-500.0","e3gaamyz","","<span style=""color:Black; font-size:50px;"">Agent A","null","","","","",""
"null","","","video-keyboard-response","501","1050955","0.0-501.0","e3gaamyz","","","null","","Agent A","veridical","STIM_SET_1_REAL/1591954.bmp_pp62_L2_V1.0_veridical_freeview_isoFalse_fps144.mp4",""
"null","","","html-keyboard-response","502","1052463","0.0-502.0","e3gaamyz","","<span style=""color:Black; font-size:50px;"">Agent B","null","","","","",""
"null","","","video-keyboard-response","503","1055527","0.0-503.0","e3gaamyz","","","null","","Agent B","scrambled","STIM_SET_3/1160049.bmp_pp53_L2_V2_veridical_freeview_isoFalsemismatch_1591954.bmp_L2_fps90.mp4",""
"","","","call-function","504","1055528","0.0-504.0","e3gaamyz","","","","","","","",""
"3137.4300000001676","{""judgement"":1}","[0]","survey-likert","505","1058667","0.0-505.0","e3gaamyz","","","","","","","","0"
"2021.4899999999907","{""confidence"":2}","[0]","survey-likert","506","1060690","0.0-506.0","e3gaamyz","","","","","","","",""
"","","","call-function","507","1060691","0.0-507.0","e3gaamyz","","","","","","","",""
"null","","","html-keyboard-response","508","1062192","0.0-508.0","e3gaamyz","","<span style=""color:Black; font-size:50px;"">Agent A","null","","","","",""
"null","","","video-keyboard-response","509","1065272","0.0-509.0","e3gaamyz","","","null","","Agent A","scrambled","STIM_SET_3/498025.bmp_pp81_L1_V2_veridical_freeview_isoFalsemismatch_713681.bmp_L2_fps90.mp4",""
"null","","","html-keyboard-response","510","1066773","0.0-510.0","e3gaamyz","","<span style=""color:Black; font-size:50px;"">Agent B","null","","","","",""
"null","","","video-keyboard-response","511","1069836","0.0-511.0","e3gaamyz","","","null","","Agent B","veridical","STIM_SET_1_REAL/713681.bmp_pp86_L2_V1.0_veridical_freeview_isoFalse_fps144.mp4",""
"","","","call-function","512","1069836","0.0-512.0","e3gaamyz","","","","","","","",""
"2186.690000000177","{""judgement"":1}","[0]","survey-likert","513","1072024","0.0-513.0","e3gaamyz","","","","","","","","1"
"1757.3149999999441","{""confidence"":2}","[0]","survey-likert","514","1073783","0.0-514.0","e3gaamyz","","","","","","","",""
"","","","call-function","515","1073784","0.0-515.0","e3gaamyz","","","","","","","",""
"null","","","html-keyboard-response","516","1075289","0.0-516.0","e3gaamyz","","<span style=""color:Black; font-size:50px;"">Agent A","null","","","","",""
"null","","","video-keyboard-response","517","1078367","0.0-517.0","e3gaamyz","","","null","","Agent A","veridical","STIM_SET_1_REAL/713666.bmp_pp97_L3_V1.0_veridical_freeview_isoFalse_fps144.mp4",""
"null","","","html-keyboard-response","518","1079872","0.0-518.0","e3gaamyz","","<span style=""color:Black; font-size:50px;"">Agent B","null","","","","",""
"null","","","video-keyboard-response","519","1082975","0.0-519.0","e3gaamyz","","","null","","Agent B","scrambled","STIM_SET_3/1592289.bmp_pp92_L3_V2_veridical_freeview_isoFalsemismatch_713666.bmp_L3_fps90.mp4",""
"","","","call-function","520","1082976","0.0-520.0","e3gaamyz","","","","","","","",""
"2494.320000000065","{""judgement"":0}","[0]","survey-likert","521","1085471","0.0-521.0","e3gaamyz","","","","","","","","0"
"1943.1200000001118","{""confidence"":3}","[0]","survey-likert","522","1087416","0.0-522.0","e3gaamyz","","","","","","","",""
"","","","call-function","523","1087416","0.0-523.0","e3gaamyz","","","","","","","",""
"null","","","html-keyboard-response","524","1088917","0.0-524.0","e3gaamyz","","<span style=""color:Black; font-size:50px;"">Agent A","null","","","","",""
"null","","","video-keyboard-response","525","1092024","0.0-525.0","e3gaamyz","","","null","","Agent A","veridical","STIM_SET_1_REAL/1592372.bmp_pp76_L1_V1.0_veridical_freeview_isoFalse_fps144.mp4",""
"null","","","html-keyboard-response","526","1093527","0.0-526.0","e3gaamyz","","<span style=""color:Black; font-size:50px;"">Agent B","null","","","","",""
"null","","","video-keyboard-response","527","1096631","0.0-527.0","e3gaamyz","","","null","","Agent B","scrambled","STIM_SET_3/107909.bmp_pp95_L2_V2_veridical_freeview_isoFalsemismatch_1592372.bmp_L1_fps90.mp4",""
"","","","call-function","528","1096632","0.0-528.0","e3gaamyz","","","","","","","",""
"2154.5250000001397","{""judgement"":1}","[0]","survey-likert","529","1098787","0.0-529.0","e3gaamyz","","","","","","","","0"
"2462.25","{""confidence"":1}","[0]","survey-likert","530","1101251","0.0-530.0","e3gaamyz","","","","","","","",""
"","","","call-function","531","1101251","0.0-531.0","e3gaamyz","","","","","","","",""
"null","","","html-keyboard-response","532","1102755","0.0-532.0","e3gaamyz","","<span style=""color:Black; font-size:50px;"">Agent A","null","","","","",""
"null","","","video-keyboard-response","533","1105849","0.0-533.0","e3gaamyz","","","null","","Agent A","scrambled","STIM_SET_3/713652.bmp_pp89_L1_V2_veridical_freeview_isoFalsemismatch_1592807.bmp_L1_fps90.mp4",""
"null","","","html-keyboard-response","534","1107351","0.0-534.0","e3gaamyz","","<span style=""color:Black; font-size:50px;"">Agent B","null","","","","",""
"null","","","video-keyboard-response","535","1110462","0.0-535.0","e3gaamyz","","","null","","Agent B","veridical","STIM_SET_1_REAL/1592807.bmp_pp68_L1_V1.0_veridical_freeview_isoFalse_fps144.mp4",""
"","","","call-function","536","1110462","0.0-536.0","e3gaamyz","","","","","","","",""
"1795.4550000000745","{""judgement"":1}","[0]","survey-likert","537","1112259","0.0-537.0","e3gaamyz","","","","","","","","1"
"1735.8200000000652","{""confidence"":3}","[0]","survey-likert","538","1113997","0.0-538.0","e3gaamyz","","","","","","","",""
"","","","call-function","539","1113999","0.0-539.0","e3gaamyz","","","","","","","",""
"null","","","html-keyboard-response","540","1115500","0.0-540.0","e3gaamyz","","<span style=""color:Black; font-size:50px;"">Agent A","null","","","","",""
"null","","","video-keyboard-response","541","1118564","0.0-541.0","e3gaamyz","","","null","","Agent A","veridical","STIM_SET_1_REAL/286001.bmp_pp54_L2_V1.0_veridical_freeview_isoFalse_fps144.mp4",""
"null","","","html-keyboard-response","542","1120068","0.0-542.0","e3gaamyz","","<span style=""color:Black; font-size:50px;"">Agent B","null","","","","",""
"null","","","video-keyboard-response","543","1123136","0.0-543.0","e3gaamyz","","","null","","Agent B","scrambled","STIM_SET_3/1160204.bmp_pp54_L2_V2_veridical_freeview_isoFalsemismatch_286001.bmp_L2_fps90.mp4",""
"","","","call-function","544","1123137","0.0-544.0","e3gaamyz","","","","","","","",""
"2010.1700000001583","{""judgement"":0}","[0]","survey-likert","545","1125148","0.0-545.0","e3gaamyz","","","","","","","","0"
"2120.4250000000466","{""confidence"":3}","[0]","survey-likert","546","1127271","0.0-546.0","e3gaamyz","","","","","","","",""
"","","","call-function","547","1127272","0.0-547.0","e3gaamyz","","","","","","","",""
"null","","","html-keyboard-response","548","1128774","0.0-548.0","e3gaamyz","","<span style=""color:Black; font-size:50px;"">Agent A","null","","","","",""
"null","","","video-keyboard-response","549","1131844","0.0-549.0","e3gaamyz","","","null","","Agent A","scrambled","STIM_SET_3/1159819.bmp_pp151_L1_V2_veridical_freeview_isoFalsemismatch_1592499.bmp_L2_fps90.mp4",""
"null","","","html-keyboard-response","550","1133348","0.0-550.0","e3gaamyz","","<span style=""color:Black; font-size:50px;"">Agent B","null","","","","",""
"null","","","video-keyboard-response","551","1136418","0.0-551.0","e3gaamyz","","","null","","Agent B","veridical","STIM_SET_1_REAL/1592499.bmp_pp96_L2_V1.0_veridical_freeview_isoFalse_fps144.mp4",""
"","","","call-function","552","1136419","0.0-552.0","e3gaamyz","","","","","","","",""
"2338.2949999999255","{""judgement"":1}","[0]","survey-likert","553","1138758","0.0-553.0","e3gaamyz","","","","","","","","1"
"2228.7750000001397","{""confidence"":3}","[0]","survey-likert","554","1140988","0.0-554.0","e3gaamyz","","","","","","","",""
"","","","call-function","555","1140989","0.0-555.0","e3gaamyz","","","","","","","",""
"null","","","html-keyboard-response","556","1142492","0.0-556.0","e3gaamyz","","<span style=""color:Black; font-size:50px;"">Agent A","null","","","","",""
"null","","","video-keyboard-response","557","1145578","0.0-557.0","e3gaamyz","","","null","","Agent A","veridical","STIM_SET_1_REAL/713089.bmp_pp60_L3_V1.0_veridical_freeview_isoFalse_fps144.mp4",""
"null","","","html-keyboard-response","558","1147082","0.0-558.0","e3gaamyz","","<span style=""color:Black; font-size:50px;"">Agent B","null","","","","",""
"null","","","video-keyboard-response","559","1150179","0.0-559.0","e3gaamyz","","","null","","Agent B","scrambled","STIM_SET_3/1592201.bmp_pp97_L3_V2_veridical_freeview_isoFalsemismatch_713089.bmp_L3_fps90.mp4",""
"","","","call-function","560","1150179","0.0-560.0","e3gaamyz","","","","","","","",""
"2477.619999999879","{""judgement"":0}","[0]","survey-likert","561","1152658","0.0-561.0","e3gaamyz","","","","","","","","0"
"1385.3649999999907","{""confidence"":3}","[0]","survey-likert","562","1154044","0.0-562.0","e3gaamyz","","","","","","","",""
"","","","call-function","563","1154045","0.0-563.0","e3gaamyz","","","","","","","",""
"null","","","html-keyboard-response","564","1155547","0.0-564.0","e3gaamyz","","<span style=""color:Black; font-size:50px;"">Agent A","null","","","","",""
"null","","","video-keyboard-response","565","1158651","0.0-565.0","e3gaamyz","","","null","","Agent A","veridical","STIM_SET_1_REAL/285751.bmp_pp55_L3_V1.0_veridical_freeview_isoFalse_fps144.mp4",""
"null","","","html-keyboard-response","566","1160157","0.0-566.0","e3gaamyz","","<span style=""color:Black; font-size:50px;"">Agent B","null","","","","",""
"null","","","video-keyboard-response","567","1163268","0.0-567.0","e3gaamyz","","","null","","Agent B","scrambled","STIM_SET_3/285946.bmp_pp79_L2_V2_veridical_freeview_isoFalsemismatch_285751.bmp_L3_fps90.mp4",""
"","","","call-function","568","1163269","0.0-568.0","e3gaamyz","","","","","","","",""
"2280.5049999998882","{""judgement"":1}","[0]","survey-likert","569","1165550","0.0-569.0","e3gaamyz","","","","","","","","0"
"2432.8300000000745","{""confidence"":3}","[0]","survey-likert","570","1167985","0.0-570.0","e3gaamyz","","","","","","","",""
"","","","call-function","571","1167985","0.0-571.0","e3gaamyz","","","","","","","",""
"null","","","html-keyboard-response","572","1169491","0.0-572.0","e3gaamyz","","<span style=""color:Black; font-size:50px;"">Agent A","null","","","","",""
"null","","","video-keyboard-response","573","1172583","0.0-573.0","e3gaamyz","","","null","","Agent A","scrambled","STIM_SET_3/1591975.bmp_pp88_L2_V2_veridical_freeview_isoFalsemismatch_713017.bmp_L2_fps90.mp4",""
"null","","","html-keyboard-response","574","1174086","0.0-574.0","e3gaamyz","","<span style=""color:Black; font-size:50px;"">Agent B","null","","","","",""
"null","","","video-keyboard-response","575","1177192","0.0-575.0","e3gaamyz","","","null","","Agent B","veridical","STIM_SET_1_REAL/713017.bmp_pp152_L2_V1.0_veridical_freeview_isoFalse_fps144.mp4",""
"","","","call-function","576","1177193","0.0-576.0","e3gaamyz","","","","","","","",""
"2690.8899999998976","{""judgement"":1}","[0]","survey-likert","577","1179885","0.0-577.0","e3gaamyz","","","","","","","","1"
"2095.054999999935","{""confidence"":3}","[0]","survey-likert","578","1181982","0.0-578.0","e3gaamyz","","","","","","","",""
"1028.344999999972","","","instructions","579","1183011","0.0-579.0","e3gaamyz","[{""page_index"":0,""viewing_time"":1028.2099999999627}]","","","","","","",""
"963.3349999999627","","","instructions","580","1183975","0.0-580.0","e3gaamyz","[{""page_index"":0,""viewing_time"":963.1500000001397}]","","","","","","",""
"4905.72499999986","{""post-1"":1}","[0]","survey-likert","581","1188882","0.0-581.0","e3gaamyz","","","","","","","",""
"1820.4399999999441","{""post-1"":0}","[0]","survey-likert","582","1190703","0.0-582.0","e3gaamyz","","","","","","","",""
"4954.804999999935","{""post-2"":0}","[0]","survey-likert","583","1195659","0.0-583.0","e3gaamyz","","","","","","","",""
"3270.445000000065","{""post-2"":0}","[0]","survey-likert","584","1198932","0.0-584.0","e3gaamyz","","","","","","","",""
"7134.179999999935","{""post-3"":1}","[0]","survey-likert","585","1206067","0.0-585.0","e3gaamyz","","","","","","","",""
"1442.7399999999907","{""post-3"":0}","[0]","survey-likert","586","1207511","0.0-586.0","e3gaamyz","","","","","","","",""
"3755.4499999999534","{""post-4"":0}","[0]","survey-likert","587","1211268","0.0-587.0","e3gaamyz","","","","","","","",""
"2286.6049999999814","{""post-4"":0}","[0]","survey-likert","588","1213556","0.0-588.0","e3gaamyz","","","","","","","",""
"5681.229999999981","{""post-5"":0}","[0]","survey-likert","589","1219239","0.0-589.0","e3gaamyz","","","","","","","",""
"4061.6800000001676","{""post-5"":1}","[0]","survey-likert","590","1223303","0.0-590.0","e3gaamyz","","","","","","","",""
"73027.59999999986","{""Q0"":""It more felt like a challenge of discerning what a human would focus on in any given image and then picking which of the two agent's followed that structure better""}","","survey-text","591","1296337","0.0-591.0","e3gaamyz","","","","","","","",""
"56067.62999999989","{""Q0"":""If there were human faces, text, bright colors, or dense areas and an agent did not focus on them consistently, it felt as if it was most likely not a human, while if it did, it felt as if it was""}","","survey-text","592","1352408","0.0-592.0","e3gaamyz","","","","","","","",""
"67255.4049999998","{""Q0"":""Seeing the full image myself, analyzing where hotspots for human attention might be, and following the attention paths of the agents all at once in the short time interval the images were shown""}","","survey-text","593","1419667","0.0-593.0","e3gaamyz","","","","","","","",""
"1456.5199999997858","","","instructions","594","1421125","0.0-594.0","e3gaamyz","[{""page_index"":0,""viewing_time"":1456.3599999998696}]","","","","","","",""
"53502.375","{""Experimenter_end"":[""Printed ID# e3gaamyz on consent form"",""Given subject SONA credit or payment"",""Given the subject debrief form""]}","[0]","survey-multi-select","595","1474630","0.0-595.0","e3gaamyz","","","","","","","",""
