"rt","responses","question_order","trial_type","trial_index","time_elapsed","internal_node_id","ID","view_history","stimulus","key_press","value","agent","condition","image","correct_answer"
"9381.324999999999","{""Experimenter"":[""Confirmed subject's identity (ID card)"",""Confirmed normal or corrected-to-normal vision"",""Obtained consent (signature and date)"",""Checked the test room lighting"",""Checked computer screen lighting"",""Checked distance from screen to chin rest (50cm)"",""Cleaned and adjusted chin rest"",""Counterbalanced the order of the tasks"",""Opened the experiment in Firefox"",""Made the experiment full screen"",""Encouraged subject to silence phone, put away distractors, etc.""]}","[0]","survey-multi-select","0","9390","0.0-0.0","edepucu8","","","","","","","",""
"18481.525","","","instructions","1","27873","0.0-1.0","edepucu8","[{""page_index"":0,""viewing_time"":18480.97}]","","","","","","",""
"4369.395","","","instructions","2","32244","0.0-2.0","edepucu8","[{""page_index"":0,""viewing_time"":729.0449999999983},{""page_index"":1,""viewing_time"":1692.5650000000023},{""page_index"":2,""viewing_time"":1947.6499999999978}]","","","","","","",""
"1739.7150000000001","","","instructions","3","33985","0.0-3.0","edepucu8","[{""page_index"":0,""viewing_time"":1739.6150000000016}]","","","","","","",""
"null","","","video-keyboard-response","4","37057","0.0-4.0","edepucu8","","","null","","","","",""
"6823.93","","","instructions","5","43882","0.0-5.0","edepucu8","[{""page_index"":0,""viewing_time"":1837.3400000000038},{""page_index"":1,""viewing_time"":1460.364999999998},{""page_index"":2,""viewing_time"":459.66999999999825},{""page_index"":3,""viewing_time"":1563.9200000000055},{""page_index"":4,""viewing_time"":1502.4749999999985}]","","","","","","",""
"2181.270000000004","","","instructions","6","46063","0.0-6.0","edepucu8","[{""page_index"":0,""viewing_time"":2181.145000000004}]","","","","","","",""
"","","","call-function","7","46064","0.0-7.0","edepucu8","","","","","","","",""
"null","","","html-keyboard-response","8","47567","0.0-8.0","edepucu8","","<span style=""color:Black; font-size:50px;"">Agent A","null","","","","",""
"null","","","video-keyboard-response","9","50408","0.0-9.0","edepucu8","","","null","","Agent A","scrambled","FOR_REV_BLOBBY_STIM/1592657.bmp_pp98_L1_V1.0_veridical_freeview_isoFalse_fps144_reversed_REAL.mp4",""
"null","","","html-keyboard-response","10","51912","0.0-10.0","edepucu8","","<span style=""color:Black; font-size:50px;"">Agent B","null","","","","",""
"null","","","video-keyboard-response","11","54745","0.0-11.0","edepucu8","","","null","","Agent B","veridical","FOR_REV_BLOBBY_STIM/1592657.bmp_pp98_L1_V1.0_veridical_freeview_isoFalse_fps144.mp4",""
"","","","call-function","12","54746","0.0-12.0","edepucu8","","","","","","","",""
"1213.0650000000023","{""judgement"":1}","[0]","survey-likert","13","55960","0.0-13.0","edepucu8","","","","","","","","1"
"2231.8250000000044","{""confidence"":3}","[0]","survey-likert","14","58193","0.0-14.0","edepucu8","","","","","","","",""
"","","","call-function","15","58194","0.0-15.0","edepucu8","","","","","","","",""
"null","","","html-keyboard-response","16","59696","0.0-16.0","edepucu8","","<span style=""color:Black; font-size:50px;"">Agent A","null","","","","",""
"null","","","video-keyboard-response","17","62343","0.0-17.0","edepucu8","","","null","","Agent A","veridical","FOR_REV_BLOBBY_STIM/498149.bmp_pp99_L2_V1.0_veridical_freeview_isoFalse_fps144.mp4",""
"null","","","html-keyboard-response","18","63849","0.0-18.0","edepucu8","","<span style=""color:Black; font-size:50px;"">Agent B","null","","","","",""
"null","","","video-keyboard-response","19","66508","0.0-19.0","edepucu8","","","null","","Agent B","scrambled","FOR_REV_BLOBBY_STIM/498149.bmp_pp99_L2_V1.0_veridical_freeview_isoFalse_fps144_reversed_REAL.mp4",""
"","","","call-function","20","66508","0.0-20.0","edepucu8","","","","","","","",""
"2471.439999999988","{""judgement"":1}","[0]","survey-likert","21","68982","0.0-21.0","edepucu8","","","","","","","","0"
"1270.2749999999942","{""confidence"":1}","[0]","survey-likert","22","70253","0.0-22.0","edepucu8","","","","","","","",""
"","","","call-function","23","70254","0.0-23.0","edepucu8","","","","","","","",""
"null","","","html-keyboard-response","24","71760","0.0-24.0","edepucu8","","<span style=""color:Black; font-size:50px;"">Agent A","null","","","","",""
"null","","","video-keyboard-response","25","74302","0.0-25.0","edepucu8","","","null","","Agent A","scrambled","FOR_REV_BLOBBY_STIM/713513.bmp_pp62_L2_V1.0_veridical_freeview_isoFalse_fps144_reversed_REAL.mp4",""
"null","","","html-keyboard-response","26","75805","0.0-26.0","edepucu8","","<span style=""color:Black; font-size:50px;"">Agent B","null","","","","",""
"null","","","video-keyboard-response","27","78356","0.0-27.0","edepucu8","","","null","","Agent B","veridical","FOR_REV_BLOBBY_STIM/713513.bmp_pp62_L2_V1.0_veridical_freeview_isoFalse_fps144.mp4",""
"","","","call-function","28","78357","0.0-28.0","edepucu8","","","","","","","",""
"3092.5899999999965","{""judgement"":1}","[0]","survey-likert","29","81450","0.0-29.0","edepucu8","","","","","","","","1"
"2256.1600000000035","{""confidence"":1}","[0]","survey-likert","30","83707","0.0-30.0","edepucu8","","","","","","","",""
"","","","call-function","31","83708","0.0-31.0","edepucu8","","","","","","","",""
"null","","","html-keyboard-response","32","85211","0.0-32.0","edepucu8","","<span style=""color:Black; font-size:50px;"">Agent A","null","","","","",""
"null","","","video-keyboard-response","33","87975","0.0-33.0","edepucu8","","","null","","Agent A","veridical","FOR_REV_BLOBBY_STIM/498111.bmp_pp88_L2_V1.0_veridical_freeview_isoFalse_fps144.mp4",""
"null","","","html-keyboard-response","34","89478","0.0-34.0","edepucu8","","<span style=""color:Black; font-size:50px;"">Agent B","null","","","","",""
"null","","","video-keyboard-response","35","92229","0.0-35.0","edepucu8","","","null","","Agent B","scrambled","FOR_REV_BLOBBY_STIM/498111.bmp_pp88_L2_V1.0_veridical_freeview_isoFalse_fps144_reversed_REAL.mp4",""
"","","","call-function","36","92229","0.0-36.0","edepucu8","","","","","","","",""
"1939.770000000004","{""judgement"":0}","[0]","survey-likert","37","94170","0.0-37.0","edepucu8","","","","","","","","0"
"1823.715000000011","{""confidence"":2}","[0]","survey-likert","38","95995","0.0-38.0","edepucu8","","","","","","","",""
"","","","call-function","39","95995","0.0-39.0","edepucu8","","","","","","","",""
"null","","","html-keyboard-response","40","97497","0.0-40.0","edepucu8","","<span style=""color:Black; font-size:50px;"">Agent A","null","","","","",""
"null","","","video-keyboard-response","41","100327","0.0-41.0","edepucu8","","","null","","Agent A","veridical","FOR_REV_BLOBBY_STIM/1159882.bmp_pp61_L2_V1.0_veridical_freeview_isoFalse_fps144.mp4",""
"null","","","html-keyboard-response","42","101830","0.0-42.0","edepucu8","","<span style=""color:Black; font-size:50px;"">Agent B","null","","","","",""
"null","","","video-keyboard-response","43","104669","0.0-43.0","edepucu8","","","null","","Agent B","scrambled","FOR_REV_BLOBBY_STIM/1159882.bmp_pp61_L2_V1.0_veridical_freeview_isoFalse_fps144_reversed_REAL.mp4",""
"","","","call-function","44","104670","0.0-44.0","edepucu8","","","","","","","",""
"3311.8099999999977","{""judgement"":1}","[0]","survey-likert","45","107983","0.0-45.0","edepucu8","","","","","","","","0"
"942.8799999999901","{""confidence"":2}","[0]","survey-likert","46","108927","0.0-46.0","edepucu8","","","","","","","",""
"","","","call-function","47","108928","0.0-47.0","edepucu8","","","","","","","",""
"null","","","html-keyboard-response","48","110429","0.0-48.0","edepucu8","","<span style=""color:Black; font-size:50px;"">Agent A","null","","","","",""
"null","","","video-keyboard-response","49","112987","0.0-49.0","edepucu8","","","null","","Agent A","scrambled","FOR_REV_BLOBBY_STIM/713760.bmp_pp81_L1_V1.0_veridical_freeview_isoFalse_fps144_reversed_REAL.mp4",""
"null","","","html-keyboard-response","50","114491","0.0-50.0","edepucu8","","<span style=""color:Black; font-size:50px;"">Agent B","null","","","","",""
"null","","","video-keyboard-response","51","117046","0.0-51.0","edepucu8","","","null","","Agent B","veridical","FOR_REV_BLOBBY_STIM/713760.bmp_pp81_L1_V1.0_veridical_freeview_isoFalse_fps144.mp4",""
"","","","call-function","52","117046","0.0-52.0","edepucu8","","","","","","","",""
"1750.125","{""judgement"":1}","[0]","survey-likert","53","118797","0.0-53.0","edepucu8","","","","","","","","1"
"1618.6300000000047","{""confidence"":2}","[0]","survey-likert","54","120417","0.0-54.0","edepucu8","","","","","","","",""
"","","","call-function","55","120418","0.0-55.0","edepucu8","","","","","","","",""
"null","","","html-keyboard-response","56","121923","0.0-56.0","edepucu8","","<span style=""color:Black; font-size:50px;"">Agent A","null","","","","",""
"null","","","video-keyboard-response","57","124648","0.0-57.0","edepucu8","","","null","","Agent A","veridical","FOR_REV_BLOBBY_STIM/1592817.bmp_pp55_L3_V1.0_veridical_freeview_isoFalse_fps144.mp4",""
"null","","","html-keyboard-response","58","126151","0.0-58.0","edepucu8","","<span style=""color:Black; font-size:50px;"">Agent B","null","","","","",""
"null","","","video-keyboard-response","59","128854","0.0-59.0","edepucu8","","","null","","Agent B","scrambled","FOR_REV_BLOBBY_STIM/1592817.bmp_pp55_L3_V1.0_veridical_freeview_isoFalse_fps144_reversed_REAL.mp4",""
"","","","call-function","60","128854","0.0-60.0","edepucu8","","","","","","","",""
"1998.050000000003","{""judgement"":0}","[0]","survey-likert","61","130853","0.0-61.0","edepucu8","","","","","","","","0"
"1376.1050000000105","{""confidence"":2}","[0]","survey-likert","62","132230","0.0-62.0","edepucu8","","","","","","","",""
"","","","call-function","63","132231","0.0-63.0","edepucu8","","","","","","","",""
"null","","","html-keyboard-response","64","133735","0.0-64.0","edepucu8","","<span style=""color:Black; font-size:50px;"">Agent A","null","","","","",""
"null","","","video-keyboard-response","65","136513","0.0-65.0","edepucu8","","","null","","Agent A","scrambled","FOR_REV_BLOBBY_STIM/713749.bmp_pp88_L2_V1.0_veridical_freeview_isoFalse_fps144_reversed_REAL.mp4",""
"null","","","html-keyboard-response","66","138019","0.0-66.0","edepucu8","","<span style=""color:Black; font-size:50px;"">Agent B","null","","","","",""
"null","","","video-keyboard-response","67","140787","0.0-67.0","edepucu8","","","null","","Agent B","veridical","FOR_REV_BLOBBY_STIM/713749.bmp_pp88_L2_V1.0_veridical_freeview_isoFalse_fps144.mp4",""
"","","","call-function","68","140788","0.0-68.0","edepucu8","","","","","","","",""
"2114.304999999993","{""judgement"":0}","[0]","survey-likert","69","142903","0.0-69.0","edepucu8","","","","","","","","1"
"1833.1100000000151","{""confidence"":3}","[0]","survey-likert","70","144737","0.0-70.0","edepucu8","","","","","","","",""
"","","","call-function","71","144737","0.0-71.0","edepucu8","","","","","","","",""
"null","","","html-keyboard-response","72","146241","0.0-72.0","edepucu8","","<span style=""color:Black; font-size:50px;"">Agent A","null","","","","",""
"null","","","video-keyboard-response","73","149042","0.0-73.0","edepucu8","","","null","","Agent A","scrambled","FOR_REV_BLOBBY_STIM/498155.bmp_pp61_L2_V1.0_veridical_freeview_isoFalse_fps144_reversed_REAL.mp4",""
"null","","","html-keyboard-response","74","150544","0.0-74.0","edepucu8","","<span style=""color:Black; font-size:50px;"">Agent B","null","","","","",""
"null","","","video-keyboard-response","75","153334","0.0-75.0","edepucu8","","","null","","Agent B","veridical","FOR_REV_BLOBBY_STIM/498155.bmp_pp61_L2_V1.0_veridical_freeview_isoFalse_fps144.mp4",""
"","","","call-function","76","153334","0.0-76.0","edepucu8","","","","","","","",""
"1897.5599999999977","{""judgement"":1}","[0]","survey-likert","77","155233","0.0-77.0","edepucu8","","","","","","","","1"
"2756.4100000000035","{""confidence"":3}","[0]","survey-likert","78","157990","0.0-78.0","edepucu8","","","","","","","",""
"","","","call-function","79","157990","0.0-79.0","edepucu8","","","","","","","",""
"null","","","html-keyboard-response","80","159494","0.0-80.0","edepucu8","","<span style=""color:Black; font-size:50px;"">Agent A","null","","","","",""
"null","","","video-keyboard-response","81","162420","0.0-81.0","edepucu8","","","null","","Agent A","veridical","FOR_REV_BLOBBY_STIM/1159572.bmp_pp71_L1_V1.0_veridical_freeview_isoFalse_fps144.mp4",""
"null","","","html-keyboard-response","82","163925","0.0-82.0","edepucu8","","<span style=""color:Black; font-size:50px;"">Agent B","null","","","","",""
"null","","","video-keyboard-response","83","166801","0.0-83.0","edepucu8","","","null","","Agent B","scrambled","FOR_REV_BLOBBY_STIM/1159572.bmp_pp71_L1_V1.0_veridical_freeview_isoFalse_fps144_reversed_REAL.mp4",""
"","","","call-function","84","166802","0.0-84.0","edepucu8","","","","","","","",""
"2085.8099999999977","{""judgement"":0}","[0]","survey-likert","85","168888","0.0-85.0","edepucu8","","","","","","","","0"
"1450.8600000000151","{""confidence"":1}","[0]","survey-likert","86","170340","0.0-86.0","edepucu8","","","","","","","",""
"4068.014999999985","","","instructions","87","174409","0.0-87.0","edepucu8","[{""page_index"":0,""viewing_time"":827.7799999999988},{""page_index"":1,""viewing_time"":723.9750000000058},{""page_index"":2,""viewing_time"":2516.014999999985}]","","","","","","",""
"1804.6049999999814","","","instructions","88","176214","0.0-88.0","edepucu8","[{""page_index"":0,""viewing_time"":563.4549999999872},{""page_index"":1,""viewing_time"":744.0199999999895},{""page_index"":2,""viewing_time"":497.0250000000233}]","","","","","","",""
"","","","call-function","89","176214","0.0-89.0","edepucu8","","","","","","","",""
"null","","","html-keyboard-response","90","177720","0.0-90.0","edepucu8","","<span style=""color:Black; font-size:50px;"">Agent A","null","","","","",""
"null","","","video-keyboard-response","91","180529","0.0-91.0","edepucu8","","","null","","Agent A","scrambled","FOR_REV_BLOBBY_STIM/1159784.bmp_pp73_L3_V1.0_veridical_freeview_isoFalse_fps144_reversed_REAL.mp4",""
"null","","","html-keyboard-response","92","182032","0.0-92.0","edepucu8","","<span style=""color:Black; font-size:50px;"">Agent B","null","","","","",""
"null","","","video-keyboard-response","93","184847","0.0-93.0","edepucu8","","","null","","Agent B","veridical","FOR_REV_BLOBBY_STIM/1159784.bmp_pp73_L3_V1.0_veridical_freeview_isoFalse_fps144.mp4",""
"","","","call-function","94","184847","0.0-94.0","edepucu8","","","","","","","",""
"1562.2000000000116","{""judgement"":1}","[0]","survey-likert","95","186410","0.0-95.0","edepucu8","","","","","","","","1"
"1215.9349999999977","{""confidence"":2}","[0]","survey-likert","96","187627","0.0-96.0","edepucu8","","","","","","","",""
"","","","call-function","97","187627","0.0-97.0","edepucu8","","","","","","","",""
"null","","","html-keyboard-response","98","189131","0.0-98.0","edepucu8","","<span style=""color:Black; font-size:50px;"">Agent A","null","","","","",""
"null","","","video-keyboard-response","99","191709","0.0-99.0","edepucu8","","","null","","Agent A","scrambled","FOR_REV_BLOBBY_STIM/1592397.bmp_pp85_L3_V1.0_veridical_freeview_isoFalse_fps144_reversed_REAL.mp4",""
"null","","","html-keyboard-response","100","193212","0.0-100.0","edepucu8","","<span style=""color:Black; font-size:50px;"">Agent B","null","","","","",""
"null","","","video-keyboard-response","101","195792","0.0-101.0","edepucu8","","","null","","Agent B","veridical","FOR_REV_BLOBBY_STIM/1592397.bmp_pp85_L3_V1.0_veridical_freeview_isoFalse_fps144.mp4",""
"","","","call-function","102","195792","0.0-102.0","edepucu8","","","","","","","",""
"2135.929999999993","{""judgement"":1}","[0]","survey-likert","103","197929","0.0-103.0","edepucu8","","","","","","","","1"
"1700.7699999999895","{""confidence"":2}","[0]","survey-likert","104","199631","0.0-104.0","edepucu8","","","","","","","",""
"","","","call-function","105","199631","0.0-105.0","edepucu8","","","","","","","",""
"null","","","html-keyboard-response","106","201133","0.0-106.0","edepucu8","","<span style=""color:Black; font-size:50px;"">Agent A","null","","","","",""
"null","","","video-keyboard-response","107","203877","0.0-107.0","edepucu8","","","null","","Agent A","scrambled","FOR_REV_BLOBBY_STIM/1160168.bmp_pp53_L2_V1.0_veridical_freeview_isoFalse_fps144_reversed_REAL.mp4",""
"null","","","html-keyboard-response","108","205382","0.0-108.0","edepucu8","","<span style=""color:Black; font-size:50px;"">Agent B","null","","","","",""
"null","","","video-keyboard-response","109","208085","0.0-109.0","edepucu8","","","null","","Agent B","veridical","FOR_REV_BLOBBY_STIM/1160168.bmp_pp53_L2_V1.0_veridical_freeview_isoFalse_fps144.mp4",""
"","","","call-function","110","208086","0.0-110.0","edepucu8","","","","","","","",""
"1575.9949999999953","{""judgement"":1}","[0]","survey-likert","111","209663","0.0-111.0","edepucu8","","","","","","","","1"
"1718.5999999999767","{""confidence"":2}","[0]","survey-likert","112","211384","0.0-112.0","edepucu8","","","","","","","",""
"","","","call-function","113","211385","0.0-113.0","edepucu8","","","","","","","",""
"null","","","html-keyboard-response","114","212887","0.0-114.0","edepucu8","","<span style=""color:Black; font-size:50px;"">Agent A","null","","","","",""
"null","","","video-keyboard-response","115","215410","0.0-115.0","edepucu8","","","null","","Agent A","veridical","FOR_REV_BLOBBY_STIM/713796.bmp_pp84_L3_V1.0_veridical_freeview_isoFalse_fps144.mp4",""
"null","","","html-keyboard-response","116","216913","0.0-116.0","edepucu8","","<span style=""color:Black; font-size:50px;"">Agent B","null","","","","",""
"null","","","video-keyboard-response","117","219437","0.0-117.0","edepucu8","","","null","","Agent B","scrambled","FOR_REV_BLOBBY_STIM/713796.bmp_pp84_L3_V1.0_veridical_freeview_isoFalse_fps144_reversed_REAL.mp4",""
"","","","call-function","118","219437","0.0-118.0","edepucu8","","","","","","","",""
"1380.8099999999977","{""judgement"":0}","[0]","survey-likert","119","220819","0.0-119.0","edepucu8","","","","","","","","0"
"1443.195000000007","{""confidence"":1}","[0]","survey-likert","120","222263","0.0-120.0","edepucu8","","","","","","","",""
"","","","call-function","121","222264","0.0-121.0","edepucu8","","","","","","","",""
"null","","","html-keyboard-response","122","223766","0.0-122.0","edepucu8","","<span style=""color:Black; font-size:50px;"">Agent A","null","","","","",""
"null","","","video-keyboard-response","123","226607","0.0-123.0","edepucu8","","","null","","Agent A","veridical","FOR_REV_BLOBBY_STIM/1592807.bmp_pp68_L1_V1.0_veridical_freeview_isoFalse_fps144.mp4",""
"null","","","html-keyboard-response","124","228111","0.0-124.0","edepucu8","","<span style=""color:Black; font-size:50px;"">Agent B","null","","","","",""
"null","","","video-keyboard-response","125","230932","0.0-125.0","edepucu8","","","null","","Agent B","scrambled","FOR_REV_BLOBBY_STIM/1592807.bmp_pp68_L1_V1.0_veridical_freeview_isoFalse_fps144_reversed_REAL.mp4",""
"","","","call-function","126","230932","0.0-126.0","edepucu8","","","","","","","",""
"2462.2700000000186","{""judgement"":0}","[0]","survey-likert","127","233395","0.0-127.0","edepucu8","","","","","","","","0"
"1123.2850000000035","{""confidence"":2}","[0]","survey-likert","128","234520","0.0-128.0","edepucu8","","","","","","","",""
"","","","call-function","129","234520","0.0-129.0","edepucu8","","","","","","","",""
"null","","","html-keyboard-response","130","236022","0.0-130.0","edepucu8","","<span style=""color:Black; font-size:50px;"">Agent A","null","","","","",""
"null","","","video-keyboard-response","131","238769","0.0-131.0","edepucu8","","","null","","Agent A","veridical","FOR_REV_BLOBBY_STIM/498170.bmp_pp153_L3_V1.0_veridical_freeview_isoFalse_fps144.mp4",""
"null","","","html-keyboard-response","132","240272","0.0-132.0","edepucu8","","<span style=""color:Black; font-size:50px;"">Agent B","null","","","","",""
"null","","","video-keyboard-response","133","243020","0.0-133.0","edepucu8","","","null","","Agent B","scrambled","FOR_REV_BLOBBY_STIM/498170.bmp_pp153_L3_V1.0_veridical_freeview_isoFalse_fps144_reversed_REAL.mp4",""
"","","","call-function","134","243020","0.0-134.0","edepucu8","","","","","","","",""
"1913.030000000028","{""judgement"":1}","[0]","survey-likert","135","244934","0.0-135.0","edepucu8","","","","","","","","0"
"1906.6849999999977","{""confidence"":2}","[0]","survey-likert","136","246842","0.0-136.0","edepucu8","","","","","","","",""
"","","","call-function","137","246842","0.0-137.0","edepucu8","","","","","","","",""
"null","","","html-keyboard-response","138","248346","0.0-138.0","edepucu8","","<span style=""color:Black; font-size:50px;"">Agent A","null","","","","",""
"null","","","video-keyboard-response","139","251205","0.0-139.0","edepucu8","","","null","","Agent A","scrambled","FOR_REV_BLOBBY_STIM/713403.bmp_pp80_L3_V1.0_veridical_freeview_isoFalse_fps144_reversed_REAL.mp4",""
"null","","","html-keyboard-response","140","252707","0.0-140.0","edepucu8","","<span style=""color:Black; font-size:50px;"">Agent B","null","","","","",""
"null","","","video-keyboard-response","141","255562","0.0-141.0","edepucu8","","","null","","Agent B","veridical","FOR_REV_BLOBBY_STIM/713403.bmp_pp80_L3_V1.0_veridical_freeview_isoFalse_fps144.mp4",""
"","","","call-function","142","255563","0.0-142.0","edepucu8","","","","","","","",""
"2639.189999999973","{""judgement"":0}","[0]","survey-likert","143","258203","0.0-143.0","edepucu8","","","","","","","","1"
"2432.904999999999","{""confidence"":1}","[0]","survey-likert","144","260637","0.0-144.0","edepucu8","","","","","","","",""
"","","","call-function","145","260637","0.0-145.0","edepucu8","","","","","","","",""
"null","","","html-keyboard-response","146","262139","0.0-146.0","edepucu8","","<span style=""color:Black; font-size:50px;"">Agent A","null","","","","",""
"null","","","video-keyboard-response","147","265018","0.0-147.0","edepucu8","","","null","","Agent A","veridical","FOR_REV_BLOBBY_STIM/1160127.bmp_pp90_L2_V1.0_veridical_freeview_isoFalse_fps144.mp4",""
"null","","","html-keyboard-response","148","266521","0.0-148.0","edepucu8","","<span style=""color:Black; font-size:50px;"">Agent B","null","","","","",""
"null","","","video-keyboard-response","149","269387","0.0-149.0","edepucu8","","","null","","Agent B","scrambled","FOR_REV_BLOBBY_STIM/1160127.bmp_pp90_L2_V1.0_veridical_freeview_isoFalse_fps144_reversed_REAL.mp4",""
"","","","call-function","150","269387","0.0-150.0","edepucu8","","","","","","","",""
"1729.320000000007","{""judgement"":1}","[0]","survey-likert","151","271118","0.0-151.0","edepucu8","","","","","","","","0"
"1362.234999999986","{""confidence"":1}","[0]","survey-likert","152","272481","0.0-152.0","edepucu8","","","","","","","",""
"","","","call-function","153","272481","0.0-153.0","edepucu8","","","","","","","",""
"null","","","html-keyboard-response","154","273983","0.0-154.0","edepucu8","","<span style=""color:Black; font-size:50px;"">Agent A","null","","","","",""
"null","","","video-keyboard-response","155","276863","0.0-155.0","edepucu8","","","null","","Agent A","veridical","FOR_REV_BLOBBY_STIM/713017.bmp_pp152_L2_V1.0_veridical_freeview_isoFalse_fps144.mp4",""
"null","","","html-keyboard-response","156","278364","0.0-156.0","edepucu8","","<span style=""color:Black; font-size:50px;"">Agent B","null","","","","",""
"null","","","video-keyboard-response","157","281207","0.0-157.0","edepucu8","","","null","","Agent B","scrambled","FOR_REV_BLOBBY_STIM/713017.bmp_pp152_L2_V1.0_veridical_freeview_isoFalse_fps144_reversed_REAL.mp4",""
"","","","call-function","158","281207","0.0-158.0","edepucu8","","","","","","","",""
"1857.9650000000256","{""judgement"":1}","[0]","survey-likert","159","283066","0.0-159.0","edepucu8","","","","","","","","0"
"1905.625","{""confidence"":2}","[0]","survey-likert","160","284973","0.0-160.0","edepucu8","","","","","","","",""
"","","","call-function","161","284973","0.0-161.0","edepucu8","","","","","","","",""
"null","","","html-keyboard-response","162","286477","0.0-162.0","edepucu8","","<span style=""color:Black; font-size:50px;"">Agent A","null","","","","",""
"null","","","video-keyboard-response","163","289252","0.0-163.0","edepucu8","","","null","","Agent A","veridical","FOR_REV_BLOBBY_STIM/1593041.bmp_pp58_L1_V1.0_veridical_freeview_isoFalse_fps144.mp4",""
"null","","","html-keyboard-response","164","290756","0.0-164.0","edepucu8","","<span style=""color:Black; font-size:50px;"">Agent B","null","","","","",""
"null","","","video-keyboard-response","165","293515","0.0-165.0","edepucu8","","","null","","Agent B","scrambled","FOR_REV_BLOBBY_STIM/1593041.bmp_pp58_L1_V1.0_veridical_freeview_isoFalse_fps144_reversed_REAL.mp4",""
"","","","call-function","166","293516","0.0-166.0","edepucu8","","","","","","","",""
"2543.929999999993","{""judgement"":0}","[0]","survey-likert","167","296061","0.0-167.0","edepucu8","","","","","","","","0"
"2088.8700000000536","{""confidence"":2}","[0]","survey-likert","168","298151","0.0-168.0","edepucu8","","","","","","","",""
"2593.390000000014","","","instructions","169","300745","0.0-169.0","edepucu8","[{""page_index"":0,""viewing_time"":1600.359999999986},{""page_index"":1,""viewing_time"":520.3549999999814},{""page_index"":2,""viewing_time"":472.53000000002794}]","","","","","","",""
"1374.5400000000373","","","instructions","170","302120","0.0-170.0","edepucu8","[{""page_index"":0,""viewing_time"":409.58500000002095},{""page_index"":1,""viewing_time"":467.91499999997905},{""page_index"":2,""viewing_time"":496.9349999999977}]","","","","","","",""
"","","","call-function","171","302120","0.0-171.0","edepucu8","","","","","","","",""
"null","","","html-keyboard-response","172","303623","0.0-172.0","edepucu8","","<span style=""color:Black; font-size:50px;"">Agent A","null","","","","",""
"null","","","video-keyboard-response","173","306445","0.0-173.0","edepucu8","","","null","","Agent A","veridical","FOR_REV_BLOBBY_STIM/713593.bmp_pp64_L1_V1.0_veridical_freeview_isoFalse_fps144.mp4",""
"null","","","html-keyboard-response","174","307949","0.0-174.0","edepucu8","","<span style=""color:Black; font-size:50px;"">Agent B","null","","","","",""
"null","","","video-keyboard-response","175","310805","0.0-175.0","edepucu8","","","null","","Agent B","scrambled","FOR_REV_BLOBBY_STIM/713593.bmp_pp64_L1_V1.0_veridical_freeview_isoFalse_fps144_reversed_REAL.mp4",""
"","","","call-function","176","310806","0.0-176.0","edepucu8","","","","","","","",""
"3026.0650000000023","{""judgement"":0}","[0]","survey-likert","177","313833","0.0-177.0","edepucu8","","","","","","","","0"
"2318.0499999999884","{""confidence"":2}","[0]","survey-likert","178","316152","0.0-178.0","edepucu8","","","","","","","",""
"","","","call-function","179","316152","0.0-179.0","edepucu8","","","","","","","",""
"null","","","html-keyboard-response","180","317657","0.0-180.0","edepucu8","","<span style=""color:Black; font-size:50px;"">Agent A","null","","","","",""
"null","","","video-keyboard-response","181","320476","0.0-181.0","edepucu8","","","null","","Agent A","scrambled","FOR_REV_BLOBBY_STIM/1592499.bmp_pp96_L2_V1.0_veridical_freeview_isoFalse_fps144_reversed_REAL.mp4",""
"null","","","html-keyboard-response","182","321980","0.0-182.0","edepucu8","","<span style=""color:Black; font-size:50px;"">Agent B","null","","","","",""
"null","","","video-keyboard-response","183","324788","0.0-183.0","edepucu8","","","null","","Agent B","veridical","FOR_REV_BLOBBY_STIM/1592499.bmp_pp96_L2_V1.0_veridical_freeview_isoFalse_fps144.mp4",""
"","","","call-function","184","324789","0.0-184.0","edepucu8","","","","","","","",""
"1703.210000000021","{""judgement"":1}","[0]","survey-likert","185","326494","0.0-185.0","edepucu8","","","","","","","","1"
"1509.7299999999814","{""confidence"":2}","[0]","survey-likert","186","328005","0.0-186.0","edepucu8","","","","","","","",""
"","","","call-function","187","328006","0.0-187.0","edepucu8","","","","","","","",""
"null","","","html-keyboard-response","188","329511","0.0-188.0","edepucu8","","<span style=""color:Black; font-size:50px;"">Agent A","null","","","","",""
"null","","","video-keyboard-response","189","332253","0.0-189.0","edepucu8","","","null","","Agent A","scrambled","FOR_REV_BLOBBY_STIM/1591954.bmp_pp62_L2_V1.0_veridical_freeview_isoFalse_fps144_reversed_REAL.mp4",""
"null","","","html-keyboard-response","190","333757","0.0-190.0","edepucu8","","<span style=""color:Black; font-size:50px;"">Agent B","null","","","","",""
"null","","","video-keyboard-response","191","336501","0.0-191.0","edepucu8","","","null","","Agent B","veridical","FOR_REV_BLOBBY_STIM/1591954.bmp_pp62_L2_V1.0_veridical_freeview_isoFalse_fps144.mp4",""
"","","","call-function","192","336501","0.0-192.0","edepucu8","","","","","","","",""
"1611.4399999999441","{""judgement"":1}","[0]","survey-likert","193","338114","0.0-193.0","edepucu8","","","","","","","","1"
"1895.2249999999767","{""confidence"":2}","[0]","survey-likert","194","340010","0.0-194.0","edepucu8","","","","","","","",""
"","","","call-function","195","340011","0.0-195.0","edepucu8","","","","","","","",""
"null","","","html-keyboard-response","196","341517","0.0-196.0","edepucu8","","<span style=""color:Black; font-size:50px;"">Agent A","null","","","","",""
"null","","","video-keyboard-response","197","344273","0.0-197.0","edepucu8","","","null","","Agent A","scrambled","FOR_REV_BLOBBY_STIM/1592581.bmp_pp100_L3_V1.0_veridical_freeview_isoFalse_fps144_reversed_REAL.mp4",""
"null","","","html-keyboard-response","198","345779","0.0-198.0","edepucu8","","<span style=""color:Black; font-size:50px;"">Agent B","null","","","","",""
"null","","","video-keyboard-response","199","348536","0.0-199.0","edepucu8","","","null","","Agent B","veridical","FOR_REV_BLOBBY_STIM/1592581.bmp_pp100_L3_V1.0_veridical_freeview_isoFalse_fps144.mp4",""
"","","","call-function","200","348536","0.0-200.0","edepucu8","","","","","","","",""
"1826.335000000021","{""judgement"":1}","[0]","survey-likert","201","350364","0.0-201.0","edepucu8","","","","","","","","1"
"2660.1300000000047","{""confidence"":1}","[0]","survey-likert","202","353025","0.0-202.0","edepucu8","","","","","","","",""
"","","","call-function","203","353025","0.0-203.0","edepucu8","","","","","","","",""
"null","","","html-keyboard-response","204","354530","0.0-204.0","edepucu8","","<span style=""color:Black; font-size:50px;"">Agent A","null","","","","",""
"null","","","video-keyboard-response","205","357388","0.0-205.0","edepucu8","","","null","","Agent A","scrambled","FOR_REV_BLOBBY_STIM/1159675.bmp_pp77_L3_V1.0_veridical_freeview_isoFalse_fps144_reversed_REAL.mp4",""
"null","","","html-keyboard-response","206","358891","0.0-206.0","edepucu8","","<span style=""color:Black; font-size:50px;"">Agent B","null","","","","",""
"null","","","video-keyboard-response","207","361734","0.0-207.0","edepucu8","","","null","","Agent B","veridical","FOR_REV_BLOBBY_STIM/1159675.bmp_pp77_L3_V1.0_veridical_freeview_isoFalse_fps144.mp4",""
"","","","call-function","208","361734","0.0-208.0","edepucu8","","","","","","","",""
"1743.8099999999977","{""judgement"":1}","[0]","survey-likert","209","363479","0.0-209.0","edepucu8","","","","","","","","1"
"1401.1749999999884","{""confidence"":2}","[0]","survey-likert","210","364881","0.0-210.0","edepucu8","","","","","","","",""
"","","","call-function","211","364882","0.0-211.0","edepucu8","","","","","","","",""
"null","","","html-keyboard-response","212","366384","0.0-212.0","edepucu8","","<span style=""color:Black; font-size:50px;"">Agent A","null","","","","",""
"null","","","video-keyboard-response","213","369105","0.0-213.0","edepucu8","","","null","","Agent A","veridical","FOR_REV_BLOBBY_STIM/285994.bmp_pp92_L3_V1.0_veridical_freeview_isoFalse_fps144.mp4",""
"null","","","html-keyboard-response","214","370612","0.0-214.0","edepucu8","","<span style=""color:Black; font-size:50px;"">Agent B","null","","","","",""
"null","","","video-keyboard-response","215","373323","0.0-215.0","edepucu8","","","null","","Agent B","scrambled","FOR_REV_BLOBBY_STIM/285994.bmp_pp92_L3_V1.0_veridical_freeview_isoFalse_fps144_reversed_REAL.mp4",""
"","","","call-function","216","373323","0.0-216.0","edepucu8","","","","","","","",""
"1940.125","{""judgement"":0}","[0]","survey-likert","217","375264","0.0-217.0","edepucu8","","","","","","","","0"
"1725.2600000000093","{""confidence"":2}","[0]","survey-likert","218","376990","0.0-218.0","edepucu8","","","","","","","",""
"","","","call-function","219","376991","0.0-219.0","edepucu8","","","","","","","",""
"null","","","html-keyboard-response","220","378494","0.0-220.0","edepucu8","","<span style=""color:Black; font-size:50px;"">Agent A","null","","","","",""
"null","","","video-keyboard-response","221","381354","0.0-221.0","edepucu8","","","null","","Agent A","scrambled","FOR_REV_BLOBBY_STIM/1592286.bmp_pp52_L1_V1.0_veridical_freeview_isoFalse_fps144_reversed_REAL.mp4",""
"null","","","html-keyboard-response","222","382854","0.0-222.0","edepucu8","","<span style=""color:Black; font-size:50px;"">Agent B","null","","","","",""
"null","","","video-keyboard-response","223","385721","0.0-223.0","edepucu8","","","null","","Agent B","veridical","FOR_REV_BLOBBY_STIM/1592286.bmp_pp52_L1_V1.0_veridical_freeview_isoFalse_fps144.mp4",""
"","","","call-function","224","385721","0.0-224.0","edepucu8","","","","","","","",""
"2352.1149999999907","{""judgement"":1}","[0]","survey-likert","225","388074","0.0-225.0","edepucu8","","","","","","","","1"
"1224.804999999993","{""confidence"":2}","[0]","survey-likert","226","389300","0.0-226.0","edepucu8","","","","","","","",""
"","","","call-function","227","389301","0.0-227.0","edepucu8","","","","","","","",""
"null","","","html-keyboard-response","228","390804","0.0-228.0","edepucu8","","<span style=""color:Black; font-size:50px;"">Agent A","null","","","","",""
"null","","","video-keyboard-response","229","393384","0.0-229.0","edepucu8","","","null","","Agent A","scrambled","FOR_REV_BLOBBY_STIM/1159515.bmp_pp84_L3_V1.0_veridical_freeview_isoFalse_fps144_reversed_REAL.mp4",""
"null","","","html-keyboard-response","230","394886","0.0-230.0","edepucu8","","<span style=""color:Black; font-size:50px;"">Agent B","null","","","","",""
"null","","","video-keyboard-response","231","397437","0.0-231.0","edepucu8","","","null","","Agent B","veridical","FOR_REV_BLOBBY_STIM/1159515.bmp_pp84_L3_V1.0_veridical_freeview_isoFalse_fps144.mp4",""
"","","","call-function","232","397438","0.0-232.0","edepucu8","","","","","","","",""
"3705.015000000014","{""judgement"":0}","[0]","survey-likert","233","401143","0.0-233.0","edepucu8","","","","","","","","1"
"1746.024999999965","{""confidence"":1}","[0]","survey-likert","234","402890","0.0-234.0","edepucu8","","","","","","","",""
"","","","call-function","235","402891","0.0-235.0","edepucu8","","","","","","","",""
"null","","","html-keyboard-response","236","404395","0.0-236.0","edepucu8","","<span style=""color:Black; font-size:50px;"">Agent A","null","","","","",""
"null","","","video-keyboard-response","237","407002","0.0-237.0","edepucu8","","","null","","Agent A","veridical","FOR_REV_BLOBBY_STIM/1593146.bmp_pp93_L1_V1.0_veridical_freeview_isoFalse_fps144.mp4",""
"null","","","html-keyboard-response","238","408504","0.0-238.0","edepucu8","","<span style=""color:Black; font-size:50px;"">Agent B","null","","","","",""
"null","","","video-keyboard-response","239","411108","0.0-239.0","edepucu8","","","null","","Agent B","scrambled","FOR_REV_BLOBBY_STIM/1593146.bmp_pp93_L1_V1.0_veridical_freeview_isoFalse_fps144_reversed_REAL.mp4",""
"","","","call-function","240","411108","0.0-240.0","edepucu8","","","","","","","",""
"1326.4700000000303","{""judgement"":1}","[0]","survey-likert","241","412435","0.0-241.0","edepucu8","","","","","","","","0"
"1260.6849999999977","{""confidence"":2}","[0]","survey-likert","242","413697","0.0-242.0","edepucu8","","","","","","","",""
"","","","call-function","243","413698","0.0-243.0","edepucu8","","","","","","","",""
"null","","","html-keyboard-response","244","415200","0.0-244.0","edepucu8","","<span style=""color:Black; font-size:50px;"">Agent A","null","","","","",""
"null","","","video-keyboard-response","245","418091","0.0-245.0","edepucu8","","","null","","Agent A","veridical","FOR_REV_BLOBBY_STIM/285905.bmp_pp57_L1_V1.0_veridical_freeview_isoFalse_fps144.mp4",""
"null","","","html-keyboard-response","246","419596","0.0-246.0","edepucu8","","<span style=""color:Black; font-size:50px;"">Agent B","null","","","","",""
"null","","","video-keyboard-response","247","422525","0.0-247.0","edepucu8","","","null","","Agent B","scrambled","FOR_REV_BLOBBY_STIM/285905.bmp_pp57_L1_V1.0_veridical_freeview_isoFalse_fps144_reversed_REAL.mp4",""
"","","","call-function","248","422526","0.0-248.0","edepucu8","","","","","","","",""
"1543.8150000000023","{""judgement"":0}","[0]","survey-likert","249","424072","0.0-249.0","edepucu8","","","","","","","","0"
"1343.6100000000442","{""confidence"":1}","[0]","survey-likert","250","425417","0.0-250.0","edepucu8","","","","","","","",""
"1688.2000000000116","","","instructions","251","427105","0.0-251.0","edepucu8","[{""page_index"":0,""viewing_time"":746.2300000000396},{""page_index"":1,""viewing_time"":539.4649999999674},{""page_index"":2,""viewing_time"":402.2950000000419}]","","","","","","",""
"1384.2550000000047","","","instructions","252","428490","0.0-252.0","edepucu8","[{""page_index"":0,""viewing_time"":372.14000000001397},{""page_index"":1,""viewing_time"":396.9449999999488},{""page_index"":2,""viewing_time"":615.070000000007}]","","","","","","",""
"","","","call-function","253","428491","0.0-253.0","edepucu8","","","","","","","",""
"null","","","html-keyboard-response","254","429997","0.0-254.0","edepucu8","","<span style=""color:Black; font-size:50px;"">Agent A","null","","","","",""
"null","","","video-keyboard-response","255","432812","0.0-255.0","edepucu8","","","null","","Agent A","veridical","FOR_REV_BLOBBY_STIM/285751.bmp_pp55_L3_V1.0_veridical_freeview_isoFalse_fps144.mp4",""
"null","","","html-keyboard-response","256","434317","0.0-256.0","edepucu8","","<span style=""color:Black; font-size:50px;"">Agent B","null","","","","",""
"null","","","video-keyboard-response","257","437118","0.0-257.0","edepucu8","","","null","","Agent B","scrambled","FOR_REV_BLOBBY_STIM/285751.bmp_pp55_L3_V1.0_veridical_freeview_isoFalse_fps144_reversed_REAL.mp4",""
"","","","call-function","258","437118","0.0-258.0","edepucu8","","","","","","","",""
"2158.6599999999744","{""judgement"":0}","[0]","survey-likert","259","439278","0.0-259.0","edepucu8","","","","","","","","0"
"1503.359999999986","{""confidence"":1}","[0]","survey-likert","260","440782","0.0-260.0","edepucu8","","","","","","","",""
"","","","call-function","261","440783","0.0-261.0","edepucu8","","","","","","","",""
"null","","","html-keyboard-response","262","442288","0.0-262.0","edepucu8","","<span style=""color:Black; font-size:50px;"">Agent A","null","","","","",""
"null","","","video-keyboard-response","263","445104","0.0-263.0","edepucu8","","","null","","Agent A","veridical","FOR_REV_BLOBBY_STIM/1592362.bmp_pp95_L2_V1.0_veridical_freeview_isoFalse_fps144.mp4",""
"null","","","html-keyboard-response","264","446606","0.0-264.0","edepucu8","","<span style=""color:Black; font-size:50px;"">Agent B","null","","","","",""
"null","","","video-keyboard-response","265","449407","0.0-265.0","edepucu8","","","null","","Agent B","scrambled","FOR_REV_BLOBBY_STIM/1592362.bmp_pp95_L2_V1.0_veridical_freeview_isoFalse_fps144_reversed_REAL.mp4",""
"","","","call-function","266","449407","0.0-266.0","edepucu8","","","","","","","",""
"1471.4150000000373","{""judgement"":0}","[0]","survey-likert","267","450880","0.0-267.0","edepucu8","","","","","","","","0"
"2044.0899999999674","{""confidence"":2}","[0]","survey-likert","268","452925","0.0-268.0","edepucu8","","","","","","","",""
"","","","call-function","269","452926","0.0-269.0","edepucu8","","","","","","","",""
"null","","","html-keyboard-response","270","454428","0.0-270.0","edepucu8","","<span style=""color:Black; font-size:50px;"">Agent A","null","","","","",""
"null","","","video-keyboard-response","271","457135","0.0-271.0","edepucu8","","","null","","Agent A","scrambled","FOR_REV_BLOBBY_STIM/713211.bmp_pp100_L3_V1.0_veridical_freeview_isoFalse_fps144_reversed_REAL.mp4",""
"null","","","html-keyboard-response","272","458640","0.0-272.0","edepucu8","","<span style=""color:Black; font-size:50px;"">Agent B","null","","","","",""
"null","","","video-keyboard-response","273","461347","0.0-273.0","edepucu8","","","null","","Agent B","veridical","FOR_REV_BLOBBY_STIM/713211.bmp_pp100_L3_V1.0_veridical_freeview_isoFalse_fps144.mp4",""
"","","","call-function","274","461348","0.0-274.0","edepucu8","","","","","","","",""
"1841.5200000000186","{""judgement"":1}","[0]","survey-likert","275","463190","0.0-275.0","edepucu8","","","","","","","","1"
"2089.359999999986","{""confidence"":2}","[0]","survey-likert","276","465280","0.0-276.0","edepucu8","","","","","","","",""
"","","","call-function","277","465281","0.0-277.0","edepucu8","","","","","","","",""
"null","","","html-keyboard-response","278","466782","0.0-278.0","edepucu8","","<span style=""color:Black; font-size:50px;"">Agent A","null","","","","",""
"null","","","video-keyboard-response","279","469608","0.0-279.0","edepucu8","","","null","","Agent A","veridical","FOR_REV_BLOBBY_STIM/1592890.bmp_pp82_L2_V1.0_veridical_freeview_isoFalse_fps144.mp4",""
"null","","","html-keyboard-response","280","471110","0.0-280.0","edepucu8","","<span style=""color:Black; font-size:50px;"">Agent B","null","","","","",""
"null","","","video-keyboard-response","281","473931","0.0-281.0","edepucu8","","","null","","Agent B","scrambled","FOR_REV_BLOBBY_STIM/1592890.bmp_pp82_L2_V1.0_veridical_freeview_isoFalse_fps144_reversed_REAL.mp4",""
"","","","call-function","282","473932","0.0-282.0","edepucu8","","","","","","","",""
"2031.6749999999884","{""judgement"":1}","[0]","survey-likert","283","475964","0.0-283.0","edepucu8","","","","","","","","0"
"1778.6199999999953","{""confidence"":2}","[0]","survey-likert","284","477744","0.0-284.0","edepucu8","","","","","","","",""
"","","","call-function","285","477744","0.0-285.0","edepucu8","","","","","","","",""
"null","","","html-keyboard-response","286","479246","0.0-286.0","edepucu8","","<span style=""color:Black; font-size:50px;"">Agent A","null","","","","",""
"null","","","video-keyboard-response","287","482084","0.0-287.0","edepucu8","","","null","","Agent A","veridical","FOR_REV_BLOBBY_STIM/498175.bmp_pp154_L1_V1.0_veridical_freeview_isoFalse_fps144.mp4",""
"null","","","html-keyboard-response","288","483586","0.0-288.0","edepucu8","","<span style=""color:Black; font-size:50px;"">Agent B","null","","","","",""
"null","","","video-keyboard-response","289","486406","0.0-289.0","edepucu8","","","null","","Agent B","scrambled","FOR_REV_BLOBBY_STIM/498175.bmp_pp154_L1_V1.0_veridical_freeview_isoFalse_fps144_reversed_REAL.mp4",""
"","","","call-function","290","486406","0.0-290.0","edepucu8","","","","","","","",""
"1866.5999999999767","{""judgement"":0}","[0]","survey-likert","291","488274","0.0-291.0","edepucu8","","","","","","","","0"
"2745.7550000000047","{""confidence"":2}","[0]","survey-likert","292","491021","0.0-292.0","edepucu8","","","","","","","",""
"","","","call-function","293","491021","0.0-293.0","edepucu8","","","","","","","",""
"null","","","html-keyboard-response","294","492523","0.0-294.0","edepucu8","","<span style=""color:Black; font-size:50px;"">Agent A","null","","","","",""
"null","","","video-keyboard-response","295","495348","0.0-295.0","edepucu8","","","null","","Agent A","scrambled","FOR_REV_BLOBBY_STIM/1159777.bmp_pp77_L3_V1.0_veridical_freeview_isoFalse_fps144_reversed_REAL.mp4",""
"null","","","html-keyboard-response","296","496855","0.0-296.0","edepucu8","","<span style=""color:Black; font-size:50px;"">Agent B","null","","","","",""
"null","","","video-keyboard-response","297","499651","0.0-297.0","edepucu8","","","null","","Agent B","veridical","FOR_REV_BLOBBY_STIM/1159777.bmp_pp77_L3_V1.0_veridical_freeview_isoFalse_fps144.mp4",""
"","","","call-function","298","499651","0.0-298.0","edepucu8","","","","","","","",""
"1760.204999999958","{""judgement"":1}","[0]","survey-likert","299","501413","0.0-299.0","edepucu8","","","","","","","","1"
"2022.5050000000047","{""confidence"":3}","[0]","survey-likert","300","503437","0.0-300.0","edepucu8","","","","","","","",""
"","","","call-function","301","503438","0.0-301.0","edepucu8","","","","","","","",""
"null","","","html-keyboard-response","302","504941","0.0-302.0","edepucu8","","<span style=""color:Black; font-size:50px;"">Agent A","null","","","","",""
"null","","","video-keyboard-response","303","507681","0.0-303.0","edepucu8","","","null","","Agent A","veridical","FOR_REV_BLOBBY_STIM/285933.bmp_pp81_L1_V1.0_veridical_freeview_isoFalse_fps144.mp4",""
"null","","","html-keyboard-response","304","509187","0.0-304.0","edepucu8","","<span style=""color:Black; font-size:50px;"">Agent B","null","","","","",""
"null","","","video-keyboard-response","305","511919","0.0-305.0","edepucu8","","","null","","Agent B","scrambled","FOR_REV_BLOBBY_STIM/285933.bmp_pp81_L1_V1.0_veridical_freeview_isoFalse_fps144_reversed_REAL.mp4",""
"","","","call-function","306","511919","0.0-306.0","edepucu8","","","","","","","",""
"4532.189999999944","{""judgement"":1}","[0]","survey-likert","307","516453","0.0-307.0","edepucu8","","","","","","","","0"
"3290.265000000014","{""confidence"":2}","[0]","survey-likert","308","519744","0.0-308.0","edepucu8","","","","","","","",""
"","","","call-function","309","519745","0.0-309.0","edepucu8","","","","","","","",""
"null","","","html-keyboard-response","310","521251","0.0-310.0","edepucu8","","<span style=""color:Black; font-size:50px;"">Agent A","null","","","","",""
"null","","","video-keyboard-response","311","524032","0.0-311.0","edepucu8","","","null","","Agent A","veridical","FOR_REV_BLOBBY_STIM/1592804.bmp_pp91_L3_V1.0_veridical_freeview_isoFalse_fps144.mp4",""
"null","","","html-keyboard-response","312","525533","0.0-312.0","edepucu8","","<span style=""color:Black; font-size:50px;"">Agent B","null","","","","",""
"null","","","video-keyboard-response","313","528294","0.0-313.0","edepucu8","","","null","","Agent B","scrambled","FOR_REV_BLOBBY_STIM/1592804.bmp_pp91_L3_V1.0_veridical_freeview_isoFalse_fps144_reversed_REAL.mp4",""
"","","","call-function","314","528294","0.0-314.0","edepucu8","","","","","","","",""
"1704.7550000000047","{""judgement"":1}","[0]","survey-likert","315","530000","0.0-315.0","edepucu8","","","","","","","","0"
"1357.7749999999069","{""confidence"":2}","[0]","survey-likert","316","531359","0.0-316.0","edepucu8","","","","","","","",""
"","","","call-function","317","531359","0.0-317.0","edepucu8","","","","","","","",""
"null","","","html-keyboard-response","318","532860","0.0-318.0","edepucu8","","<span style=""color:Black; font-size:50px;"">Agent A","null","","","","",""
"null","","","video-keyboard-response","319","535699","0.0-319.0","edepucu8","","","null","","Agent A","veridical","FOR_REV_BLOBBY_STIM/1592351.bmp_pp51_L1_V1.0_veridical_freeview_isoFalse_fps144.mp4",""
"null","","","html-keyboard-response","320","537201","0.0-320.0","edepucu8","","<span style=""color:Black; font-size:50px;"">Agent B","null","","","","",""
"null","","","video-keyboard-response","321","540041","0.0-321.0","edepucu8","","","null","","Agent B","scrambled","FOR_REV_BLOBBY_STIM/1592351.bmp_pp51_L1_V1.0_veridical_freeview_isoFalse_fps144_reversed_REAL.mp4",""
"","","","call-function","322","540041","0.0-322.0","edepucu8","","","","","","","",""
"2709.384999999893","{""judgement"":0}","[0]","survey-likert","323","542751","0.0-323.0","edepucu8","","","","","","","","0"
"1972.7699999999022","{""confidence"":1}","[0]","survey-likert","324","544725","0.0-324.0","edepucu8","","","","","","","",""
"","","","call-function","325","544726","0.0-325.0","edepucu8","","","","","","","",""
"null","","","html-keyboard-response","326","546227","0.0-326.0","edepucu8","","<span style=""color:Black; font-size:50px;"">Agent A","null","","","","",""
"null","","","video-keyboard-response","327","548867","0.0-327.0","edepucu8","","","null","","Agent A","scrambled","FOR_REV_BLOBBY_STIM/61537.bmp_pp73_L3_V1.0_veridical_freeview_isoFalse_fps144_reversed_REAL.mp4",""
"null","","","html-keyboard-response","328","550369","0.0-328.0","edepucu8","","<span style=""color:Black; font-size:50px;"">Agent B","null","","","","",""
"null","","","video-keyboard-response","329","553001","0.0-329.0","edepucu8","","","null","","Agent B","veridical","FOR_REV_BLOBBY_STIM/61537.bmp_pp73_L3_V1.0_veridical_freeview_isoFalse_fps144.mp4",""
"","","","call-function","330","553002","0.0-330.0","edepucu8","","","","","","","",""
"3072.420000000042","{""judgement"":1}","[0]","survey-likert","331","556075","0.0-331.0","edepucu8","","","","","","","","1"
"2069.689999999944","{""confidence"":2}","[0]","survey-likert","332","558145","0.0-332.0","edepucu8","","","","","","","",""
"2380.1900000000605","","","instructions","333","560526","0.0-333.0","edepucu8","[{""page_index"":0,""viewing_time"":812.0100000000093},{""page_index"":1,""viewing_time"":699.0650000000605},{""page_index"":2,""viewing_time"":868.9599999999627}]","","","","","","",""
"1492.6100000001024","","","instructions","334","562019","0.0-334.0","edepucu8","[{""page_index"":0,""viewing_time"":786.515000000014},{""page_index"":1,""viewing_time"":426.98499999998603},{""page_index"":2,""viewing_time"":279.00500000000466}]","","","","","","",""
"","","","call-function","335","562019","0.0-335.0","edepucu8","","","","","","","",""
"null","","","html-keyboard-response","336","563520","0.0-336.0","edepucu8","","<span style=""color:Black; font-size:50px;"">Agent A","null","","","","",""
"null","","","video-keyboard-response","337","566421","0.0-337.0","edepucu8","","","null","","Agent A","scrambled","FOR_REV_BLOBBY_STIM/1159447.bmp_pp70_L2_V1.0_veridical_freeview_isoFalse_fps144_reversed_REAL.mp4",""
"null","","","html-keyboard-response","338","567923","0.0-338.0","edepucu8","","<span style=""color:Black; font-size:50px;"">Agent B","null","","","","",""
"null","","","video-keyboard-response","339","570793","0.0-339.0","edepucu8","","","null","","Agent B","veridical","FOR_REV_BLOBBY_STIM/1159447.bmp_pp70_L2_V1.0_veridical_freeview_isoFalse_fps144.mp4",""
"","","","call-function","340","570793","0.0-340.0","edepucu8","","","","","","","",""
"2139.6350000000093","{""judgement"":1}","[0]","survey-likert","341","572934","0.0-341.0","edepucu8","","","","","","","","1"
"1104.984999999986","{""confidence"":2}","[0]","survey-likert","342","574040","0.0-342.0","edepucu8","","","","","","","",""
"","","","call-function","343","574040","0.0-343.0","edepucu8","","","","","","","",""
"null","","","html-keyboard-response","344","575542","0.0-344.0","edepucu8","","<span style=""color:Black; font-size:50px;"">Agent A","null","","","","",""
"null","","","video-keyboard-response","345","578342","0.0-345.0","edepucu8","","","null","","Agent A","scrambled","FOR_REV_BLOBBY_STIM/1159440.bmp_pp98_L1_V1.0_veridical_freeview_isoFalse_fps144_reversed_REAL.mp4",""
"null","","","html-keyboard-response","346","579848","0.0-346.0","edepucu8","","<span style=""color:Black; font-size:50px;"">Agent B","null","","","","",""
"null","","","video-keyboard-response","347","582686","0.0-347.0","edepucu8","","","null","","Agent B","veridical","FOR_REV_BLOBBY_STIM/1159440.bmp_pp98_L1_V1.0_veridical_freeview_isoFalse_fps144.mp4",""
"","","","call-function","348","582686","0.0-348.0","edepucu8","","","","","","","",""
"1551.390000000014","{""judgement"":0}","[0]","survey-likert","349","584239","0.0-349.0","edepucu8","","","","","","","","1"
"2057.015000000014","{""confidence"":3}","[0]","survey-likert","350","586297","0.0-350.0","edepucu8","","","","","","","",""
"","","","call-function","351","586297","0.0-351.0","edepucu8","","","","","","","",""
"null","","","html-keyboard-response","352","587799","0.0-352.0","edepucu8","","<span style=""color:Black; font-size:50px;"">Agent A","null","","","","",""
"null","","","video-keyboard-response","353","590675","0.0-353.0","edepucu8","","","null","","Agent A","veridical","FOR_REV_BLOBBY_STIM/713089.bmp_pp60_L3_V1.0_veridical_freeview_isoFalse_fps144.mp4",""
"null","","","html-keyboard-response","354","592178","0.0-354.0","edepucu8","","<span style=""color:Black; font-size:50px;"">Agent B","null","","","","",""
"null","","","video-keyboard-response","355","595042","0.0-355.0","edepucu8","","","null","","Agent B","scrambled","FOR_REV_BLOBBY_STIM/713089.bmp_pp60_L3_V1.0_veridical_freeview_isoFalse_fps144_reversed_REAL.mp4",""
"","","","call-function","356","595042","0.0-356.0","edepucu8","","","","","","","",""
"2880.3549999999814","{""judgement"":0}","[0]","survey-likert","357","597924","0.0-357.0","edepucu8","","","","","","","","0"
"1545.670000000042","{""confidence"":2}","[0]","survey-likert","358","599472","0.0-358.0","edepucu8","","","","","","","",""
"","","","call-function","359","599473","0.0-359.0","edepucu8","","","","","","","",""
"null","","","html-keyboard-response","360","600976","0.0-360.0","edepucu8","","<span style=""color:Black; font-size:50px;"">Agent A","null","","","","",""
"null","","","video-keyboard-response","361","603515","0.0-361.0","edepucu8","","","null","","Agent A","veridical","FOR_REV_BLOBBY_STIM/1159813.bmp_pp79_L2_V1.0_veridical_freeview_isoFalse_fps144.mp4",""
"null","","","html-keyboard-response","362","605017","0.0-362.0","edepucu8","","<span style=""color:Black; font-size:50px;"">Agent B","null","","","","",""
"null","","","video-keyboard-response","363","607550","0.0-363.0","edepucu8","","","null","","Agent B","scrambled","FOR_REV_BLOBBY_STIM/1159813.bmp_pp79_L2_V1.0_veridical_freeview_isoFalse_fps144_reversed_REAL.mp4",""
"","","","call-function","364","607550","0.0-364.0","edepucu8","","","","","","","",""
"1998.6450000000186","{""judgement"":1}","[0]","survey-likert","365","609550","0.0-365.0","edepucu8","","","","","","","","0"
"2180.034999999916","{""confidence"":1}","[0]","survey-likert","366","611731","0.0-366.0","edepucu8","","","","","","","",""
"","","","call-function","367","611732","0.0-367.0","edepucu8","","","","","","","",""
"null","","","html-keyboard-response","368","613235","0.0-368.0","edepucu8","","<span style=""color:Black; font-size:50px;"">Agent A","null","","","","",""
"null","","","video-keyboard-response","369","615952","0.0-369.0","edepucu8","","","null","","Agent A","veridical","FOR_REV_BLOBBY_STIM/1592934.bmp_pp63_L1_V1.0_veridical_freeview_isoFalse_fps144.mp4",""
"null","","","html-keyboard-response","370","617454","0.0-370.0","edepucu8","","<span style=""color:Black; font-size:50px;"">Agent B","null","","","","",""
"null","","","video-keyboard-response","371","620153","0.0-371.0","edepucu8","","","null","","Agent B","scrambled","FOR_REV_BLOBBY_STIM/1592934.bmp_pp63_L1_V1.0_veridical_freeview_isoFalse_fps144_reversed_REAL.mp4",""
"","","","call-function","372","620153","0.0-372.0","edepucu8","","","","","","","",""
"3847.765000000014","{""judgement"":1}","[0]","survey-likert","373","624002","0.0-373.0","edepucu8","","","","","","","","0"
"2521.780000000028","{""confidence"":1}","[0]","survey-likert","374","626525","0.0-374.0","edepucu8","","","","","","","",""
"","","","call-function","375","626525","0.0-375.0","edepucu8","","","","","","","",""
"null","","","html-keyboard-response","376","628030","0.0-376.0","edepucu8","","<span style=""color:Black; font-size:50px;"">Agent A","null","","","","",""
"null","","","video-keyboard-response","377","630705","0.0-377.0","edepucu8","","","null","","Agent A","scrambled","FOR_REV_BLOBBY_STIM/713707.bmp_pp154_L1_V1.0_veridical_freeview_isoFalse_fps144_reversed_REAL.mp4",""
"null","","","html-keyboard-response","378","632209","0.0-378.0","edepucu8","","<span style=""color:Black; font-size:50px;"">Agent B","null","","","","",""
"null","","","video-keyboard-response","379","634876","0.0-379.0","edepucu8","","","null","","Agent B","veridical","FOR_REV_BLOBBY_STIM/713707.bmp_pp154_L1_V1.0_veridical_freeview_isoFalse_fps144.mp4",""
"","","","call-function","380","634877","0.0-380.0","edepucu8","","","","","","","",""
"2176.8950000000186","{""judgement"":1}","[0]","survey-likert","381","637055","0.0-381.0","edepucu8","","","","","","","","1"
"1984.7250000000931","{""confidence"":2}","[0]","survey-likert","382","639040","0.0-382.0","edepucu8","","","","","","","",""
"","","","call-function","383","639041","0.0-383.0","edepucu8","","","","","","","",""
"null","","","html-keyboard-response","384","640543","0.0-384.0","edepucu8","","<span style=""color:Black; font-size:50px;"">Agent A","null","","","","",""
"null","","","video-keyboard-response","385","643430","0.0-385.0","edepucu8","","","null","","Agent A","scrambled","FOR_REV_BLOBBY_STIM/497950.bmp_pp151_L1_V1.0_veridical_freeview_isoFalse_fps144_reversed_REAL.mp4",""
"null","","","html-keyboard-response","386","644932","0.0-386.0","edepucu8","","<span style=""color:Black; font-size:50px;"">Agent B","null","","","","",""
"null","","","video-keyboard-response","387","647823","0.0-387.0","edepucu8","","","null","","Agent B","veridical","FOR_REV_BLOBBY_STIM/497950.bmp_pp151_L1_V1.0_veridical_freeview_isoFalse_fps144.mp4",""
"","","","call-function","388","647823","0.0-388.0","edepucu8","","","","","","","",""
"3380.679999999935","{""judgement"":1}","[0]","survey-likert","389","651204","0.0-389.0","edepucu8","","","","","","","","1"
"1180.4450000000652","{""confidence"":2}","[0]","survey-likert","390","652386","0.0-390.0","edepucu8","","","","","","","",""
"","","","call-function","391","652387","0.0-391.0","edepucu8","","","","","","","",""
"null","","","html-keyboard-response","392","653891","0.0-392.0","edepucu8","","<span style=""color:Black; font-size:50px;"">Agent A","null","","","","",""
"null","","","video-keyboard-response","393","655514","0.0-393.0","edepucu8","","","null","","Agent A","scrambled","FOR_REV_BLOBBY_STIM/713684.bmp_pp85_L3_V1.0_veridical_freeview_isoFalse_fps144_reversed_REAL.mp4",""
"null","","","html-keyboard-response","394","657017","0.0-394.0","edepucu8","","<span style=""color:Black; font-size:50px;"">Agent B","null","","","","",""
"null","","","video-keyboard-response","395","658638","0.0-395.0","edepucu8","","","null","","Agent B","veridical","FOR_REV_BLOBBY_STIM/713684.bmp_pp85_L3_V1.0_veridical_freeview_isoFalse_fps144.mp4",""
"","","","call-function","396","658638","0.0-396.0","edepucu8","","","","","","","",""
"1708.5","{""judgement"":1}","[0]","survey-likert","397","660348","0.0-397.0","edepucu8","","","","","","","","1"
"2012.2700000000186","{""confidence"":1}","[0]","survey-likert","398","662361","0.0-398.0","edepucu8","","","","","","","",""
"","","","call-function","399","662361","0.0-399.0","edepucu8","","","","","","","",""
"null","","","html-keyboard-response","400","663863","0.0-400.0","edepucu8","","<span style=""color:Black; font-size:50px;"">Agent A","null","","","","",""
"null","","","video-keyboard-response","401","666706","0.0-401.0","edepucu8","","","null","","Agent A","veridical","FOR_REV_BLOBBY_STIM/713681.bmp_pp86_L2_V1.0_veridical_freeview_isoFalse_fps144.mp4",""
"null","","","html-keyboard-response","402","668207","0.0-402.0","edepucu8","","<span style=""color:Black; font-size:50px;"">Agent B","null","","","","",""
"null","","","video-keyboard-response","403","670996","0.0-403.0","edepucu8","","","null","","Agent B","scrambled","FOR_REV_BLOBBY_STIM/713681.bmp_pp86_L2_V1.0_veridical_freeview_isoFalse_fps144_reversed_REAL.mp4",""
"","","","call-function","404","670997","0.0-404.0","edepucu8","","","","","","","",""
"1556.0649999999441","{""judgement"":0}","[0]","survey-likert","405","672554","0.0-405.0","edepucu8","","","","","","","","0"
"1779.4949999999953","{""confidence"":2}","[0]","survey-likert","406","674334","0.0-406.0","edepucu8","","","","","","","",""
"","","","call-function","407","674335","0.0-407.0","edepucu8","","","","","","","",""
"null","","","html-keyboard-response","408","675840","0.0-408.0","edepucu8","","<span style=""color:Black; font-size:50px;"">Agent A","null","","","","",""
"null","","","video-keyboard-response","409","678658","0.0-409.0","edepucu8","","","null","","Agent A","scrambled","FOR_REV_BLOBBY_STIM/1159621.bmp_pp92_L3_V1.0_veridical_freeview_isoFalse_fps144_reversed_REAL.mp4",""
"null","","","html-keyboard-response","410","680159","0.0-410.0","edepucu8","","<span style=""color:Black; font-size:50px;"">Agent B","null","","","","",""
"null","","","video-keyboard-response","411","682943","0.0-411.0","edepucu8","","","null","","Agent B","veridical","FOR_REV_BLOBBY_STIM/1159621.bmp_pp92_L3_V1.0_veridical_freeview_isoFalse_fps144.mp4",""
"","","","call-function","412","682944","0.0-412.0","edepucu8","","","","","","","",""
"1998.0200000000186","{""judgement"":1}","[0]","survey-likert","413","684944","0.0-413.0","edepucu8","","","","","","","","1"
"1556.6350000000093","{""confidence"":1}","[0]","survey-likert","414","686501","0.0-414.0","edepucu8","","","","","","","",""
"1676.6800000000512","","","instructions","415","688179","0.0-415.0","edepucu8","[{""page_index"":0,""viewing_time"":810.1950000000652},{""page_index"":1,""viewing_time"":499.07499999995343},{""page_index"":2,""viewing_time"":367.2299999999814}]","","","","","","",""
"510.66500000003725","","","instructions","416","688690","0.0-416.0","edepucu8","[{""page_index"":0,""viewing_time"":161.4899999999907},{""page_index"":1,""viewing_time"":156.02000000001863},{""page_index"":2,""viewing_time"":193.04000000003725}]","","","","","","",""
"","","","call-function","417","688690","0.0-417.0","edepucu8","","","","","","","",""
"null","","","html-keyboard-response","418","690194","0.0-418.0","edepucu8","","<span style=""color:Black; font-size:50px;"">Agent A","null","","","","",""
"null","","","video-keyboard-response","419","692987","0.0-419.0","edepucu8","","","null","","Agent A","scrambled","FOR_REV_BLOBBY_STIM/713135.bmp_pp54_L2_V1.0_veridical_freeview_isoFalse_fps144_reversed_REAL.mp4",""
"null","","","html-keyboard-response","420","694491","0.0-420.0","edepucu8","","<span style=""color:Black; font-size:50px;"">Agent B","null","","","","",""
"null","","","video-keyboard-response","421","697287","0.0-421.0","edepucu8","","","null","","Agent B","veridical","FOR_REV_BLOBBY_STIM/713135.bmp_pp54_L2_V1.0_veridical_freeview_isoFalse_fps144.mp4",""
"","","","call-function","422","697288","0.0-422.0","edepucu8","","","","","","","",""
"1886","{""judgement"":1}","[0]","survey-likert","423","699176","0.0-423.0","edepucu8","","","","","","","","1"
"2422.8950000000186","{""confidence"":2}","[0]","survey-likert","424","701600","0.0-424.0","edepucu8","","","","","","","",""
"","","","call-function","425","701601","0.0-425.0","edepucu8","","","","","","","",""
"null","","","html-keyboard-response","426","703102","0.0-426.0","edepucu8","","<span style=""color:Black; font-size:50px;"">Agent A","null","","","","",""
"null","","","video-keyboard-response","427","705791","0.0-427.0","edepucu8","","","null","","Agent A","scrambled","FOR_REV_BLOBBY_STIM/1592727.bmp_pp59_L3_V1.0_veridical_freeview_isoFalse_fps144_reversed_REAL.mp4",""
"null","","","html-keyboard-response","428","707296","0.0-428.0","edepucu8","","<span style=""color:Black; font-size:50px;"">Agent B","null","","","","",""
"null","","","video-keyboard-response","429","709990","0.0-429.0","edepucu8","","","null","","Agent B","veridical","FOR_REV_BLOBBY_STIM/1592727.bmp_pp59_L3_V1.0_veridical_freeview_isoFalse_fps144.mp4",""
"","","","call-function","430","709990","0.0-430.0","edepucu8","","","","","","","",""
"1978.7399999999907","{""judgement"":0}","[0]","survey-likert","431","711970","0.0-431.0","edepucu8","","","","","","","","1"
"1861.295000000042","{""confidence"":2}","[0]","survey-likert","432","713833","0.0-432.0","edepucu8","","","","","","","",""
"","","","call-function","433","713833","0.0-433.0","edepucu8","","","","","","","",""
"null","","","html-keyboard-response","434","715335","0.0-434.0","edepucu8","","<span style=""color:Black; font-size:50px;"">Agent A","null","","","","",""
"null","","","video-keyboard-response","435","718123","0.0-435.0","edepucu8","","","null","","Agent A","scrambled","FOR_REV_BLOBBY_STIM/1159768.bmp_pp89_L1_V1.0_veridical_freeview_isoFalse_fps144_reversed_REAL.mp4",""
"null","","","html-keyboard-response","436","719627","0.0-436.0","edepucu8","","<span style=""color:Black; font-size:50px;"">Agent B","null","","","","",""
"null","","","video-keyboard-response","437","722461","0.0-437.0","edepucu8","","","null","","Agent B","veridical","FOR_REV_BLOBBY_STIM/1159768.bmp_pp89_L1_V1.0_veridical_freeview_isoFalse_fps144.mp4",""
"","","","call-function","438","722462","0.0-438.0","edepucu8","","","","","","","",""
"1665.3250000000698","{""judgement"":1}","[0]","survey-likert","439","724128","0.0-439.0","edepucu8","","","","","","","","1"
"1701.3250000000698","{""confidence"":2}","[0]","survey-likert","440","725830","0.0-440.0","edepucu8","","","","","","","",""
"","","","call-function","441","725831","0.0-441.0","edepucu8","","","","","","","",""
"null","","","html-keyboard-response","442","727333","0.0-442.0","edepucu8","","<span style=""color:Black; font-size:50px;"">Agent A","null","","","","",""
"null","","","video-keyboard-response","443","729955","0.0-443.0","edepucu8","","","null","","Agent A","veridical","FOR_REV_BLOBBY_STIM/286001.bmp_pp54_L2_V1.0_veridical_freeview_isoFalse_fps144.mp4",""
"null","","","html-keyboard-response","444","731461","0.0-444.0","edepucu8","","<span style=""color:Black; font-size:50px;"">Agent B","null","","","","",""
"null","","","video-keyboard-response","445","734094","0.0-445.0","edepucu8","","","null","","Agent B","scrambled","FOR_REV_BLOBBY_STIM/286001.bmp_pp54_L2_V1.0_veridical_freeview_isoFalse_fps144_reversed_REAL.mp4",""
"","","","call-function","446","734095","0.0-446.0","edepucu8","","","","","","","",""
"1676.375","{""judgement"":0}","[0]","survey-likert","447","735772","0.0-447.0","edepucu8","","","","","","","","0"
"2646.9949999999953","{""confidence"":2}","[0]","survey-likert","448","738420","0.0-448.0","edepucu8","","","","","","","",""
"","","","call-function","449","738420","0.0-449.0","edepucu8","","","","","","","",""
"null","","","html-keyboard-response","450","739927","0.0-450.0","edepucu8","","<span style=""color:Black; font-size:50px;"">Agent A","null","","","","",""
"null","","","video-keyboard-response","451","742784","0.0-451.0","edepucu8","","","null","","Agent A","veridical","FOR_REV_BLOBBY_STIM/1591961.bmp_pp67_L2_V1.0_veridical_freeview_isoFalse_fps144.mp4",""
"null","","","html-keyboard-response","452","744286","0.0-452.0","edepucu8","","<span style=""color:Black; font-size:50px;"">Agent B","null","","","","",""
"null","","","video-keyboard-response","453","747134","0.0-453.0","edepucu8","","","null","","Agent B","scrambled","FOR_REV_BLOBBY_STIM/1591961.bmp_pp67_L2_V1.0_veridical_freeview_isoFalse_fps144_reversed_REAL.mp4",""
"","","","call-function","454","747134","0.0-454.0","edepucu8","","","","","","","",""
"1521.7600000000093","{""judgement"":1}","[0]","survey-likert","455","748657","0.0-455.0","edepucu8","","","","","","","","0"
"2378.804999999935","{""confidence"":3}","[0]","survey-likert","456","751037","0.0-456.0","edepucu8","","","","","","","",""
"","","","call-function","457","751037","0.0-457.0","edepucu8","","","","","","","",""
"null","","","html-keyboard-response","458","752542","0.0-458.0","edepucu8","","<span style=""color:Black; font-size:50px;"">Agent A","null","","","","",""
"null","","","video-keyboard-response","459","755311","0.0-459.0","edepucu8","","","null","","Agent A","scrambled","FOR_REV_BLOBBY_STIM/1592619.bmp_pp56_L3_V1.0_veridical_freeview_isoFalse_fps144_reversed_REAL.mp4",""
"null","","","html-keyboard-response","460","756813","0.0-460.0","edepucu8","","<span style=""color:Black; font-size:50px;"">Agent B","null","","","","",""
"null","","","video-keyboard-response","461","759586","0.0-461.0","edepucu8","","","null","","Agent B","veridical","FOR_REV_BLOBBY_STIM/1592619.bmp_pp56_L3_V1.0_veridical_freeview_isoFalse_fps144.mp4",""
"","","","call-function","462","759587","0.0-462.0","edepucu8","","","","","","","",""
"2241.609999999986","{""judgement"":0}","[0]","survey-likert","463","761830","0.0-463.0","edepucu8","","","","","","","","1"
"1452.0749999999534","{""confidence"":1}","[0]","survey-likert","464","763283","0.0-464.0","edepucu8","","","","","","","",""
"","","","call-function","465","763284","0.0-465.0","edepucu8","","","","","","","",""
"null","","","html-keyboard-response","466","764789","0.0-466.0","edepucu8","","<span style=""color:Black; font-size:50px;"">Agent A","null","","","","",""
"null","","","video-keyboard-response","467","767668","0.0-467.0","edepucu8","","","null","","Agent A","scrambled","FOR_REV_BLOBBY_STIM/1593035.bmp_pp94_L2_V1.0_veridical_freeview_isoFalse_fps144_reversed_REAL.mp4",""
"null","","","html-keyboard-response","468","769172","0.0-468.0","edepucu8","","<span style=""color:Black; font-size:50px;"">Agent B","null","","","","",""
"null","","","video-keyboard-response","469","772049","0.0-469.0","edepucu8","","","null","","Agent B","veridical","FOR_REV_BLOBBY_STIM/1593035.bmp_pp94_L2_V1.0_veridical_freeview_isoFalse_fps144.mp4",""
"","","","call-function","470","772050","0.0-470.0","edepucu8","","","","","","","",""
"2178.1350000000093","{""judgement"":0}","[0]","survey-likert","471","774229","0.0-471.0","edepucu8","","","","","","","","1"
"1854.5100000000093","{""confidence"":2}","[0]","survey-likert","472","776084","0.0-472.0","edepucu8","","","","","","","",""
"","","","call-function","473","776085","0.0-473.0","edepucu8","","","","","","","",""
"null","","","html-keyboard-response","474","777586","0.0-474.0","edepucu8","","<span style=""color:Black; font-size:50px;"">Agent A","null","","","","",""
"null","","","video-keyboard-response","475","780286","0.0-475.0","edepucu8","","","null","","Agent A","scrambled","FOR_REV_BLOBBY_STIM/1592372.bmp_pp76_L1_V1.0_veridical_freeview_isoFalse_fps144_reversed_REAL.mp4",""
"null","","","html-keyboard-response","476","781793","0.0-476.0","edepucu8","","<span style=""color:Black; font-size:50px;"">Agent B","null","","","","",""
"null","","","video-keyboard-response","477","784494","0.0-477.0","edepucu8","","","null","","Agent B","veridical","FOR_REV_BLOBBY_STIM/1592372.bmp_pp76_L1_V1.0_veridical_freeview_isoFalse_fps144.mp4",""
"","","","call-function","478","784494","0.0-478.0","edepucu8","","","","","","","",""
"1959.0849999999627","{""judgement"":0}","[0]","survey-likert","479","786455","0.0-479.0","edepucu8","","","","","","","","1"
"1871.8649999999907","{""confidence"":2}","[0]","survey-likert","480","788329","0.0-480.0","edepucu8","","","","","","","",""
"","","","call-function","481","788330","0.0-481.0","edepucu8","","","","","","","",""
"null","","","html-keyboard-response","482","789834","0.0-482.0","edepucu8","","<span style=""color:Black; font-size:50px;"">Agent A","null","","","","",""
"null","","","video-keyboard-response","483","792695","0.0-483.0","edepucu8","","","null","","Agent A","scrambled","FOR_REV_BLOBBY_STIM/713371.bmp_pp68_L1_V1.0_veridical_freeview_isoFalse_fps144_reversed_REAL.mp4",""
"null","","","html-keyboard-response","484","794199","0.0-484.0","edepucu8","","<span style=""color:Black; font-size:50px;"">Agent B","null","","","","",""
"null","","","video-keyboard-response","485","797035","0.0-485.0","edepucu8","","","null","","Agent B","veridical","FOR_REV_BLOBBY_STIM/713371.bmp_pp68_L1_V1.0_veridical_freeview_isoFalse_fps144.mp4",""
"","","","call-function","486","797035","0.0-486.0","edepucu8","","","","","","","",""
"1725.670000000042","{""judgement"":1}","[0]","survey-likert","487","798762","0.0-487.0","edepucu8","","","","","","","","1"
"1373.234999999986","{""confidence"":2}","[0]","survey-likert","488","800136","0.0-488.0","edepucu8","","","","","","","",""
"","","","call-function","489","800137","0.0-489.0","edepucu8","","","","","","","",""
"null","","","html-keyboard-response","490","801639","0.0-490.0","edepucu8","","<span style=""color:Black; font-size:50px;"">Agent A","null","","","","",""
"null","","","video-keyboard-response","491","804374","0.0-491.0","edepucu8","","","null","","Agent A","scrambled","FOR_REV_BLOBBY_STIM/1159446.bmp_pp60_L3_V1.0_veridical_freeview_isoFalse_fps144_reversed_REAL.mp4",""
"null","","","html-keyboard-response","492","805878","0.0-492.0","edepucu8","","<span style=""color:Black; font-size:50px;"">Agent B","null","","","","",""
"null","","","video-keyboard-response","493","808631","0.0-493.0","edepucu8","","","null","","Agent B","veridical","FOR_REV_BLOBBY_STIM/1159446.bmp_pp60_L3_V1.0_veridical_freeview_isoFalse_fps144.mp4",""
"","","","call-function","494","808632","0.0-494.0","edepucu8","","","","","","","",""
"1552.5500000000466","{""judgement"":1}","[0]","survey-likert","495","810185","0.0-495.0","edepucu8","","","","","","","","1"
"1291.859999999986","{""confidence"":2}","[0]","survey-likert","496","811478","0.0-496.0","edepucu8","","","","","","","",""
"1568.140000000014","","","instructions","497","813047","0.0-497.0","edepucu8","[{""page_index"":0,""viewing_time"":901.5599999999395},{""page_index"":1,""viewing_time"":469.98499999998603},{""page_index"":2,""viewing_time"":196.43000000005122}]","","","","","","",""
"461.38000000000466","","","instructions","498","813509","0.0-498.0","edepucu8","[{""page_index"":0,""viewing_time"":131.50500000000466},{""page_index"":1,""viewing_time"":143.6699999999255},{""page_index"":2,""viewing_time"":185.97000000008848}]","","","","","","",""
"","","","call-function","499","813509","0.0-499.0","edepucu8","","","","","","","",""
"null","","","html-keyboard-response","500","815013","0.0-500.0","edepucu8","","<span style=""color:Black; font-size:50px;"">Agent A","null","","","","",""
"null","","","video-keyboard-response","501","817724","0.0-501.0","edepucu8","","","null","","Agent A","scrambled","FOR_REV_BLOBBY_STIM/1592133.bmp_pp75_L1_V1.0_veridical_freeview_isoFalse_fps144_reversed_REAL.mp4",""
"null","","","html-keyboard-response","502","819226","0.0-502.0","edepucu8","","<span style=""color:Black; font-size:50px;"">Agent B","null","","","","",""
"null","","","video-keyboard-response","503","821941","0.0-503.0","edepucu8","","","null","","Agent B","veridical","FOR_REV_BLOBBY_STIM/1592133.bmp_pp75_L1_V1.0_veridical_freeview_isoFalse_fps144.mp4",""
"","","","call-function","504","821941","0.0-504.0","edepucu8","","","","","","","",""
"4161.954999999958","{""judgement"":0}","[0]","survey-likert","505","826104","0.0-505.0","edepucu8","","","","","","","","1"
"1475.905000000028","{""confidence"":1}","[0]","survey-likert","506","827581","0.0-506.0","edepucu8","","","","","","","",""
"","","","call-function","507","827582","0.0-507.0","edepucu8","","","","","","","",""
"null","","","html-keyboard-response","508","829083","0.0-508.0","edepucu8","","<span style=""color:Black; font-size:50px;"">Agent A","null","","","","",""
"null","","","video-keyboard-response","509","831965","0.0-509.0","edepucu8","","","null","","Agent A","scrambled","FOR_REV_BLOBBY_STIM/498253.bmp_pp67_L2_V1.0_veridical_freeview_isoFalse_fps144_reversed_REAL.mp4",""
"null","","","html-keyboard-response","510","833467","0.0-510.0","edepucu8","","<span style=""color:Black; font-size:50px;"">Agent B","null","","","","",""
"null","","","video-keyboard-response","511","836345","0.0-511.0","edepucu8","","","null","","Agent B","veridical","FOR_REV_BLOBBY_STIM/498253.bmp_pp67_L2_V1.0_veridical_freeview_isoFalse_fps144.mp4",""
"","","","call-function","512","836346","0.0-512.0","edepucu8","","","","","","","",""
"4048.5500000000466","{""judgement"":1}","[0]","survey-likert","513","840395","0.0-513.0","edepucu8","","","","","","","","1"
"1647.420000000042","{""confidence"":2}","[0]","survey-likert","514","842044","0.0-514.0","edepucu8","","","","","","","",""
"","","","call-function","515","842044","0.0-515.0","edepucu8","","","","","","","",""
"null","","","html-keyboard-response","516","843550","0.0-516.0","edepucu8","","<span style=""color:Black; font-size:50px;"">Agent A","null","","","","",""
"null","","","video-keyboard-response","517","846368","0.0-517.0","edepucu8","","","null","","Agent A","scrambled","FOR_REV_BLOBBY_STIM/713666.bmp_pp97_L3_V1.0_veridical_freeview_isoFalse_fps144_reversed_REAL.mp4",""
"null","","","html-keyboard-response","518","847873","0.0-518.0","edepucu8","","<span style=""color:Black; font-size:50px;"">Agent B","null","","","","",""
"null","","","video-keyboard-response","519","850719","0.0-519.0","edepucu8","","","null","","Agent B","veridical","FOR_REV_BLOBBY_STIM/713666.bmp_pp97_L3_V1.0_veridical_freeview_isoFalse_fps144.mp4",""
"","","","call-function","520","850720","0.0-520.0","edepucu8","","","","","","","",""
"4514.165000000037","{""judgement"":1}","[0]","survey-likert","521","855235","0.0-521.0","edepucu8","","","","","","","","1"
"1757.969999999972","{""confidence"":2}","[0]","survey-likert","522","856994","0.0-522.0","edepucu8","","","","","","","",""
"","","","call-function","523","856995","0.0-523.0","edepucu8","","","","","","","",""
"null","","","html-keyboard-response","524","858501","0.0-524.0","edepucu8","","<span style=""color:Black; font-size:50px;"">Agent A","null","","","","",""
"null","","","video-keyboard-response","525","861295","0.0-525.0","edepucu8","","","null","","Agent A","veridical","FOR_REV_BLOBBY_STIM/1159855.bmp_pp99_L2_V1.0_veridical_freeview_isoFalse_fps144.mp4",""
"null","","","html-keyboard-response","526","862801","0.0-526.0","edepucu8","","<span style=""color:Black; font-size:50px;"">Agent B","null","","","","",""
"null","","","video-keyboard-response","527","865600","0.0-527.0","edepucu8","","","null","","Agent B","scrambled","FOR_REV_BLOBBY_STIM/1159855.bmp_pp99_L2_V1.0_veridical_freeview_isoFalse_fps144_reversed_REAL.mp4",""
"","","","call-function","528","865601","0.0-528.0","edepucu8","","","","","","","",""
"1363.359999999986","{""judgement"":1}","[0]","survey-likert","529","866965","0.0-529.0","edepucu8","","","","","","","","0"
"1436.7550000000047","{""confidence"":2}","[0]","survey-likert","530","868403","0.0-530.0","edepucu8","","","","","","","",""
"","","","call-function","531","868403","0.0-531.0","edepucu8","","","","","","","",""
"null","","","html-keyboard-response","532","869906","0.0-532.0","edepucu8","","<span style=""color:Black; font-size:50px;"">Agent A","null","","","","",""
"null","","","video-keyboard-response","533","872703","0.0-533.0","edepucu8","","","null","","Agent A","veridical","FOR_REV_BLOBBY_STIM/713620.bmp_pp65_L3_V1.0_veridical_freeview_isoFalse_fps144.mp4",""
"null","","","html-keyboard-response","534","874209","0.0-534.0","edepucu8","","<span style=""color:Black; font-size:50px;"">Agent B","null","","","","",""
"null","","","video-keyboard-response","535","877019","0.0-535.0","edepucu8","","","null","","Agent B","scrambled","FOR_REV_BLOBBY_STIM/713620.bmp_pp65_L3_V1.0_veridical_freeview_isoFalse_fps144_reversed_REAL.mp4",""
"","","","call-function","536","877019","0.0-536.0","edepucu8","","","","","","","",""
"1807.484999999986","{""judgement"":1}","[0]","survey-likert","537","878828","0.0-537.0","edepucu8","","","","","","","","0"
"2119.8099999999395","{""confidence"":3}","[0]","survey-likert","538","880949","0.0-538.0","edepucu8","","","","","","","",""
"","","","call-function","539","880949","0.0-539.0","edepucu8","","","","","","","",""
"null","","","html-keyboard-response","540","882452","0.0-540.0","edepucu8","","<span style=""color:Black; font-size:50px;"">Agent A","null","","","","",""
"null","","","video-keyboard-response","541","885301","0.0-541.0","edepucu8","","","null","","Agent A","scrambled","FOR_REV_BLOBBY_STIM/712977.bmp_pp51_L1_V1.0_veridical_freeview_isoFalse_fps144_reversed_REAL.mp4",""
"null","","","html-keyboard-response","542","886804","0.0-542.0","edepucu8","","<span style=""color:Black; font-size:50px;"">Agent B","null","","","","",""
"null","","","video-keyboard-response","543","889644","0.0-543.0","edepucu8","","","null","","Agent B","veridical","FOR_REV_BLOBBY_STIM/712977.bmp_pp51_L1_V1.0_veridical_freeview_isoFalse_fps144.mp4",""
"","","","call-function","544","889645","0.0-544.0","edepucu8","","","","","","","",""
"2272.4250000000466","{""judgement"":1}","[0]","survey-likert","545","891919","0.0-545.0","edepucu8","","","","","","","","1"
"1543.1999999999534","{""confidence"":2}","[0]","survey-likert","546","893465","0.0-546.0","edepucu8","","","","","","","",""
"","","","call-function","547","893466","0.0-547.0","edepucu8","","","","","","","",""
"null","","","html-keyboard-response","548","894968","0.0-548.0","edepucu8","","<span style=""color:Black; font-size:50px;"">Agent A","null","","","","",""
"null","","","video-keyboard-response","549","897604","0.0-549.0","edepucu8","","","null","","Agent A","veridical","FOR_REV_BLOBBY_STIM/713779.bmp_pp152_L2_V1.0_veridical_freeview_isoFalse_fps144.mp4",""
"null","","","html-keyboard-response","550","899106","0.0-550.0","edepucu8","","<span style=""color:Black; font-size:50px;"">Agent B","null","","","","",""
"null","","","video-keyboard-response","551","901726","0.0-551.0","edepucu8","","","null","","Agent B","scrambled","FOR_REV_BLOBBY_STIM/713779.bmp_pp152_L2_V1.0_veridical_freeview_isoFalse_fps144_reversed_REAL.mp4",""
"","","","call-function","552","901727","0.0-552.0","edepucu8","","","","","","","",""
"2293.170000000042","{""judgement"":1}","[0]","survey-likert","553","904022","0.0-553.0","edepucu8","","","","","","","","0"
"1580.1949999999488","{""confidence"":1}","[0]","survey-likert","554","905603","0.0-554.0","edepucu8","","","","","","","",""
"","","","call-function","555","905604","0.0-555.0","edepucu8","","","","","","","",""
"null","","","html-keyboard-response","556","907106","0.0-556.0","edepucu8","","<span style=""color:Black; font-size:50px;"">Agent A","null","","","","",""
"null","","","video-keyboard-response","557","909895","0.0-557.0","edepucu8","","","null","","Agent A","veridical","FOR_REV_BLOBBY_STIM/1591994.bmp_pp69_L3_V1.0_veridical_freeview_isoFalse_fps144.mp4",""
"null","","","html-keyboard-response","558","911397","0.0-558.0","edepucu8","","<span style=""color:Black; font-size:50px;"">Agent B","null","","","","",""
"null","","","video-keyboard-response","559","914173","0.0-559.0","edepucu8","","","null","","Agent B","scrambled","FOR_REV_BLOBBY_STIM/1591994.bmp_pp69_L3_V1.0_veridical_freeview_isoFalse_fps144_reversed_REAL.mp4",""
"","","","call-function","560","914173","0.0-560.0","edepucu8","","","","","","","",""
"2202.0350000000326","{""judgement"":1}","[0]","survey-likert","561","916377","0.0-561.0","edepucu8","","","","","","","","0"
"1850.875","{""confidence"":2}","[0]","survey-likert","562","918229","0.0-562.0","edepucu8","","","","","","","",""
"","","","call-function","563","918229","0.0-563.0","edepucu8","","","","","","","",""
"null","","","html-keyboard-response","564","919736","0.0-564.0","edepucu8","","<span style=""color:Black; font-size:50px;"">Agent A","null","","","","",""
"null","","","video-keyboard-response","565","922385","0.0-565.0","edepucu8","","","null","","Agent A","veridical","FOR_REV_BLOBBY_STIM/1591876.bmp_pp63_L1_V1.0_veridical_freeview_isoFalse_fps144.mp4",""
"null","","","html-keyboard-response","566","923889","0.0-566.0","edepucu8","","<span style=""color:Black; font-size:50px;"">Agent B","null","","","","",""
"null","","","video-keyboard-response","567","926444","0.0-567.0","edepucu8","","","null","","Agent B","scrambled","FOR_REV_BLOBBY_STIM/1591876.bmp_pp63_L1_V1.0_veridical_freeview_isoFalse_fps144_reversed_REAL.mp4",""
"","","","call-function","568","926444","0.0-568.0","edepucu8","","","","","","","",""
"5086.545000000042","{""judgement"":0}","[0]","survey-likert","569","931532","0.0-569.0","edepucu8","","","","","","","","0"
"1330.1650000000373","{""confidence"":1}","[0]","survey-likert","570","932863","0.0-570.0","edepucu8","","","","","","","",""
"","","","call-function","571","932864","0.0-571.0","edepucu8","","","","","","","",""
"null","","","html-keyboard-response","572","934368","0.0-572.0","edepucu8","","<span style=""color:Black; font-size:50px;"">Agent A","null","","","","",""
"null","","","video-keyboard-response","573","937195","0.0-573.0","edepucu8","","","null","","Agent A","veridical","FOR_REV_BLOBBY_STIM/1159829.bmp_pp91_L3_V1.0_veridical_freeview_isoFalse_fps144.mp4",""
"null","","","html-keyboard-response","574","938697","0.0-574.0","edepucu8","","<span style=""color:Black; font-size:50px;"">Agent B","null","","","","",""
"null","","","video-keyboard-response","575","941508","0.0-575.0","edepucu8","","","null","","Agent B","scrambled","FOR_REV_BLOBBY_STIM/1159829.bmp_pp91_L3_V1.0_veridical_freeview_isoFalse_fps144_reversed_REAL.mp4",""
"","","","call-function","576","941509","0.0-576.0","edepucu8","","","","","","","",""
"1801.640000000014","{""judgement"":0}","[0]","survey-likert","577","943311","0.0-577.0","edepucu8","","","","","","","","0"
"1783.0100000000093","{""confidence"":1}","[0]","survey-likert","578","945095","0.0-578.0","edepucu8","","","","","","","",""
"1002.5950000000885","","","instructions","579","946098","0.0-579.0","edepucu8","[{""page_index"":0,""viewing_time"":1002.4450000000652}]","","","","","","",""
"651.3199999999488","","","instructions","580","946750","0.0-580.0","edepucu8","[{""page_index"":0,""viewing_time"":651.2049999999581}]","","","","","","",""
"2884.914999999921","{""post-1"":3}","[0]","survey-likert","581","949636","0.0-581.0","edepucu8","","","","","","","",""
"1464.8049999999348","{""post-1"":2}","[0]","survey-likert","582","951102","0.0-582.0","edepucu8","","","","","","","",""
"4350.3150000000605","{""post-2"":2}","[0]","survey-likert","583","955454","0.0-583.0","edepucu8","","","","","","","",""
"2756.944999999949","{""post-2"":1}","[0]","survey-likert","584","958212","0.0-584.0","edepucu8","","","","","","","",""
"3229.9150000000373","{""post-3"":3}","[0]","survey-likert","585","961443","0.0-585.0","edepucu8","","","","","","","",""
"3978.9000000000233","{""post-3"":1}","[0]","survey-likert","586","965424","0.0-586.0","edepucu8","","","","","","","",""
"5128.520000000019","{""post-4"":1}","[0]","survey-likert","587","970555","0.0-587.0","edepucu8","","","","","","","",""
"3695.4899999999907","{""post-4"":1}","[0]","survey-likert","588","974252","0.0-588.0","edepucu8","","","","","","","",""
"5305.390000000014","{""post-5"":1}","[0]","survey-likert","589","979558","0.0-589.0","edepucu8","","","","","","","",""
"1953.3250000000698","{""post-5"":2}","[0]","survey-likert","590","981513","0.0-590.0","edepucu8","","","","","","","",""
"72444.625","{""Q0"":""I picked the one more similar to how I would view the picture, starting with faces and big-sized words. sometimes both agents were similar and it was hard to pick, and sometimes the way I would view the picture was also different from both agents""}","","survey-text","591","1053963","0.0-591.0","edepucu8","","","","","","","",""
"22847.219999999972","{""Q0"":""some were obvious because the hotspot moved the same way that my attention would move. ""}","","survey-text","592","1076813","0.0-592.0","edepucu8","","","","","","","",""
"51292.60000000009","{""Q0"":""for some trials, both agents did not move their attention the same way I would and it was hard to tell. Also, sometimes both agents' attention hotspots were similar""}","","survey-text","593","1128110","0.0-593.0","edepucu8","","","","","","","",""
"787.1599999999162","","","instructions","594","1128898","0.0-594.0","edepucu8","[{""page_index"":0,""viewing_time"":786.5349999999162}]","","","","","","",""
"18025.959999999963","{""Experimenter_end"":[""Printed ID# edepucu8 on consent form"",""Given subject SONA credit or payment"",""Given the subject debrief form""]}","[0]","survey-multi-select","595","1146926","0.0-595.0","edepucu8","","","","","","","",""
