"rt","responses","question_order","trial_type","trial_index","time_elapsed","internal_node_id","ID","view_history","stimulus","key_press","value","agent","condition","image","correct_answer"
"21049.675","{""Experimenter"":[""Confirmed subject's identity (ID card)"",""Confirmed normal or corrected-to-normal vision"",""Obtained consent (signature and date)"",""Checked the test room lighting"",""Checked computer screen lighting"",""Checked distance from screen to chin rest (50cm)"",""Cleaned and adjusted chin rest"",""Counterbalanced the order of the tasks"",""Opened the experiment in Firefox"",""Made the experiment full screen"",""Encouraged subject to silence phone, put away distractors, etc.""]}","[0]","survey-multi-select","0","21058","0.0-0.0","eeddyect","","","","","","","",""
"494859.995","","","instructions","1","515921","0.0-1.0","eeddyect","[{""page_index"":0,""viewing_time"":494859.435}]","","","","","","",""
"10566.97000000003","","","instructions","2","526489","0.0-2.0","eeddyect","[{""page_index"":0,""viewing_time"":1272.7550000000047},{""page_index"":1,""viewing_time"":41.59000000002561},{""page_index"":2,""viewing_time"":9252.494999999995}]","","","","","","",""
"4393.144999999902","","","instructions","3","530883","0.0-3.0","eeddyect","[{""page_index"":0,""viewing_time"":4393.039999999921}]","","","","","","",""
"null","","","video-keyboard-response","4","533955","0.0-4.0","eeddyect","","","null","","","","",""
"24723.849999999977","","","instructions","5","558679","0.0-5.0","eeddyect","[{""page_index"":0,""viewing_time"":2576.689999999944},{""page_index"":1,""viewing_time"":4186.125},{""page_index"":2,""viewing_time"":1053.8800000000047},{""page_index"":3,""viewing_time"":10336.07500000007},{""page_index"":4,""viewing_time"":6570.949999999953}]","","","","","","",""
"4427.8300000000745","","","instructions","6","563107","0.0-6.0","eeddyect","[{""page_index"":0,""viewing_time"":4427.70000000007}]","","","","","","",""
"","","","call-function","7","563108","0.0-7.0","eeddyect","","","","","","","",""
"null","","","html-keyboard-response","8","564613","0.0-8.0","eeddyect","","<span style=""color:Black; font-size:50px;"">Agent A","null","","","","",""
"null","","","video-keyboard-response","9","567676","0.0-9.0","eeddyect","","","null","","Agent A","scrambled","STIM_SET_1/713760.bmp_pp81_L1_V1.0_scrambled_freeview_isoFalse.mp4",""
"null","","","html-keyboard-response","10","569180","0.0-10.0","eeddyect","","<span style=""color:Black; font-size:50px;"">Agent B","null","","","","",""
"null","","","video-keyboard-response","11","572245","0.0-11.0","eeddyect","","","null","","Agent B","veridical","STIM_SET_1/713760.bmp_pp81_L1_V1.0_veridical_freeview_isoFalse.mp4",""
"","","","call-function","12","572246","0.0-12.0","eeddyect","","","","","","","",""
"8249.160000000033","{""judgement"":1}","[0]","survey-likert","13","580496","0.0-13.0","eeddyect","","","","","","","","1"
"6074.890000000014","{""confidence"":1}","[0]","survey-likert","14","586572","0.0-14.0","eeddyect","","","","","","","",""
"","","","call-function","15","586573","0.0-15.0","eeddyect","","","","","","","",""
"null","","","html-keyboard-response","16","588074","0.0-16.0","eeddyect","","<span style=""color:Black; font-size:50px;"">Agent A","null","","","","",""
"null","","","video-keyboard-response","17","591155","0.0-17.0","eeddyect","","","null","","Agent A","veridical","STIM_SET_1/1592372.bmp_pp76_L1_V1.0_veridical_freeview_isoFalse.mp4",""
"null","","","html-keyboard-response","18","592660","0.0-18.0","eeddyect","","<span style=""color:Black; font-size:50px;"">Agent B","null","","","","",""
"null","","","video-keyboard-response","19","595782","0.0-19.0","eeddyect","","","null","","Agent B","scrambled","STIM_SET_1/1592372.bmp_pp76_L1_V1.0_scrambled_freeview_isoFalse.mp4",""
"","","","call-function","20","595782","0.0-20.0","eeddyect","","","","","","","",""
"5612.744999999995","{""judgement"":0}","[0]","survey-likert","21","601397","0.0-21.0","eeddyect","","","","","","","","0"
"2903.234999999986","{""confidence"":1}","[0]","survey-likert","22","604301","0.0-22.0","eeddyect","","","","","","","",""
"","","","call-function","23","604302","0.0-23.0","eeddyect","","","","","","","",""
"null","","","html-keyboard-response","24","605804","0.0-24.0","eeddyect","","<span style=""color:Black; font-size:50px;"">Agent A","null","","","","",""
"null","","","video-keyboard-response","25","608876","0.0-25.0","eeddyect","","","null","","Agent A","veridical","STIM_SET_1/285933.bmp_pp81_L1_V1.0_veridical_freeview_isoFalse.mp4",""
"null","","","html-keyboard-response","26","610379","0.0-26.0","eeddyect","","<span style=""color:Black; font-size:50px;"">Agent B","null","","","","",""
"null","","","video-keyboard-response","27","613490","0.0-27.0","eeddyect","","","null","","Agent B","scrambled","STIM_SET_1/285933.bmp_pp81_L1_V1.0_scrambled_freeview_isoFalse.mp4",""
"","","","call-function","28","613490","0.0-28.0","eeddyect","","","","","","","",""
"6248.1699999999255","{""judgement"":0}","[0]","survey-likert","29","619739","0.0-29.0","eeddyect","","","","","","","","0"
"2977.25","{""confidence"":2}","[0]","survey-likert","30","622717","0.0-30.0","eeddyect","","","","","","","",""
"","","","call-function","31","622718","0.0-31.0","eeddyect","","","","","","","",""
"null","","","html-keyboard-response","32","624221","0.0-32.0","eeddyect","","<span style=""color:Black; font-size:50px;"">Agent A","null","","","","",""
"null","","","video-keyboard-response","33","627307","0.0-33.0","eeddyect","","","null","","Agent A","veridical","STIM_SET_1/1591994.bmp_pp69_L3_V1.0_veridical_freeview_isoFalse.mp4",""
"null","","","html-keyboard-response","34","628809","0.0-34.0","eeddyect","","<span style=""color:Black; font-size:50px;"">Agent B","null","","","","",""
"null","","","video-keyboard-response","35","631887","0.0-35.0","eeddyect","","","null","","Agent B","scrambled","STIM_SET_1/1591994.bmp_pp69_L3_V1.0_scrambled_freeview_isoFalse.mp4",""
"","","","call-function","36","631887","0.0-36.0","eeddyect","","","","","","","",""
"7988.104999999981","{""judgement"":1}","[0]","survey-likert","37","639876","0.0-37.0","eeddyect","","","","","","","","0"
"3342.064999999944","{""confidence"":1}","[0]","survey-likert","38","643219","0.0-38.0","eeddyect","","","","","","","",""
"","","","call-function","39","643220","0.0-39.0","eeddyect","","","","","","","",""
"null","","","html-keyboard-response","40","644723","0.0-40.0","eeddyect","","<span style=""color:Black; font-size:50px;"">Agent A","null","","","","",""
"null","","","video-keyboard-response","41","647799","0.0-41.0","eeddyect","","","null","","Agent A","scrambled","STIM_SET_1/713796.bmp_pp84_L3_V1.0_scrambled_freeview_isoFalse.mp4",""
"null","","","html-keyboard-response","42","649304","0.0-42.0","eeddyect","","<span style=""color:Black; font-size:50px;"">Agent B","null","","","","",""
"null","","","video-keyboard-response","43","652379","0.0-43.0","eeddyect","","","null","","Agent B","veridical","STIM_SET_1/713796.bmp_pp84_L3_V1.0_veridical_freeview_isoFalse.mp4",""
"","","","call-function","44","652380","0.0-44.0","eeddyect","","","","","","","",""
"2839.2099999999627","{""judgement"":1}","[0]","survey-likert","45","655220","0.0-45.0","eeddyect","","","","","","","","1"
"2912","{""confidence"":2}","[0]","survey-likert","46","658134","0.0-46.0","eeddyect","","","","","","","",""
"","","","call-function","47","658135","0.0-47.0","eeddyect","","","","","","","",""
"null","","","html-keyboard-response","48","659641","0.0-48.0","eeddyect","","<span style=""color:Black; font-size:50px;"">Agent A","null","","","","",""
"null","","","video-keyboard-response","49","662711","0.0-49.0","eeddyect","","","null","","Agent A","scrambled","STIM_SET_1/1592362.bmp_pp95_L2_V1.0_scrambled_freeview_isoFalse.mp4",""
"null","","","html-keyboard-response","50","664212","0.0-50.0","eeddyect","","<span style=""color:Black; font-size:50px;"">Agent B","null","","","","",""
"null","","","video-keyboard-response","51","667286","0.0-51.0","eeddyect","","","null","","Agent B","veridical","STIM_SET_1/1592362.bmp_pp95_L2_V1.0_veridical_freeview_isoFalse.mp4",""
"","","","call-function","52","667287","0.0-52.0","eeddyect","","","","","","","",""
"3989.3899999998976","{""judgement"":1}","[0]","survey-likert","53","671277","0.0-53.0","eeddyect","","","","","","","","1"
"2843.719999999972","{""confidence"":1}","[0]","survey-likert","54","674122","0.0-54.0","eeddyect","","","","","","","",""
"","","","call-function","55","674123","0.0-55.0","eeddyect","","","","","","","",""
"null","","","html-keyboard-response","56","675628","0.0-56.0","eeddyect","","<span style=""color:Black; font-size:50px;"">Agent A","null","","","","",""
"null","","","video-keyboard-response","57","678699","0.0-57.0","eeddyect","","","null","","Agent A","scrambled","STIM_SET_1/1159768.bmp_pp89_L1_V1.0_scrambled_freeview_isoFalse.mp4",""
"null","","","html-keyboard-response","58","680201","0.0-58.0","eeddyect","","<span style=""color:Black; font-size:50px;"">Agent B","null","","","","",""
"null","","","video-keyboard-response","59","683272","0.0-59.0","eeddyect","","","null","","Agent B","veridical","STIM_SET_1/1159768.bmp_pp89_L1_V1.0_veridical_freeview_isoFalse.mp4",""
"","","","call-function","60","683273","0.0-60.0","eeddyect","","","","","","","",""
"1911.7699999999022","{""judgement"":1}","[0]","survey-likert","61","685185","0.0-61.0","eeddyect","","","","","","","","1"
"2020.1199999999953","{""confidence"":1}","[0]","survey-likert","62","687206","0.0-62.0","eeddyect","","","","","","","",""
"","","","call-function","63","687207","0.0-63.0","eeddyect","","","","","","","",""
"null","","","html-keyboard-response","64","688709","0.0-64.0","eeddyect","","<span style=""color:Black; font-size:50px;"">Agent A","null","","","","",""
"null","","","video-keyboard-response","65","691797","0.0-65.0","eeddyect","","","null","","Agent A","scrambled","STIM_SET_1/713779.bmp_pp152_L2_V1.0_scrambled_freeview_isoFalse.mp4",""
"null","","","html-keyboard-response","66","693301","0.0-66.0","eeddyect","","<span style=""color:Black; font-size:50px;"">Agent B","null","","","","",""
"null","","","video-keyboard-response","67","696386","0.0-67.0","eeddyect","","","null","","Agent B","veridical","STIM_SET_1/713779.bmp_pp152_L2_V1.0_veridical_freeview_isoFalse.mp4",""
"","","","call-function","68","696386","0.0-68.0","eeddyect","","","","","","","",""
"3712.7399999999907","{""judgement"":0}","[0]","survey-likert","69","700100","0.0-69.0","eeddyect","","","","","","","","1"
"1601.6049999999814","{""confidence"":1}","[0]","survey-likert","70","701702","0.0-70.0","eeddyect","","","","","","","",""
"","","","call-function","71","701703","0.0-71.0","eeddyect","","","","","","","",""
"null","","","html-keyboard-response","72","703207","0.0-72.0","eeddyect","","<span style=""color:Black; font-size:50px;"">Agent A","null","","","","",""
"null","","","video-keyboard-response","73","706321","0.0-73.0","eeddyect","","","null","","Agent A","veridical","STIM_SET_1/1159515.bmp_pp84_L3_V1.0_veridical_freeview_isoFalse.mp4",""
"null","","","html-keyboard-response","74","707826","0.0-74.0","eeddyect","","<span style=""color:Black; font-size:50px;"">Agent B","null","","","","",""
"null","","","video-keyboard-response","75","710938","0.0-75.0","eeddyect","","","null","","Agent B","scrambled","STIM_SET_1/1159515.bmp_pp84_L3_V1.0_scrambled_freeview_isoFalse.mp4",""
"","","","call-function","76","710939","0.0-76.0","eeddyect","","","","","","","",""
"3260.5400000000373","{""judgement"":1}","[0]","survey-likert","77","714200","0.0-77.0","eeddyect","","","","","","","","0"
"2872.295000000042","{""confidence"":1}","[0]","survey-likert","78","717073","0.0-78.0","eeddyect","","","","","","","",""
"","","","call-function","79","717074","0.0-79.0","eeddyect","","","","","","","",""
"null","","","html-keyboard-response","80","718575","0.0-80.0","eeddyect","","<span style=""color:Black; font-size:50px;"">Agent A","null","","","","",""
"null","","","video-keyboard-response","81","721695","0.0-81.0","eeddyect","","","null","","Agent A","veridical","STIM_SET_1/1592890.bmp_pp82_L2_V1.0_veridical_freeview_isoFalse.mp4",""
"null","","","html-keyboard-response","82","723197","0.0-82.0","eeddyect","","<span style=""color:Black; font-size:50px;"">Agent B","null","","","","",""
"null","","","video-keyboard-response","83","726264","0.0-83.0","eeddyect","","","null","","Agent B","scrambled","STIM_SET_1/1592890.bmp_pp82_L2_V1.0_scrambled_freeview_isoFalse.mp4",""
"","","","call-function","84","726264","0.0-84.0","eeddyect","","","","","","","",""
"3973.840000000084","{""judgement"":0}","[0]","survey-likert","85","730239","0.0-85.0","eeddyect","","","","","","","","0"
"2403.2600000000093","{""confidence"":2}","[0]","survey-likert","86","732643","0.0-86.0","eeddyect","","","","","","","",""
"27135.594999999972","","","instructions","87","759779","0.0-87.0","eeddyect","[{""page_index"":0,""viewing_time"":1743.3649999999907},{""page_index"":1,""viewing_time"":19690.030000000028},{""page_index"":2,""viewing_time"":5701.954999999958}]","","","","","","",""
"8461.589999999967","","","instructions","88","768241","0.0-88.0","eeddyect","[{""page_index"":0,""viewing_time"":995.6899999999441},{""page_index"":1,""viewing_time"":6692.685000000056},{""page_index"":2,""viewing_time"":773.1049999999814}]","","","","","","",""
"","","","call-function","89","768242","0.0-89.0","eeddyect","","","","","","","",""
"null","","","html-keyboard-response","90","769748","0.0-90.0","eeddyect","","<span style=""color:Black; font-size:50px;"">Agent A","null","","","","",""
"null","","","video-keyboard-response","91","772824","0.0-91.0","eeddyect","","","null","","Agent A","veridical","STIM_SET_1/498155.bmp_pp61_L2_V1.0_veridical_freeview_isoFalse.mp4",""
"null","","","html-keyboard-response","92","774330","0.0-92.0","eeddyect","","<span style=""color:Black; font-size:50px;"">Agent B","null","","","","",""
"null","","","video-keyboard-response","93","777407","0.0-93.0","eeddyect","","","null","","Agent B","scrambled","STIM_SET_1/498155.bmp_pp61_L2_V1.0_scrambled_freeview_isoFalse.mp4",""
"","","","call-function","94","777408","0.0-94.0","eeddyect","","","","","","","",""
"2169.3549999999814","{""judgement"":0}","[0]","survey-likert","95","779578","0.0-95.0","eeddyect","","","","","","","","0"
"2410.734999999986","{""confidence"":2}","[0]","survey-likert","96","781990","0.0-96.0","eeddyect","","","","","","","",""
"","","","call-function","97","781990","0.0-97.0","eeddyect","","","","","","","",""
"null","","","html-keyboard-response","98","783493","0.0-98.0","eeddyect","","<span style=""color:Black; font-size:50px;"">Agent A","null","","","","",""
"null","","","video-keyboard-response","99","786563","0.0-99.0","eeddyect","","","null","","Agent A","veridical","STIM_SET_1/1159447.bmp_pp70_L2_V1.0_veridical_freeview_isoFalse.mp4",""
"null","","","html-keyboard-response","100","788066","0.0-100.0","eeddyect","","<span style=""color:Black; font-size:50px;"">Agent B","null","","","","",""
"null","","","video-keyboard-response","101","791136","0.0-101.0","eeddyect","","","null","","Agent B","scrambled","STIM_SET_1/1159447.bmp_pp70_L2_V1.0_scrambled_freeview_isoFalse.mp4",""
"","","","call-function","102","791137","0.0-102.0","eeddyect","","","","","","","",""
"1968.1300000000047","{""judgement"":0}","[0]","survey-likert","103","793107","0.0-103.0","eeddyect","","","","","","","","0"
"1963.6199999999953","{""confidence"":2}","[0]","survey-likert","104","795072","0.0-104.0","eeddyect","","","","","","","",""
"","","","call-function","105","795072","0.0-105.0","eeddyect","","","","","","","",""
"null","","","html-keyboard-response","106","796574","0.0-106.0","eeddyect","","<span style=""color:Black; font-size:50px;"">Agent A","null","","","","",""
"null","","","video-keyboard-response","107","799651","0.0-107.0","eeddyect","","","null","","Agent A","veridical","STIM_SET_1/1592934.bmp_pp63_L1_V1.0_veridical_freeview_isoFalse.mp4",""
"null","","","html-keyboard-response","108","801153","0.0-108.0","eeddyect","","<span style=""color:Black; font-size:50px;"">Agent B","null","","","","",""
"null","","","video-keyboard-response","109","804227","0.0-109.0","eeddyect","","","null","","Agent B","scrambled","STIM_SET_1/1592934.bmp_pp63_L1_V1.0_scrambled_freeview_isoFalse.mp4",""
"","","","call-function","110","804228","0.0-110.0","eeddyect","","","","","","","",""
"2847.9799999999814","{""judgement"":1}","[0]","survey-likert","111","807077","0.0-111.0","eeddyect","","","","","","","","0"
"1829.9300000000512","{""confidence"":1}","[0]","survey-likert","112","808908","0.0-112.0","eeddyect","","","","","","","",""
"","","","call-function","113","808909","0.0-113.0","eeddyect","","","","","","","",""
"null","","","html-keyboard-response","114","810411","0.0-114.0","eeddyect","","<span style=""color:Black; font-size:50px;"">Agent A","null","","","","",""
"null","","","video-keyboard-response","115","813492","0.0-115.0","eeddyect","","","null","","Agent A","veridical","STIM_SET_1/713707.bmp_pp154_L1_V1.0_veridical_freeview_isoFalse.mp4",""
"null","","","html-keyboard-response","116","814995","0.0-116.0","eeddyect","","<span style=""color:Black; font-size:50px;"">Agent B","null","","","","",""
"null","","","video-keyboard-response","117","818120","0.0-117.0","eeddyect","","","null","","Agent B","scrambled","STIM_SET_1/713707.bmp_pp154_L1_V1.0_scrambled_freeview_isoFalse.mp4",""
"","","","call-function","118","818121","0.0-118.0","eeddyect","","","","","","","",""
"2599.1350000000093","{""judgement"":0}","[0]","survey-likert","119","820721","0.0-119.0","eeddyect","","","","","","","","0"
"2847.215000000084","{""confidence"":1}","[0]","survey-likert","120","823569","0.0-120.0","eeddyect","","","","","","","",""
"","","","call-function","121","823569","0.0-121.0","eeddyect","","","","","","","",""
"null","","","html-keyboard-response","122","825072","0.0-122.0","eeddyect","","<span style=""color:Black; font-size:50px;"">Agent A","null","","","","",""
"null","","","video-keyboard-response","123","828189","0.0-123.0","eeddyect","","","null","","Agent A","veridical","STIM_SET_1/498175.bmp_pp154_L1_V1.0_veridical_freeview_isoFalse.mp4",""
"null","","","html-keyboard-response","124","829693","0.0-124.0","eeddyect","","<span style=""color:Black; font-size:50px;"">Agent B","null","","","","",""
"null","","","video-keyboard-response","125","832808","0.0-125.0","eeddyect","","","null","","Agent B","scrambled","STIM_SET_1/498175.bmp_pp154_L1_V1.0_scrambled_freeview_isoFalse.mp4",""
"","","","call-function","126","832808","0.0-126.0","eeddyect","","","","","","","",""
"1517.4649999999674","{""judgement"":0}","[0]","survey-likert","127","834326","0.0-127.0","eeddyect","","","","","","","","0"
"2061.0749999999534","{""confidence"":2}","[0]","survey-likert","128","836389","0.0-128.0","eeddyect","","","","","","","",""
"","","","call-function","129","836389","0.0-129.0","eeddyect","","","","","","","",""
"null","","","html-keyboard-response","130","837891","0.0-130.0","eeddyect","","<span style=""color:Black; font-size:50px;"">Agent A","null","","","","",""
"null","","","video-keyboard-response","131","841008","0.0-131.0","eeddyect","","","null","","Agent A","scrambled","STIM_SET_1/713620.bmp_pp65_L3_V1.0_scrambled_freeview_isoFalse.mp4",""
"null","","","html-keyboard-response","132","842513","0.0-132.0","eeddyect","","<span style=""color:Black; font-size:50px;"">Agent B","null","","","","",""
"null","","","video-keyboard-response","133","845631","0.0-133.0","eeddyect","","","null","","Agent B","veridical","STIM_SET_1/713620.bmp_pp65_L3_V1.0_veridical_freeview_isoFalse.mp4",""
"","","","call-function","134","845631","0.0-134.0","eeddyect","","","","","","","",""
"1719.765000000014","{""judgement"":1}","[0]","survey-likert","135","847352","0.0-135.0","eeddyect","","","","","","","","1"
"1749.75","{""confidence"":1}","[0]","survey-likert","136","849103","0.0-136.0","eeddyect","","","","","","","",""
"","","","call-function","137","849103","0.0-137.0","eeddyect","","","","","","","",""
"null","","","html-keyboard-response","138","850608","0.0-138.0","eeddyect","","<span style=""color:Black; font-size:50px;"">Agent A","null","","","","",""
"null","","","video-keyboard-response","139","853723","0.0-139.0","eeddyect","","","null","","Agent A","veridical","STIM_SET_1/1159621.bmp_pp92_L3_V1.0_veridical_freeview_isoFalse.mp4",""
"null","","","html-keyboard-response","140","855230","0.0-140.0","eeddyect","","<span style=""color:Black; font-size:50px;"">Agent B","null","","","","",""
"null","","","video-keyboard-response","141","858298","0.0-141.0","eeddyect","","","null","","Agent B","scrambled","STIM_SET_1/1159621.bmp_pp92_L3_V1.0_scrambled_freeview_isoFalse.mp4",""
"","","","call-function","142","858299","0.0-142.0","eeddyect","","","","","","","",""
"2588.5","{""judgement"":0}","[0]","survey-likert","143","860888","0.0-143.0","eeddyect","","","","","","","","0"
"1534.3149999999441","{""confidence"":1}","[0]","survey-likert","144","862424","0.0-144.0","eeddyect","","","","","","","",""
"","","","call-function","145","862424","0.0-145.0","eeddyect","","","","","","","",""
"null","","","html-keyboard-response","146","863931","0.0-146.0","eeddyect","","<span style=""color:Black; font-size:50px;"">Agent A","null","","","","",""
"null","","","video-keyboard-response","147","867007","0.0-147.0","eeddyect","","","null","","Agent A","scrambled","STIM_SET_1/712977.bmp_pp51_L1_V1.0_scrambled_freeview_isoFalse.mp4",""
"null","","","html-keyboard-response","148","868511","0.0-148.0","eeddyect","","<span style=""color:Black; font-size:50px;"">Agent B","null","","","","",""
"null","","","video-keyboard-response","149","871590","0.0-149.0","eeddyect","","","null","","Agent B","veridical","STIM_SET_1/712977.bmp_pp51_L1_V1.0_veridical_freeview_isoFalse.mp4",""
"","","","call-function","150","871590","0.0-150.0","eeddyect","","","","","","","",""
"1937.8549999999814","{""judgement"":0}","[0]","survey-likert","151","873529","0.0-151.0","eeddyect","","","","","","","","1"
"1847.5700000000652","{""confidence"":2}","[0]","survey-likert","152","875378","0.0-152.0","eeddyect","","","","","","","",""
"","","","call-function","153","875378","0.0-153.0","eeddyect","","","","","","","",""
"null","","","html-keyboard-response","154","876882","0.0-154.0","eeddyect","","<span style=""color:Black; font-size:50px;"">Agent A","null","","","","",""
"null","","","video-keyboard-response","155","879950","0.0-155.0","eeddyect","","","null","","Agent A","veridical","STIM_SET_1/498170.bmp_pp153_L3_V1.0_veridical_freeview_isoFalse.mp4",""
"null","","","html-keyboard-response","156","881453","0.0-156.0","eeddyect","","<span style=""color:Black; font-size:50px;"">Agent B","null","","","","",""
"null","","","video-keyboard-response","157","884523","0.0-157.0","eeddyect","","","null","","Agent B","scrambled","STIM_SET_1/498170.bmp_pp153_L3_V1.0_scrambled_freeview_isoFalse.mp4",""
"","","","call-function","158","884523","0.0-158.0","eeddyect","","","","","","","",""
"4671.915000000037","{""judgement"":1}","[0]","survey-likert","159","889196","0.0-159.0","eeddyect","","","","","","","","0"
"2563.9499999999534","{""confidence"":1}","[0]","survey-likert","160","891761","0.0-160.0","eeddyect","","","","","","","",""
"","","","call-function","161","891761","0.0-161.0","eeddyect","","","","","","","",""
"null","","","html-keyboard-response","162","893267","0.0-162.0","eeddyect","","<span style=""color:Black; font-size:50px;"">Agent A","null","","","","",""
"null","","","video-keyboard-response","163","896359","0.0-163.0","eeddyect","","","null","","Agent A","veridical","STIM_SET_1/713684.bmp_pp85_L3_V1.0_veridical_freeview_isoFalse.mp4",""
"null","","","html-keyboard-response","164","897860","0.0-164.0","eeddyect","","<span style=""color:Black; font-size:50px;"">Agent B","null","","","","",""
"null","","","video-keyboard-response","165","900950","0.0-165.0","eeddyect","","","null","","Agent B","scrambled","STIM_SET_1/713684.bmp_pp85_L3_V1.0_scrambled_freeview_isoFalse.mp4",""
"","","","call-function","166","900950","0.0-166.0","eeddyect","","","","","","","",""
"3399.314999999944","{""judgement"":0}","[0]","survey-likert","167","904350","0.0-167.0","eeddyect","","","","","","","","0"
"2996.7600000000093","{""confidence"":1}","[0]","survey-likert","168","907348","0.0-168.0","eeddyect","","","","","","","",""
"13818.439999999944","","","instructions","169","921167","0.0-169.0","eeddyect","[{""page_index"":0,""viewing_time"":1144.4000000000233},{""page_index"":1,""viewing_time"":10391.939999999944},{""page_index"":2,""viewing_time"":2281.945000000065}]","","","","","","",""
"3495.9000000000233","","","instructions","170","924664","0.0-170.0","eeddyect","[{""page_index"":0,""viewing_time"":900.9699999999721},{""page_index"":1,""viewing_time"":2042.9500000000698},{""page_index"":2,""viewing_time"":551.875}]","","","","","","",""
"","","","call-function","171","924665","0.0-171.0","eeddyect","","","","","","","",""
"null","","","html-keyboard-response","172","926167","0.0-172.0","eeddyect","","<span style=""color:Black; font-size:50px;"">Agent A","null","","","","",""
"null","","","video-keyboard-response","173","929247","0.0-173.0","eeddyect","","","null","","Agent A","veridical","STIM_SET_1/285751.bmp_pp55_L3_V1.0_veridical_freeview_isoFalse.mp4",""
"null","","","html-keyboard-response","174","930751","0.0-174.0","eeddyect","","<span style=""color:Black; font-size:50px;"">Agent B","null","","","","",""
"null","","","video-keyboard-response","175","933830","0.0-175.0","eeddyect","","","null","","Agent B","scrambled","STIM_SET_1/285751.bmp_pp55_L3_V1.0_scrambled_freeview_isoFalse.mp4",""
"","","","call-function","176","933830","0.0-176.0","eeddyect","","","","","","","",""
"1918.7600000000093","{""judgement"":1}","[0]","survey-likert","177","935750","0.0-177.0","eeddyect","","","","","","","","0"
"2745.430000000051","{""confidence"":1}","[0]","survey-likert","178","938497","0.0-178.0","eeddyect","","","","","","","",""
"","","","call-function","179","938497","0.0-179.0","eeddyect","","","","","","","",""
"null","","","html-keyboard-response","180","940003","0.0-180.0","eeddyect","","<span style=""color:Black; font-size:50px;"">Agent A","null","","","","",""
"null","","","video-keyboard-response","181","943077","0.0-181.0","eeddyect","","","null","","Agent A","veridical","STIM_SET_1/1592286.bmp_pp52_L1_V1.0_veridical_freeview_isoFalse.mp4",""
"null","","","html-keyboard-response","182","944580","0.0-182.0","eeddyect","","<span style=""color:Black; font-size:50px;"">Agent B","null","","","","",""
"null","","","video-keyboard-response","183","947655","0.0-183.0","eeddyect","","","null","","Agent B","scrambled","STIM_SET_1/1592286.bmp_pp52_L1_V1.0_scrambled_freeview_isoFalse.mp4",""
"","","","call-function","184","947655","0.0-184.0","eeddyect","","","","","","","",""
"3155.3000000000466","{""judgement"":0}","[0]","survey-likert","185","950811","0.0-185.0","eeddyect","","","","","","","","0"
"2472.6900000000605","{""confidence"":1}","[0]","survey-likert","186","953285","0.0-186.0","eeddyect","","","","","","","",""
"","","","call-function","187","953285","0.0-187.0","eeddyect","","","","","","","",""
"null","","","html-keyboard-response","188","954788","0.0-188.0","eeddyect","","<span style=""color:Black; font-size:50px;"">Agent A","null","","","","",""
"null","","","video-keyboard-response","189","957883","0.0-189.0","eeddyect","","","null","","Agent A","scrambled","STIM_SET_1/1592727.bmp_pp59_L3_V1.0_scrambled_freeview_isoFalse.mp4",""
"null","","","html-keyboard-response","190","959391","0.0-190.0","eeddyect","","<span style=""color:Black; font-size:50px;"">Agent B","null","","","","",""
"null","","","video-keyboard-response","191","962490","0.0-191.0","eeddyect","","","null","","Agent B","veridical","STIM_SET_1/1592727.bmp_pp59_L3_V1.0_veridical_freeview_isoFalse.mp4",""
"","","","call-function","192","962491","0.0-192.0","eeddyect","","","","","","","",""
"1887.2700000000186","{""judgement"":1}","[0]","survey-likert","193","964379","0.0-193.0","eeddyect","","","","","","","","1"
"1727.2000000000698","{""confidence"":1}","[0]","survey-likert","194","966107","0.0-194.0","eeddyect","","","","","","","",""
"","","","call-function","195","966107","0.0-195.0","eeddyect","","","","","","","",""
"null","","","html-keyboard-response","196","967612","0.0-196.0","eeddyect","","<span style=""color:Black; font-size:50px;"">Agent A","null","","","","",""
"null","","","video-keyboard-response","197","970723","0.0-197.0","eeddyect","","","null","","Agent A","veridical","STIM_SET_1/285994.bmp_pp92_L3_V1.0_veridical_freeview_isoFalse.mp4",""
"null","","","html-keyboard-response","198","972224","0.0-198.0","eeddyect","","<span style=""color:Black; font-size:50px;"">Agent B","null","","","","",""
"null","","","video-keyboard-response","199","975337","0.0-199.0","eeddyect","","","null","","Agent B","scrambled","STIM_SET_1/285994.bmp_pp92_L3_V1.0_scrambled_freeview_isoFalse.mp4",""
"","","","call-function","200","975338","0.0-200.0","eeddyect","","","","","","","",""
"1901.2850000000326","{""judgement"":0}","[0]","survey-likert","201","977240","0.0-201.0","eeddyect","","","","","","","","0"
"2410.0599999999395","{""confidence"":1}","[0]","survey-likert","202","979651","0.0-202.0","eeddyect","","","","","","","",""
"","","","call-function","203","979651","0.0-203.0","eeddyect","","","","","","","",""
"null","","","html-keyboard-response","204","981155","0.0-204.0","eeddyect","","<span style=""color:Black; font-size:50px;"">Agent A","null","","","","",""
"null","","","video-keyboard-response","205","984265","0.0-205.0","eeddyect","","","null","","Agent A","scrambled","STIM_SET_1/1160127.bmp_pp90_L2_V1.0_scrambled_freeview_isoFalse.mp4",""
"null","","","html-keyboard-response","206","985768","0.0-206.0","eeddyect","","<span style=""color:Black; font-size:50px;"">Agent B","null","","","","",""
"null","","","video-keyboard-response","207","988874","0.0-207.0","eeddyect","","","null","","Agent B","veridical","STIM_SET_1/1160127.bmp_pp90_L2_V1.0_veridical_freeview_isoFalse.mp4",""
"","","","call-function","208","988874","0.0-208.0","eeddyect","","","","","","","",""
"2313.829999999958","{""judgement"":0}","[0]","survey-likert","209","991189","0.0-209.0","eeddyect","","","","","","","","1"
"2522.284999999916","{""confidence"":2}","[0]","survey-likert","210","993712","0.0-210.0","eeddyect","","","","","","","",""
"","","","call-function","211","993713","0.0-211.0","eeddyect","","","","","","","",""
"null","","","html-keyboard-response","212","995216","0.0-212.0","eeddyect","","<span style=""color:Black; font-size:50px;"">Agent A","null","","","","",""
"null","","","video-keyboard-response","213","998294","0.0-213.0","eeddyect","","","null","","Agent A","veridical","STIM_SET_1/713593.bmp_pp64_L1_V1.0_veridical_freeview_isoFalse.mp4",""
"null","","","html-keyboard-response","214","999799","0.0-214.0","eeddyect","","<span style=""color:Black; font-size:50px;"">Agent B","null","","","","",""
"null","","","video-keyboard-response","215","1002882","0.0-215.0","eeddyect","","","null","","Agent B","scrambled","STIM_SET_1/713593.bmp_pp64_L1_V1.0_scrambled_freeview_isoFalse.mp4",""
"","","","call-function","216","1002882","0.0-216.0","eeddyect","","","","","","","",""
"1608.094999999972","{""judgement"":0}","[0]","survey-likert","217","1004491","0.0-217.0","eeddyect","","","","","","","","0"
"1485.8199999999488","{""confidence"":2}","[0]","survey-likert","218","1005978","0.0-218.0","eeddyect","","","","","","","",""
"","","","call-function","219","1005978","0.0-219.0","eeddyect","","","","","","","",""
"null","","","html-keyboard-response","220","1007484","0.0-220.0","eeddyect","","<span style=""color:Black; font-size:50px;"">Agent A","null","","","","",""
"null","","","video-keyboard-response","221","1010564","0.0-221.0","eeddyect","","","null","","Agent A","scrambled","STIM_SET_1/1592807.bmp_pp68_L1_V1.0_scrambled_freeview_isoFalse.mp4",""
"null","","","html-keyboard-response","222","1012068","0.0-222.0","eeddyect","","<span style=""color:Black; font-size:50px;"">Agent B","null","","","","",""
"null","","","video-keyboard-response","223","1015147","0.0-223.0","eeddyect","","","null","","Agent B","veridical","STIM_SET_1/1592807.bmp_pp68_L1_V1.0_veridical_freeview_isoFalse.mp4",""
"","","","call-function","224","1015147","0.0-224.0","eeddyect","","","","","","","",""
"2330.0500000000466","{""judgement"":0}","[0]","survey-likert","225","1017478","0.0-225.0","eeddyect","","","","","","","","1"
"1373.0200000000186","{""confidence"":1}","[0]","survey-likert","226","1018852","0.0-226.0","eeddyect","","","","","","","",""
"","","","call-function","227","1018853","0.0-227.0","eeddyect","","","","","","","",""
"null","","","html-keyboard-response","228","1020356","0.0-228.0","eeddyect","","<span style=""color:Black; font-size:50px;"">Agent A","null","","","","",""
"null","","","video-keyboard-response","229","1023464","0.0-229.0","eeddyect","","","null","","Agent A","veridical","STIM_SET_1/713403.bmp_pp80_L3_V1.0_veridical_freeview_isoFalse.mp4",""
"null","","","html-keyboard-response","230","1024967","0.0-230.0","eeddyect","","<span style=""color:Black; font-size:50px;"">Agent B","null","","","","",""
"null","","","video-keyboard-response","231","1028077","0.0-231.0","eeddyect","","","null","","Agent B","scrambled","STIM_SET_1/713403.bmp_pp80_L3_V1.0_scrambled_freeview_isoFalse.mp4",""
"","","","call-function","232","1028078","0.0-232.0","eeddyect","","","","","","","",""
"1861.030000000028","{""judgement"":0}","[0]","survey-likert","233","1029940","0.0-233.0","eeddyect","","","","","","","","0"
"1525.3400000000838","{""confidence"":1}","[0]","survey-likert","234","1031466","0.0-234.0","eeddyect","","","","","","","",""
"","","","call-function","235","1031467","0.0-235.0","eeddyect","","","","","","","",""
"null","","","html-keyboard-response","236","1032970","0.0-236.0","eeddyect","","<span style=""color:Black; font-size:50px;"">Agent A","null","","","","",""
"null","","","video-keyboard-response","237","1036081","0.0-237.0","eeddyect","","","null","","Agent A","scrambled","STIM_SET_1/498111.bmp_pp88_L2_V1.0_scrambled_freeview_isoFalse.mp4",""
"null","","","html-keyboard-response","238","1037585","0.0-238.0","eeddyect","","<span style=""color:Black; font-size:50px;"">Agent B","null","","","","",""
"null","","","video-keyboard-response","239","1040694","0.0-239.0","eeddyect","","","null","","Agent B","veridical","STIM_SET_1/498111.bmp_pp88_L2_V1.0_veridical_freeview_isoFalse.mp4",""
"","","","call-function","240","1040694","0.0-240.0","eeddyect","","","","","","","",""
"2017.9350000000559","{""judgement"":1}","[0]","survey-likert","241","1042713","0.0-241.0","eeddyect","","","","","","","","1"
"1682.9650000000838","{""confidence"":1}","[0]","survey-likert","242","1044397","0.0-242.0","eeddyect","","","","","","","",""
"","","","call-function","243","1044397","0.0-243.0","eeddyect","","","","","","","",""
"null","","","html-keyboard-response","244","1045901","0.0-244.0","eeddyect","","<span style=""color:Black; font-size:50px;"">Agent A","null","","","","",""
"null","","","video-keyboard-response","245","1048985","0.0-245.0","eeddyect","","","null","","Agent A","scrambled","STIM_SET_1/713371.bmp_pp68_L1_V1.0_scrambled_freeview_isoFalse.mp4",""
"null","","","html-keyboard-response","246","1050488","0.0-246.0","eeddyect","","<span style=""color:Black; font-size:50px;"">Agent B","null","","","","",""
"null","","","video-keyboard-response","247","1053574","0.0-247.0","eeddyect","","","null","","Agent B","veridical","STIM_SET_1/713371.bmp_pp68_L1_V1.0_veridical_freeview_isoFalse.mp4",""
"","","","call-function","248","1053575","0.0-248.0","eeddyect","","","","","","","",""
"1923.3200000000652","{""judgement"":1}","[0]","survey-likert","249","1055500","0.0-249.0","eeddyect","","","","","","","","1"
"1852.845000000205","{""confidence"":1}","[0]","survey-likert","250","1057354","0.0-250.0","eeddyect","","","","","","","",""
"2228.7050000000745","","","instructions","251","1059583","0.0-251.0","eeddyect","[{""page_index"":0,""viewing_time"":920.4950000001118},{""page_index"":1,""viewing_time"":704.9699999999721},{""page_index"":2,""viewing_time"":603.0849999999627}]","","","","","","",""
"1579.3850000000093","","","instructions","252","1061163","0.0-252.0","eeddyect","[{""page_index"":0,""viewing_time"":488.37000000011176},{""page_index"":1,""viewing_time"":481.0549999999348},{""page_index"":2,""viewing_time"":609.8500000000931}]","","","","","","",""
"","","","call-function","253","1061164","0.0-253.0","eeddyect","","","","","","","",""
"null","","","html-keyboard-response","254","1062667","0.0-254.0","eeddyect","","<span style=""color:Black; font-size:50px;"">Agent A","null","","","","",""
"null","","","video-keyboard-response","255","1065747","0.0-255.0","eeddyect","","","null","","Agent A","scrambled","STIM_SET_1/1159675.bmp_pp77_L3_V1.0_scrambled_freeview_isoFalse.mp4",""
"null","","","html-keyboard-response","256","1067249","0.0-256.0","eeddyect","","<span style=""color:Black; font-size:50px;"">Agent B","null","","","","",""
"null","","","video-keyboard-response","257","1070330","0.0-257.0","eeddyect","","","null","","Agent B","veridical","STIM_SET_1/1159675.bmp_pp77_L3_V1.0_veridical_freeview_isoFalse.mp4",""
"","","","call-function","258","1070330","0.0-258.0","eeddyect","","","","","","","",""
"1712.6049999999814","{""judgement"":1}","[0]","survey-likert","259","1072044","0.0-259.0","eeddyect","","","","","","","","1"
"1434.3850000000093","{""confidence"":1}","[0]","survey-likert","260","1073479","0.0-260.0","eeddyect","","","","","","","",""
"","","","call-function","261","1073480","0.0-261.0","eeddyect","","","","","","","",""
"null","","","html-keyboard-response","262","1074983","0.0-262.0","eeddyect","","<span style=""color:Black; font-size:50px;"">Agent A","null","","","","",""
"null","","","video-keyboard-response","263","1078058","0.0-263.0","eeddyect","","","null","","Agent A","veridical","STIM_SET_1/1159440.bmp_pp98_L1_V1.0_veridical_freeview_isoFalse.mp4",""
"null","","","html-keyboard-response","264","1079563","0.0-264.0","eeddyect","","<span style=""color:Black; font-size:50px;"">Agent B","null","","","","",""
"null","","","video-keyboard-response","265","1082637","0.0-265.0","eeddyect","","","null","","Agent B","scrambled","STIM_SET_1/1159440.bmp_pp98_L1_V1.0_scrambled_freeview_isoFalse.mp4",""
"","","","call-function","266","1082638","0.0-266.0","eeddyect","","","","","","","",""
"4778.804999999935","{""judgement"":0}","[0]","survey-likert","267","1087418","0.0-267.0","eeddyect","","","","","","","","0"
"1577.6450000000186","{""confidence"":1}","[0]","survey-likert","268","1088997","0.0-268.0","eeddyect","","","","","","","",""
"","","","call-function","269","1088997","0.0-269.0","eeddyect","","","","","","","",""
"null","","","html-keyboard-response","270","1090503","0.0-270.0","eeddyect","","<span style=""color:Black; font-size:50px;"">Agent A","null","","","","",""
"null","","","video-keyboard-response","271","1093624","0.0-271.0","eeddyect","","","null","","Agent A","scrambled","STIM_SET_1/713211.bmp_pp100_L3_V1.0_scrambled_freeview_isoFalse.mp4",""
"null","","","html-keyboard-response","272","1095128","0.0-272.0","eeddyect","","<span style=""color:Black; font-size:50px;"">Agent B","null","","","","",""
"null","","","video-keyboard-response","273","1098248","0.0-273.0","eeddyect","","","null","","Agent B","veridical","STIM_SET_1/713211.bmp_pp100_L3_V1.0_veridical_freeview_isoFalse.mp4",""
"","","","call-function","274","1098249","0.0-274.0","eeddyect","","","","","","","",""
"2140.725000000093","{""judgement"":1}","[0]","survey-likert","275","1100390","0.0-275.0","eeddyect","","","","","","","","1"
"1485.905000000028","{""confidence"":1}","[0]","survey-likert","276","1101877","0.0-276.0","eeddyect","","","","","","","",""
"","","","call-function","277","1101878","0.0-277.0","eeddyect","","","","","","","",""
"null","","","html-keyboard-response","278","1103383","0.0-278.0","eeddyect","","<span style=""color:Black; font-size:50px;"">Agent A","null","","","","",""
"null","","","video-keyboard-response","279","1106500","0.0-279.0","eeddyect","","","null","","Agent A","veridical","STIM_SET_1/1593146.bmp_pp93_L1_V1.0_veridical_freeview_isoFalse.mp4",""
"null","","","html-keyboard-response","280","1108002","0.0-280.0","eeddyect","","<span style=""color:Black; font-size:50px;"">Agent B","null","","","","",""
"null","","","video-keyboard-response","281","1111115","0.0-281.0","eeddyect","","","null","","Agent B","scrambled","STIM_SET_1/1593146.bmp_pp93_L1_V1.0_scrambled_freeview_isoFalse.mp4",""
"","","","call-function","282","1111116","0.0-282.0","eeddyect","","","","","","","",""
"2581.9199999999255","{""judgement"":0}","[0]","survey-likert","283","1113698","0.0-283.0","eeddyect","","","","","","","","0"
"1734.8300000000745","{""confidence"":1}","[0]","survey-likert","284","1115434","0.0-284.0","eeddyect","","","","","","","",""
"","","","call-function","285","1115435","0.0-285.0","eeddyect","","","","","","","",""
"null","","","html-keyboard-response","286","1116936","0.0-286.0","eeddyect","","<span style=""color:Black; font-size:50px;"">Agent A","null","","","","",""
"null","","","video-keyboard-response","287","1120056","0.0-287.0","eeddyect","","","null","","Agent A","veridical","STIM_SET_1/1159855.bmp_pp99_L2_V1.0_veridical_freeview_isoFalse.mp4",""
"null","","","html-keyboard-response","288","1121559","0.0-288.0","eeddyect","","<span style=""color:Black; font-size:50px;"">Agent B","null","","","","",""
"null","","","video-keyboard-response","289","1124676","0.0-289.0","eeddyect","","","null","","Agent B","scrambled","STIM_SET_1/1159855.bmp_pp99_L2_V1.0_scrambled_freeview_isoFalse.mp4",""
"","","","call-function","290","1124676","0.0-290.0","eeddyect","","","","","","","",""
"1873.125","{""judgement"":0}","[0]","survey-likert","291","1126550","0.0-291.0","eeddyect","","","","","","","","0"
"1514.9099999999162","{""confidence"":2}","[0]","survey-likert","292","1128066","0.0-292.0","eeddyect","","","","","","","",""
"","","","call-function","293","1128067","0.0-293.0","eeddyect","","","","","","","",""
"null","","","html-keyboard-response","294","1129568","0.0-294.0","eeddyect","","<span style=""color:Black; font-size:50px;"">Agent A","null","","","","",""
"null","","","video-keyboard-response","295","1132646","0.0-295.0","eeddyect","","","null","","Agent A","veridical","STIM_SET_1/713666.bmp_pp97_L3_V1.0_veridical_freeview_isoFalse.mp4",""
"null","","","html-keyboard-response","296","1134150","0.0-296.0","eeddyect","","<span style=""color:Black; font-size:50px;"">Agent B","null","","","","",""
"null","","","video-keyboard-response","297","1137227","0.0-297.0","eeddyect","","","null","","Agent B","scrambled","STIM_SET_1/713666.bmp_pp97_L3_V1.0_scrambled_freeview_isoFalse.mp4",""
"","","","call-function","298","1137227","0.0-298.0","eeddyect","","","","","","","",""
"1917.9199999999255","{""judgement"":0}","[0]","survey-likert","299","1139146","0.0-299.0","eeddyect","","","","","","","","0"
"2466.3300000000745","{""confidence"":1}","[0]","survey-likert","300","1141613","0.0-300.0","eeddyect","","","","","","","",""
"","","","call-function","301","1141614","0.0-301.0","eeddyect","","","","","","","",""
"null","","","html-keyboard-response","302","1143118","0.0-302.0","eeddyect","","<span style=""color:Black; font-size:50px;"">Agent A","null","","","","",""
"null","","","video-keyboard-response","303","1146189","0.0-303.0","eeddyect","","","null","","Agent A","scrambled","STIM_SET_1/1159829.bmp_pp91_L3_V1.0_scrambled_freeview_isoFalse.mp4",""
"null","","","html-keyboard-response","304","1147691","0.0-304.0","eeddyect","","<span style=""color:Black; font-size:50px;"">Agent B","null","","","","",""
"null","","","video-keyboard-response","305","1150763","0.0-305.0","eeddyect","","","null","","Agent B","veridical","STIM_SET_1/1159829.bmp_pp91_L3_V1.0_veridical_freeview_isoFalse.mp4",""
"","","","call-function","306","1150763","0.0-306.0","eeddyect","","","","","","","",""
"1651.9549999998417","{""judgement"":1}","[0]","survey-likert","307","1152416","0.0-307.0","eeddyect","","","","","","","","1"
"1594.4749999998603","{""confidence"":1}","[0]","survey-likert","308","1154012","0.0-308.0","eeddyect","","","","","","","",""
"","","","call-function","309","1154012","0.0-309.0","eeddyect","","","","","","","",""
"null","","","html-keyboard-response","310","1155518","0.0-310.0","eeddyect","","<span style=""color:Black; font-size:50px;"">Agent A","null","","","","",""
"null","","","video-keyboard-response","311","1158598","0.0-311.0","eeddyect","","","null","","Agent A","veridical","STIM_SET_1/1159777.bmp_pp77_L3_V1.0_veridical_freeview_isoFalse.mp4",""
"null","","","html-keyboard-response","312","1160102","0.0-312.0","eeddyect","","<span style=""color:Black; font-size:50px;"">Agent B","null","","","","",""
"null","","","video-keyboard-response","313","1163185","0.0-313.0","eeddyect","","","null","","Agent B","scrambled","STIM_SET_1/1159777.bmp_pp77_L3_V1.0_scrambled_freeview_isoFalse.mp4",""
"","","","call-function","314","1163186","0.0-314.0","eeddyect","","","","","","","",""
"2578.2050000000745","{""judgement"":0}","[0]","survey-likert","315","1165765","0.0-315.0","eeddyect","","","","","","","","0"
"1139.5700000000652","{""confidence"":2}","[0]","survey-likert","316","1166905","0.0-316.0","eeddyect","","","","","","","",""
"","","","call-function","317","1166906","0.0-317.0","eeddyect","","","","","","","",""
"null","","","html-keyboard-response","318","1168408","0.0-318.0","eeddyect","","<span style=""color:Black; font-size:50px;"">Agent A","null","","","","",""
"null","","","video-keyboard-response","319","1171519","0.0-319.0","eeddyect","","","null","","Agent A","veridical","STIM_SET_1/1592133.bmp_pp75_L1_V1.0_veridical_freeview_isoFalse.mp4",""
"null","","","html-keyboard-response","320","1173025","0.0-320.0","eeddyect","","<span style=""color:Black; font-size:50px;"">Agent B","null","","","","",""
"null","","","video-keyboard-response","321","1176136","0.0-321.0","eeddyect","","","null","","Agent B","scrambled","STIM_SET_1/1592133.bmp_pp75_L1_V1.0_scrambled_freeview_isoFalse.mp4",""
"","","","call-function","322","1176137","0.0-322.0","eeddyect","","","","","","","",""
"1904.4150000000373","{""judgement"":1}","[0]","survey-likert","323","1178042","0.0-323.0","eeddyect","","","","","","","","0"
"1256.6450000000186","{""confidence"":1}","[0]","survey-likert","324","1179301","0.0-324.0","eeddyect","","","","","","","",""
"","","","call-function","325","1179302","0.0-325.0","eeddyect","","","","","","","",""
"null","","","html-keyboard-response","326","1180804","0.0-326.0","eeddyect","","<span style=""color:Black; font-size:50px;"">Agent A","null","","","","",""
"null","","","video-keyboard-response","327","1183879","0.0-327.0","eeddyect","","","null","","Agent A","veridical","STIM_SET_1/1592581.bmp_pp100_L3_V1.0_veridical_freeview_isoFalse.mp4",""
"null","","","html-keyboard-response","328","1185386","0.0-328.0","eeddyect","","<span style=""color:Black; font-size:50px;"">Agent B","null","","","","",""
"null","","","video-keyboard-response","329","1188463","0.0-329.0","eeddyect","","","null","","Agent B","scrambled","STIM_SET_1/1592581.bmp_pp100_L3_V1.0_scrambled_freeview_isoFalse.mp4",""
"","","","call-function","330","1188463","0.0-330.0","eeddyect","","","","","","","",""
"2581.4250000000466","{""judgement"":0}","[0]","survey-likert","331","1191046","0.0-331.0","eeddyect","","","","","","","","0"
"1305.0049999998882","{""confidence"":2}","[0]","survey-likert","332","1192352","0.0-332.0","eeddyect","","","","","","","",""
"2383.9850000001024","","","instructions","333","1194736","0.0-333.0","eeddyect","[{""page_index"":0,""viewing_time"":1072.7950000001583},{""page_index"":1,""viewing_time"":905},{""page_index"":2,""viewing_time"":406.0349999999162}]","","","","","","",""
"1269.9199999999255","","","instructions","334","1196007","0.0-334.0","eeddyect","[{""page_index"":0,""viewing_time"":422.3849999997765},{""page_index"":1,""viewing_time"":452.9900000002235},{""page_index"":2,""viewing_time"":394.4399999999441}]","","","","","","",""
"","","","call-function","335","1196007","0.0-335.0","eeddyect","","","","","","","",""
"null","","","html-keyboard-response","336","1197511","0.0-336.0","eeddyect","","<span style=""color:Black; font-size:50px;"">Agent A","null","","","","",""
"null","","","video-keyboard-response","337","1200593","0.0-337.0","eeddyect","","","null","","Agent A","scrambled","STIM_SET_1/1592657.bmp_pp98_L1_V1.0_scrambled_freeview_isoFalse.mp4",""
"null","","","html-keyboard-response","338","1202100","0.0-338.0","eeddyect","","<span style=""color:Black; font-size:50px;"">Agent B","null","","","","",""
"null","","","video-keyboard-response","339","1205177","0.0-339.0","eeddyect","","","null","","Agent B","veridical","STIM_SET_1/1592657.bmp_pp98_L1_V1.0_veridical_freeview_isoFalse.mp4",""
"","","","call-function","340","1205177","0.0-340.0","eeddyect","","","","","","","",""
"2489.380000000121","{""judgement"":0}","[0]","survey-likert","341","1207667","0.0-341.0","eeddyect","","","","","","","","1"
"1261.0900000000838","{""confidence"":2}","[0]","survey-likert","342","1208930","0.0-342.0","eeddyect","","","","","","","",""
"","","","call-function","343","1208930","0.0-343.0","eeddyect","","","","","","","",""
"null","","","html-keyboard-response","344","1210434","0.0-344.0","eeddyect","","<span style=""color:Black; font-size:50px;"">Agent A","null","","","","",""
"null","","","video-keyboard-response","345","1213521","0.0-345.0","eeddyect","","","null","","Agent A","scrambled","STIM_SET_1/1160168.bmp_pp53_L2_V1.0_scrambled_freeview_isoFalse.mp4",""
"null","","","html-keyboard-response","346","1215024","0.0-346.0","eeddyect","","<span style=""color:Black; font-size:50px;"">Agent B","null","","","","",""
"null","","","video-keyboard-response","347","1218108","0.0-347.0","eeddyect","","","null","","Agent B","veridical","STIM_SET_1/1160168.bmp_pp53_L2_V1.0_veridical_freeview_isoFalse.mp4",""
"","","","call-function","348","1218109","0.0-348.0","eeddyect","","","","","","","",""
"1668.9099999999162","{""judgement"":1}","[0]","survey-likert","349","1219778","0.0-349.0","eeddyect","","","","","","","","1"
"1266.7749999999069","{""confidence"":1}","[0]","survey-likert","350","1221046","0.0-350.0","eeddyect","","","","","","","",""
"","","","call-function","351","1221046","0.0-351.0","eeddyect","","","","","","","",""
"null","","","html-keyboard-response","352","1222551","0.0-352.0","eeddyect","","<span style=""color:Black; font-size:50px;"">Agent A","null","","","","",""
"null","","","video-keyboard-response","353","1225665","0.0-353.0","eeddyect","","","null","","Agent A","scrambled","STIM_SET_1/1159784.bmp_pp73_L3_V1.0_scrambled_freeview_isoFalse.mp4",""
"null","","","html-keyboard-response","354","1227169","0.0-354.0","eeddyect","","<span style=""color:Black; font-size:50px;"">Agent B","null","","","","",""
"null","","","video-keyboard-response","355","1230287","0.0-355.0","eeddyect","","","null","","Agent B","veridical","STIM_SET_1/1159784.bmp_pp73_L3_V1.0_veridical_freeview_isoFalse.mp4",""
"","","","call-function","356","1230287","0.0-356.0","eeddyect","","","","","","","",""
"1580.3100000000559","{""judgement"":1}","[0]","survey-likert","357","1231868","0.0-357.0","eeddyect","","","","","","","","1"
"1524.8149999999441","{""confidence"":1}","[0]","survey-likert","358","1233394","0.0-358.0","eeddyect","","","","","","","",""
"","","","call-function","359","1233394","0.0-359.0","eeddyect","","","","","","","",""
"null","","","html-keyboard-response","360","1234898","0.0-360.0","eeddyect","","<span style=""color:Black; font-size:50px;"">Agent A","null","","","","",""
"null","","","video-keyboard-response","361","1238001","0.0-361.0","eeddyect","","","null","","Agent A","scrambled","STIM_SET_1/1159813.bmp_pp79_L2_V1.0_scrambled_freeview_isoFalse.mp4",""
"null","","","html-keyboard-response","362","1239508","0.0-362.0","eeddyect","","<span style=""color:Black; font-size:50px;"">Agent B","null","","","","",""
"null","","","video-keyboard-response","363","1242610","0.0-363.0","eeddyect","","","null","","Agent B","veridical","STIM_SET_1/1159813.bmp_pp79_L2_V1.0_veridical_freeview_isoFalse.mp4",""
"","","","call-function","364","1242610","0.0-364.0","eeddyect","","","","","","","",""
"2160.435000000056","{""judgement"":1}","[0]","survey-likert","365","1244771","0.0-365.0","eeddyect","","","","","","","","1"
"1502.684999999823","{""confidence"":1}","[0]","survey-likert","366","1246275","0.0-366.0","eeddyect","","","","","","","",""
"","","","call-function","367","1246276","0.0-367.0","eeddyect","","","","","","","",""
"null","","","html-keyboard-response","368","1247778","0.0-368.0","eeddyect","","<span style=""color:Black; font-size:50px;"">Agent A","null","","","","",""
"null","","","video-keyboard-response","369","1250855","0.0-369.0","eeddyect","","","null","","Agent A","veridical","STIM_SET_1/1591876.bmp_pp63_L1_V1.0_veridical_freeview_isoFalse.mp4",""
"null","","","html-keyboard-response","370","1252359","0.0-370.0","eeddyect","","<span style=""color:Black; font-size:50px;"">Agent B","null","","","","",""
"null","","","video-keyboard-response","371","1255438","0.0-371.0","eeddyect","","","null","","Agent B","scrambled","STIM_SET_1/1591876.bmp_pp63_L1_V1.0_scrambled_freeview_isoFalse.mp4",""
"","","","call-function","372","1255439","0.0-372.0","eeddyect","","","","","","","",""
"1620.594999999972","{""judgement"":0}","[0]","survey-likert","373","1257060","0.0-373.0","eeddyect","","","","","","","","0"
"1368.3349999999627","{""confidence"":2}","[0]","survey-likert","374","1258429","0.0-374.0","eeddyect","","","","","","","",""
"","","","call-function","375","1258430","0.0-375.0","eeddyect","","","","","","","",""
"null","","","html-keyboard-response","376","1259935","0.0-376.0","eeddyect","","<span style=""color:Black; font-size:50px;"">Agent A","null","","","","",""
"null","","","video-keyboard-response","377","1263046","0.0-377.0","eeddyect","","","null","","Agent A","scrambled","STIM_SET_1/713513.bmp_pp62_L2_V1.0_scrambled_freeview_isoFalse.mp4",""
"null","","","html-keyboard-response","378","1264549","0.0-378.0","eeddyect","","<span style=""color:Black; font-size:50px;"">Agent B","null","","","","",""
"null","","","video-keyboard-response","379","1267624","0.0-379.0","eeddyect","","","null","","Agent B","veridical","STIM_SET_1/713513.bmp_pp62_L2_V1.0_veridical_freeview_isoFalse.mp4",""
"","","","call-function","380","1267624","0.0-380.0","eeddyect","","","","","","","",""
"4468.274999999907","{""judgement"":0}","[0]","survey-likert","381","1272093","0.0-381.0","eeddyect","","","","","","","","1"
"1467.6350000000093","{""confidence"":1}","[0]","survey-likert","382","1273562","0.0-382.0","eeddyect","","","","","","","",""
"","","","call-function","383","1273563","0.0-383.0","eeddyect","","","","","","","",""
"null","","","html-keyboard-response","384","1275067","0.0-384.0","eeddyect","","<span style=""color:Black; font-size:50px;"">Agent A","null","","","","",""
"null","","","video-keyboard-response","385","1278138","0.0-385.0","eeddyect","","","null","","Agent A","scrambled","STIM_SET_1/713681.bmp_pp86_L2_V1.0_scrambled_freeview_isoFalse.mp4",""
"null","","","html-keyboard-response","386","1279645","0.0-386.0","eeddyect","","<span style=""color:Black; font-size:50px;"">Agent B","null","","","","",""
"null","","","video-keyboard-response","387","1282718","0.0-387.0","eeddyect","","","null","","Agent B","veridical","STIM_SET_1/713681.bmp_pp86_L2_V1.0_veridical_freeview_isoFalse.mp4",""
"","","","call-function","388","1282719","0.0-388.0","eeddyect","","","","","","","",""
"2171.815000000177","{""judgement"":1}","[0]","survey-likert","389","1284892","0.0-389.0","eeddyect","","","","","","","","1"
"1383.005000000121","{""confidence"":1}","[0]","survey-likert","390","1286277","0.0-390.0","eeddyect","","","","","","","",""
"","","","call-function","391","1286277","0.0-391.0","eeddyect","","","","","","","",""
"null","","","html-keyboard-response","392","1287781","0.0-392.0","eeddyect","","<span style=""color:Black; font-size:50px;"">Agent A","null","","","","",""
"null","","","video-keyboard-response","393","1290895","0.0-393.0","eeddyect","","","null","","Agent A","veridical","STIM_SET_1/1159882.bmp_pp61_L2_V1.0_veridical_freeview_isoFalse.mp4",""
"null","","","html-keyboard-response","394","1292401","0.0-394.0","eeddyect","","<span style=""color:Black; font-size:50px;"">Agent B","null","","","","",""
"null","","","video-keyboard-response","395","1295517","0.0-395.0","eeddyect","","","null","","Agent B","scrambled","STIM_SET_1/1159882.bmp_pp61_L2_V1.0_scrambled_freeview_isoFalse.mp4",""
"","","","call-function","396","1295517","0.0-396.0","eeddyect","","","","","","","",""
"2009.630000000121","{""judgement"":0}","[0]","survey-likert","397","1297528","0.0-397.0","eeddyect","","","","","","","","0"
"1288.9850000001024","{""confidence"":1}","[0]","survey-likert","398","1298818","0.0-398.0","eeddyect","","","","","","","",""
"","","","call-function","399","1298818","0.0-399.0","eeddyect","","","","","","","",""
"null","","","html-keyboard-response","400","1300324","0.0-400.0","eeddyect","","<span style=""color:Black; font-size:50px;"">Agent A","null","","","","",""
"null","","","video-keyboard-response","401","1303452","0.0-401.0","eeddyect","","","null","","Agent A","scrambled","STIM_SET_1/1591954.bmp_pp62_L2_V1.0_scrambled_freeview_isoFalse.mp4",""
"null","","","html-keyboard-response","402","1304954","0.0-402.0","eeddyect","","<span style=""color:Black; font-size:50px;"">Agent B","null","","","","",""
"null","","","video-keyboard-response","403","1308081","0.0-403.0","eeddyect","","","null","","Agent B","veridical","STIM_SET_1/1591954.bmp_pp62_L2_V1.0_veridical_freeview_isoFalse.mp4",""
"","","","call-function","404","1308082","0.0-404.0","eeddyect","","","","","","","",""
"1673.9849999998696","{""judgement"":1}","[0]","survey-likert","405","1309757","0.0-405.0","eeddyect","","","","","","","","1"
"1496.1650000000373","{""confidence"":1}","[0]","survey-likert","406","1311254","0.0-406.0","eeddyect","","","","","","","",""
"","","","call-function","407","1311254","0.0-407.0","eeddyect","","","","","","","",""
"null","","","html-keyboard-response","408","1312757","0.0-408.0","eeddyect","","<span style=""color:Black; font-size:50px;"">Agent A","null","","","","",""
"null","","","video-keyboard-response","409","1315828","0.0-409.0","eeddyect","","","null","","Agent A","veridical","STIM_SET_1/1159572.bmp_pp71_L1_V1.0_veridical_freeview_isoFalse.mp4",""
"null","","","html-keyboard-response","410","1317332","0.0-410.0","eeddyect","","<span style=""color:Black; font-size:50px;"">Agent B","null","","","","",""
"null","","","video-keyboard-response","411","1320429","0.0-411.0","eeddyect","","","null","","Agent B","scrambled","STIM_SET_1/1159572.bmp_pp71_L1_V1.0_scrambled_freeview_isoFalse.mp4",""
"","","","call-function","412","1320430","0.0-412.0","eeddyect","","","","","","","",""
"1279.3850000000093","{""judgement"":0}","[0]","survey-likert","413","1321711","0.0-413.0","eeddyect","","","","","","","","0"
"1335.4250000000466","{""confidence"":1}","[0]","survey-likert","414","1323049","0.0-414.0","eeddyect","","","","","","","",""
"18810.97999999998","","","instructions","415","1341861","0.0-415.0","eeddyect","[{""page_index"":0,""viewing_time"":800.1499999999069},{""page_index"":1,""viewing_time"":17561.65000000014},{""page_index"":2,""viewing_time"":449.02499999990687}]","","","","","","",""
"1676.4899999999907","","","instructions","416","1343538","0.0-416.0","eeddyect","[{""page_index"":0,""viewing_time"":436.5449999999255},{""page_index"":1,""viewing_time"":758.8000000000466},{""page_index"":2,""viewing_time"":481.04000000003725}]","","","","","","",""
"","","","call-function","417","1343538","0.0-417.0","eeddyect","","","","","","","",""
"null","","","html-keyboard-response","418","1345039","0.0-418.0","eeddyect","","<span style=""color:Black; font-size:50px;"">Agent A","null","","","","",""
"null","","","video-keyboard-response","419","1348104","0.0-419.0","eeddyect","","","null","","Agent A","veridical","STIM_SET_1/1592817.bmp_pp55_L3_V1.0_veridical_freeview_isoFalse.mp4",""
"null","","","html-keyboard-response","420","1349607","0.0-420.0","eeddyect","","<span style=""color:Black; font-size:50px;"">Agent B","null","","","","",""
"null","","","video-keyboard-response","421","1352675","0.0-421.0","eeddyect","","","null","","Agent B","scrambled","STIM_SET_1/1592817.bmp_pp55_L3_V1.0_scrambled_freeview_isoFalse.mp4",""
"","","","call-function","422","1352675","0.0-422.0","eeddyect","","","","","","","",""
"1578.5200000000186","{""judgement"":0}","[0]","survey-likert","423","1354255","0.0-423.0","eeddyect","","","","","","","","0"
"1054.6699999999255","{""confidence"":1}","[0]","survey-likert","424","1355311","0.0-424.0","eeddyect","","","","","","","",""
"","","","call-function","425","1355312","0.0-425.0","eeddyect","","","","","","","",""
"null","","","html-keyboard-response","426","1356815","0.0-426.0","eeddyect","","<span style=""color:Black; font-size:50px;"">Agent A","null","","","","",""
"null","","","video-keyboard-response","427","1359892","0.0-427.0","eeddyect","","","null","","Agent A","scrambled","STIM_SET_1/498253.bmp_pp67_L2_V1.0_scrambled_freeview_isoFalse.mp4",""
"null","","","html-keyboard-response","428","1361397","0.0-428.0","eeddyect","","<span style=""color:Black; font-size:50px;"">Agent B","null","","","","",""
"null","","","video-keyboard-response","429","1364479","0.0-429.0","eeddyect","","","null","","Agent B","veridical","STIM_SET_1/498253.bmp_pp67_L2_V1.0_veridical_freeview_isoFalse.mp4",""
"","","","call-function","430","1364480","0.0-430.0","eeddyect","","","","","","","",""
"2438.5200000000186","{""judgement"":1}","[0]","survey-likert","431","1366919","0.0-431.0","eeddyect","","","","","","","","1"
"1466.9850000001024","{""confidence"":1}","[0]","survey-likert","432","1368387","0.0-432.0","eeddyect","","","","","","","",""
"","","","call-function","433","1368388","0.0-433.0","eeddyect","","","","","","","",""
"null","","","html-keyboard-response","434","1369891","0.0-434.0","eeddyect","","<span style=""color:Black; font-size:50px;"">Agent A","null","","","","",""
"null","","","video-keyboard-response","435","1373000","0.0-435.0","eeddyect","","","null","","Agent A","veridical","STIM_SET_1/498149.bmp_pp99_L2_V1.0_veridical_freeview_isoFalse.mp4",""
"null","","","html-keyboard-response","436","1374502","0.0-436.0","eeddyect","","<span style=""color:Black; font-size:50px;"">Agent B","null","","","","",""
"null","","","video-keyboard-response","437","1377609","0.0-437.0","eeddyect","","","null","","Agent B","scrambled","STIM_SET_1/498149.bmp_pp99_L2_V1.0_scrambled_freeview_isoFalse.mp4",""
"","","","call-function","438","1377610","0.0-438.0","eeddyect","","","","","","","",""
"2197.2099999999627","{""judgement"":0}","[0]","survey-likert","439","1379808","0.0-439.0","eeddyect","","","","","","","","0"
"1349.9750000000931","{""confidence"":1}","[0]","survey-likert","440","1381159","0.0-440.0","eeddyect","","","","","","","",""
"","","","call-function","441","1381160","0.0-441.0","eeddyect","","","","","","","",""
"null","","","html-keyboard-response","442","1382667","0.0-442.0","eeddyect","","<span style=""color:Black; font-size:50px;"">Agent A","null","","","","",""
"null","","","video-keyboard-response","443","1385772","0.0-443.0","eeddyect","","","null","","Agent A","scrambled","STIM_SET_1/713089.bmp_pp60_L3_V1.0_scrambled_freeview_isoFalse.mp4",""
"null","","","html-keyboard-response","444","1387274","0.0-444.0","eeddyect","","<span style=""color:Black; font-size:50px;"">Agent B","null","","","","",""
"null","","","video-keyboard-response","445","1390385","0.0-445.0","eeddyect","","","null","","Agent B","veridical","STIM_SET_1/713089.bmp_pp60_L3_V1.0_veridical_freeview_isoFalse.mp4",""
"","","","call-function","446","1390385","0.0-446.0","eeddyect","","","","","","","",""
"1517.844999999972","{""judgement"":1}","[0]","survey-likert","447","1391904","0.0-447.0","eeddyect","","","","","","","","1"
"1998.5800000000745","{""confidence"":2}","[0]","survey-likert","448","1393904","0.0-448.0","eeddyect","","","","","","","",""
"","","","call-function","449","1393904","0.0-449.0","eeddyect","","","","","","","",""
"null","","","html-keyboard-response","450","1395408","0.0-450.0","eeddyect","","<span style=""color:Black; font-size:50px;"">Agent A","null","","","","",""
"null","","","video-keyboard-response","451","1398499","0.0-451.0","eeddyect","","","null","","Agent A","scrambled","STIM_SET_1/1593041.bmp_pp58_L1_V1.0_scrambled_freeview_isoFalse.mp4",""
"null","","","html-keyboard-response","452","1400006","0.0-452.0","eeddyect","","<span style=""color:Black; font-size:50px;"">Agent B","null","","","","",""
"null","","","video-keyboard-response","453","1403091","0.0-453.0","eeddyect","","","null","","Agent B","veridical","STIM_SET_1/1593041.bmp_pp58_L1_V1.0_veridical_freeview_isoFalse.mp4",""
"","","","call-function","454","1403092","0.0-454.0","eeddyect","","","","","","","",""
"1537.0499999998137","{""judgement"":1}","[0]","survey-likert","455","1404630","0.0-455.0","eeddyect","","","","","","","","1"
"1098.9299999999348","{""confidence"":1}","[0]","survey-likert","456","1405730","0.0-456.0","eeddyect","","","","","","","",""
"","","","call-function","457","1405730","0.0-457.0","eeddyect","","","","","","","",""
"null","","","html-keyboard-response","458","1407234","0.0-458.0","eeddyect","","<span style=""color:Black; font-size:50px;"">Agent A","null","","","","",""
"null","","","video-keyboard-response","459","1410312","0.0-459.0","eeddyect","","","null","","Agent A","veridical","STIM_SET_1/713017.bmp_pp152_L2_V1.0_veridical_freeview_isoFalse.mp4",""
"null","","","html-keyboard-response","460","1411816","0.0-460.0","eeddyect","","<span style=""color:Black; font-size:50px;"">Agent B","null","","","","",""
"null","","","video-keyboard-response","461","1414890","0.0-461.0","eeddyect","","","null","","Agent B","scrambled","STIM_SET_1/713017.bmp_pp152_L2_V1.0_scrambled_freeview_isoFalse.mp4",""
"","","","call-function","462","1414891","0.0-462.0","eeddyect","","","","","","","",""
"3445.25","{""judgement"":1}","[0]","survey-likert","463","1418337","0.0-463.0","eeddyect","","","","","","","","0"
"1252.1599999999162","{""confidence"":1}","[0]","survey-likert","464","1419590","0.0-464.0","eeddyect","","","","","","","",""
"","","","call-function","465","1419590","0.0-465.0","eeddyect","","","","","","","",""
"null","","","html-keyboard-response","466","1421093","0.0-466.0","eeddyect","","<span style=""color:Black; font-size:50px;"">Agent A","null","","","","",""
"null","","","video-keyboard-response","467","1424159","0.0-467.0","eeddyect","","","null","","Agent A","scrambled","STIM_SET_1/1592351.bmp_pp51_L1_V1.0_scrambled_freeview_isoFalse.mp4",""
"null","","","html-keyboard-response","468","1425664","0.0-468.0","eeddyect","","<span style=""color:Black; font-size:50px;"">Agent B","null","","","","",""
"null","","","video-keyboard-response","469","1428735","0.0-469.0","eeddyect","","","null","","Agent B","veridical","STIM_SET_1/1592351.bmp_pp51_L1_V1.0_veridical_freeview_isoFalse.mp4",""
"","","","call-function","470","1428735","0.0-470.0","eeddyect","","","","","","","",""
"3071.3249999999534","{""judgement"":0}","[0]","survey-likert","471","1431808","0.0-471.0","eeddyect","","","","","","","","1"
"1785.780000000028","{""confidence"":1}","[0]","survey-likert","472","1433595","0.0-472.0","eeddyect","","","","","","","",""
"","","","call-function","473","1433595","0.0-473.0","eeddyect","","","","","","","",""
"null","","","html-keyboard-response","474","1435101","0.0-474.0","eeddyect","","<span style=""color:Black; font-size:50px;"">Agent A","null","","","","",""
"null","","","video-keyboard-response","475","1438182","0.0-475.0","eeddyect","","","null","","Agent A","veridical","STIM_SET_1/61537.bmp_pp73_L3_V1.0_veridical_freeview_isoFalse.mp4",""
"null","","","html-keyboard-response","476","1439683","0.0-476.0","eeddyect","","<span style=""color:Black; font-size:50px;"">Agent B","null","","","","",""
"null","","","video-keyboard-response","477","1442801","0.0-477.0","eeddyect","","","null","","Agent B","scrambled","STIM_SET_1/61537.bmp_pp73_L3_V1.0_scrambled_freeview_isoFalse.mp4",""
"","","","call-function","478","1442801","0.0-478.0","eeddyect","","","","","","","",""
"2888.804999999935","{""judgement"":0}","[0]","survey-likert","479","1445691","0.0-479.0","eeddyect","","","","","","","","0"
"989.4399999999441","{""confidence"":1}","[0]","survey-likert","480","1446682","0.0-480.0","eeddyect","","","","","","","",""
"","","","call-function","481","1446682","0.0-481.0","eeddyect","","","","","","","",""
"null","","","html-keyboard-response","482","1448186","0.0-482.0","eeddyect","","<span style=""color:Black; font-size:50px;"">Agent A","null","","","","",""
"null","","","video-keyboard-response","483","1451308","0.0-483.0","eeddyect","","","null","","Agent A","veridical","STIM_SET_1/713749.bmp_pp88_L2_V1.0_veridical_freeview_isoFalse.mp4",""
"null","","","html-keyboard-response","484","1452810","0.0-484.0","eeddyect","","<span style=""color:Black; font-size:50px;"">Agent B","null","","","","",""
"null","","","video-keyboard-response","485","1455934","0.0-485.0","eeddyect","","","null","","Agent B","scrambled","STIM_SET_1/713749.bmp_pp88_L2_V1.0_scrambled_freeview_isoFalse.mp4",""
"","","","call-function","486","1455934","0.0-486.0","eeddyect","","","","","","","",""
"1590.2099999999627","{""judgement"":1}","[0]","survey-likert","487","1457525","0.0-487.0","eeddyect","","","","","","","","0"
"2029.2000000001863","{""confidence"":1}","[0]","survey-likert","488","1459556","0.0-488.0","eeddyect","","","","","","","",""
"","","","call-function","489","1459556","0.0-489.0","eeddyect","","","","","","","",""
"null","","","html-keyboard-response","490","1461059","0.0-490.0","eeddyect","","<span style=""color:Black; font-size:50px;"">Agent A","null","","","","",""
"null","","","video-keyboard-response","491","1464173","0.0-491.0","eeddyect","","","null","","Agent A","veridical","STIM_SET_1/713135.bmp_pp54_L2_V1.0_veridical_freeview_isoFalse.mp4",""
"null","","","html-keyboard-response","492","1465678","0.0-492.0","eeddyect","","<span style=""color:Black; font-size:50px;"">Agent B","null","","","","",""
"null","","","video-keyboard-response","493","1468794","0.0-493.0","eeddyect","","","null","","Agent B","scrambled","STIM_SET_1/713135.bmp_pp54_L2_V1.0_scrambled_freeview_isoFalse.mp4",""
"","","","call-function","494","1468796","0.0-494.0","eeddyect","","","","","","","",""
"1503.2700000000186","{""judgement"":0}","[0]","survey-likert","495","1470301","0.0-495.0","eeddyect","","","","","","","","0"
"1279.4199999999255","{""confidence"":1}","[0]","survey-likert","496","1471581","0.0-496.0","eeddyect","","","","","","","",""
"1748.910000000149","","","instructions","497","1473331","0.0-497.0","eeddyect","[{""page_index"":0,""viewing_time"":899.0750000001863},{""page_index"":1,""viewing_time"":430.875},{""page_index"":2,""viewing_time"":418.79999999981374}]","","","","","","",""
"1320.4899999999907","","","instructions","498","1474652","0.0-498.0","eeddyect","[{""page_index"":0,""viewing_time"":399.4350000000559},{""page_index"":1,""viewing_time"":494.0649999999441},{""page_index"":2,""viewing_time"":426.8800000001211}]","","","","","","",""
"","","","call-function","499","1474652","0.0-499.0","eeddyect","","","","","","","",""
"null","","","html-keyboard-response","500","1476156","0.0-500.0","eeddyect","","<span style=""color:Black; font-size:50px;"">Agent A","null","","","","",""
"null","","","video-keyboard-response","501","1479225","0.0-501.0","eeddyect","","","null","","Agent A","scrambled","STIM_SET_1/1592619.bmp_pp56_L3_V1.0_scrambled_freeview_isoFalse.mp4",""
"null","","","html-keyboard-response","502","1480727","0.0-502.0","eeddyect","","<span style=""color:Black; font-size:50px;"">Agent B","null","","","","",""
"null","","","video-keyboard-response","503","1483798","0.0-503.0","eeddyect","","","null","","Agent B","veridical","STIM_SET_1/1592619.bmp_pp56_L3_V1.0_veridical_freeview_isoFalse.mp4",""
"","","","call-function","504","1483798","0.0-504.0","eeddyect","","","","","","","",""
"1378.380000000121","{""judgement"":1}","[0]","survey-likert","505","1485178","0.0-505.0","eeddyect","","","","","","","","1"
"930.7399999999907","{""confidence"":1}","[0]","survey-likert","506","1486110","0.0-506.0","eeddyect","","","","","","","",""
"","","","call-function","507","1486110","0.0-507.0","eeddyect","","","","","","","",""
"null","","","html-keyboard-response","508","1487613","0.0-508.0","eeddyect","","<span style=""color:Black; font-size:50px;"">Agent A","null","","","","",""
"null","","","video-keyboard-response","509","1490684","0.0-509.0","eeddyect","","","null","","Agent A","veridical","STIM_SET_1/1592397.bmp_pp85_L3_V1.0_veridical_freeview_isoFalse.mp4",""
"null","","","html-keyboard-response","510","1492187","0.0-510.0","eeddyect","","<span style=""color:Black; font-size:50px;"">Agent B","null","","","","",""
"null","","","video-keyboard-response","511","1495259","0.0-511.0","eeddyect","","","null","","Agent B","scrambled","STIM_SET_1/1592397.bmp_pp85_L3_V1.0_scrambled_freeview_isoFalse.mp4",""
"","","","call-function","512","1495260","0.0-512.0","eeddyect","","","","","","","",""
"6052.135000000009","{""judgement"":1}","[0]","survey-likert","513","1501313","0.0-513.0","eeddyect","","","","","","","","0"
"1100.0849999999627","{""confidence"":1}","[0]","survey-likert","514","1502414","0.0-514.0","eeddyect","","","","","","","",""
"","","","call-function","515","1502415","0.0-515.0","eeddyect","","","","","","","",""
"null","","","html-keyboard-response","516","1503919","0.0-516.0","eeddyect","","<span style=""color:Black; font-size:50px;"">Agent A","null","","","","",""
"null","","","video-keyboard-response","517","1507014","0.0-517.0","eeddyect","","","null","","Agent A","veridical","STIM_SET_1/286001.bmp_pp54_L2_V1.0_veridical_freeview_isoFalse.mp4",""
"null","","","html-keyboard-response","518","1508516","0.0-518.0","eeddyect","","<span style=""color:Black; font-size:50px;"">Agent B","null","","","","",""
"null","","","video-keyboard-response","519","1511612","0.0-519.0","eeddyect","","","null","","Agent B","scrambled","STIM_SET_1/286001.bmp_pp54_L2_V1.0_scrambled_freeview_isoFalse.mp4",""
"","","","call-function","520","1511613","0.0-520.0","eeddyect","","","","","","","",""
"1403.0549999999348","{""judgement"":0}","[0]","survey-likert","521","1513017","0.0-521.0","eeddyect","","","","","","","","0"
"2511.5749999999534","{""confidence"":1}","[0]","survey-likert","522","1515530","0.0-522.0","eeddyect","","","","","","","",""
"","","","call-function","523","1515530","0.0-523.0","eeddyect","","","","","","","",""
"null","","","html-keyboard-response","524","1517036","0.0-524.0","eeddyect","","<span style=""color:Black; font-size:50px;"">Agent A","null","","","","",""
"null","","","video-keyboard-response","525","1520155","0.0-525.0","eeddyect","","","null","","Agent A","scrambled","STIM_SET_1/1592804.bmp_pp91_L3_V1.0_scrambled_freeview_isoFalse.mp4",""
"null","","","html-keyboard-response","526","1521660","0.0-526.0","eeddyect","","<span style=""color:Black; font-size:50px;"">Agent B","null","","","","",""
"null","","","video-keyboard-response","527","1524778","0.0-527.0","eeddyect","","","null","","Agent B","veridical","STIM_SET_1/1592804.bmp_pp91_L3_V1.0_veridical_freeview_isoFalse.mp4",""
"","","","call-function","528","1524779","0.0-528.0","eeddyect","","","","","","","",""
"2347.6699999999255","{""judgement"":1}","[0]","survey-likert","529","1527127","0.0-529.0","eeddyect","","","","","","","","1"
"1252.6899999999441","{""confidence"":1}","[0]","survey-likert","530","1528381","0.0-530.0","eeddyect","","","","","","","",""
"","","","call-function","531","1528382","0.0-531.0","eeddyect","","","","","","","",""
"null","","","html-keyboard-response","532","1529887","0.0-532.0","eeddyect","","<span style=""color:Black; font-size:50px;"">Agent A","null","","","","",""
"null","","","video-keyboard-response","533","1532989","0.0-533.0","eeddyect","","","null","","Agent A","scrambled","STIM_SET_1/1159446.bmp_pp60_L3_V1.0_scrambled_freeview_isoFalse.mp4",""
"null","","","html-keyboard-response","534","1534491","0.0-534.0","eeddyect","","<span style=""color:Black; font-size:50px;"">Agent B","null","","","","",""
"null","","","video-keyboard-response","535","1537597","0.0-535.0","eeddyect","","","null","","Agent B","veridical","STIM_SET_1/1159446.bmp_pp60_L3_V1.0_veridical_freeview_isoFalse.mp4",""
"","","","call-function","536","1537597","0.0-536.0","eeddyect","","","","","","","",""
"3246.725000000093","{""judgement"":1}","[0]","survey-likert","537","1540845","0.0-537.0","eeddyect","","","","","","","","1"
"1667.0149999998976","{""confidence"":1}","[0]","survey-likert","538","1542513","0.0-538.0","eeddyect","","","","","","","",""
"","","","call-function","539","1542514","0.0-539.0","eeddyect","","","","","","","",""
"null","","","html-keyboard-response","540","1544015","0.0-540.0","eeddyect","","<span style=""color:Black; font-size:50px;"">Agent A","null","","","","",""
"null","","","video-keyboard-response","541","1547089","0.0-541.0","eeddyect","","","null","","Agent A","scrambled","STIM_SET_1/1592499.bmp_pp96_L2_V1.0_scrambled_freeview_isoFalse.mp4",""
"null","","","html-keyboard-response","542","1548591","0.0-542.0","eeddyect","","<span style=""color:Black; font-size:50px;"">Agent B","null","","","","",""
"null","","","video-keyboard-response","543","1551666","0.0-543.0","eeddyect","","","null","","Agent B","veridical","STIM_SET_1/1592499.bmp_pp96_L2_V1.0_veridical_freeview_isoFalse.mp4",""
"","","","call-function","544","1551666","0.0-544.0","eeddyect","","","","","","","",""
"1814.8200000000652","{""judgement"":1}","[0]","survey-likert","545","1553482","0.0-545.0","eeddyect","","","","","","","","1"
"1683.625","{""confidence"":1}","[0]","survey-likert","546","1555166","0.0-546.0","eeddyect","","","","","","","",""
"","","","call-function","547","1555167","0.0-547.0","eeddyect","","","","","","","",""
"null","","","html-keyboard-response","548","1556669","0.0-548.0","eeddyect","","<span style=""color:Black; font-size:50px;"">Agent A","null","","","","",""
"null","","","video-keyboard-response","549","1559741","0.0-549.0","eeddyect","","","null","","Agent A","veridical","STIM_SET_1/285905.bmp_pp57_L1_V1.0_veridical_freeview_isoFalse.mp4",""
"null","","","html-keyboard-response","550","1561244","0.0-550.0","eeddyect","","<span style=""color:Black; font-size:50px;"">Agent B","null","","","","",""
"null","","","video-keyboard-response","551","1564322","0.0-551.0","eeddyect","","","null","","Agent B","scrambled","STIM_SET_1/285905.bmp_pp57_L1_V1.0_scrambled_freeview_isoFalse.mp4",""
"","","","call-function","552","1564322","0.0-552.0","eeddyect","","","","","","","",""
"2510.3349999999627","{""judgement"":0}","[0]","survey-likert","553","1566834","0.0-553.0","eeddyect","","","","","","","","0"
"936.1699999999255","{""confidence"":1}","[0]","survey-likert","554","1567771","0.0-554.0","eeddyect","","","","","","","",""
"","","","call-function","555","1567772","0.0-555.0","eeddyect","","","","","","","",""
"null","","","html-keyboard-response","556","1569273","0.0-556.0","eeddyect","","<span style=""color:Black; font-size:50px;"">Agent A","null","","","","",""
"null","","","video-keyboard-response","557","1572387","0.0-557.0","eeddyect","","","null","","Agent A","scrambled","STIM_SET_1/497950.bmp_pp151_L1_V1.0_scrambled_freeview_isoFalse.mp4",""
"null","","","html-keyboard-response","558","1573890","0.0-558.0","eeddyect","","<span style=""color:Black; font-size:50px;"">Agent B","null","","","","",""
"null","","","video-keyboard-response","559","1576964","0.0-559.0","eeddyect","","","null","","Agent B","veridical","STIM_SET_1/497950.bmp_pp151_L1_V1.0_veridical_freeview_isoFalse.mp4",""
"","","","call-function","560","1576965","0.0-560.0","eeddyect","","","","","","","",""
"1536.4599999999627","{""judgement"":1}","[0]","survey-likert","561","1578503","0.0-561.0","eeddyect","","","","","","","","1"
"1441.4599999999627","{""confidence"":2}","[0]","survey-likert","562","1579945","0.0-562.0","eeddyect","","","","","","","",""
"","","","call-function","563","1579946","0.0-563.0","eeddyect","","","","","","","",""
"null","","","html-keyboard-response","564","1581450","0.0-564.0","eeddyect","","<span style=""color:Black; font-size:50px;"">Agent A","null","","","","",""
"null","","","video-keyboard-response","565","1584560","0.0-565.0","eeddyect","","","null","","Agent A","scrambled","STIM_SET_1/1593035.bmp_pp94_L2_V1.0_scrambled_freeview_isoFalse.mp4",""
"null","","","html-keyboard-response","566","1586067","0.0-566.0","eeddyect","","<span style=""color:Black; font-size:50px;"">Agent B","null","","","","",""
"null","","","video-keyboard-response","567","1589178","0.0-567.0","eeddyect","","","null","","Agent B","veridical","STIM_SET_1/1593035.bmp_pp94_L2_V1.0_veridical_freeview_isoFalse.mp4",""
"","","","call-function","568","1589178","0.0-568.0","eeddyect","","","","","","","",""
"1723.089999999851","{""judgement"":1}","[0]","survey-likert","569","1590902","0.0-569.0","eeddyect","","","","","","","","1"
"1370.9799999999814","{""confidence"":1}","[0]","survey-likert","570","1592274","0.0-570.0","eeddyect","","","","","","","",""
"","","","call-function","571","1592275","0.0-571.0","eeddyect","","","","","","","",""
"null","","","html-keyboard-response","572","1593778","0.0-572.0","eeddyect","","<span style=""color:Black; font-size:50px;"">Agent A","null","","","","",""
"null","","","video-keyboard-response","573","1596860","0.0-573.0","eeddyect","","","null","","Agent A","veridical","STIM_SET_1/1591961.bmp_pp67_L2_V1.0_veridical_freeview_isoFalse.mp4",""
"null","","","html-keyboard-response","574","1598364","0.0-574.0","eeddyect","","<span style=""color:Black; font-size:50px;"">Agent B","null","","","","",""
"null","","","video-keyboard-response","575","1601489","0.0-575.0","eeddyect","","","null","","Agent B","scrambled","STIM_SET_1/1591961.bmp_pp67_L2_V1.0_scrambled_freeview_isoFalse.mp4",""
"","","","call-function","576","1601490","0.0-576.0","eeddyect","","","","","","","",""
"1419.4299999999348","{""judgement"":1}","[0]","survey-likert","577","1602910","0.0-577.0","eeddyect","","","","","","","","0"
"1903.940000000177","{""confidence"":1}","[0]","survey-likert","578","1604816","0.0-578.0","eeddyect","","","","","","","",""
"1169.2050000000745","","","instructions","579","1605987","0.0-579.0","eeddyect","[{""page_index"":0,""viewing_time"":1169.0500000000466}]","","","","","","",""
"2580.6650000000373","","","instructions","580","1608568","0.0-580.0","eeddyect","[{""page_index"":0,""viewing_time"":2580.564999999944}]","","","","","","",""
"24114.445000000065","{""post-1"":1}","[0]","survey-likert","581","1632684","0.0-581.0","eeddyect","","","","","","","",""
"5861.444999999832","{""post-1"":1}","[0]","survey-likert","582","1638547","0.0-582.0","eeddyect","","","","","","","",""
"10191.935000000056","{""post-2"":1}","[0]","survey-likert","583","1648740","0.0-583.0","eeddyect","","","","","","","",""
"3921.445000000065","{""post-2"":1}","[0]","survey-likert","584","1652662","0.0-584.0","eeddyect","","","","","","","",""
"11577.23999999999","{""post-3"":1}","[0]","survey-likert","585","1664241","0.0-585.0","eeddyect","","","","","","","",""
"1348.4250000000466","{""post-3"":1}","[0]","survey-likert","586","1665590","0.0-586.0","eeddyect","","","","","","","",""
"11920.370000000112","{""post-4"":2}","[0]","survey-likert","587","1677512","0.0-587.0","eeddyect","","","","","","","",""
"3987.5849999999627","{""post-4"":2}","[0]","survey-likert","588","1681501","0.0-588.0","eeddyect","","","","","","","",""
"12282.589999999851","{""post-5"":0}","[0]","survey-likert","589","1693785","0.0-589.0","eeddyect","","","","","","","",""
"6668.719999999972","{""post-5"":0}","[0]","survey-likert","590","1700454","0.0-590.0","eeddyect","","","","","","","",""
"55107.85999999987","{""Q0"":""It was a bit difficult to differentiate which attentions were more human. The attentions shown seemed to be very similar, so I wasn't confident on many questions.""}","","survey-text","591","1755568","0.0-591.0","eeddyect","","","","","","","",""
"114367.54000000004","{""Q0"":""I thought that attentions randomly jumping around wasn't human, so I thought that attentions moving across/down/up in one general direction was more natural. I also thought that looking at key objects longer was more human.""}","","survey-text","592","1869940","0.0-592.0","eeddyect","","","","","","","",""
"62122.11499999999","{""Q0"":""Differentiating between human and non-human agents - their attentions seemed very similar to me. Sometimes, the order that they looked at things was different, but that didn't always clear things up.""}","","survey-text","593","1932065","0.0-593.0","eeddyect","","","","","","","",""
"26986.49500000011","","","instructions","594","1959053","0.0-594.0","eeddyect","[{""page_index"":0,""viewing_time"":26986.340000000084}]","","","","","","",""
"16451.07999999984","{""Experimenter_end"":[""Printed ID# eeddyect on consent form"",""Given subject SONA credit or payment"",""Given the subject debrief form""]}","[0]","survey-multi-select","595","1975507","0.0-595.0","eeddyect","","","","","","","",""
