"rt","responses","question_order","trial_type","trial_index","time_elapsed","internal_node_id","ID","view_history","stimulus","key_press","value","agent","condition","image","correct_answer"
"181517.515","{""Experimenter"":[""Confirmed subject's identity (ID card)"",""Confirmed normal or corrected-to-normal vision"",""Obtained consent (signature and date)"",""Checked the test room lighting"",""Checked computer screen lighting"",""Checked distance from screen to chin rest (50cm)"",""Cleaned and adjusted chin rest"",""Counterbalanced the order of the tasks"",""Opened the experiment in Firefox"",""Made the experiment full screen"",""Encouraged subject to silence phone, put away distractors, etc.""]}","[0]","survey-multi-select","0","181526","0.0-0.0","enfuq804","","","","","","","",""
"25471.42499999999","","","instructions","1","206999","0.0-1.0","enfuq804","[{""page_index"":0,""viewing_time"":25471.28}]","","","","","","",""
"12359.619999999995","","","instructions","2","219360","0.0-2.0","enfuq804","[{""page_index"":0,""viewing_time"":912.6750000000175},{""page_index"":1,""viewing_time"":1815.109999999986},{""page_index"":0,""viewing_time"":671.0400000000081},{""page_index"":1,""viewing_time"":3665.0050000000047},{""page_index"":2,""viewing_time"":5295.6600000000035}]","","","","","","",""
"1588.4349999999977","","","instructions","3","220949","0.0-3.0","enfuq804","[{""page_index"":0,""viewing_time"":1588.335000000021}]","","","","","","",""
"null","","","video-keyboard-response","4","224022","0.0-4.0","enfuq804","","","null","","","","",""
"12319.179999999993","","","instructions","5","236342","0.0-5.0","enfuq804","[{""page_index"":0,""viewing_time"":1541.5199999999895},{""page_index"":1,""viewing_time"":1944.2750000000233},{""page_index"":2,""viewing_time"":661.7599999999802},{""page_index"":3,""viewing_time"":2939.1450000000186},{""page_index"":4,""viewing_time"":5232.334999999992}]","","","","","","",""
"3514.3150000000023","","","instructions","6","239857","0.0-6.0","enfuq804","[{""page_index"":0,""viewing_time"":3514.2000000000116}]","","","","","","",""
"","","","call-function","7","239858","0.0-7.0","enfuq804","","","","","","","",""
"null","","","html-keyboard-response","8","241363","0.0-8.0","enfuq804","","<span style=""color:Black; font-size:50px;"">Agent A","null","","","","",""
"null","","","video-keyboard-response","9","244101","0.0-9.0","enfuq804","","","null","","Agent A","scrambled","FOR_REV_BLOBBY_STIM/1591954.bmp_pp62_L2_V1.0_veridical_freeview_isoFalse_fps144_reversed_REAL.mp4",""
"null","","","html-keyboard-response","10","245606","0.0-10.0","enfuq804","","<span style=""color:Black; font-size:50px;"">Agent B","null","","","","",""
"null","","","video-keyboard-response","11","248343","0.0-11.0","enfuq804","","","null","","Agent B","veridical","FOR_REV_BLOBBY_STIM/1591954.bmp_pp62_L2_V1.0_veridical_freeview_isoFalse_fps144.mp4",""
"","","","call-function","12","248344","0.0-12.0","enfuq804","","","","","","","",""
"3001.484999999986","{""judgement"":1}","[0]","survey-likert","13","251346","0.0-13.0","enfuq804","","","","","","","","1"
"1808.8649999999907","{""confidence"":0}","[0]","survey-likert","14","253156","0.0-14.0","enfuq804","","","","","","","",""
"","","","call-function","15","253157","0.0-15.0","enfuq804","","","","","","","",""
"null","","","html-keyboard-response","16","254658","0.0-16.0","enfuq804","","<span style=""color:Black; font-size:50px;"">Agent A","null","","","","",""
"null","","","video-keyboard-response","17","257528","0.0-17.0","enfuq804","","","null","","Agent A","veridical","FOR_REV_BLOBBY_STIM/285905.bmp_pp57_L1_V1.0_veridical_freeview_isoFalse_fps144.mp4",""
"null","","","html-keyboard-response","18","259030","0.0-18.0","enfuq804","","<span style=""color:Black; font-size:50px;"">Agent B","null","","","","",""
"null","","","video-keyboard-response","19","261898","0.0-19.0","enfuq804","","","null","","Agent B","scrambled","FOR_REV_BLOBBY_STIM/285905.bmp_pp57_L1_V1.0_veridical_freeview_isoFalse_fps144_reversed_REAL.mp4",""
"","","","call-function","20","261898","0.0-20.0","enfuq804","","","","","","","",""
"2445.904999999999","{""judgement"":0}","[0]","survey-likert","21","264345","0.0-21.0","enfuq804","","","","","","","","0"
"1397.274999999965","{""confidence"":0}","[0]","survey-likert","22","265744","0.0-22.0","enfuq804","","","","","","","",""
"","","","call-function","23","265745","0.0-23.0","enfuq804","","","","","","","",""
"null","","","html-keyboard-response","24","267245","0.0-24.0","enfuq804","","<span style=""color:Black; font-size:50px;"">Agent A","null","","","","",""
"null","","","video-keyboard-response","25","269970","0.0-25.0","enfuq804","","","null","","Agent A","veridical","FOR_REV_BLOBBY_STIM/498170.bmp_pp153_L3_V1.0_veridical_freeview_isoFalse_fps144.mp4",""
"null","","","html-keyboard-response","26","271474","0.0-26.0","enfuq804","","<span style=""color:Black; font-size:50px;"">Agent B","null","","","","",""
"null","","","video-keyboard-response","27","274190","0.0-27.0","enfuq804","","","null","","Agent B","scrambled","FOR_REV_BLOBBY_STIM/498170.bmp_pp153_L3_V1.0_veridical_freeview_isoFalse_fps144_reversed_REAL.mp4",""
"","","","call-function","28","274190","0.0-28.0","enfuq804","","","","","","","",""
"3488.8400000000256","{""judgement"":0}","[0]","survey-likert","29","277680","0.0-29.0","enfuq804","","","","","","","","0"
"4169.804999999993","{""confidence"":0}","[0]","survey-likert","30","281851","0.0-30.0","enfuq804","","","","","","","",""
"","","","call-function","31","281852","0.0-31.0","enfuq804","","","","","","","",""
"null","","","html-keyboard-response","32","283353","0.0-32.0","enfuq804","","<span style=""color:Black; font-size:50px;"">Agent A","null","","","","",""
"null","","","video-keyboard-response","33","286165","0.0-33.0","enfuq804","","","null","","Agent A","scrambled","FOR_REV_BLOBBY_STIM/1592890.bmp_pp82_L2_V1.0_veridical_freeview_isoFalse_fps144_reversed_REAL.mp4",""
"null","","","html-keyboard-response","34","287667","0.0-34.0","enfuq804","","<span style=""color:Black; font-size:50px;"">Agent B","null","","","","",""
"null","","","video-keyboard-response","35","290466","0.0-35.0","enfuq804","","","null","","Agent B","veridical","FOR_REV_BLOBBY_STIM/1592890.bmp_pp82_L2_V1.0_veridical_freeview_isoFalse_fps144.mp4",""
"","","","call-function","36","290467","0.0-36.0","enfuq804","","","","","","","",""
"2016.8800000000047","{""judgement"":0}","[0]","survey-likert","37","292485","0.0-37.0","enfuq804","","","","","","","","1"
"1220.6699999999837","{""confidence"":0}","[0]","survey-likert","38","293707","0.0-38.0","enfuq804","","","","","","","",""
"","","","call-function","39","293707","0.0-39.0","enfuq804","","","","","","","",""
"null","","","html-keyboard-response","40","295210","0.0-40.0","enfuq804","","<span style=""color:Black; font-size:50px;"">Agent A","null","","","","",""
"null","","","video-keyboard-response","41","297877","0.0-41.0","enfuq804","","","null","","Agent A","scrambled","FOR_REV_BLOBBY_STIM/713707.bmp_pp154_L1_V1.0_veridical_freeview_isoFalse_fps144_reversed_REAL.mp4",""
"null","","","html-keyboard-response","42","299382","0.0-42.0","enfuq804","","<span style=""color:Black; font-size:50px;"">Agent B","null","","","","",""
"null","","","video-keyboard-response","43","302050","0.0-43.0","enfuq804","","","null","","Agent B","veridical","FOR_REV_BLOBBY_STIM/713707.bmp_pp154_L1_V1.0_veridical_freeview_isoFalse_fps144.mp4",""
"","","","call-function","44","302050","0.0-44.0","enfuq804","","","","","","","",""
"3154.304999999993","{""judgement"":0}","[0]","survey-likert","45","305205","0.0-45.0","enfuq804","","","","","","","","1"
"1160.5849999999627","{""confidence"":0}","[0]","survey-likert","46","306367","0.0-46.0","enfuq804","","","","","","","",""
"","","","call-function","47","306368","0.0-47.0","enfuq804","","","","","","","",""
"null","","","html-keyboard-response","48","307871","0.0-48.0","enfuq804","","<span style=""color:Black; font-size:50px;"">Agent A","null","","","","",""
"null","","","video-keyboard-response","49","310647","0.0-49.0","enfuq804","","","null","","Agent A","scrambled","FOR_REV_BLOBBY_STIM/1593041.bmp_pp58_L1_V1.0_veridical_freeview_isoFalse_fps144_reversed_REAL.mp4",""
"null","","","html-keyboard-response","50","312152","0.0-50.0","enfuq804","","<span style=""color:Black; font-size:50px;"">Agent B","null","","","","",""
"null","","","video-keyboard-response","51","314930","0.0-51.0","enfuq804","","","null","","Agent B","veridical","FOR_REV_BLOBBY_STIM/1593041.bmp_pp58_L1_V1.0_veridical_freeview_isoFalse_fps144.mp4",""
"","","","call-function","52","314931","0.0-52.0","enfuq804","","","","","","","",""
"3361.7299999999814","{""judgement"":1}","[0]","survey-likert","53","318293","0.0-53.0","enfuq804","","","","","","","","1"
"1336.295000000042","{""confidence"":0}","[0]","survey-likert","54","319631","0.0-54.0","enfuq804","","","","","","","",""
"","","","call-function","55","319631","0.0-55.0","enfuq804","","","","","","","",""
"null","","","html-keyboard-response","56","321136","0.0-56.0","enfuq804","","<span style=""color:Black; font-size:50px;"">Agent A","null","","","","",""
"null","","","video-keyboard-response","57","323858","0.0-57.0","enfuq804","","","null","","Agent A","veridical","FOR_REV_BLOBBY_STIM/285933.bmp_pp81_L1_V1.0_veridical_freeview_isoFalse_fps144.mp4",""
"null","","","html-keyboard-response","58","325361","0.0-58.0","enfuq804","","<span style=""color:Black; font-size:50px;"">Agent B","null","","","","",""
"null","","","video-keyboard-response","59","328092","0.0-59.0","enfuq804","","","null","","Agent B","scrambled","FOR_REV_BLOBBY_STIM/285933.bmp_pp81_L1_V1.0_veridical_freeview_isoFalse_fps144_reversed_REAL.mp4",""
"","","","call-function","60","328093","0.0-60.0","enfuq804","","","","","","","",""
"1600.475000000035","{""judgement"":1}","[0]","survey-likert","61","329694","0.0-61.0","enfuq804","","","","","","","","0"
"1129.210000000021","{""confidence"":0}","[0]","survey-likert","62","330824","0.0-62.0","enfuq804","","","","","","","",""
"","","","call-function","63","330825","0.0-63.0","enfuq804","","","","","","","",""
"null","","","html-keyboard-response","64","332326","0.0-64.0","enfuq804","","<span style=""color:Black; font-size:50px;"">Agent A","null","","","","",""
"null","","","video-keyboard-response","65","334902","0.0-65.0","enfuq804","","","null","","Agent A","scrambled","FOR_REV_BLOBBY_STIM/1592397.bmp_pp85_L3_V1.0_veridical_freeview_isoFalse_fps144_reversed_REAL.mp4",""
"null","","","html-keyboard-response","66","336408","0.0-66.0","enfuq804","","<span style=""color:Black; font-size:50px;"">Agent B","null","","","","",""
"null","","","video-keyboard-response","67","338987","0.0-67.0","enfuq804","","","null","","Agent B","veridical","FOR_REV_BLOBBY_STIM/1592397.bmp_pp85_L3_V1.0_veridical_freeview_isoFalse_fps144.mp4",""
"","","","call-function","68","338987","0.0-68.0","enfuq804","","","","","","","",""
"1765.8400000000256","{""judgement"":1}","[0]","survey-likert","69","340754","0.0-69.0","enfuq804","","","","","","","","1"
"1341.829999999958","{""confidence"":0}","[0]","survey-likert","70","342097","0.0-70.0","enfuq804","","","","","","","",""
"","","","call-function","71","342098","0.0-71.0","enfuq804","","","","","","","",""
"null","","","html-keyboard-response","72","343601","0.0-72.0","enfuq804","","<span style=""color:Black; font-size:50px;"">Agent A","null","","","","",""
"null","","","video-keyboard-response","73","346479","0.0-73.0","enfuq804","","","null","","Agent A","veridical","FOR_REV_BLOBBY_STIM/1160127.bmp_pp90_L2_V1.0_veridical_freeview_isoFalse_fps144.mp4",""
"null","","","html-keyboard-response","74","347980","0.0-74.0","enfuq804","","<span style=""color:Black; font-size:50px;"">Agent B","null","","","","",""
"null","","","video-keyboard-response","75","350845","0.0-75.0","enfuq804","","","null","","Agent B","scrambled","FOR_REV_BLOBBY_STIM/1160127.bmp_pp90_L2_V1.0_veridical_freeview_isoFalse_fps144_reversed_REAL.mp4",""
"","","","call-function","76","350847","0.0-76.0","enfuq804","","","","","","","",""
"27267.589999999967","{""judgement"":1}","[0]","survey-likert","77","378115","0.0-77.0","enfuq804","","","","","","","","0"
"1776.8649999999907","{""confidence"":0}","[0]","survey-likert","78","379893","0.0-78.0","enfuq804","","","","","","","",""
"","","","call-function","79","379894","0.0-79.0","enfuq804","","","","","","","",""
"null","","","html-keyboard-response","80","381397","0.0-80.0","enfuq804","","<span style=""color:Black; font-size:50px;"">Agent A","null","","","","",""
"null","","","video-keyboard-response","81","384110","0.0-81.0","enfuq804","","","null","","Agent A","scrambled","FOR_REV_BLOBBY_STIM/1592372.bmp_pp76_L1_V1.0_veridical_freeview_isoFalse_fps144_reversed_REAL.mp4",""
"null","","","html-keyboard-response","82","385615","0.0-82.0","enfuq804","","<span style=""color:Black; font-size:50px;"">Agent B","null","","","","",""
"null","","","video-keyboard-response","83","388309","0.0-83.0","enfuq804","","","null","","Agent B","veridical","FOR_REV_BLOBBY_STIM/1592372.bmp_pp76_L1_V1.0_veridical_freeview_isoFalse_fps144.mp4",""
"","","","call-function","84","388310","0.0-84.0","enfuq804","","","","","","","",""
"1486.445000000007","{""judgement"":1}","[0]","survey-likert","85","389798","0.0-85.0","enfuq804","","","","","","","","1"
"1754.3150000000023","{""confidence"":0}","[0]","survey-likert","86","391554","0.0-86.0","enfuq804","","","","","","","",""
"20618.815000000002","","","instructions","87","412174","0.0-87.0","enfuq804","[{""page_index"":0,""viewing_time"":1083.085000000021},{""page_index"":1,""viewing_time"":18536.03999999998},{""page_index"":2,""viewing_time"":999.4899999999907}]","","","","","","",""
"7008.164999999979","","","instructions","88","419183","0.0-88.0","enfuq804","[{""page_index"":0,""viewing_time"":658.8999999999651},{""page_index"":1,""viewing_time"":5669.160000000033},{""page_index"":2,""viewing_time"":679.9949999999953}]","","","","","","",""
"","","","call-function","89","419184","0.0-89.0","enfuq804","","","","","","","",""
"null","","","html-keyboard-response","90","420687","0.0-90.0","enfuq804","","<span style=""color:Black; font-size:50px;"">Agent A","null","","","","",""
"null","","","video-keyboard-response","91","423290","0.0-91.0","enfuq804","","","null","","Agent A","scrambled","FOR_REV_BLOBBY_STIM/1593146.bmp_pp93_L1_V1.0_veridical_freeview_isoFalse_fps144_reversed_REAL.mp4",""
"null","","","html-keyboard-response","92","424792","0.0-92.0","enfuq804","","<span style=""color:Black; font-size:50px;"">Agent B","null","","","","",""
"null","","","video-keyboard-response","93","427395","0.0-93.0","enfuq804","","","null","","Agent B","veridical","FOR_REV_BLOBBY_STIM/1593146.bmp_pp93_L1_V1.0_veridical_freeview_isoFalse_fps144.mp4",""
"","","","call-function","94","427395","0.0-94.0","enfuq804","","","","","","","",""
"2549.5499999999884","{""judgement"":0}","[0]","survey-likert","95","429946","0.0-95.0","enfuq804","","","","","","","","1"
"1696.7449999999953","{""confidence"":0}","[0]","survey-likert","96","431644","0.0-96.0","enfuq804","","","","","","","",""
"","","","call-function","97","431645","0.0-97.0","enfuq804","","","","","","","",""
"null","","","html-keyboard-response","98","433147","0.0-98.0","enfuq804","","<span style=""color:Black; font-size:50px;"">Agent A","null","","","","",""
"null","","","video-keyboard-response","99","435938","0.0-99.0","enfuq804","","","null","","Agent A","scrambled","FOR_REV_BLOBBY_STIM/1159768.bmp_pp89_L1_V1.0_veridical_freeview_isoFalse_fps144_reversed_REAL.mp4",""
"null","","","html-keyboard-response","100","437442","0.0-100.0","enfuq804","","<span style=""color:Black; font-size:50px;"">Agent B","null","","","","",""
"null","","","video-keyboard-response","101","440210","0.0-101.0","enfuq804","","","null","","Agent B","veridical","FOR_REV_BLOBBY_STIM/1159768.bmp_pp89_L1_V1.0_veridical_freeview_isoFalse_fps144.mp4",""
"","","","call-function","102","440210","0.0-102.0","enfuq804","","","","","","","",""
"1710.3349999999627","{""judgement"":1}","[0]","survey-likert","103","441922","0.0-103.0","enfuq804","","","","","","","","1"
"2567.6699999999837","{""confidence"":0}","[0]","survey-likert","104","444491","0.0-104.0","enfuq804","","","","","","","",""
"","","","call-function","105","444491","0.0-105.0","enfuq804","","","","","","","",""
"null","","","html-keyboard-response","106","445993","0.0-106.0","enfuq804","","<span style=""color:Black; font-size:50px;"">Agent A","null","","","","",""
"null","","","video-keyboard-response","107","448820","0.0-107.0","enfuq804","","","null","","Agent A","veridical","FOR_REV_BLOBBY_STIM/1159829.bmp_pp91_L3_V1.0_veridical_freeview_isoFalse_fps144.mp4",""
"null","","","html-keyboard-response","108","450327","0.0-108.0","enfuq804","","<span style=""color:Black; font-size:50px;"">Agent B","null","","","","",""
"null","","","video-keyboard-response","109","453132","0.0-109.0","enfuq804","","","null","","Agent B","scrambled","FOR_REV_BLOBBY_STIM/1159829.bmp_pp91_L3_V1.0_veridical_freeview_isoFalse_fps144_reversed_REAL.mp4",""
"","","","call-function","110","453132","0.0-110.0","enfuq804","","","","","","","",""
"1513.5","{""judgement"":0}","[0]","survey-likert","111","454646","0.0-111.0","enfuq804","","","","","","","","0"
"1000.4249999999884","{""confidence"":0}","[0]","survey-likert","112","455648","0.0-112.0","enfuq804","","","","","","","",""
"","","","call-function","113","455649","0.0-113.0","enfuq804","","","","","","","",""
"null","","","html-keyboard-response","114","457152","0.0-114.0","enfuq804","","<span style=""color:Black; font-size:50px;"">Agent A","null","","","","",""
"null","","","video-keyboard-response","115","458773","0.0-115.0","enfuq804","","","null","","Agent A","scrambled","FOR_REV_BLOBBY_STIM/713684.bmp_pp85_L3_V1.0_veridical_freeview_isoFalse_fps144_reversed_REAL.mp4",""
"null","","","html-keyboard-response","116","460277","0.0-116.0","enfuq804","","<span style=""color:Black; font-size:50px;"">Agent B","null","","","","",""
"null","","","video-keyboard-response","117","461895","0.0-117.0","enfuq804","","","null","","Agent B","veridical","FOR_REV_BLOBBY_STIM/713684.bmp_pp85_L3_V1.0_veridical_freeview_isoFalse_fps144.mp4",""
"","","","call-function","118","461896","0.0-118.0","enfuq804","","","","","","","",""
"3005.054999999993","{""judgement"":1}","[0]","survey-likert","119","464901","0.0-119.0","enfuq804","","","","","","","","1"
"1208.9499999999534","{""confidence"":0}","[0]","survey-likert","120","466112","0.0-120.0","enfuq804","","","","","","","",""
"","","","call-function","121","466112","0.0-121.0","enfuq804","","","","","","","",""
"null","","","html-keyboard-response","122","467614","0.0-122.0","enfuq804","","<span style=""color:Black; font-size:50px;"">Agent A","null","","","","",""
"null","","","video-keyboard-response","123","470320","0.0-123.0","enfuq804","","","null","","Agent A","veridical","FOR_REV_BLOBBY_STIM/285994.bmp_pp92_L3_V1.0_veridical_freeview_isoFalse_fps144.mp4",""
"null","","","html-keyboard-response","124","471824","0.0-124.0","enfuq804","","<span style=""color:Black; font-size:50px;"">Agent B","null","","","","",""
"null","","","video-keyboard-response","125","474531","0.0-125.0","enfuq804","","","null","","Agent B","scrambled","FOR_REV_BLOBBY_STIM/285994.bmp_pp92_L3_V1.0_veridical_freeview_isoFalse_fps144_reversed_REAL.mp4",""
"","","","call-function","126","474532","0.0-126.0","enfuq804","","","","","","","",""
"2346.054999999993","{""judgement"":1}","[0]","survey-likert","127","476879","0.0-127.0","enfuq804","","","","","","","","0"
"2062.0149999999558","{""confidence"":0}","[0]","survey-likert","128","478943","0.0-128.0","enfuq804","","","","","","","",""
"","","","call-function","129","478943","0.0-129.0","enfuq804","","","","","","","",""
"null","","","html-keyboard-response","130","480446","0.0-130.0","enfuq804","","<span style=""color:Black; font-size:50px;"">Agent A","null","","","","",""
"null","","","video-keyboard-response","131","483196","0.0-131.0","enfuq804","","","null","","Agent A","veridical","FOR_REV_BLOBBY_STIM/713749.bmp_pp88_L2_V1.0_veridical_freeview_isoFalse_fps144.mp4",""
"null","","","html-keyboard-response","132","484700","0.0-132.0","enfuq804","","<span style=""color:Black; font-size:50px;"">Agent B","null","","","","",""
"null","","","video-keyboard-response","133","487432","0.0-133.0","enfuq804","","","null","","Agent B","scrambled","FOR_REV_BLOBBY_STIM/713749.bmp_pp88_L2_V1.0_veridical_freeview_isoFalse_fps144_reversed_REAL.mp4",""
"","","","call-function","134","487432","0.0-134.0","enfuq804","","","","","","","",""
"1718.039999999979","{""judgement"":0}","[0]","survey-likert","135","489151","0.0-135.0","enfuq804","","","","","","","","0"
"1769.2299999999814","{""confidence"":0}","[0]","survey-likert","136","490922","0.0-136.0","enfuq804","","","","","","","",""
"","","","call-function","137","490922","0.0-137.0","enfuq804","","","","","","","",""
"null","","","html-keyboard-response","138","492425","0.0-138.0","enfuq804","","<span style=""color:Black; font-size:50px;"">Agent A","null","","","","",""
"null","","","video-keyboard-response","139","495188","0.0-139.0","enfuq804","","","null","","Agent A","veridical","FOR_REV_BLOBBY_STIM/1592499.bmp_pp96_L2_V1.0_veridical_freeview_isoFalse_fps144.mp4",""
"null","","","html-keyboard-response","140","496692","0.0-140.0","enfuq804","","<span style=""color:Black; font-size:50px;"">Agent B","null","","","","",""
"null","","","video-keyboard-response","141","499456","0.0-141.0","enfuq804","","","null","","Agent B","scrambled","FOR_REV_BLOBBY_STIM/1592499.bmp_pp96_L2_V1.0_veridical_freeview_isoFalse_fps144_reversed_REAL.mp4",""
"","","","call-function","142","499457","0.0-142.0","enfuq804","","","","","","","",""
"1698.3450000000303","{""judgement"":0}","[0]","survey-likert","143","501156","0.0-143.0","enfuq804","","","","","","","","0"
"1238.609999999986","{""confidence"":0}","[0]","survey-likert","144","502397","0.0-144.0","enfuq804","","","","","","","",""
"","","","call-function","145","502398","0.0-145.0","enfuq804","","","","","","","",""
"null","","","html-keyboard-response","146","503899","0.0-146.0","enfuq804","","<span style=""color:Black; font-size:50px;"">Agent A","null","","","","",""
"null","","","video-keyboard-response","147","506520","0.0-147.0","enfuq804","","","null","","Agent A","veridical","FOR_REV_BLOBBY_STIM/61537.bmp_pp73_L3_V1.0_veridical_freeview_isoFalse_fps144.mp4",""
"null","","","html-keyboard-response","148","508022","0.0-148.0","enfuq804","","<span style=""color:Black; font-size:50px;"">Agent B","null","","","","",""
"null","","","video-keyboard-response","149","510633","0.0-149.0","enfuq804","","","null","","Agent B","scrambled","FOR_REV_BLOBBY_STIM/61537.bmp_pp73_L3_V1.0_veridical_freeview_isoFalse_fps144_reversed_REAL.mp4",""
"","","","call-function","150","510634","0.0-150.0","enfuq804","","","","","","","",""
"2101.6199999999953","{""judgement"":0}","[0]","survey-likert","151","512736","0.0-151.0","enfuq804","","","","","","","","0"
"1349.3000000000466","{""confidence"":0}","[0]","survey-likert","152","514087","0.0-152.0","enfuq804","","","","","","","",""
"","","","call-function","153","514087","0.0-153.0","enfuq804","","","","","","","",""
"null","","","html-keyboard-response","154","515594","0.0-154.0","enfuq804","","<span style=""color:Black; font-size:50px;"">Agent A","null","","","","",""
"null","","","video-keyboard-response","155","518397","0.0-155.0","enfuq804","","","null","","Agent A","scrambled","FOR_REV_BLOBBY_STIM/1159440.bmp_pp98_L1_V1.0_veridical_freeview_isoFalse_fps144_reversed_REAL.mp4",""
"null","","","html-keyboard-response","156","519899","0.0-156.0","enfuq804","","<span style=""color:Black; font-size:50px;"">Agent B","null","","","","",""
"null","","","video-keyboard-response","157","522683","0.0-157.0","enfuq804","","","null","","Agent B","veridical","FOR_REV_BLOBBY_STIM/1159440.bmp_pp98_L1_V1.0_veridical_freeview_isoFalse_fps144.mp4",""
"","","","call-function","158","522684","0.0-158.0","enfuq804","","","","","","","",""
"2048.3800000000047","{""judgement"":0}","[0]","survey-likert","159","524733","0.0-159.0","enfuq804","","","","","","","","1"
"2849.7850000000326","{""confidence"":0}","[0]","survey-likert","160","527584","0.0-160.0","enfuq804","","","","","","","",""
"","","","call-function","161","527585","0.0-161.0","enfuq804","","","","","","","",""
"null","","","html-keyboard-response","162","529087","0.0-162.0","enfuq804","","<span style=""color:Black; font-size:50px;"">Agent A","null","","","","",""
"null","","","video-keyboard-response","163","531934","0.0-163.0","enfuq804","","","null","","Agent A","veridical","FOR_REV_BLOBBY_STIM/713681.bmp_pp86_L2_V1.0_veridical_freeview_isoFalse_fps144.mp4",""
"null","","","html-keyboard-response","164","533437","0.0-164.0","enfuq804","","<span style=""color:Black; font-size:50px;"">Agent B","null","","","","",""
"null","","","video-keyboard-response","165","536251","0.0-165.0","enfuq804","","","null","","Agent B","scrambled","FOR_REV_BLOBBY_STIM/713681.bmp_pp86_L2_V1.0_veridical_freeview_isoFalse_fps144_reversed_REAL.mp4",""
"","","","call-function","166","536251","0.0-166.0","enfuq804","","","","","","","",""
"4799.3450000000885","{""judgement"":0}","[0]","survey-likert","167","541051","0.0-167.0","enfuq804","","","","","","","","0"
"1431.6350000000093","{""confidence"":0}","[0]","survey-likert","168","542484","0.0-168.0","enfuq804","","","","","","","",""
"40130.1050000001","","","instructions","169","582615","0.0-169.0","enfuq804","[{""page_index"":0,""viewing_time"":1996.8350000000792},{""page_index"":1,""viewing_time"":37433.159999999916},{""page_index"":2,""viewing_time"":699.9050000000279}]","","","","","","",""
"3368.539999999921","","","instructions","170","585984","0.0-170.0","enfuq804","[{""page_index"":0,""viewing_time"":903.4949999999953},{""page_index"":1,""viewing_time"":1064.8800000000047},{""page_index"":2,""viewing_time"":1400.0549999999348}]","","","","","","",""
"","","","call-function","171","585984","0.0-171.0","enfuq804","","","","","","","",""
"null","","","html-keyboard-response","172","587486","0.0-172.0","enfuq804","","<span style=""color:Black; font-size:50px;"">Agent A","null","","","","",""
"null","","","video-keyboard-response","173","590055","0.0-173.0","enfuq804","","","null","","Agent A","veridical","FOR_REV_BLOBBY_STIM/1159813.bmp_pp79_L2_V1.0_veridical_freeview_isoFalse_fps144.mp4",""
"null","","","html-keyboard-response","174","591556","0.0-174.0","enfuq804","","<span style=""color:Black; font-size:50px;"">Agent B","null","","","","",""
"null","","","video-keyboard-response","175","594085","0.0-175.0","enfuq804","","","null","","Agent B","scrambled","FOR_REV_BLOBBY_STIM/1159813.bmp_pp79_L2_V1.0_veridical_freeview_isoFalse_fps144_reversed_REAL.mp4",""
"","","","call-function","176","594085","0.0-176.0","enfuq804","","","","","","","",""
"1701.8050000000512","{""judgement"":0}","[0]","survey-likert","177","595788","0.0-177.0","enfuq804","","","","","","","","0"
"1099.4949999999953","{""confidence"":0}","[0]","survey-likert","178","596888","0.0-178.0","enfuq804","","","","","","","",""
"","","","call-function","179","596889","0.0-179.0","enfuq804","","","","","","","",""
"null","","","html-keyboard-response","180","598390","0.0-180.0","enfuq804","","<span style=""color:Black; font-size:50px;"">Agent A","null","","","","",""
"null","","","video-keyboard-response","181","601235","0.0-181.0","enfuq804","","","null","","Agent A","veridical","FOR_REV_BLOBBY_STIM/1159572.bmp_pp71_L1_V1.0_veridical_freeview_isoFalse_fps144.mp4",""
"null","","","html-keyboard-response","182","602740","0.0-182.0","enfuq804","","<span style=""color:Black; font-size:50px;"">Agent B","null","","","","",""
"null","","","video-keyboard-response","183","605599","0.0-183.0","enfuq804","","","null","","Agent B","scrambled","FOR_REV_BLOBBY_STIM/1159572.bmp_pp71_L1_V1.0_veridical_freeview_isoFalse_fps144_reversed_REAL.mp4",""
"","","","call-function","184","605600","0.0-184.0","enfuq804","","","","","","","",""
"1190.155000000028","{""judgement"":0}","[0]","survey-likert","185","606791","0.0-185.0","enfuq804","","","","","","","","0"
"1513.1650000000373","{""confidence"":0}","[0]","survey-likert","186","608305","0.0-186.0","enfuq804","","","","","","","",""
"","","","call-function","187","608306","0.0-187.0","enfuq804","","","","","","","",""
"null","","","html-keyboard-response","188","609811","0.0-188.0","enfuq804","","<span style=""color:Black; font-size:50px;"">Agent A","null","","","","",""
"null","","","video-keyboard-response","189","612589","0.0-189.0","enfuq804","","","null","","Agent A","veridical","FOR_REV_BLOBBY_STIM/498155.bmp_pp61_L2_V1.0_veridical_freeview_isoFalse_fps144.mp4",""
"null","","","html-keyboard-response","190","614096","0.0-190.0","enfuq804","","<span style=""color:Black; font-size:50px;"">Agent B","null","","","","",""
"null","","","video-keyboard-response","191","616905","0.0-191.0","enfuq804","","","null","","Agent B","scrambled","FOR_REV_BLOBBY_STIM/498155.bmp_pp61_L2_V1.0_veridical_freeview_isoFalse_fps144_reversed_REAL.mp4",""
"","","","call-function","192","616905","0.0-192.0","enfuq804","","","","","","","",""
"2577.305000000051","{""judgement"":0}","[0]","survey-likert","193","619484","0.0-193.0","enfuq804","","","","","","","","0"
"1276.0750000000698","{""confidence"":0}","[0]","survey-likert","194","620761","0.0-194.0","enfuq804","","","","","","","",""
"","","","call-function","195","620761","0.0-195.0","enfuq804","","","","","","","",""
"null","","","html-keyboard-response","196","622267","0.0-196.0","enfuq804","","<span style=""color:Black; font-size:50px;"">Agent A","null","","","","",""
"null","","","video-keyboard-response","197","625143","0.0-197.0","enfuq804","","","null","","Agent A","scrambled","FOR_REV_BLOBBY_STIM/497950.bmp_pp151_L1_V1.0_veridical_freeview_isoFalse_fps144_reversed_REAL.mp4",""
"null","","","html-keyboard-response","198","626649","0.0-198.0","enfuq804","","<span style=""color:Black; font-size:50px;"">Agent B","null","","","","",""
"null","","","video-keyboard-response","199","629523","0.0-199.0","enfuq804","","","null","","Agent B","veridical","FOR_REV_BLOBBY_STIM/497950.bmp_pp151_L1_V1.0_veridical_freeview_isoFalse_fps144.mp4",""
"","","","call-function","200","629524","0.0-200.0","enfuq804","","","","","","","",""
"1987.8400000000838","{""judgement"":0}","[0]","survey-likert","201","631513","0.0-201.0","enfuq804","","","","","","","","1"
"1194.7299999999814","{""confidence"":0}","[0]","survey-likert","202","632710","0.0-202.0","enfuq804","","","","","","","",""
"","","","call-function","203","632710","0.0-203.0","enfuq804","","","","","","","",""
"null","","","html-keyboard-response","204","634213","0.0-204.0","enfuq804","","<span style=""color:Black; font-size:50px;"">Agent A","null","","","","",""
"null","","","video-keyboard-response","205","637051","0.0-205.0","enfuq804","","","null","","Agent A","veridical","FOR_REV_BLOBBY_STIM/713403.bmp_pp80_L3_V1.0_veridical_freeview_isoFalse_fps144.mp4",""
"null","","","html-keyboard-response","206","638559","0.0-206.0","enfuq804","","<span style=""color:Black; font-size:50px;"">Agent B","null","","","","",""
"null","","","video-keyboard-response","207","641379","0.0-207.0","enfuq804","","","null","","Agent B","scrambled","FOR_REV_BLOBBY_STIM/713403.bmp_pp80_L3_V1.0_veridical_freeview_isoFalse_fps144_reversed_REAL.mp4",""
"","","","call-function","208","641380","0.0-208.0","enfuq804","","","","","","","",""
"1927.0200000000186","{""judgement"":1}","[0]","survey-likert","209","643308","0.0-209.0","enfuq804","","","","","","","","0"
"961.515000000014","{""confidence"":0}","[0]","survey-likert","210","644271","0.0-210.0","enfuq804","","","","","","","",""
"","","","call-function","211","644272","0.0-211.0","enfuq804","","","","","","","",""
"null","","","html-keyboard-response","212","645774","0.0-212.0","enfuq804","","<span style=""color:Black; font-size:50px;"">Agent A","null","","","","",""
"null","","","video-keyboard-response","213","648587","0.0-213.0","enfuq804","","","null","","Agent A","veridical","FOR_REV_BLOBBY_STIM/1159675.bmp_pp77_L3_V1.0_veridical_freeview_isoFalse_fps144.mp4",""
"null","","","html-keyboard-response","214","650094","0.0-214.0","enfuq804","","<span style=""color:Black; font-size:50px;"">Agent B","null","","","","",""
"null","","","video-keyboard-response","215","652905","0.0-215.0","enfuq804","","","null","","Agent B","scrambled","FOR_REV_BLOBBY_STIM/1159675.bmp_pp77_L3_V1.0_veridical_freeview_isoFalse_fps144_reversed_REAL.mp4",""
"","","","call-function","216","652905","0.0-216.0","enfuq804","","","","","","","",""
"1548.045000000042","{""judgement"":0}","[0]","survey-likert","217","654454","0.0-217.0","enfuq804","","","","","","","","0"
"1285.405000000028","{""confidence"":0}","[0]","survey-likert","218","655741","0.0-218.0","enfuq804","","","","","","","",""
"","","","call-function","219","655741","0.0-219.0","enfuq804","","","","","","","",""
"null","","","html-keyboard-response","220","657245","0.0-220.0","enfuq804","","<span style=""color:Black; font-size:50px;"">Agent A","null","","","","",""
"null","","","video-keyboard-response","221","660115","0.0-221.0","enfuq804","","","null","","Agent A","scrambled","FOR_REV_BLOBBY_STIM/1592807.bmp_pp68_L1_V1.0_veridical_freeview_isoFalse_fps144_reversed_REAL.mp4",""
"null","","","html-keyboard-response","222","661617","0.0-222.0","enfuq804","","<span style=""color:Black; font-size:50px;"">Agent B","null","","","","",""
"null","","","video-keyboard-response","223","664485","0.0-223.0","enfuq804","","","null","","Agent B","veridical","FOR_REV_BLOBBY_STIM/1592807.bmp_pp68_L1_V1.0_veridical_freeview_isoFalse_fps144.mp4",""
"","","","call-function","224","664486","0.0-224.0","enfuq804","","","","","","","",""
"1845.4649999999674","{""judgement"":1}","[0]","survey-likert","225","666332","0.0-225.0","enfuq804","","","","","","","","1"
"2863.6999999999534","{""confidence"":0}","[0]","survey-likert","226","669197","0.0-226.0","enfuq804","","","","","","","",""
"","","","call-function","227","669197","0.0-227.0","enfuq804","","","","","","","",""
"null","","","html-keyboard-response","228","670701","0.0-228.0","enfuq804","","<span style=""color:Black; font-size:50px;"">Agent A","null","","","","",""
"null","","","video-keyboard-response","229","673509","0.0-229.0","enfuq804","","","null","","Agent A","veridical","FOR_REV_BLOBBY_STIM/1159621.bmp_pp92_L3_V1.0_veridical_freeview_isoFalse_fps144.mp4",""
"null","","","html-keyboard-response","230","675016","0.0-230.0","enfuq804","","<span style=""color:Black; font-size:50px;"">Agent B","null","","","","",""
"null","","","video-keyboard-response","231","677811","0.0-231.0","enfuq804","","","null","","Agent B","scrambled","FOR_REV_BLOBBY_STIM/1159621.bmp_pp92_L3_V1.0_veridical_freeview_isoFalse_fps144_reversed_REAL.mp4",""
"","","","call-function","232","677811","0.0-232.0","enfuq804","","","","","","","",""
"1450.0050000000047","{""judgement"":1}","[0]","survey-likert","233","679262","0.0-233.0","enfuq804","","","","","","","","0"
"1275.8099999999395","{""confidence"":0}","[0]","survey-likert","234","680539","0.0-234.0","enfuq804","","","","","","","",""
"","","","call-function","235","680539","0.0-235.0","enfuq804","","","","","","","",""
"null","","","html-keyboard-response","236","682042","0.0-236.0","enfuq804","","<span style=""color:Black; font-size:50px;"">Agent A","null","","","","",""
"null","","","video-keyboard-response","237","684861","0.0-237.0","enfuq804","","","null","","Agent A","veridical","FOR_REV_BLOBBY_STIM/1592362.bmp_pp95_L2_V1.0_veridical_freeview_isoFalse_fps144.mp4",""
"null","","","html-keyboard-response","238","686363","0.0-238.0","enfuq804","","<span style=""color:Black; font-size:50px;"">Agent B","null","","","","",""
"null","","","video-keyboard-response","239","689203","0.0-239.0","enfuq804","","","null","","Agent B","scrambled","FOR_REV_BLOBBY_STIM/1592362.bmp_pp95_L2_V1.0_veridical_freeview_isoFalse_fps144_reversed_REAL.mp4",""
"","","","call-function","240","689203","0.0-240.0","enfuq804","","","","","","","",""
"1430.6650000000373","{""judgement"":0}","[0]","survey-likert","241","690635","0.0-241.0","enfuq804","","","","","","","","0"
"2539.6300000000047","{""confidence"":1}","[0]","survey-likert","242","693176","0.0-242.0","enfuq804","","","","","","","",""
"","","","call-function","243","693176","0.0-243.0","enfuq804","","","","","","","",""
"null","","","html-keyboard-response","244","694678","0.0-244.0","enfuq804","","<span style=""color:Black; font-size:50px;"">Agent A","null","","","","",""
"null","","","video-keyboard-response","245","697391","0.0-245.0","enfuq804","","","null","","Agent A","veridical","FOR_REV_BLOBBY_STIM/1592133.bmp_pp75_L1_V1.0_veridical_freeview_isoFalse_fps144.mp4",""
"null","","","html-keyboard-response","246","698897","0.0-246.0","enfuq804","","<span style=""color:Black; font-size:50px;"">Agent B","null","","","","",""
"null","","","video-keyboard-response","247","701582","0.0-247.0","enfuq804","","","null","","Agent B","scrambled","FOR_REV_BLOBBY_STIM/1592133.bmp_pp75_L1_V1.0_veridical_freeview_isoFalse_fps144_reversed_REAL.mp4",""
"","","","call-function","248","701582","0.0-248.0","enfuq804","","","","","","","",""
"1438.469999999972","{""judgement"":1}","[0]","survey-likert","249","703022","0.0-249.0","enfuq804","","","","","","","","0"
"2284.70000000007","{""confidence"":0}","[0]","survey-likert","250","705307","0.0-250.0","enfuq804","","","","","","","",""
"23374.144999999902","","","instructions","251","728682","0.0-251.0","enfuq804","[{""page_index"":0,""viewing_time"":16367.964999999967},{""page_index"":1,""viewing_time"":4092.304999999935},{""page_index"":2,""viewing_time"":2913.680000000051}]","","","","","","",""
"5430.6900000000605","","","instructions","252","734113","0.0-252.0","enfuq804","[{""page_index"":0,""viewing_time"":3872.280000000028},{""page_index"":1,""viewing_time"":1003.3800000000047},{""page_index"":2,""viewing_time"":554.9150000000373}]","","","","","","",""
"","","","call-function","253","734114","0.0-253.0","enfuq804","","","","","","","",""
"null","","","html-keyboard-response","254","735617","0.0-254.0","enfuq804","","<span style=""color:Black; font-size:50px;"">Agent A","null","","","","",""
"null","","","video-keyboard-response","255","738334","0.0-255.0","enfuq804","","","null","","Agent A","veridical","FOR_REV_BLOBBY_STIM/1592817.bmp_pp55_L3_V1.0_veridical_freeview_isoFalse_fps144.mp4",""
"null","","","html-keyboard-response","256","739839","0.0-256.0","enfuq804","","<span style=""color:Black; font-size:50px;"">Agent B","null","","","","",""
"null","","","video-keyboard-response","257","742539","0.0-257.0","enfuq804","","","null","","Agent B","scrambled","FOR_REV_BLOBBY_STIM/1592817.bmp_pp55_L3_V1.0_veridical_freeview_isoFalse_fps144_reversed_REAL.mp4",""
"","","","call-function","258","742540","0.0-258.0","enfuq804","","","","","","","",""
"2220.4949999999953","{""judgement"":0}","[0]","survey-likert","259","744761","0.0-259.0","enfuq804","","","","","","","","0"
"1679.9000000000233","{""confidence"":1}","[0]","survey-likert","260","746442","0.0-260.0","enfuq804","","","","","","","",""
"","","","call-function","261","746443","0.0-261.0","enfuq804","","","","","","","",""
"null","","","html-keyboard-response","262","747945","0.0-262.0","enfuq804","","<span style=""color:Black; font-size:50px;"">Agent A","null","","","","",""
"null","","","video-keyboard-response","263","750832","0.0-263.0","enfuq804","","","null","","Agent A","veridical","FOR_REV_BLOBBY_STIM/1592657.bmp_pp98_L1_V1.0_veridical_freeview_isoFalse_fps144.mp4",""
"null","","","html-keyboard-response","264","752339","0.0-264.0","enfuq804","","<span style=""color:Black; font-size:50px;"">Agent B","null","","","","",""
"null","","","video-keyboard-response","265","755190","0.0-265.0","enfuq804","","","null","","Agent B","scrambled","FOR_REV_BLOBBY_STIM/1592657.bmp_pp98_L1_V1.0_veridical_freeview_isoFalse_fps144_reversed_REAL.mp4",""
"","","","call-function","266","755191","0.0-266.0","enfuq804","","","","","","","",""
"1806.1300000000047","{""judgement"":0}","[0]","survey-likert","267","756999","0.0-267.0","enfuq804","","","","","","","","0"
"1460.7750000000233","{""confidence"":1}","[0]","survey-likert","268","758461","0.0-268.0","enfuq804","","","","","","","",""
"","","","call-function","269","758462","0.0-269.0","enfuq804","","","","","","","",""
"null","","","html-keyboard-response","270","759969","0.0-270.0","enfuq804","","<span style=""color:Black; font-size:50px;"">Agent A","null","","","","",""
"null","","","video-keyboard-response","271","762874","0.0-271.0","enfuq804","","","null","","Agent A","scrambled","FOR_REV_BLOBBY_STIM/1593035.bmp_pp94_L2_V1.0_veridical_freeview_isoFalse_fps144_reversed_REAL.mp4",""
"null","","","html-keyboard-response","272","764377","0.0-272.0","enfuq804","","<span style=""color:Black; font-size:50px;"">Agent B","null","","","","",""
"null","","","video-keyboard-response","273","767238","0.0-273.0","enfuq804","","","null","","Agent B","veridical","FOR_REV_BLOBBY_STIM/1593035.bmp_pp94_L2_V1.0_veridical_freeview_isoFalse_fps144.mp4",""
"","","","call-function","274","767238","0.0-274.0","enfuq804","","","","","","","",""
"1292.5850000000792","{""judgement"":0}","[0]","survey-likert","275","768532","0.0-275.0","enfuq804","","","","","","","","1"
"2332.1300000000047","{""confidence"":1}","[0]","survey-likert","276","770865","0.0-276.0","enfuq804","","","","","","","",""
"","","","call-function","277","770866","0.0-277.0","enfuq804","","","","","","","",""
"null","","","html-keyboard-response","278","772372","0.0-278.0","enfuq804","","<span style=""color:Black; font-size:50px;"">Agent A","null","","","","",""
"null","","","video-keyboard-response","279","775260","0.0-279.0","enfuq804","","","null","","Agent A","veridical","FOR_REV_BLOBBY_STIM/1159447.bmp_pp70_L2_V1.0_veridical_freeview_isoFalse_fps144.mp4",""
"null","","","html-keyboard-response","280","776764","0.0-280.0","enfuq804","","<span style=""color:Black; font-size:50px;"">Agent B","null","","","","",""
"null","","","video-keyboard-response","281","779615","0.0-281.0","enfuq804","","","null","","Agent B","scrambled","FOR_REV_BLOBBY_STIM/1159447.bmp_pp70_L2_V1.0_veridical_freeview_isoFalse_fps144_reversed_REAL.mp4",""
"","","","call-function","282","779615","0.0-282.0","enfuq804","","","","","","","",""
"2402.984999999986","{""judgement"":0}","[0]","survey-likert","283","782019","0.0-283.0","enfuq804","","","","","","","","0"
"1827.469999999972","{""confidence"":2}","[0]","survey-likert","284","783848","0.0-284.0","enfuq804","","","","","","","",""
"","","","call-function","285","783848","0.0-285.0","enfuq804","","","","","","","",""
"null","","","html-keyboard-response","286","785351","0.0-286.0","enfuq804","","<span style=""color:Black; font-size:50px;"">Agent A","null","","","","",""
"null","","","video-keyboard-response","287","788129","0.0-287.0","enfuq804","","","null","","Agent A","veridical","FOR_REV_BLOBBY_STIM/1592581.bmp_pp100_L3_V1.0_veridical_freeview_isoFalse_fps144.mp4",""
"null","","","html-keyboard-response","288","789633","0.0-288.0","enfuq804","","<span style=""color:Black; font-size:50px;"">Agent B","null","","","","",""
"null","","","video-keyboard-response","289","792412","0.0-289.0","enfuq804","","","null","","Agent B","scrambled","FOR_REV_BLOBBY_STIM/1592581.bmp_pp100_L3_V1.0_veridical_freeview_isoFalse_fps144_reversed_REAL.mp4",""
"","","","call-function","290","792413","0.0-290.0","enfuq804","","","","","","","",""
"1526.4000000000233","{""judgement"":0}","[0]","survey-likert","291","793940","0.0-291.0","enfuq804","","","","","","","","0"
"1759.4300000000512","{""confidence"":2}","[0]","survey-likert","292","795701","0.0-292.0","enfuq804","","","","","","","",""
"","","","call-function","293","795701","0.0-293.0","enfuq804","","","","","","","",""
"null","","","html-keyboard-response","294","797204","0.0-294.0","enfuq804","","<span style=""color:Black; font-size:50px;"">Agent A","null","","","","",""
"null","","","video-keyboard-response","295","799989","0.0-295.0","enfuq804","","","null","","Agent A","veridical","FOR_REV_BLOBBY_STIM/1592804.bmp_pp91_L3_V1.0_veridical_freeview_isoFalse_fps144.mp4",""
"null","","","html-keyboard-response","296","801491","0.0-296.0","enfuq804","","<span style=""color:Black; font-size:50px;"">Agent B","null","","","","",""
"null","","","video-keyboard-response","297","804377","0.0-297.0","enfuq804","","","null","","Agent B","scrambled","FOR_REV_BLOBBY_STIM/1592804.bmp_pp91_L3_V1.0_veridical_freeview_isoFalse_fps144_reversed_REAL.mp4",""
"","","","call-function","298","804378","0.0-298.0","enfuq804","","","","","","","",""
"1817.4100000000326","{""judgement"":1}","[0]","survey-likert","299","806196","0.0-299.0","enfuq804","","","","","","","","0"
"1487.265000000014","{""confidence"":2}","[0]","survey-likert","300","807685","0.0-300.0","enfuq804","","","","","","","",""
"","","","call-function","301","807685","0.0-301.0","enfuq804","","","","","","","",""
"null","","","html-keyboard-response","302","809188","0.0-302.0","enfuq804","","<span style=""color:Black; font-size:50px;"">Agent A","null","","","","",""
"null","","","video-keyboard-response","303","812050","0.0-303.0","enfuq804","","","null","","Agent A","veridical","FOR_REV_BLOBBY_STIM/1592286.bmp_pp52_L1_V1.0_veridical_freeview_isoFalse_fps144.mp4",""
"null","","","html-keyboard-response","304","813556","0.0-304.0","enfuq804","","<span style=""color:Black; font-size:50px;"">Agent B","null","","","","",""
"null","","","video-keyboard-response","305","816400","0.0-305.0","enfuq804","","","null","","Agent B","scrambled","FOR_REV_BLOBBY_STIM/1592286.bmp_pp52_L1_V1.0_veridical_freeview_isoFalse_fps144_reversed_REAL.mp4",""
"","","","call-function","306","816400","0.0-306.0","enfuq804","","","","","","","",""
"1182.2799999999115","{""judgement"":0}","[0]","survey-likert","307","817583","0.0-307.0","enfuq804","","","","","","","","0"
"1091.734999999986","{""confidence"":2}","[0]","survey-likert","308","818676","0.0-308.0","enfuq804","","","","","","","",""
"","","","call-function","309","818677","0.0-309.0","enfuq804","","","","","","","",""
"null","","","html-keyboard-response","310","820179","0.0-310.0","enfuq804","","<span style=""color:Black; font-size:50px;"">Agent A","null","","","","",""
"null","","","video-keyboard-response","311","822738","0.0-311.0","enfuq804","","","null","","Agent A","veridical","FOR_REV_BLOBBY_STIM/713796.bmp_pp84_L3_V1.0_veridical_freeview_isoFalse_fps144.mp4",""
"null","","","html-keyboard-response","312","824244","0.0-312.0","enfuq804","","<span style=""color:Black; font-size:50px;"">Agent B","null","","","","",""
"null","","","video-keyboard-response","313","826764","0.0-313.0","enfuq804","","","null","","Agent B","scrambled","FOR_REV_BLOBBY_STIM/713796.bmp_pp84_L3_V1.0_veridical_freeview_isoFalse_fps144_reversed_REAL.mp4",""
"","","","call-function","314","826764","0.0-314.0","enfuq804","","","","","","","",""
"2109.284999999916","{""judgement"":0}","[0]","survey-likert","315","828875","0.0-315.0","enfuq804","","","","","","","","0"
"994.5050000000047","{""confidence"":2}","[0]","survey-likert","316","829870","0.0-316.0","enfuq804","","","","","","","",""
"","","","call-function","317","829871","0.0-317.0","enfuq804","","","","","","","",""
"null","","","html-keyboard-response","318","831376","0.0-318.0","enfuq804","","<span style=""color:Black; font-size:50px;"">Agent A","null","","","","",""
"null","","","video-keyboard-response","319","833922","0.0-319.0","enfuq804","","","null","","Agent A","scrambled","FOR_REV_BLOBBY_STIM/1159515.bmp_pp84_L3_V1.0_veridical_freeview_isoFalse_fps144_reversed_REAL.mp4",""
"null","","","html-keyboard-response","320","835425","0.0-320.0","enfuq804","","<span style=""color:Black; font-size:50px;"">Agent B","null","","","","",""
"null","","","video-keyboard-response","321","837950","0.0-321.0","enfuq804","","","null","","Agent B","veridical","FOR_REV_BLOBBY_STIM/1159515.bmp_pp84_L3_V1.0_veridical_freeview_isoFalse_fps144.mp4",""
"","","","call-function","322","837950","0.0-322.0","enfuq804","","","","","","","",""
"2308.939999999944","{""judgement"":0}","[0]","survey-likert","323","840260","0.0-323.0","enfuq804","","","","","","","","1"
"1384.4499999999534","{""confidence"":0}","[0]","survey-likert","324","841646","0.0-324.0","enfuq804","","","","","","","",""
"","","","call-function","325","841646","0.0-325.0","enfuq804","","","","","","","",""
"null","","","html-keyboard-response","326","843151","0.0-326.0","enfuq804","","<span style=""color:Black; font-size:50px;"">Agent A","null","","","","",""
"null","","","video-keyboard-response","327","845939","0.0-327.0","enfuq804","","","null","","Agent A","veridical","FOR_REV_BLOBBY_STIM/1592934.bmp_pp63_L1_V1.0_veridical_freeview_isoFalse_fps144.mp4",""
"null","","","html-keyboard-response","328","847441","0.0-328.0","enfuq804","","<span style=""color:Black; font-size:50px;"">Agent B","null","","","","",""
"null","","","video-keyboard-response","329","850158","0.0-329.0","enfuq804","","","null","","Agent B","scrambled","FOR_REV_BLOBBY_STIM/1592934.bmp_pp63_L1_V1.0_veridical_freeview_isoFalse_fps144_reversed_REAL.mp4",""
"","","","call-function","330","850159","0.0-330.0","enfuq804","","","","","","","",""
"1330.6699999999255","{""judgement"":0}","[0]","survey-likert","331","851491","0.0-331.0","enfuq804","","","","","","","","0"
"1188.8649999999907","{""confidence"":1}","[0]","survey-likert","332","852681","0.0-332.0","enfuq804","","","","","","","",""
"36377.58499999996","","","instructions","333","889060","0.0-333.0","enfuq804","[{""page_index"":0,""viewing_time"":6379.814999999944},{""page_index"":1,""viewing_time"":27423.834999999963},{""page_index"":2,""viewing_time"":2573.734999999986}]","","","","","","",""
"2643.1900000000605","","","instructions","334","891705","0.0-334.0","enfuq804","[{""page_index"":0,""viewing_time"":1474.5250000000233},{""page_index"":1,""viewing_time"":706.5649999999441},{""page_index"":2,""viewing_time"":461.98499999998603}]","","","","","","",""
"","","","call-function","335","891706","0.0-335.0","enfuq804","","","","","","","",""
"null","","","html-keyboard-response","336","893212","0.0-336.0","enfuq804","","<span style=""color:Black; font-size:50px;"">Agent A","null","","","","",""
"null","","","video-keyboard-response","337","895769","0.0-337.0","enfuq804","","","null","","Agent A","veridical","FOR_REV_BLOBBY_STIM/713760.bmp_pp81_L1_V1.0_veridical_freeview_isoFalse_fps144.mp4",""
"null","","","html-keyboard-response","338","897271","0.0-338.0","enfuq804","","<span style=""color:Black; font-size:50px;"">Agent B","null","","","","",""
"null","","","video-keyboard-response","339","899814","0.0-339.0","enfuq804","","","null","","Agent B","scrambled","FOR_REV_BLOBBY_STIM/713760.bmp_pp81_L1_V1.0_veridical_freeview_isoFalse_fps144_reversed_REAL.mp4",""
"","","","call-function","340","899815","0.0-340.0","enfuq804","","","","","","","",""
"1956.8699999999953","{""judgement"":1}","[0]","survey-likert","341","901773","0.0-341.0","enfuq804","","","","","","","","0"
"2280.140000000014","{""confidence"":0}","[0]","survey-likert","342","904055","0.0-342.0","enfuq804","","","","","","","",""
"","","","call-function","343","904055","0.0-343.0","enfuq804","","","","","","","",""
"null","","","html-keyboard-response","344","905560","0.0-344.0","enfuq804","","<span style=""color:Black; font-size:50px;"">Agent A","null","","","","",""
"null","","","video-keyboard-response","345","908377","0.0-345.0","enfuq804","","","null","","Agent A","scrambled","FOR_REV_BLOBBY_STIM/713666.bmp_pp97_L3_V1.0_veridical_freeview_isoFalse_fps144_reversed_REAL.mp4",""
"null","","","html-keyboard-response","346","909879","0.0-346.0","enfuq804","","<span style=""color:Black; font-size:50px;"">Agent B","null","","","","",""
"null","","","video-keyboard-response","347","912693","0.0-347.0","enfuq804","","","null","","Agent B","veridical","FOR_REV_BLOBBY_STIM/713666.bmp_pp97_L3_V1.0_veridical_freeview_isoFalse_fps144.mp4",""
"","","","call-function","348","912693","0.0-348.0","enfuq804","","","","","","","",""
"1329.2149999999674","{""judgement"":1}","[0]","survey-likert","349","914023","0.0-349.0","enfuq804","","","","","","","","1"
"1088.9899999999907","{""confidence"":0}","[0]","survey-likert","350","915114","0.0-350.0","enfuq804","","","","","","","",""
"","","","call-function","351","915114","0.0-351.0","enfuq804","","","","","","","",""
"null","","","html-keyboard-response","352","916619","0.0-352.0","enfuq804","","<span style=""color:Black; font-size:50px;"">Agent A","null","","","","",""
"null","","","video-keyboard-response","353","919462","0.0-353.0","enfuq804","","","null","","Agent A","veridical","FOR_REV_BLOBBY_STIM/498175.bmp_pp154_L1_V1.0_veridical_freeview_isoFalse_fps144.mp4",""
"null","","","html-keyboard-response","354","920969","0.0-354.0","enfuq804","","<span style=""color:Black; font-size:50px;"">Agent B","null","","","","",""
"null","","","video-keyboard-response","355","923787","0.0-355.0","enfuq804","","","null","","Agent B","scrambled","FOR_REV_BLOBBY_STIM/498175.bmp_pp154_L1_V1.0_veridical_freeview_isoFalse_fps144_reversed_REAL.mp4",""
"","","","call-function","356","923788","0.0-356.0","enfuq804","","","","","","","",""
"1159.719999999972","{""judgement"":0}","[0]","survey-likert","357","924948","0.0-357.0","enfuq804","","","","","","","","0"
"1857.969999999972","{""confidence"":2}","[0]","survey-likert","358","926807","0.0-358.0","enfuq804","","","","","","","",""
"","","","call-function","359","926808","0.0-359.0","enfuq804","","","","","","","",""
"null","","","html-keyboard-response","360","928311","0.0-360.0","enfuq804","","<span style=""color:Black; font-size:50px;"">Agent A","null","","","","",""
"null","","","video-keyboard-response","361","930931","0.0-361.0","enfuq804","","","null","","Agent A","scrambled","FOR_REV_BLOBBY_STIM/286001.bmp_pp54_L2_V1.0_veridical_freeview_isoFalse_fps144_reversed_REAL.mp4",""
"null","","","html-keyboard-response","362","932434","0.0-362.0","enfuq804","","<span style=""color:Black; font-size:50px;"">Agent B","null","","","","",""
"null","","","video-keyboard-response","363","935057","0.0-363.0","enfuq804","","","null","","Agent B","veridical","FOR_REV_BLOBBY_STIM/286001.bmp_pp54_L2_V1.0_veridical_freeview_isoFalse_fps144.mp4",""
"","","","call-function","364","935057","0.0-364.0","enfuq804","","","","","","","",""
"2037.204999999958","{""judgement"":1}","[0]","survey-likert","365","937095","0.0-365.0","enfuq804","","","","","","","","1"
"847.7949999999255","{""confidence"":2}","[0]","survey-likert","366","937944","0.0-366.0","enfuq804","","","","","","","",""
"","","","call-function","367","937945","0.0-367.0","enfuq804","","","","","","","",""
"null","","","html-keyboard-response","368","939447","0.0-368.0","enfuq804","","<span style=""color:Black; font-size:50px;"">Agent A","null","","","","",""
"null","","","video-keyboard-response","369","942174","0.0-369.0","enfuq804","","","null","","Agent A","scrambled","FOR_REV_BLOBBY_STIM/1160168.bmp_pp53_L2_V1.0_veridical_freeview_isoFalse_fps144_reversed_REAL.mp4",""
"null","","","html-keyboard-response","370","943675","0.0-370.0","enfuq804","","<span style=""color:Black; font-size:50px;"">Agent B","null","","","","",""
"null","","","video-keyboard-response","371","946413","0.0-371.0","enfuq804","","","null","","Agent B","veridical","FOR_REV_BLOBBY_STIM/1160168.bmp_pp53_L2_V1.0_veridical_freeview_isoFalse_fps144.mp4",""
"","","","call-function","372","946414","0.0-372.0","enfuq804","","","","","","","",""
"1625.6650000000373","{""judgement"":1}","[0]","survey-likert","373","948040","0.0-373.0","enfuq804","","","","","","","","1"
"2605.070000000065","{""confidence"":1}","[0]","survey-likert","374","950647","0.0-374.0","enfuq804","","","","","","","",""
"","","","call-function","375","950648","0.0-375.0","enfuq804","","","","","","","",""
"null","","","html-keyboard-response","376","952151","0.0-376.0","enfuq804","","<span style=""color:Black; font-size:50px;"">Agent A","null","","","","",""
"null","","","video-keyboard-response","377","954946","0.0-377.0","enfuq804","","","null","","Agent A","scrambled","FOR_REV_BLOBBY_STIM/1159855.bmp_pp99_L2_V1.0_veridical_freeview_isoFalse_fps144_reversed_REAL.mp4",""
"null","","","html-keyboard-response","378","956450","0.0-378.0","enfuq804","","<span style=""color:Black; font-size:50px;"">Agent B","null","","","","",""
"null","","","video-keyboard-response","379","959239","0.0-379.0","enfuq804","","","null","","Agent B","veridical","FOR_REV_BLOBBY_STIM/1159855.bmp_pp99_L2_V1.0_veridical_freeview_isoFalse_fps144.mp4",""
"","","","call-function","380","959240","0.0-380.0","enfuq804","","","","","","","",""
"1457.795000000042","{""judgement"":1}","[0]","survey-likert","381","960699","0.0-381.0","enfuq804","","","","","","","","1"
"2632.0749999999534","{""confidence"":2}","[0]","survey-likert","382","963332","0.0-382.0","enfuq804","","","","","","","",""
"","","","call-function","383","963332","0.0-383.0","enfuq804","","","","","","","",""
"null","","","html-keyboard-response","384","964835","0.0-384.0","enfuq804","","<span style=""color:Black; font-size:50px;"">Agent A","null","","","","",""
"null","","","video-keyboard-response","385","967464","0.0-385.0","enfuq804","","","null","","Agent A","scrambled","FOR_REV_BLOBBY_STIM/498149.bmp_pp99_L2_V1.0_veridical_freeview_isoFalse_fps144_reversed_REAL.mp4",""
"null","","","html-keyboard-response","386","968965","0.0-386.0","enfuq804","","<span style=""color:Black; font-size:50px;"">Agent B","null","","","","",""
"null","","","video-keyboard-response","387","971625","0.0-387.0","enfuq804","","","null","","Agent B","veridical","FOR_REV_BLOBBY_STIM/498149.bmp_pp99_L2_V1.0_veridical_freeview_isoFalse_fps144.mp4",""
"","","","call-function","388","971625","0.0-388.0","enfuq804","","","","","","","",""
"1609.8199999999488","{""judgement"":1}","[0]","survey-likert","389","973236","0.0-389.0","enfuq804","","","","","","","","1"
"2012.1750000000466","{""confidence"":0}","[0]","survey-likert","390","975249","0.0-390.0","enfuq804","","","","","","","",""
"","","","call-function","391","975250","0.0-391.0","enfuq804","","","","","","","",""
"null","","","html-keyboard-response","392","976756","0.0-392.0","enfuq804","","<span style=""color:Black; font-size:50px;"">Agent A","null","","","","",""
"null","","","video-keyboard-response","393","979429","0.0-393.0","enfuq804","","","null","","Agent A","veridical","FOR_REV_BLOBBY_STIM/1592727.bmp_pp59_L3_V1.0_veridical_freeview_isoFalse_fps144.mp4",""
"null","","","html-keyboard-response","394","980932","0.0-394.0","enfuq804","","<span style=""color:Black; font-size:50px;"">Agent B","null","","","","",""
"null","","","video-keyboard-response","395","983628","0.0-395.0","enfuq804","","","null","","Agent B","scrambled","FOR_REV_BLOBBY_STIM/1592727.bmp_pp59_L3_V1.0_veridical_freeview_isoFalse_fps144_reversed_REAL.mp4",""
"","","","call-function","396","983629","0.0-396.0","enfuq804","","","","","","","",""
"1586.4850000001024","{""judgement"":0}","[0]","survey-likert","397","985217","0.0-397.0","enfuq804","","","","","","","","0"
"1231.9000000000233","{""confidence"":0}","[0]","survey-likert","398","986450","0.0-398.0","enfuq804","","","","","","","",""
"","","","call-function","399","986452","0.0-399.0","enfuq804","","","","","","","",""
"null","","","html-keyboard-response","400","987956","0.0-400.0","enfuq804","","<span style=""color:Black; font-size:50px;"">Agent A","null","","","","",""
"null","","","video-keyboard-response","401","990730","0.0-401.0","enfuq804","","","null","","Agent A","veridical","FOR_REV_BLOBBY_STIM/1591994.bmp_pp69_L3_V1.0_veridical_freeview_isoFalse_fps144.mp4",""
"null","","","html-keyboard-response","402","992235","0.0-402.0","enfuq804","","<span style=""color:Black; font-size:50px;"">Agent B","null","","","","",""
"null","","","video-keyboard-response","403","995030","0.0-403.0","enfuq804","","","null","","Agent B","scrambled","FOR_REV_BLOBBY_STIM/1591994.bmp_pp69_L3_V1.0_veridical_freeview_isoFalse_fps144_reversed_REAL.mp4",""
"","","","call-function","404","995031","0.0-404.0","enfuq804","","","","","","","",""
"1822.1850000000559","{""judgement"":0}","[0]","survey-likert","405","996854","0.0-405.0","enfuq804","","","","","","","","0"
"1726.1650000000373","{""confidence"":1}","[0]","survey-likert","406","998582","0.0-406.0","enfuq804","","","","","","","",""
"","","","call-function","407","998583","0.0-407.0","enfuq804","","","","","","","",""
"null","","","html-keyboard-response","408","1000087","0.0-408.0","enfuq804","","<span style=""color:Black; font-size:50px;"">Agent A","null","","","","",""
"null","","","video-keyboard-response","409","1002916","0.0-409.0","enfuq804","","","null","","Agent A","scrambled","FOR_REV_BLOBBY_STIM/1159882.bmp_pp61_L2_V1.0_veridical_freeview_isoFalse_fps144_reversed_REAL.mp4",""
"null","","","html-keyboard-response","410","1004418","0.0-410.0","enfuq804","","<span style=""color:Black; font-size:50px;"">Agent B","null","","","","",""
"null","","","video-keyboard-response","411","1007238","0.0-411.0","enfuq804","","","null","","Agent B","veridical","FOR_REV_BLOBBY_STIM/1159882.bmp_pp61_L2_V1.0_veridical_freeview_isoFalse_fps144.mp4",""
"","","","call-function","412","1007239","0.0-412.0","enfuq804","","","","","","","",""
"2507.0050000000047","{""judgement"":1}","[0]","survey-likert","413","1009747","0.0-413.0","enfuq804","","","","","","","","1"
"2638.935000000056","{""confidence"":0}","[0]","survey-likert","414","1012387","0.0-414.0","enfuq804","","","","","","","",""
"10005.910000000033","","","instructions","415","1022394","0.0-415.0","enfuq804","[{""page_index"":0,""viewing_time"":7069.614999999991},{""page_index"":1,""viewing_time"":2041.875},{""page_index"":2,""viewing_time"":894.1149999999907}]","","","","","","",""
"2669.710000000079","","","instructions","416","1025064","0.0-416.0","enfuq804","[{""page_index"":0,""viewing_time"":1177.1300000000047},{""page_index"":1,""viewing_time"":922.875},{""page_index"":2,""viewing_time"":569.4700000000885}]","","","","","","",""
"","","","call-function","417","1025065","0.0-417.0","enfuq804","","","","","","","",""
"null","","","html-keyboard-response","418","1026565","0.0-418.0","enfuq804","","<span style=""color:Black; font-size:50px;"">Agent A","null","","","","",""
"null","","","video-keyboard-response","419","1029420","0.0-419.0","enfuq804","","","null","","Agent A","scrambled","FOR_REV_BLOBBY_STIM/1592351.bmp_pp51_L1_V1.0_veridical_freeview_isoFalse_fps144_reversed_REAL.mp4",""
"null","","","html-keyboard-response","420","1030927","0.0-420.0","enfuq804","","<span style=""color:Black; font-size:50px;"">Agent B","null","","","","",""
"null","","","video-keyboard-response","421","1033754","0.0-421.0","enfuq804","","","null","","Agent B","veridical","FOR_REV_BLOBBY_STIM/1592351.bmp_pp51_L1_V1.0_veridical_freeview_isoFalse_fps144.mp4",""
"","","","call-function","422","1033754","0.0-422.0","enfuq804","","","","","","","",""
"2382.774999999907","{""judgement"":1}","[0]","survey-likert","423","1036139","0.0-423.0","enfuq804","","","","","","","","1"
"1011.6550000000279","{""confidence"":1}","[0]","survey-likert","424","1037152","0.0-424.0","enfuq804","","","","","","","",""
"","","","call-function","425","1037152","0.0-425.0","enfuq804","","","","","","","",""
"null","","","html-keyboard-response","426","1038657","0.0-426.0","enfuq804","","<span style=""color:Black; font-size:50px;"">Agent A","null","","","","",""
"null","","","video-keyboard-response","427","1041476","0.0-427.0","enfuq804","","","null","","Agent A","scrambled","FOR_REV_BLOBBY_STIM/713135.bmp_pp54_L2_V1.0_veridical_freeview_isoFalse_fps144_reversed_REAL.mp4",""
"null","","","html-keyboard-response","428","1042983","0.0-428.0","enfuq804","","<span style=""color:Black; font-size:50px;"">Agent B","null","","","","",""
"null","","","video-keyboard-response","429","1045789","0.0-429.0","enfuq804","","","null","","Agent B","veridical","FOR_REV_BLOBBY_STIM/713135.bmp_pp54_L2_V1.0_veridical_freeview_isoFalse_fps144.mp4",""
"","","","call-function","430","1045789","0.0-430.0","enfuq804","","","","","","","",""
"1741.530000000028","{""judgement"":1}","[0]","survey-likert","431","1047531","0.0-431.0","enfuq804","","","","","","","","1"
"1289.7649999998976","{""confidence"":1}","[0]","survey-likert","432","1048823","0.0-432.0","enfuq804","","","","","","","",""
"","","","call-function","433","1048823","0.0-433.0","enfuq804","","","","","","","",""
"null","","","html-keyboard-response","434","1050326","0.0-434.0","enfuq804","","<span style=""color:Black; font-size:50px;"">Agent A","null","","","","",""
"null","","","video-keyboard-response","435","1053219","0.0-435.0","enfuq804","","","null","","Agent A","veridical","FOR_REV_BLOBBY_STIM/713089.bmp_pp60_L3_V1.0_veridical_freeview_isoFalse_fps144.mp4",""
"null","","","html-keyboard-response","436","1054725","0.0-436.0","enfuq804","","<span style=""color:Black; font-size:50px;"">Agent B","null","","","","",""
"null","","","video-keyboard-response","437","1057585","0.0-437.0","enfuq804","","","null","","Agent B","scrambled","FOR_REV_BLOBBY_STIM/713089.bmp_pp60_L3_V1.0_veridical_freeview_isoFalse_fps144_reversed_REAL.mp4",""
"","","","call-function","438","1057585","0.0-438.0","enfuq804","","","","","","","",""
"1211.9899999999907","{""judgement"":0}","[0]","survey-likert","439","1058798","0.0-439.0","enfuq804","","","","","","","","0"
"969.4550000000745","{""confidence"":2}","[0]","survey-likert","440","1059769","0.0-440.0","enfuq804","","","","","","","",""
"","","","call-function","441","1059770","0.0-441.0","enfuq804","","","","","","","",""
"null","","","html-keyboard-response","442","1061274","0.0-442.0","enfuq804","","<span style=""color:Black; font-size:50px;"">Agent A","null","","","","",""
"null","","","video-keyboard-response","443","1064179","0.0-443.0","enfuq804","","","null","","Agent A","scrambled","FOR_REV_BLOBBY_STIM/713593.bmp_pp64_L1_V1.0_veridical_freeview_isoFalse_fps144_reversed_REAL.mp4",""
"null","","","html-keyboard-response","444","1065684","0.0-444.0","enfuq804","","<span style=""color:Black; font-size:50px;"">Agent B","null","","","","",""
"null","","","video-keyboard-response","445","1068503","0.0-445.0","enfuq804","","","null","","Agent B","veridical","FOR_REV_BLOBBY_STIM/713593.bmp_pp64_L1_V1.0_veridical_freeview_isoFalse_fps144.mp4",""
"","","","call-function","446","1068503","0.0-446.0","enfuq804","","","","","","","",""
"1762.2350000001024","{""judgement"":1}","[0]","survey-likert","447","1070266","0.0-447.0","enfuq804","","","","","","","","1"
"1698.7399999999907","{""confidence"":2}","[0]","survey-likert","448","1071966","0.0-448.0","enfuq804","","","","","","","",""
"","","","call-function","449","1071967","0.0-449.0","enfuq804","","","","","","","",""
"null","","","html-keyboard-response","450","1073472","0.0-450.0","enfuq804","","<span style=""color:Black; font-size:50px;"">Agent A","null","","","","",""
"null","","","video-keyboard-response","451","1076302","0.0-451.0","enfuq804","","","null","","Agent A","veridical","FOR_REV_BLOBBY_STIM/1591961.bmp_pp67_L2_V1.0_veridical_freeview_isoFalse_fps144.mp4",""
"null","","","html-keyboard-response","452","1077808","0.0-452.0","enfuq804","","<span style=""color:Black; font-size:50px;"">Agent B","null","","","","",""
"null","","","video-keyboard-response","453","1080655","0.0-453.0","enfuq804","","","null","","Agent B","scrambled","FOR_REV_BLOBBY_STIM/1591961.bmp_pp67_L2_V1.0_veridical_freeview_isoFalse_fps144_reversed_REAL.mp4",""
"","","","call-function","454","1080655","0.0-454.0","enfuq804","","","","","","","",""
"1767.6999999999534","{""judgement"":0}","[0]","survey-likert","455","1082424","0.0-455.0","enfuq804","","","","","","","","0"
"1141.7549999998882","{""confidence"":1}","[0]","survey-likert","456","1083567","0.0-456.0","enfuq804","","","","","","","",""
"","","","call-function","457","1083567","0.0-457.0","enfuq804","","","","","","","",""
"null","","","html-keyboard-response","458","1085069","0.0-458.0","enfuq804","","<span style=""color:Black; font-size:50px;"">Agent A","null","","","","",""
"null","","","video-keyboard-response","459","1087817","0.0-459.0","enfuq804","","","null","","Agent A","veridical","FOR_REV_BLOBBY_STIM/498111.bmp_pp88_L2_V1.0_veridical_freeview_isoFalse_fps144.mp4",""
"null","","","html-keyboard-response","460","1089321","0.0-460.0","enfuq804","","<span style=""color:Black; font-size:50px;"">Agent B","null","","","","",""
"null","","","video-keyboard-response","461","1092071","0.0-461.0","enfuq804","","","null","","Agent B","scrambled","FOR_REV_BLOBBY_STIM/498111.bmp_pp88_L2_V1.0_veridical_freeview_isoFalse_fps144_reversed_REAL.mp4",""
"","","","call-function","462","1092071","0.0-462.0","enfuq804","","","","","","","",""
"2065.3499999998603","{""judgement"":1}","[0]","survey-likert","463","1094138","0.0-463.0","enfuq804","","","","","","","","0"
"2443.0850000001956","{""confidence"":1}","[0]","survey-likert","464","1096582","0.0-464.0","enfuq804","","","","","","","",""
"","","","call-function","465","1096583","0.0-465.0","enfuq804","","","","","","","",""
"null","","","html-keyboard-response","466","1098085","0.0-466.0","enfuq804","","<span style=""color:Black; font-size:50px;"">Agent A","null","","","","",""
"null","","","video-keyboard-response","467","1100797","0.0-467.0","enfuq804","","","null","","Agent A","veridical","FOR_REV_BLOBBY_STIM/713211.bmp_pp100_L3_V1.0_veridical_freeview_isoFalse_fps144.mp4",""
"null","","","html-keyboard-response","468","1102300","0.0-468.0","enfuq804","","<span style=""color:Black; font-size:50px;"">Agent B","null","","","","",""
"null","","","video-keyboard-response","469","1104994","0.0-469.0","enfuq804","","","null","","Agent B","scrambled","FOR_REV_BLOBBY_STIM/713211.bmp_pp100_L3_V1.0_veridical_freeview_isoFalse_fps144_reversed_REAL.mp4",""
"","","","call-function","470","1104996","0.0-470.0","enfuq804","","","","","","","",""
"2292.409999999916","{""judgement"":0}","[0]","survey-likert","471","1107290","0.0-471.0","enfuq804","","","","","","","","0"
"1325.839999999851","{""confidence"":0}","[0]","survey-likert","472","1108618","0.0-472.0","enfuq804","","","","","","","",""
"","","","call-function","473","1108620","0.0-473.0","enfuq804","","","","","","","",""
"null","","","html-keyboard-response","474","1110126","0.0-474.0","enfuq804","","<span style=""color:Black; font-size:50px;"">Agent A","null","","","","",""
"null","","","video-keyboard-response","475","1112904","0.0-475.0","enfuq804","","","null","","Agent A","veridical","FOR_REV_BLOBBY_STIM/713620.bmp_pp65_L3_V1.0_veridical_freeview_isoFalse_fps144.mp4",""
"null","","","html-keyboard-response","476","1114407","0.0-476.0","enfuq804","","<span style=""color:Black; font-size:50px;"">Agent B","null","","","","",""
"null","","","video-keyboard-response","477","1117184","0.0-477.0","enfuq804","","","null","","Agent B","scrambled","FOR_REV_BLOBBY_STIM/713620.bmp_pp65_L3_V1.0_veridical_freeview_isoFalse_fps144_reversed_REAL.mp4",""
"","","","call-function","478","1117184","0.0-478.0","enfuq804","","","","","","","",""
"1417.2600000000093","{""judgement"":0}","[0]","survey-likert","479","1118603","0.0-479.0","enfuq804","","","","","","","","0"
"1293.4500000001863","{""confidence"":0}","[0]","survey-likert","480","1119898","0.0-480.0","enfuq804","","","","","","","",""
"","","","call-function","481","1119898","0.0-481.0","enfuq804","","","","","","","",""
"null","","","html-keyboard-response","482","1121402","0.0-482.0","enfuq804","","<span style=""color:Black; font-size:50px;"">Agent A","null","","","","",""
"null","","","video-keyboard-response","483","1124032","0.0-483.0","enfuq804","","","null","","Agent A","veridical","FOR_REV_BLOBBY_STIM/713779.bmp_pp152_L2_V1.0_veridical_freeview_isoFalse_fps144.mp4",""
"null","","","html-keyboard-response","484","1125535","0.0-484.0","enfuq804","","<span style=""color:Black; font-size:50px;"">Agent B","null","","","","",""
"null","","","video-keyboard-response","485","1128155","0.0-485.0","enfuq804","","","null","","Agent B","scrambled","FOR_REV_BLOBBY_STIM/713779.bmp_pp152_L2_V1.0_veridical_freeview_isoFalse_fps144_reversed_REAL.mp4",""
"","","","call-function","486","1128155","0.0-486.0","enfuq804","","","","","","","",""
"1483.3149999999441","{""judgement"":1}","[0]","survey-likert","487","1129640","0.0-487.0","enfuq804","","","","","","","","0"
"2380.810000000056","{""confidence"":0}","[0]","survey-likert","488","1132022","0.0-488.0","enfuq804","","","","","","","",""
"","","","call-function","489","1132023","0.0-489.0","enfuq804","","","","","","","",""
"null","","","html-keyboard-response","490","1133527","0.0-490.0","enfuq804","","<span style=""color:Black; font-size:50px;"">Agent A","null","","","","",""
"null","","","video-keyboard-response","491","1136360","0.0-491.0","enfuq804","","","null","","Agent A","scrambled","FOR_REV_BLOBBY_STIM/1159777.bmp_pp77_L3_V1.0_veridical_freeview_isoFalse_fps144_reversed_REAL.mp4",""
"null","","","html-keyboard-response","492","1137867","0.0-492.0","enfuq804","","<span style=""color:Black; font-size:50px;"">Agent B","null","","","","",""
"null","","","video-keyboard-response","493","1140677","0.0-493.0","enfuq804","","","null","","Agent B","veridical","FOR_REV_BLOBBY_STIM/1159777.bmp_pp77_L3_V1.0_veridical_freeview_isoFalse_fps144.mp4",""
"","","","call-function","494","1140677","0.0-494.0","enfuq804","","","","","","","",""
"1459.369999999879","{""judgement"":1}","[0]","survey-likert","495","1142138","0.0-495.0","enfuq804","","","","","","","","1"
"2750.219999999972","{""confidence"":2}","[0]","survey-likert","496","1144889","0.0-496.0","enfuq804","","","","","","","",""
"19015.74500000011","","","instructions","497","1163906","0.0-497.0","enfuq804","[{""page_index"":0,""viewing_time"":1373.7399999999907},{""page_index"":1,""viewing_time"":16777.905000000028},{""page_index"":2,""viewing_time"":863.9450000000652}]","","","","","","",""
"2397.405000000028","","","instructions","498","1166304","0.0-498.0","enfuq804","[{""page_index"":0,""viewing_time"":883.4399999999441},{""page_index"":1,""viewing_time"":1014.8599999998696},{""page_index"":2,""viewing_time"":499}]","","","","","","",""
"","","","call-function","499","1166304","0.0-499.0","enfuq804","","","","","","","",""
"null","","","html-keyboard-response","500","1167807","0.0-500.0","enfuq804","","<span style=""color:Black; font-size:50px;"">Agent A","null","","","","",""
"null","","","video-keyboard-response","501","1170546","0.0-501.0","enfuq804","","","null","","Agent A","scrambled","FOR_REV_BLOBBY_STIM/1159446.bmp_pp60_L3_V1.0_veridical_freeview_isoFalse_fps144_reversed_REAL.mp4",""
"null","","","html-keyboard-response","502","1172048","0.0-502.0","enfuq804","","<span style=""color:Black; font-size:50px;"">Agent B","null","","","","",""
"null","","","video-keyboard-response","503","1174801","0.0-503.0","enfuq804","","","null","","Agent B","veridical","FOR_REV_BLOBBY_STIM/1159446.bmp_pp60_L3_V1.0_veridical_freeview_isoFalse_fps144.mp4",""
"","","","call-function","504","1174801","0.0-504.0","enfuq804","","","","","","","",""
"1452.7750000001397","{""judgement"":1}","[0]","survey-likert","505","1176255","0.0-505.0","enfuq804","","","","","","","","1"
"1270.0149999998976","{""confidence"":2}","[0]","survey-likert","506","1177526","0.0-506.0","enfuq804","","","","","","","",""
"","","","call-function","507","1177527","0.0-507.0","enfuq804","","","","","","","",""
"null","","","html-keyboard-response","508","1179032","0.0-508.0","enfuq804","","<span style=""color:Black; font-size:50px;"">Agent A","null","","","","",""
"null","","","video-keyboard-response","509","1181850","0.0-509.0","enfuq804","","","null","","Agent A","scrambled","FOR_REV_BLOBBY_STIM/713371.bmp_pp68_L1_V1.0_veridical_freeview_isoFalse_fps144_reversed_REAL.mp4",""
"null","","","html-keyboard-response","510","1183356","0.0-510.0","enfuq804","","<span style=""color:Black; font-size:50px;"">Agent B","null","","","","",""
"null","","","video-keyboard-response","511","1186168","0.0-511.0","enfuq804","","","null","","Agent B","veridical","FOR_REV_BLOBBY_STIM/713371.bmp_pp68_L1_V1.0_veridical_freeview_isoFalse_fps144.mp4",""
"","","","call-function","512","1186169","0.0-512.0","enfuq804","","","","","","","",""
"1373.2150000000838","{""judgement"":1}","[0]","survey-likert","513","1187543","0.0-513.0","enfuq804","","","","","","","","1"
"1042.155000000028","{""confidence"":2}","[0]","survey-likert","514","1188586","0.0-514.0","enfuq804","","","","","","","",""
"","","","call-function","515","1188587","0.0-515.0","enfuq804","","","","","","","",""
"null","","","html-keyboard-response","516","1190089","0.0-516.0","enfuq804","","<span style=""color:Black; font-size:50px;"">Agent A","null","","","","",""
"null","","","video-keyboard-response","517","1192638","0.0-517.0","enfuq804","","","null","","Agent A","veridical","FOR_REV_BLOBBY_STIM/1591876.bmp_pp63_L1_V1.0_veridical_freeview_isoFalse_fps144.mp4",""
"null","","","html-keyboard-response","518","1194142","0.0-518.0","enfuq804","","<span style=""color:Black; font-size:50px;"">Agent B","null","","","","",""
"null","","","video-keyboard-response","519","1196668","0.0-519.0","enfuq804","","","null","","Agent B","scrambled","FOR_REV_BLOBBY_STIM/1591876.bmp_pp63_L1_V1.0_veridical_freeview_isoFalse_fps144_reversed_REAL.mp4",""
"","","","call-function","520","1196669","0.0-520.0","enfuq804","","","","","","","",""
"2379.3249999999534","{""judgement"":0}","[0]","survey-likert","521","1199049","0.0-521.0","enfuq804","","","","","","","","0"
"1079.2050000000745","{""confidence"":2}","[0]","survey-likert","522","1200129","0.0-522.0","enfuq804","","","","","","","",""
"","","","call-function","523","1200130","0.0-523.0","enfuq804","","","","","","","",""
"null","","","html-keyboard-response","524","1201631","0.0-524.0","enfuq804","","<span style=""color:Black; font-size:50px;"">Agent A","null","","","","",""
"null","","","video-keyboard-response","525","1204461","0.0-525.0","enfuq804","","","null","","Agent A","scrambled","FOR_REV_BLOBBY_STIM/285751.bmp_pp55_L3_V1.0_veridical_freeview_isoFalse_fps144_reversed_REAL.mp4",""
"null","","","html-keyboard-response","526","1205969","0.0-526.0","enfuq804","","<span style=""color:Black; font-size:50px;"">Agent B","null","","","","",""
"null","","","video-keyboard-response","527","1208807","0.0-527.0","enfuq804","","","null","","Agent B","veridical","FOR_REV_BLOBBY_STIM/285751.bmp_pp55_L3_V1.0_veridical_freeview_isoFalse_fps144.mp4",""
"","","","call-function","528","1208809","0.0-528.0","enfuq804","","","","","","","",""
"1357.2150000000838","{""judgement"":1}","[0]","survey-likert","529","1210167","0.0-529.0","enfuq804","","","","","","","","1"
"965.4450000000652","{""confidence"":0}","[0]","survey-likert","530","1211134","0.0-530.0","enfuq804","","","","","","","",""
"","","","call-function","531","1211136","0.0-531.0","enfuq804","","","","","","","",""
"null","","","html-keyboard-response","532","1212638","0.0-532.0","enfuq804","","<span style=""color:Black; font-size:50px;"">Agent A","null","","","","",""
"null","","","video-keyboard-response","533","1215462","0.0-533.0","enfuq804","","","null","","Agent A","scrambled","FOR_REV_BLOBBY_STIM/712977.bmp_pp51_L1_V1.0_veridical_freeview_isoFalse_fps144_reversed_REAL.mp4",""
"null","","","html-keyboard-response","534","1216967","0.0-534.0","enfuq804","","<span style=""color:Black; font-size:50px;"">Agent B","null","","","","",""
"null","","","video-keyboard-response","535","1219789","0.0-535.0","enfuq804","","","null","","Agent B","veridical","FOR_REV_BLOBBY_STIM/712977.bmp_pp51_L1_V1.0_veridical_freeview_isoFalse_fps144.mp4",""
"","","","call-function","536","1219790","0.0-536.0","enfuq804","","","","","","","",""
"1256.4450000000652","{""judgement"":0}","[0]","survey-likert","537","1221047","0.0-537.0","enfuq804","","","","","","","","1"
"1225.155000000028","{""confidence"":0}","[0]","survey-likert","538","1222274","0.0-538.0","enfuq804","","","","","","","",""
"","","","call-function","539","1222274","0.0-539.0","enfuq804","","","","","","","",""
"null","","","html-keyboard-response","540","1223778","0.0-540.0","enfuq804","","<span style=""color:Black; font-size:50px;"">Agent A","null","","","","",""
"null","","","video-keyboard-response","541","1226293","0.0-541.0","enfuq804","","","null","","Agent A","veridical","FOR_REV_BLOBBY_STIM/713513.bmp_pp62_L2_V1.0_veridical_freeview_isoFalse_fps144.mp4",""
"null","","","html-keyboard-response","542","1227795","0.0-542.0","enfuq804","","<span style=""color:Black; font-size:50px;"">Agent B","null","","","","",""
"null","","","video-keyboard-response","543","1230304","0.0-543.0","enfuq804","","","null","","Agent B","scrambled","FOR_REV_BLOBBY_STIM/713513.bmp_pp62_L2_V1.0_veridical_freeview_isoFalse_fps144_reversed_REAL.mp4",""
"","","","call-function","544","1230305","0.0-544.0","enfuq804","","","","","","","",""
"1243.0200000000186","{""judgement"":0}","[0]","survey-likert","545","1231549","0.0-545.0","enfuq804","","","","","","","","0"
"1274.8999999999069","{""confidence"":0}","[0]","survey-likert","546","1232825","0.0-546.0","enfuq804","","","","","","","",""
"","","","call-function","547","1232826","0.0-547.0","enfuq804","","","","","","","",""
"null","","","html-keyboard-response","548","1234328","0.0-548.0","enfuq804","","<span style=""color:Black; font-size:50px;"">Agent A","null","","","","",""
"null","","","video-keyboard-response","549","1237143","0.0-549.0","enfuq804","","","null","","Agent A","scrambled","FOR_REV_BLOBBY_STIM/1159784.bmp_pp73_L3_V1.0_veridical_freeview_isoFalse_fps144_reversed_REAL.mp4",""
"null","","","html-keyboard-response","550","1238647","0.0-550.0","enfuq804","","<span style=""color:Black; font-size:50px;"">Agent B","null","","","","",""
"null","","","video-keyboard-response","551","1241490","0.0-551.0","enfuq804","","","null","","Agent B","veridical","FOR_REV_BLOBBY_STIM/1159784.bmp_pp73_L3_V1.0_veridical_freeview_isoFalse_fps144.mp4",""
"","","","call-function","552","1241491","0.0-552.0","enfuq804","","","","","","","",""
"1454.535000000149","{""judgement"":1}","[0]","survey-likert","553","1242947","0.0-553.0","enfuq804","","","","","","","","1"
"1078.875","{""confidence"":1}","[0]","survey-likert","554","1244027","0.0-554.0","enfuq804","","","","","","","",""
"","","","call-function","555","1244027","0.0-555.0","enfuq804","","","","","","","",""
"null","","","html-keyboard-response","556","1245529","0.0-556.0","enfuq804","","<span style=""color:Black; font-size:50px;"">Agent A","null","","","","",""
"null","","","video-keyboard-response","557","1248383","0.0-557.0","enfuq804","","","null","","Agent A","veridical","FOR_REV_BLOBBY_STIM/498253.bmp_pp67_L2_V1.0_veridical_freeview_isoFalse_fps144.mp4",""
"null","","","html-keyboard-response","558","1249885","0.0-558.0","enfuq804","","<span style=""color:Black; font-size:50px;"">Agent B","null","","","","",""
"null","","","video-keyboard-response","559","1252740","0.0-559.0","enfuq804","","","null","","Agent B","scrambled","FOR_REV_BLOBBY_STIM/498253.bmp_pp67_L2_V1.0_veridical_freeview_isoFalse_fps144_reversed_REAL.mp4",""
"","","","call-function","560","1252741","0.0-560.0","enfuq804","","","","","","","",""
"1187.8799999998882","{""judgement"":0}","[0]","survey-likert","561","1253930","0.0-561.0","enfuq804","","","","","","","","0"
"960.4899999999907","{""confidence"":1}","[0]","survey-likert","562","1254891","0.0-562.0","enfuq804","","","","","","","",""
"","","","call-function","563","1254892","0.0-563.0","enfuq804","","","","","","","",""
"null","","","html-keyboard-response","564","1256396","0.0-564.0","enfuq804","","<span style=""color:Black; font-size:50px;"">Agent A","null","","","","",""
"null","","","video-keyboard-response","565","1259257","0.0-565.0","enfuq804","","","null","","Agent A","scrambled","FOR_REV_BLOBBY_STIM/713017.bmp_pp152_L2_V1.0_veridical_freeview_isoFalse_fps144_reversed_REAL.mp4",""
"null","","","html-keyboard-response","566","1260761","0.0-566.0","enfuq804","","<span style=""color:Black; font-size:50px;"">Agent B","null","","","","",""
"null","","","video-keyboard-response","567","1263619","0.0-567.0","enfuq804","","","null","","Agent B","veridical","FOR_REV_BLOBBY_STIM/713017.bmp_pp152_L2_V1.0_veridical_freeview_isoFalse_fps144.mp4",""
"","","","call-function","568","1263620","0.0-568.0","enfuq804","","","","","","","",""
"1652.8999999999069","{""judgement"":1}","[0]","survey-likert","569","1265274","0.0-569.0","enfuq804","","","","","","","","1"
"1171.059999999823","{""confidence"":1}","[0]","survey-likert","570","1266446","0.0-570.0","enfuq804","","","","","","","",""
"","","","call-function","571","1266447","0.0-571.0","enfuq804","","","","","","","",""
"null","","","html-keyboard-response","572","1267951","0.0-572.0","enfuq804","","<span style=""color:Black; font-size:50px;"">Agent A","null","","","","",""
"null","","","video-keyboard-response","573","1270731","0.0-573.0","enfuq804","","","null","","Agent A","veridical","FOR_REV_BLOBBY_STIM/1592619.bmp_pp56_L3_V1.0_veridical_freeview_isoFalse_fps144.mp4",""
"null","","","html-keyboard-response","574","1272233","0.0-574.0","enfuq804","","<span style=""color:Black; font-size:50px;"">Agent B","null","","","","",""
"null","","","video-keyboard-response","575","1274999","0.0-575.0","enfuq804","","","null","","Agent B","scrambled","FOR_REV_BLOBBY_STIM/1592619.bmp_pp56_L3_V1.0_veridical_freeview_isoFalse_fps144_reversed_REAL.mp4",""
"","","","call-function","576","1274999","0.0-576.0","enfuq804","","","","","","","",""
"1836.2749999999069","{""judgement"":1}","[0]","survey-likert","577","1276837","0.0-577.0","enfuq804","","","","","","","","0"
"975.5799999998417","{""confidence"":0}","[0]","survey-likert","578","1277814","0.0-578.0","enfuq804","","","","","","","",""
"1421.8600000001024","","","instructions","579","1279236","0.0-579.0","enfuq804","[{""page_index"":0,""viewing_time"":1421.7250000000931}]","","","","","","",""
"1812.380000000121","","","instructions","580","1281049","0.0-580.0","enfuq804","[{""page_index"":0,""viewing_time"":1812.2700000000186}]","","","","","","",""
"9227.994999999879","{""post-1"":0}","[0]","survey-likert","581","1290278","0.0-581.0","enfuq804","","","","","","","",""
"5139.770000000019","{""post-1"":0}","[0]","survey-likert","582","1295419","0.0-582.0","enfuq804","","","","","","","",""
"5091.9550000000745","{""post-2"":0}","[0]","survey-likert","583","1300513","0.0-583.0","enfuq804","","","","","","","",""
"2294.9449999998324","{""post-2"":0}","[0]","survey-likert","584","1302809","0.0-584.0","enfuq804","","","","","","","",""
"3348.065000000177","{""post-3"":0}","[0]","survey-likert","585","1306158","0.0-585.0","enfuq804","","","","","","","",""
"2715.899999999907","{""post-3"":0}","[0]","survey-likert","586","1308875","0.0-586.0","enfuq804","","","","","","","",""
"3250.5800000000745","{""post-4"":0}","[0]","survey-likert","587","1312127","0.0-587.0","enfuq804","","","","","","","",""
"1883.8549999999814","{""post-4"":0}","[0]","survey-likert","588","1314012","0.0-588.0","enfuq804","","","","","","","",""
"4720.959999999963","{""post-5"":2}","[0]","survey-likert","589","1318735","0.0-589.0","enfuq804","","","","","","","",""
"2784.564999999944","{""post-5"":3}","[0]","survey-likert","590","1321522","0.0-590.0","enfuq804","","","","","","","",""
"71438.41500000004","{""Q0"":""I think it was the case that some or all of the pairs were reversals. This helped me distinguish; it was a very intellectual task for me (eg thinking to myself, would a human start on this point or end on this point?), rather than an intuitively-driven one - I had no strong intuitions either way""}","","survey-text","591","1392967","0.0-591.0","enfuq804","","","","","","","",""
"34253.429999999935","{""Q0"":""Found it very challenging to tell. I used the strategy of the first attention point being a human face (if present) and/or the obvious foreground object (if present). For scenes with neither of these features, I found it hard to tell.""}","","survey-text","592","1427225","0.0-592.0","enfuq804","","","","","","","",""
"17052.26000000001","{""Q0"":""Al of it! Didn't have strong intuitions.""}","","survey-text","593","1444281","0.0-593.0","enfuq804","","","","","","","",""
"1884.2700000000186","","","instructions","594","1446166","0.0-594.0","enfuq804","[{""page_index"":0,""viewing_time"":1884.1399999998976}]","","","","","","",""
"54528.33499999996","{""Experimenter_end"":[""Printed ID# enfuq804 on consent form"",""Given subject SONA credit or payment"",""Given the subject debrief form""]}","[0]","survey-multi-select","595","1500697","0.0-595.0","enfuq804","","","","","","","",""
