"rt","responses","question_order","trial_type","trial_index","time_elapsed","internal_node_id","ID","view_history","stimulus","key_press","value","agent","condition","image","correct_answer"
"118948.51500000001","{""Experimenter"":[""Confirmed subject's identity"",""Confirmed normal or corrected-to-normal vision"",""Obtained consent (signature and date)"",""Checked the test room lighting"",""Checked computer screen lighting"",""Checked distance from screen to chin rest (50cm)"",""Cleaned and adjusted chin rest"",""Counterbalanced the order of the tasks"",""Opened the experiment in Firefox"",""Made the experiment full screen"",""Encouraged subject to silence phone, put away distractors, etc.""]}","[0]","survey-multi-select","0","118956","0.0-0.0","eo54l9ym","","","","","","","",""
"26949.15000000001","","","instructions","1","145907","0.0-1.0","eo54l9ym","[{""page_index"":0,""viewing_time"":26949.000000000015}]","","","","","","",""
"7335.125","{""Age"":0,""Sex"":0,""Gender"":0}","[0,1,2]","survey-likert","2","153244","0.0-2.0","eo54l9ym","","","","","","","",""
"20137.73000000001","","","instructions","3","173382","0.0-3.0","eo54l9ym","[{""page_index"":0,""viewing_time"":5490.955000000016},{""page_index"":1,""viewing_time"":1504.7299999999814},{""page_index"":2,""viewing_time"":13141.920000000013}]","","","","","","",""
"4299.6050000000105","","","instructions","4","177682","0.0-4.0","eo54l9ym","[{""page_index"":0,""viewing_time"":4299.5}]","","","","","","",""
"null","","","video-keyboard-response","5","180757","0.0-5.0","eo54l9ym","","","null","","","","",""
"14646.940000000002","","","instructions","6","195405","0.0-6.0","eo54l9ym","[{""page_index"":0,""viewing_time"":3634.1900000000023},{""page_index"":1,""viewing_time"":3324.0250000000233},{""page_index"":2,""viewing_time"":7688.179999999993}]","","","","","","",""
"2938.0899999999965","","","instructions","7","198345","0.0-7.0","eo54l9ym","[{""page_index"":0,""viewing_time"":2937.9899999999907}]","","","","","","",""
"2394.515000000014","","","instructions","8","200740","0.0-8.0","eo54l9ym","[{""page_index"":0,""viewing_time"":2394.420000000013}]","","","","","","",""
"null","","","video-keyboard-response","9","203815","0.0-9.0","eo54l9ym","","","null","","","","",""
"17112.97","","","instructions","10","220929","0.0-10.0","eo54l9ym","[{""page_index"":0,""viewing_time"":2843.529999999999},{""page_index"":1,""viewing_time"":3269.1149999999907},{""page_index"":2,""viewing_time"":11000.195000000007}]","","","","","","",""
"9658.429999999993","","","instructions","11","230587","0.0-11.0","eo54l9ym","[{""page_index"":0,""viewing_time"":9658.320000000007}]","","","","","","",""
"","","","call-function","12","230588","0.0-12.0","eo54l9ym","","","","","","","",""
"null","","","html-keyboard-response","13","232090","0.0-13.0","eo54l9ym","","<span style=""color:Black; font-size:50px;"">Agent A","null","","","","",""
"null","","","video-keyboard-response","14","234918","0.0-14.0","eo54l9ym","","","null","","Agent A","veridical","FOR_REV_MAP_BLOBBY_STIM/713742.bmp_pp91_L3_V1.0_veridical_freeview_isoTrue_fps144.mp4",""
"null","","","html-keyboard-response","15","236419","0.0-15.0","eo54l9ym","","<span style=""color:Black; font-size:50px;"">Agent B","null","","","","",""
"null","","","video-keyboard-response","16","239244","0.0-16.0","eo54l9ym","","","null","","Agent B","scrambled","FOR_REV_MAP_BLOBBY_STIM/713742.bmp_pp91_L3_V1.0_veridical_freeview_isoTrue_fps144_reversed_REAL.mp4",""
"","","","call-function","17","239245","0.0-17.0","eo54l9ym","","","","","","","",""
"2921.475000000006","{""judgement"":0}","[0]","survey-likert","18","242167","0.0-18.0","eo54l9ym","","","","","","","","0"
"3182.945000000007","{""confidence"":2}","[0]","survey-likert","19","245351","0.0-19.0","eo54l9ym","","","","","","","",""
"","","","call-function","20","245352","0.0-20.0","eo54l9ym","","","","","","","",""
"null","","","html-keyboard-response","21","246854","0.0-21.0","eo54l9ym","","<span style=""color:Black; font-size:50px;"">Agent A","null","","","","",""
"null","","","video-keyboard-response","22","249632","0.0-22.0","eo54l9ym","","","null","","Agent A","veridical","FOR_REV_MAP_BLOBBY_STIM/713790.bmp_pp100_L3_V1.0_veridical_freeview_isoTrue_fps144.mp4",""
"null","","","html-keyboard-response","23","251134","0.0-23.0","eo54l9ym","","<span style=""color:Black; font-size:50px;"">Agent B","null","","","","",""
"null","","","video-keyboard-response","24","253931","0.0-24.0","eo54l9ym","","","null","","Agent B","scrambled","FOR_REV_MAP_BLOBBY_STIM/713790.bmp_pp100_L3_V1.0_veridical_freeview_isoTrue_fps144_reversed_REAL.mp4",""
"","","","call-function","25","253931","0.0-25.0","eo54l9ym","","","","","","","",""
"3459.600000000006","{""judgement"":1}","[0]","survey-likert","26","257392","0.0-26.0","eo54l9ym","","","","","","","","0"
"1786.0800000000163","{""confidence"":1}","[0]","survey-likert","27","259179","0.0-27.0","eo54l9ym","","","","","","","",""
"","","","call-function","28","259179","0.0-28.0","eo54l9ym","","","","","","","",""
"null","","","html-keyboard-response","29","260683","0.0-29.0","eo54l9ym","","<span style=""color:Black; font-size:50px;"">Agent A","null","","","","",""
"null","","","video-keyboard-response","30","263107","0.0-30.0","eo54l9ym","","","null","","Agent A","scrambled","FOR_REV_MAP_BLOBBY_STIM/1592951.bmp_pp80_L3_V1.0_veridical_freeview_isoTrue_fps144_reversed_REAL.mp4",""
"null","","","html-keyboard-response","31","264611","0.0-31.0","eo54l9ym","","<span style=""color:Black; font-size:50px;"">Agent B","null","","","","",""
"null","","","video-keyboard-response","32","267025","0.0-32.0","eo54l9ym","","","null","","Agent B","veridical","FOR_REV_MAP_BLOBBY_STIM/1592951.bmp_pp80_L3_V1.0_veridical_freeview_isoTrue_fps144.mp4",""
"","","","call-function","33","267025","0.0-33.0","eo54l9ym","","","","","","","",""
"4891.534999999974","{""judgement"":0}","[0]","survey-likert","34","271918","0.0-34.0","eo54l9ym","","","","","","","","1"
"1475.3249999999534","{""confidence"":0}","[0]","survey-likert","35","273394","0.0-35.0","eo54l9ym","","","","","","","",""
"","","","call-function","36","273394","0.0-36.0","eo54l9ym","","","","","","","",""
"null","","","html-keyboard-response","37","274899","0.0-37.0","eo54l9ym","","<span style=""color:Black; font-size:50px;"">Agent A","null","","","","",""
"null","","","video-keyboard-response","38","277001","0.0-38.0","eo54l9ym","","","null","","Agent A","veridical","FOR_REV_MAP_BLOBBY_STIM/1159973.bmp_pp98_L1_V1.0_veridical_freeview_isoTrue_fps144.mp4",""
"null","","","html-keyboard-response","39","278505","0.0-39.0","eo54l9ym","","<span style=""color:Black; font-size:50px;"">Agent B","null","","","","",""
"null","","","video-keyboard-response","40","280608","0.0-40.0","eo54l9ym","","","null","","Agent B","scrambled","FOR_REV_MAP_BLOBBY_STIM/1159973.bmp_pp98_L1_V1.0_veridical_freeview_isoTrue_fps144_reversed_REAL.mp4",""
"","","","call-function","41","280608","0.0-41.0","eo54l9ym","","","","","","","",""
"2016.125","{""judgement"":1}","[0]","survey-likert","42","282625","0.0-42.0","eo54l9ym","","","","","","","","0"
"2845.1450000000186","{""confidence"":2}","[0]","survey-likert","43","285471","0.0-43.0","eo54l9ym","","","","","","","",""
"","","","call-function","44","285471","0.0-44.0","eo54l9ym","","","","","","","",""
"null","","","html-keyboard-response","45","286976","0.0-45.0","eo54l9ym","","<span style=""color:Black; font-size:50px;"">Agent A","null","","","","",""
"null","","","video-keyboard-response","46","289769","0.0-46.0","eo54l9ym","","","null","","Agent A","scrambled","FOR_REV_MAP_BLOBBY_STIM/1159860.bmp_pp152_L2_V1.0_veridical_freeview_isoTrue_fps144_reversed_REAL.mp4",""
"null","","","html-keyboard-response","47","291271","0.0-47.0","eo54l9ym","","<span style=""color:Black; font-size:50px;"">Agent B","null","","","","",""
"null","","","video-keyboard-response","48","294052","0.0-48.0","eo54l9ym","","","null","","Agent B","veridical","FOR_REV_MAP_BLOBBY_STIM/1159860.bmp_pp152_L2_V1.0_veridical_freeview_isoTrue_fps144.mp4",""
"","","","call-function","49","294052","0.0-49.0","eo54l9ym","","","","","","","",""
"2172.25","{""judgement"":0}","[0]","survey-likert","50","296226","0.0-50.0","eo54l9ym","","","","","","","","1"
"1308.3950000000186","{""confidence"":0}","[0]","survey-likert","51","297535","0.0-51.0","eo54l9ym","","","","","","","",""
"","","","call-function","52","297535","0.0-52.0","eo54l9ym","","","","","","","",""
"null","","","html-keyboard-response","53","299041","0.0-53.0","eo54l9ym","","<span style=""color:Black; font-size:50px;"">Agent A","null","","","","",""
"null","","","video-keyboard-response","54","301832","0.0-54.0","eo54l9ym","","","null","","Agent A","veridical","FOR_REV_MAP_BLOBBY_STIM/1159392.bmp_pp96_L2_V1.0_veridical_freeview_isoTrue_fps144.mp4",""
"null","","","html-keyboard-response","55","303333","0.0-55.0","eo54l9ym","","<span style=""color:Black; font-size:50px;"">Agent B","null","","","","",""
"null","","","video-keyboard-response","56","306122","0.0-56.0","eo54l9ym","","","null","","Agent B","scrambled","FOR_REV_MAP_BLOBBY_STIM/1159392.bmp_pp96_L2_V1.0_veridical_freeview_isoTrue_fps144_reversed_REAL.mp4",""
"","","","call-function","57","306123","0.0-57.0","eo54l9ym","","","","","","","",""
"1551.3950000000186","{""judgement"":0}","[0]","survey-likert","58","307676","0.0-58.0","eo54l9ym","","","","","","","","0"
"1359.170000000042","{""confidence"":2}","[0]","survey-likert","59","309037","0.0-59.0","eo54l9ym","","","","","","","",""
"","","","call-function","60","309037","0.0-60.0","eo54l9ym","","","","","","","",""
"null","","","html-keyboard-response","61","310540","0.0-61.0","eo54l9ym","","<span style=""color:Black; font-size:50px;"">Agent A","null","","","","",""
"null","","","video-keyboard-response","62","313371","0.0-62.0","eo54l9ym","","","null","","Agent A","veridical","FOR_REV_MAP_BLOBBY_STIM/498261.bmp_pp84_L3_V1.0_veridical_freeview_isoTrue_fps144.mp4",""
"null","","","html-keyboard-response","63","314874","0.0-63.0","eo54l9ym","","<span style=""color:Black; font-size:50px;"">Agent B","null","","","","",""
"null","","","video-keyboard-response","64","317707","0.0-64.0","eo54l9ym","","","null","","Agent B","scrambled","FOR_REV_MAP_BLOBBY_STIM/498261.bmp_pp84_L3_V1.0_veridical_freeview_isoTrue_fps144_reversed_REAL.mp4",""
"","","","call-function","65","317708","0.0-65.0","eo54l9ym","","","","","","","",""
"1790.6300000000047","{""judgement"":0}","[0]","survey-likert","66","319499","0.0-66.0","eo54l9ym","","","","","","","","0"
"1585.445000000007","{""confidence"":3}","[0]","survey-likert","67","321086","0.0-67.0","eo54l9ym","","","","","","","",""
"","","","call-function","68","321087","0.0-68.0","eo54l9ym","","","","","","","",""
"null","","","html-keyboard-response","69","322589","0.0-69.0","eo54l9ym","","<span style=""color:Black; font-size:50px;"">Agent A","null","","","","",""
"null","","","video-keyboard-response","70","325435","0.0-70.0","eo54l9ym","","","null","","Agent A","veridical","FOR_REV_MAP_BLOBBY_STIM/1592201.bmp_pp97_L3_V1.0_veridical_freeview_isoTrue_fps144.mp4",""
"null","","","html-keyboard-response","71","326940","0.0-71.0","eo54l9ym","","<span style=""color:Black; font-size:50px;"">Agent B","null","","","","",""
"null","","","video-keyboard-response","72","329789","0.0-72.0","eo54l9ym","","","null","","Agent B","scrambled","FOR_REV_MAP_BLOBBY_STIM/1592201.bmp_pp97_L3_V1.0_veridical_freeview_isoTrue_fps144_reversed_REAL.mp4",""
"","","","call-function","73","329790","0.0-73.0","eo54l9ym","","","","","","","",""
"5364.299999999988","{""judgement"":1}","[0]","survey-likert","74","335155","0.0-74.0","eo54l9ym","","","","","","","","0"
"1517.1749999999884","{""confidence"":0}","[0]","survey-likert","75","336673","0.0-75.0","eo54l9ym","","","","","","","",""
"","","","call-function","76","336673","0.0-76.0","eo54l9ym","","","","","","","",""
"null","","","html-keyboard-response","77","338176","0.0-77.0","eo54l9ym","","<span style=""color:Black; font-size:50px;"">Agent A","null","","","","",""
"null","","","video-keyboard-response","78","341035","0.0-78.0","eo54l9ym","","","null","","Agent A","veridical","FOR_REV_MAP_BLOBBY_STIM/498396.bmp_pp99_L2_V1.0_veridical_freeview_isoTrue_fps144.mp4",""
"null","","","html-keyboard-response","79","342539","0.0-79.0","eo54l9ym","","<span style=""color:Black; font-size:50px;"">Agent B","null","","","","",""
"null","","","video-keyboard-response","80","345393","0.0-80.0","eo54l9ym","","","null","","Agent B","scrambled","FOR_REV_MAP_BLOBBY_STIM/498396.bmp_pp99_L2_V1.0_veridical_freeview_isoTrue_fps144_reversed_REAL.mp4",""
"","","","call-function","81","345393","0.0-81.0","eo54l9ym","","","","","","","",""
"2832.3850000000093","{""judgement"":1}","[0]","survey-likert","82","348228","0.0-82.0","eo54l9ym","","","","","","","","0"
"1698.585000000021","{""confidence"":0}","[0]","survey-likert","83","349927","0.0-83.0","eo54l9ym","","","","","","","",""
"","","","call-function","84","349928","0.0-84.0","eo54l9ym","","","","","","","",""
"null","","","html-keyboard-response","85","351429","0.0-85.0","eo54l9ym","","<span style=""color:Black; font-size:50px;"">Agent A","null","","","","",""
"null","","","video-keyboard-response","86","354240","0.0-86.0","eo54l9ym","","","null","","Agent A","veridical","FOR_REV_MAP_BLOBBY_STIM/498258.bmp_pp51_L1_V1.0_veridical_freeview_isoTrue_fps144.mp4",""
"null","","","html-keyboard-response","87","355746","0.0-87.0","eo54l9ym","","<span style=""color:Black; font-size:50px;"">Agent B","null","","","","",""
"null","","","video-keyboard-response","88","358559","0.0-88.0","eo54l9ym","","","null","","Agent B","scrambled","FOR_REV_MAP_BLOBBY_STIM/498258.bmp_pp51_L1_V1.0_veridical_freeview_isoTrue_fps144_reversed_REAL.mp4",""
"","","","call-function","89","358559","0.0-89.0","eo54l9ym","","","","","","","",""
"9043.784999999974","{""judgement"":0}","[0]","survey-likert","90","367604","0.0-90.0","eo54l9ym","","","","","","","","0"
"1467.0750000000116","{""confidence"":1}","[0]","survey-likert","91","369072","0.0-91.0","eo54l9ym","","","","","","","",""
"3488.1599999999744","","","instructions","92","372561","0.0-92.0","eo54l9ym","[{""page_index"":0,""viewing_time"":1233.109999999986},{""page_index"":1,""viewing_time"":1089.8850000000093},{""page_index"":2,""viewing_time"":1165.0100000000093}]","","","","","","",""
"3324.594999999972","","","instructions","93","375886","0.0-93.0","eo54l9ym","[{""page_index"":0,""viewing_time"":905.3950000000186},{""page_index"":1,""viewing_time"":1661.0749999999534},{""page_index"":2,""viewing_time"":758.015000000014}]","","","","","","",""
"","","","call-function","94","375886","0.0-94.0","eo54l9ym","","","","","","","",""
"null","","","html-keyboard-response","95","377390","0.0-95.0","eo54l9ym","","<span style=""color:Black; font-size:50px;"">Agent A","null","","","","",""
"null","","","video-keyboard-response","96","380211","0.0-96.0","eo54l9ym","","","null","","Agent A","scrambled","FOR_REV_MAP_BLOBBY_STIM/1592857.bmp_pp52_L1_V1.0_veridical_freeview_isoTrue_fps144_reversed_REAL.mp4",""
"null","","","html-keyboard-response","97","381717","0.0-97.0","eo54l9ym","","<span style=""color:Black; font-size:50px;"">Agent B","null","","","","",""
"null","","","video-keyboard-response","98","384534","0.0-98.0","eo54l9ym","","","null","","Agent B","veridical","FOR_REV_MAP_BLOBBY_STIM/1592857.bmp_pp52_L1_V1.0_veridical_freeview_isoTrue_fps144.mp4",""
"","","","call-function","99","384534","0.0-99.0","eo54l9ym","","","","","","","",""
"4931.714999999967","{""judgement"":0}","[0]","survey-likert","100","389467","0.0-100.0","eo54l9ym","","","","","","","","1"
"2276.945000000007","{""confidence"":1}","[0]","survey-likert","101","391745","0.0-101.0","eo54l9ym","","","","","","","",""
"","","","call-function","102","391745","0.0-102.0","eo54l9ym","","","","","","","",""
"null","","","html-keyboard-response","103","393247","0.0-103.0","eo54l9ym","","<span style=""color:Black; font-size:50px;"">Agent A","null","","","","",""
"null","","","video-keyboard-response","104","396053","0.0-104.0","eo54l9ym","","","null","","Agent A","veridical","FOR_REV_MAP_BLOBBY_STIM/1592314.bmp_pp100_L3_V1.0_veridical_freeview_isoTrue_fps144.mp4",""
"null","","","html-keyboard-response","105","397557","0.0-105.0","eo54l9ym","","<span style=""color:Black; font-size:50px;"">Agent B","null","","","","",""
"null","","","video-keyboard-response","106","400361","0.0-106.0","eo54l9ym","","","null","","Agent B","scrambled","FOR_REV_MAP_BLOBBY_STIM/1592314.bmp_pp100_L3_V1.0_veridical_freeview_isoTrue_fps144_reversed_REAL.mp4",""
"","","","call-function","107","400362","0.0-107.0","eo54l9ym","","","","","","","",""
"1634.0499999999884","{""judgement"":1}","[0]","survey-likert","108","401997","0.0-108.0","eo54l9ym","","","","","","","","0"
"1523.3649999999907","{""confidence"":1}","[0]","survey-likert","109","403521","0.0-109.0","eo54l9ym","","","","","","","",""
"","","","call-function","110","403522","0.0-110.0","eo54l9ym","","","","","","","",""
"null","","","html-keyboard-response","111","405025","0.0-111.0","eo54l9ym","","<span style=""color:Black; font-size:50px;"">Agent A","null","","","","",""
"null","","","video-keyboard-response","112","407772","0.0-112.0","eo54l9ym","","","null","","Agent A","scrambled","FOR_REV_MAP_BLOBBY_STIM/1159956.bmp_pp59_L3_V1.0_veridical_freeview_isoTrue_fps144_reversed_REAL.mp4",""
"null","","","html-keyboard-response","113","409276","0.0-113.0","eo54l9ym","","<span style=""color:Black; font-size:50px;"">Agent B","null","","","","",""
"null","","","video-keyboard-response","114","412023","0.0-114.0","eo54l9ym","","","null","","Agent B","veridical","FOR_REV_MAP_BLOBBY_STIM/1159956.bmp_pp59_L3_V1.0_veridical_freeview_isoTrue_fps144.mp4",""
"","","","call-function","115","412023","0.0-115.0","eo54l9ym","","","","","","","",""
"2901.930000000051","{""judgement"":0}","[0]","survey-likert","116","414926","0.0-116.0","eo54l9ym","","","","","","","","1"
"1274.164999999979","{""confidence"":2}","[0]","survey-likert","117","416201","0.0-117.0","eo54l9ym","","","","","","","",""
"","","","call-function","118","416202","0.0-118.0","eo54l9ym","","","","","","","",""
"null","","","html-keyboard-response","119","417708","0.0-119.0","eo54l9ym","","<span style=""color:Black; font-size:50px;"">Agent A","null","","","","",""
"null","","","video-keyboard-response","120","420552","0.0-120.0","eo54l9ym","","","null","","Agent A","scrambled","FOR_REV_MAP_BLOBBY_STIM/713381.bmp_pp82_L2_V1.0_veridical_freeview_isoTrue_fps144_reversed_REAL.mp4",""
"null","","","html-keyboard-response","121","422056","0.0-121.0","eo54l9ym","","<span style=""color:Black; font-size:50px;"">Agent B","null","","","","",""
"null","","","video-keyboard-response","122","424896","0.0-122.0","eo54l9ym","","","null","","Agent B","veridical","FOR_REV_MAP_BLOBBY_STIM/713381.bmp_pp82_L2_V1.0_veridical_freeview_isoTrue_fps144.mp4",""
"","","","call-function","123","424896","0.0-123.0","eo54l9ym","","","","","","","",""
"1498.3150000000023","{""judgement"":0}","[0]","survey-likert","124","426396","0.0-124.0","eo54l9ym","","","","","","","","1"
"1059.25","{""confidence"":2}","[0]","survey-likert","125","427457","0.0-125.0","eo54l9ym","","","","","","","",""
"","","","call-function","126","427458","0.0-126.0","eo54l9ym","","","","","","","",""
"null","","","html-keyboard-response","127","428965","0.0-127.0","eo54l9ym","","<span style=""color:Black; font-size:50px;"">Agent A","null","","","","",""
"null","","","video-keyboard-response","128","431724","0.0-128.0","eo54l9ym","","","null","","Agent A","veridical","FOR_REV_MAP_BLOBBY_STIM/1592129.bmp_pp153_L3_V1.0_veridical_freeview_isoTrue_fps144.mp4",""
"null","","","html-keyboard-response","129","433230","0.0-129.0","eo54l9ym","","<span style=""color:Black; font-size:50px;"">Agent B","null","","","","",""
"null","","","video-keyboard-response","130","436000","0.0-130.0","eo54l9ym","","","null","","Agent B","scrambled","FOR_REV_MAP_BLOBBY_STIM/1592129.bmp_pp153_L3_V1.0_veridical_freeview_isoTrue_fps144_reversed_REAL.mp4",""
"","","","call-function","131","436001","0.0-131.0","eo54l9ym","","","","","","","",""
"5496.450000000012","{""judgement"":0}","[0]","survey-likert","132","441499","0.0-132.0","eo54l9ym","","","","","","","","0"
"1698.5250000000233","{""confidence"":1}","[0]","survey-likert","133","443199","0.0-133.0","eo54l9ym","","","","","","","",""
"","","","call-function","134","443199","0.0-134.0","eo54l9ym","","","","","","","",""
"null","","","html-keyboard-response","135","444702","0.0-135.0","eo54l9ym","","<span style=""color:Black; font-size:50px;"">Agent A","null","","","","",""
"null","","","video-keyboard-response","136","447492","0.0-136.0","eo54l9ym","","","null","","Agent A","veridical","FOR_REV_MAP_BLOBBY_STIM/107909.bmp_pp95_L2_V1.0_veridical_freeview_isoTrue_fps144.mp4",""
"null","","","html-keyboard-response","137","448998","0.0-137.0","eo54l9ym","","<span style=""color:Black; font-size:50px;"">Agent B","null","","","","",""
"null","","","video-keyboard-response","138","451786","0.0-138.0","eo54l9ym","","","null","","Agent B","scrambled","FOR_REV_MAP_BLOBBY_STIM/107909.bmp_pp95_L2_V1.0_veridical_freeview_isoTrue_fps144_reversed_REAL.mp4",""
"","","","call-function","139","451787","0.0-139.0","eo54l9ym","","","","","","","",""
"4609.794999999984","{""judgement"":1}","[0]","survey-likert","140","456398","0.0-140.0","eo54l9ym","","","","","","","","0"
"1902.844999999972","{""confidence"":0}","[0]","survey-likert","141","458302","0.0-141.0","eo54l9ym","","","","","","","",""
"","","","call-function","142","458302","0.0-142.0","eo54l9ym","","","","","","","",""
"null","","","html-keyboard-response","143","459804","0.0-143.0","eo54l9ym","","<span style=""color:Black; font-size:50px;"">Agent A","null","","","","",""
"null","","","video-keyboard-response","144","462720","0.0-144.0","eo54l9ym","","","null","","Agent A","veridical","FOR_REV_MAP_BLOBBY_STIM/498025.bmp_pp81_L1_V1.0_veridical_freeview_isoTrue_fps144.mp4",""
"null","","","html-keyboard-response","145","464223","0.0-145.0","eo54l9ym","","<span style=""color:Black; font-size:50px;"">Agent B","null","","","","",""
"null","","","video-keyboard-response","146","467163","0.0-146.0","eo54l9ym","","","null","","Agent B","scrambled","FOR_REV_MAP_BLOBBY_STIM/498025.bmp_pp81_L1_V1.0_veridical_freeview_isoTrue_fps144_reversed_REAL.mp4",""
"","","","call-function","147","467164","0.0-147.0","eo54l9ym","","","","","","","",""
"3160.2700000000186","{""judgement"":0}","[0]","survey-likert","148","470325","0.0-148.0","eo54l9ym","","","","","","","","0"
"1281.2050000000163","{""confidence"":0}","[0]","survey-likert","149","471607","0.0-149.0","eo54l9ym","","","","","","","",""
"","","","call-function","150","471609","0.0-150.0","eo54l9ym","","","","","","","",""
"null","","","html-keyboard-response","151","473112","0.0-151.0","eo54l9ym","","<span style=""color:Black; font-size:50px;"">Agent A","null","","","","",""
"null","","","video-keyboard-response","152","475009","0.0-152.0","eo54l9ym","","","null","","Agent A","scrambled","FOR_REV_MAP_BLOBBY_STIM/285946.bmp_pp79_L2_V1.0_veridical_freeview_isoTrue_fps144_reversed_REAL.mp4",""
"null","","","html-keyboard-response","153","476512","0.0-153.0","eo54l9ym","","<span style=""color:Black; font-size:50px;"">Agent B","null","","","","",""
"null","","","video-keyboard-response","154","478407","0.0-154.0","eo54l9ym","","","null","","Agent B","veridical","FOR_REV_MAP_BLOBBY_STIM/285946.bmp_pp79_L2_V1.0_veridical_freeview_isoTrue_fps144.mp4",""
"","","","call-function","155","478407","0.0-155.0","eo54l9ym","","","","","","","",""
"4582.630000000005","{""judgement"":1}","[0]","survey-likert","156","482991","0.0-156.0","eo54l9ym","","","","","","","","1"
"1369.9500000000116","{""confidence"":0}","[0]","survey-likert","157","484362","0.0-157.0","eo54l9ym","","","","","","","",""
"","","","call-function","158","484362","0.0-158.0","eo54l9ym","","","","","","","",""
"null","","","html-keyboard-response","159","485865","0.0-159.0","eo54l9ym","","<span style=""color:Black; font-size:50px;"">Agent A","null","","","","",""
"null","","","video-keyboard-response","160","488684","0.0-160.0","eo54l9ym","","","null","","Agent A","veridical","FOR_REV_MAP_BLOBBY_STIM/713770.bmp_pp89_L1_V1.0_veridical_freeview_isoTrue_fps144.mp4",""
"null","","","html-keyboard-response","161","490190","0.0-161.0","eo54l9ym","","<span style=""color:Black; font-size:50px;"">Agent B","null","","","","",""
"null","","","video-keyboard-response","162","493009","0.0-162.0","eo54l9ym","","","null","","Agent B","scrambled","FOR_REV_MAP_BLOBBY_STIM/713770.bmp_pp89_L1_V1.0_veridical_freeview_isoTrue_fps144_reversed_REAL.mp4",""
"","","","call-function","163","493010","0.0-163.0","eo54l9ym","","","","","","","",""
"2300.6699999999837","{""judgement"":0}","[0]","survey-likert","164","495311","0.0-164.0","eo54l9ym","","","","","","","","0"
"2780.804999999993","{""confidence"":1}","[0]","survey-likert","165","498093","0.0-165.0","eo54l9ym","","","","","","","",""
"","","","call-function","166","498094","0.0-166.0","eo54l9ym","","","","","","","",""
"null","","","html-keyboard-response","167","499598","0.0-167.0","eo54l9ym","","<span style=""color:Black; font-size:50px;"">Agent A","null","","","","",""
"null","","","video-keyboard-response","168","502287","0.0-168.0","eo54l9ym","","","null","","Agent A","scrambled","FOR_REV_MAP_BLOBBY_STIM/1592350.bmp_pp55_L3_V1.0_veridical_freeview_isoTrue_fps144_reversed_REAL.mp4",""
"null","","","html-keyboard-response","169","503794","0.0-169.0","eo54l9ym","","<span style=""color:Black; font-size:50px;"">Agent B","null","","","","",""
"null","","","video-keyboard-response","170","506493","0.0-170.0","eo54l9ym","","","null","","Agent B","veridical","FOR_REV_MAP_BLOBBY_STIM/1592350.bmp_pp55_L3_V1.0_veridical_freeview_isoTrue_fps144.mp4",""
"","","","call-function","171","506493","0.0-171.0","eo54l9ym","","","","","","","",""
"5965.289999999979","{""judgement"":1}","[0]","survey-likert","172","512459","0.0-172.0","eo54l9ym","","","","","","","","1"
"1356.6450000000186","{""confidence"":1}","[0]","survey-likert","173","513817","0.0-173.0","eo54l9ym","","","","","","","",""
"1891.4349999999977","","","instructions","174","515709","0.0-174.0","eo54l9ym","[{""page_index"":0,""viewing_time"":1183.0950000000303},{""page_index"":1,""viewing_time"":351.92499999998836},{""page_index"":2,""viewing_time"":356.26500000001397}]","","","","","","",""
"2014.6849999999977","","","instructions","175","517724","0.0-175.0","eo54l9ym","[{""page_index"":0,""viewing_time"":419.1350000000093},{""page_index"":1,""viewing_time"":944.414999999979},{""page_index"":2,""viewing_time"":651.0299999999697}]","","","","","","",""
"","","","call-function","176","517724","0.0-176.0","eo54l9ym","","","","","","","",""
"null","","","html-keyboard-response","177","519231","0.0-177.0","eo54l9ym","","<span style=""color:Black; font-size:50px;"">Agent A","null","","","","",""
"null","","","video-keyboard-response","178","521820","0.0-178.0","eo54l9ym","","","null","","Agent A","veridical","FOR_REV_MAP_BLOBBY_STIM/713633.bmp_pp58_L1_V1.0_veridical_freeview_isoTrue_fps144.mp4",""
"null","","","html-keyboard-response","179","523322","0.0-179.0","eo54l9ym","","<span style=""color:Black; font-size:50px;"">Agent B","null","","","","",""
"null","","","video-keyboard-response","180","525911","0.0-180.0","eo54l9ym","","","null","","Agent B","scrambled","FOR_REV_MAP_BLOBBY_STIM/713633.bmp_pp58_L1_V1.0_veridical_freeview_isoTrue_fps144_reversed_REAL.mp4",""
"","","","call-function","181","525912","0.0-181.0","eo54l9ym","","","","","","","",""
"2689.340000000084","{""judgement"":0}","[0]","survey-likert","182","528602","0.0-182.0","eo54l9ym","","","","","","","","0"
"1131.3499999999767","{""confidence"":1}","[0]","survey-likert","183","529734","0.0-183.0","eo54l9ym","","","","","","","",""
"","","","call-function","184","529735","0.0-184.0","eo54l9ym","","","","","","","",""
"null","","","html-keyboard-response","185","531238","0.0-185.0","eo54l9ym","","<span style=""color:Black; font-size:50px;"">Agent A","null","","","","",""
"null","","","video-keyboard-response","186","534038","0.0-186.0","eo54l9ym","","","null","","Agent A","scrambled","FOR_REV_MAP_BLOBBY_STIM/713689.bmp_pp153_L3_V1.0_veridical_freeview_isoTrue_fps144_reversed_REAL.mp4",""
"null","","","html-keyboard-response","187","535541","0.0-187.0","eo54l9ym","","<span style=""color:Black; font-size:50px;"">Agent B","null","","","","",""
"null","","","video-keyboard-response","188","538361","0.0-188.0","eo54l9ym","","","null","","Agent B","veridical","FOR_REV_MAP_BLOBBY_STIM/713689.bmp_pp153_L3_V1.0_veridical_freeview_isoTrue_fps144.mp4",""
"","","","call-function","189","538362","0.0-189.0","eo54l9ym","","","","","","","",""
"1920.2900000000373","{""judgement"":1}","[0]","survey-likert","190","540283","0.0-190.0","eo54l9ym","","","","","","","","1"
"1154.3250000000698","{""confidence"":2}","[0]","survey-likert","191","541438","0.0-191.0","eo54l9ym","","","","","","","",""
"","","","call-function","192","541439","0.0-192.0","eo54l9ym","","","","","","","",""
"null","","","html-keyboard-response","193","542942","0.0-193.0","eo54l9ym","","<span style=""color:Black; font-size:50px;"">Agent A","null","","","","",""
"null","","","video-keyboard-response","194","545738","0.0-194.0","eo54l9ym","","","null","","Agent A","veridical","FOR_REV_MAP_BLOBBY_STIM/1592567.bmp_pp70_L2_V1.0_veridical_freeview_isoTrue_fps144.mp4",""
"null","","","html-keyboard-response","195","547240","0.0-195.0","eo54l9ym","","<span style=""color:Black; font-size:50px;"">Agent B","null","","","","",""
"null","","","video-keyboard-response","196","550032","0.0-196.0","eo54l9ym","","","null","","Agent B","scrambled","FOR_REV_MAP_BLOBBY_STIM/1592567.bmp_pp70_L2_V1.0_veridical_freeview_isoTrue_fps144_reversed_REAL.mp4",""
"","","","call-function","197","550033","0.0-197.0","eo54l9ym","","","","","","","",""
"2041.7750000000233","{""judgement"":0}","[0]","survey-likert","198","552075","0.0-198.0","eo54l9ym","","","","","","","","0"
"985.8699999999953","{""confidence"":2}","[0]","survey-likert","199","553062","0.0-199.0","eo54l9ym","","","","","","","",""
"","","","call-function","200","553063","0.0-200.0","eo54l9ym","","","","","","","",""
"null","","","html-keyboard-response","201","554565","0.0-201.0","eo54l9ym","","<span style=""color:Black; font-size:50px;"">Agent A","null","","","","",""
"null","","","video-keyboard-response","202","557354","0.0-202.0","eo54l9ym","","","null","","Agent A","scrambled","FOR_REV_MAP_BLOBBY_STIM/1160049.bmp_pp53_L2_V1.0_veridical_freeview_isoTrue_fps144_reversed_REAL.mp4",""
"null","","","html-keyboard-response","203","558857","0.0-203.0","eo54l9ym","","<span style=""color:Black; font-size:50px;"">Agent B","null","","","","",""
"null","","","video-keyboard-response","204","561639","0.0-204.0","eo54l9ym","","","null","","Agent B","veridical","FOR_REV_MAP_BLOBBY_STIM/1160049.bmp_pp53_L2_V1.0_veridical_freeview_isoTrue_fps144.mp4",""
"","","","call-function","205","561640","0.0-205.0","eo54l9ym","","","","","","","",""
"4237.420000000042","{""judgement"":0}","[0]","survey-likert","206","565879","0.0-206.0","eo54l9ym","","","","","","","","1"
"1693.7299999999814","{""confidence"":1}","[0]","survey-likert","207","567575","0.0-207.0","eo54l9ym","","","","","","","",""
"","","","call-function","208","567576","0.0-208.0","eo54l9ym","","","","","","","",""
"null","","","html-keyboard-response","209","569080","0.0-209.0","eo54l9ym","","<span style=""color:Black; font-size:50px;"">Agent A","null","","","","",""
"null","","","video-keyboard-response","210","571843","0.0-210.0","eo54l9ym","","","null","","Agent A","scrambled","FOR_REV_MAP_BLOBBY_STIM/1592044.bmp_pp94_L2_V1.0_veridical_freeview_isoTrue_fps144_reversed_REAL.mp4",""
"null","","","html-keyboard-response","211","573347","0.0-211.0","eo54l9ym","","<span style=""color:Black; font-size:50px;"">Agent B","null","","","","",""
"null","","","video-keyboard-response","212","576109","0.0-212.0","eo54l9ym","","","null","","Agent B","veridical","FOR_REV_MAP_BLOBBY_STIM/1592044.bmp_pp94_L2_V1.0_veridical_freeview_isoTrue_fps144.mp4",""
"","","","call-function","213","576110","0.0-213.0","eo54l9ym","","","","","","","",""
"5476.8450000000885","{""judgement"":0}","[0]","survey-likert","214","581587","0.0-214.0","eo54l9ym","","","","","","","","1"
"1156.0999999999767","{""confidence"":1}","[0]","survey-likert","215","582745","0.0-215.0","eo54l9ym","","","","","","","",""
"","","","call-function","216","582745","0.0-216.0","eo54l9ym","","","","","","","",""
"null","","","html-keyboard-response","217","584249","0.0-217.0","eo54l9ym","","<span style=""color:Black; font-size:50px;"">Agent A","null","","","","",""
"null","","","video-keyboard-response","218","587000","0.0-218.0","eo54l9ym","","","null","","Agent A","veridical","FOR_REV_MAP_BLOBBY_STIM/1159325.bmp_pp67_L2_V1.0_veridical_freeview_isoTrue_fps144.mp4",""
"null","","","html-keyboard-response","219","588504","0.0-219.0","eo54l9ym","","<span style=""color:Black; font-size:50px;"">Agent B","null","","","","",""
"null","","","video-keyboard-response","220","591252","0.0-220.0","eo54l9ym","","","null","","Agent B","scrambled","FOR_REV_MAP_BLOBBY_STIM/1159325.bmp_pp67_L2_V1.0_veridical_freeview_isoTrue_fps144_reversed_REAL.mp4",""
"","","","call-function","221","591253","0.0-221.0","eo54l9ym","","","","","","","",""
"1640.2350000001024","{""judgement"":1}","[0]","survey-likert","222","592894","0.0-222.0","eo54l9ym","","","","","","","","0"
"1566.7850000000326","{""confidence"":3}","[0]","survey-likert","223","594462","0.0-223.0","eo54l9ym","","","","","","","",""
"","","","call-function","224","594463","0.0-224.0","eo54l9ym","","","","","","","",""
"null","","","html-keyboard-response","225","595969","0.0-225.0","eo54l9ym","","<span style=""color:Black; font-size:50px;"">Agent A","null","","","","",""
"null","","","video-keyboard-response","226","598789","0.0-226.0","eo54l9ym","","","null","","Agent A","scrambled","FOR_REV_MAP_BLOBBY_STIM/713652.bmp_pp89_L1_V1.0_veridical_freeview_isoTrue_fps144_reversed_REAL.mp4",""
"null","","","html-keyboard-response","227","600295","0.0-227.0","eo54l9ym","","<span style=""color:Black; font-size:50px;"">Agent B","null","","","","",""
"null","","","video-keyboard-response","228","603102","0.0-228.0","eo54l9ym","","","null","","Agent B","veridical","FOR_REV_MAP_BLOBBY_STIM/713652.bmp_pp89_L1_V1.0_veridical_freeview_isoTrue_fps144.mp4",""
"","","","call-function","229","603102","0.0-229.0","eo54l9ym","","","","","","","",""
"8037.375","{""judgement"":1}","[0]","survey-likert","230","611140","0.0-230.0","eo54l9ym","","","","","","","","1"
"1418.3250000000698","{""confidence"":1}","[0]","survey-likert","231","612560","0.0-231.0","eo54l9ym","","","","","","","",""
"","","","call-function","232","612560","0.0-232.0","eo54l9ym","","","","","","","",""
"null","","","html-keyboard-response","233","614067","0.0-233.0","eo54l9ym","","<span style=""color:Black; font-size:50px;"">Agent A","null","","","","",""
"null","","","video-keyboard-response","234","616930","0.0-234.0","eo54l9ym","","","null","","Agent A","veridical","FOR_REV_MAP_BLOBBY_STIM/1160189.bmp_pp64_L1_V1.0_veridical_freeview_isoTrue_fps144.mp4",""
"null","","","html-keyboard-response","235","618434","0.0-235.0","eo54l9ym","","<span style=""color:Black; font-size:50px;"">Agent B","null","","","","",""
"null","","","video-keyboard-response","236","621296","0.0-236.0","eo54l9ym","","","null","","Agent B","scrambled","FOR_REV_MAP_BLOBBY_STIM/1160189.bmp_pp64_L1_V1.0_veridical_freeview_isoTrue_fps144_reversed_REAL.mp4",""
"","","","call-function","237","621297","0.0-237.0","eo54l9ym","","","","","","","",""
"2847.4250000000466","{""judgement"":0}","[0]","survey-likert","238","624145","0.0-238.0","eo54l9ym","","","","","","","","0"
"1148.9500000000698","{""confidence"":2}","[0]","survey-likert","239","625295","0.0-239.0","eo54l9ym","","","","","","","",""
"","","","call-function","240","625296","0.0-240.0","eo54l9ym","","","","","","","",""
"null","","","html-keyboard-response","241","626798","0.0-241.0","eo54l9ym","","<span style=""color:Black; font-size:50px;"">Agent A","null","","","","",""
"null","","","video-keyboard-response","242","629540","0.0-242.0","eo54l9ym","","","null","","Agent A","veridical","FOR_REV_MAP_BLOBBY_STIM/1591975.bmp_pp88_L2_V1.0_veridical_freeview_isoTrue_fps144.mp4",""
"null","","","html-keyboard-response","243","631042","0.0-243.0","eo54l9ym","","<span style=""color:Black; font-size:50px;"">Agent B","null","","","","",""
"null","","","video-keyboard-response","244","633781","0.0-244.0","eo54l9ym","","","null","","Agent B","scrambled","FOR_REV_MAP_BLOBBY_STIM/1591975.bmp_pp88_L2_V1.0_veridical_freeview_isoTrue_fps144_reversed_REAL.mp4",""
"","","","call-function","245","633782","0.0-245.0","eo54l9ym","","","","","","","",""
"2865.1049999999814","{""judgement"":0}","[0]","survey-likert","246","636647","0.0-246.0","eo54l9ym","","","","","","","","0"
"1157.7149999999674","{""confidence"":1}","[0]","survey-likert","247","637806","0.0-247.0","eo54l9ym","","","","","","","",""
"","","","call-function","248","637807","0.0-248.0","eo54l9ym","","","","","","","",""
"null","","","html-keyboard-response","249","639309","0.0-249.0","eo54l9ym","","<span style=""color:Black; font-size:50px;"">Agent A","null","","","","",""
"null","","","video-keyboard-response","250","642100","0.0-250.0","eo54l9ym","","","null","","Agent A","veridical","FOR_REV_MAP_BLOBBY_STIM/713274.bmp_pp73_L3_V1.0_veridical_freeview_isoTrue_fps144.mp4",""
"null","","","html-keyboard-response","251","643603","0.0-251.0","eo54l9ym","","<span style=""color:Black; font-size:50px;"">Agent B","null","","","","",""
"null","","","video-keyboard-response","252","646393","0.0-252.0","eo54l9ym","","","null","","Agent B","scrambled","FOR_REV_MAP_BLOBBY_STIM/713274.bmp_pp73_L3_V1.0_veridical_freeview_isoTrue_fps144_reversed_REAL.mp4",""
"","","","call-function","253","646393","0.0-253.0","eo54l9ym","","","","","","","",""
"2467.2399999999907","{""judgement"":0}","[0]","survey-likert","254","648862","0.0-254.0","eo54l9ym","","","","","","","","0"
"3784.590000000084","{""confidence"":1}","[0]","survey-likert","255","652647","0.0-255.0","eo54l9ym","","","","","","","",""
"111729.21999999997","","","instructions","256","764377","0.0-256.0","eo54l9ym","[{""page_index"":0,""viewing_time"":7097.439999999944},{""page_index"":1,""viewing_time"":103981.63},{""page_index"":2,""viewing_time"":649.9949999999953}]","","","","","","",""
"3245.5050000000047","","","instructions","257","767623","0.0-257.0","eo54l9ym","[{""page_index"":0,""viewing_time"":668.4550000000745},{""page_index"":1,""viewing_time"":1931.2849999999162},{""page_index"":2,""viewing_time"":645.6600000000326}]","","","","","","",""
"","","","call-function","258","767624","0.0-258.0","eo54l9ym","","","","","","","",""
"null","","","html-keyboard-response","259","769126","0.0-259.0","eo54l9ym","","<span style=""color:Black; font-size:50px;"">Agent A","null","","","","",""
"null","","","video-keyboard-response","260","771879","0.0-260.0","eo54l9ym","","","null","","Agent A","scrambled","FOR_REV_MAP_BLOBBY_STIM/1592168.bmp_pp71_L1_V1.0_veridical_freeview_isoTrue_fps144_reversed_REAL.mp4",""
"null","","","html-keyboard-response","261","773381","0.0-261.0","eo54l9ym","","<span style=""color:Black; font-size:50px;"">Agent B","null","","","","",""
"null","","","video-keyboard-response","262","776129","0.0-262.0","eo54l9ym","","","null","","Agent B","veridical","FOR_REV_MAP_BLOBBY_STIM/1592168.bmp_pp71_L1_V1.0_veridical_freeview_isoTrue_fps144.mp4",""
"","","","call-function","263","776129","0.0-263.0","eo54l9ym","","","","","","","",""
"3506.5400000000373","{""judgement"":1}","[0]","survey-likert","264","779636","0.0-264.0","eo54l9ym","","","","","","","","1"
"6874.215000000084","{""confidence"":1}","[0]","survey-likert","265","786512","0.0-265.0","eo54l9ym","","","","","","","",""
"","","","call-function","266","786513","0.0-266.0","eo54l9ym","","","","","","","",""
"null","","","html-keyboard-response","267","788016","0.0-267.0","eo54l9ym","","<span style=""color:Black; font-size:50px;"">Agent A","null","","","","",""
"null","","","video-keyboard-response","268","790815","0.0-268.0","eo54l9ym","","","null","","Agent A","veridical","FOR_REV_MAP_BLOBBY_STIM/713328.bmp_pp86_L2_V1.0_veridical_freeview_isoTrue_fps144.mp4",""
"null","","","html-keyboard-response","269","792319","0.0-269.0","eo54l9ym","","<span style=""color:Black; font-size:50px;"">Agent B","null","","","","",""
"null","","","video-keyboard-response","270","795078","0.0-270.0","eo54l9ym","","","null","","Agent B","scrambled","FOR_REV_MAP_BLOBBY_STIM/713328.bmp_pp86_L2_V1.0_veridical_freeview_isoTrue_fps144_reversed_REAL.mp4",""
"","","","call-function","271","795080","0.0-271.0","eo54l9ym","","","","","","","",""
"4234.530000000028","{""judgement"":0}","[0]","survey-likert","272","799316","0.0-272.0","eo54l9ym","","","","","","","","0"
"1370.2399999999907","{""confidence"":1}","[0]","survey-likert","273","800687","0.0-273.0","eo54l9ym","","","","","","","",""
"","","","call-function","274","800688","0.0-274.0","eo54l9ym","","","","","","","",""
"null","","","html-keyboard-response","275","802194","0.0-275.0","eo54l9ym","","<span style=""color:Black; font-size:50px;"">Agent A","null","","","","",""
"null","","","video-keyboard-response","276","805021","0.0-276.0","eo54l9ym","","","null","","Agent A","scrambled","FOR_REV_MAP_BLOBBY_STIM/713829.bmp_pp60_L3_V1.0_veridical_freeview_isoTrue_fps144_reversed_REAL.mp4",""
"null","","","html-keyboard-response","277","806526","0.0-277.0","eo54l9ym","","<span style=""color:Black; font-size:50px;"">Agent B","null","","","","",""
"null","","","video-keyboard-response","278","809348","0.0-278.0","eo54l9ym","","","null","","Agent B","veridical","FOR_REV_MAP_BLOBBY_STIM/713829.bmp_pp60_L3_V1.0_veridical_freeview_isoTrue_fps144.mp4",""
"","","","call-function","279","809349","0.0-279.0","eo54l9ym","","","","","","","",""
"2164.5100000000093","{""judgement"":1}","[0]","survey-likert","280","811515","0.0-280.0","eo54l9ym","","","","","","","","1"
"1529.8600000001024","{""confidence"":3}","[0]","survey-likert","281","813046","0.0-281.0","eo54l9ym","","","","","","","",""
"","","","call-function","282","813046","0.0-282.0","eo54l9ym","","","","","","","",""
"null","","","html-keyboard-response","283","814549","0.0-283.0","eo54l9ym","","<span style=""color:Black; font-size:50px;"">Agent A","null","","","","",""
"null","","","video-keyboard-response","284","817344","0.0-284.0","eo54l9ym","","","null","","Agent A","scrambled","FOR_REV_MAP_BLOBBY_STIM/1592298.bmp_pp56_L3_V1.0_veridical_freeview_isoTrue_fps144_reversed_REAL.mp4",""
"null","","","html-keyboard-response","285","818848","0.0-285.0","eo54l9ym","","<span style=""color:Black; font-size:50px;"">Agent B","null","","","","",""
"null","","","video-keyboard-response","286","821632","0.0-286.0","eo54l9ym","","","null","","Agent B","veridical","FOR_REV_MAP_BLOBBY_STIM/1592298.bmp_pp56_L3_V1.0_veridical_freeview_isoTrue_fps144.mp4",""
"","","","call-function","287","821633","0.0-287.0","eo54l9ym","","","","","","","",""
"1481.3399999999674","{""judgement"":1}","[0]","survey-likert","288","823115","0.0-288.0","eo54l9ym","","","","","","","","1"
"1365.9000000000233","{""confidence"":0}","[0]","survey-likert","289","824482","0.0-289.0","eo54l9ym","","","","","","","",""
"","","","call-function","290","824483","0.0-290.0","eo54l9ym","","","","","","","",""
"null","","","html-keyboard-response","291","825985","0.0-291.0","eo54l9ym","","<span style=""color:Black; font-size:50px;"">Agent A","null","","","","",""
"null","","","video-keyboard-response","292","828812","0.0-292.0","eo54l9ym","","","null","","Agent A","scrambled","FOR_REV_MAP_BLOBBY_STIM/713920.bmp_pp76_L1_V1.0_veridical_freeview_isoTrue_fps144_reversed_REAL.mp4",""
"null","","","html-keyboard-response","293","830313","0.0-293.0","eo54l9ym","","<span style=""color:Black; font-size:50px;"">Agent B","null","","","","",""
"null","","","video-keyboard-response","294","833139","0.0-294.0","eo54l9ym","","","null","","Agent B","veridical","FOR_REV_MAP_BLOBBY_STIM/713920.bmp_pp76_L1_V1.0_veridical_freeview_isoTrue_fps144.mp4",""
"","","","call-function","295","833139","0.0-295.0","eo54l9ym","","","","","","","",""
"2348.5899999999674","{""judgement"":1}","[0]","survey-likert","296","835489","0.0-296.0","eo54l9ym","","","","","","","","1"
"4566.280000000028","{""confidence"":1}","[0]","survey-likert","297","840056","0.0-297.0","eo54l9ym","","","","","","","",""
"","","","call-function","298","840056","0.0-298.0","eo54l9ym","","","","","","","",""
"null","","","html-keyboard-response","299","841557","0.0-299.0","eo54l9ym","","<span style=""color:Black; font-size:50px;"">Agent A","null","","","","",""
"null","","","video-keyboard-response","300","844308","0.0-300.0","eo54l9ym","","","null","","Agent A","veridical","FOR_REV_MAP_BLOBBY_STIM/1159819.bmp_pp151_L1_V1.0_veridical_freeview_isoTrue_fps144.mp4",""
"null","","","html-keyboard-response","301","845812","0.0-301.0","eo54l9ym","","<span style=""color:Black; font-size:50px;"">Agent B","null","","","","",""
"null","","","video-keyboard-response","302","848559","0.0-302.0","eo54l9ym","","","null","","Agent B","scrambled","FOR_REV_MAP_BLOBBY_STIM/1159819.bmp_pp151_L1_V1.0_veridical_freeview_isoTrue_fps144_reversed_REAL.mp4",""
"","","","call-function","303","848559","0.0-303.0","eo54l9ym","","","","","","","",""
"1654.4799999999814","{""judgement"":1}","[0]","survey-likert","304","850215","0.0-304.0","eo54l9ym","","","","","","","","0"
"1028.3000000000466","{""confidence"":0}","[0]","survey-likert","305","851244","0.0-305.0","eo54l9ym","","","","","","","",""
"","","","call-function","306","851244","0.0-306.0","eo54l9ym","","","","","","","",""
"null","","","html-keyboard-response","307","852750","0.0-307.0","eo54l9ym","","<span style=""color:Black; font-size:50px;"">Agent A","null","","","","",""
"null","","","video-keyboard-response","308","855520","0.0-308.0","eo54l9ym","","","null","","Agent A","scrambled","FOR_REV_MAP_BLOBBY_STIM/1592047.bmp_pp51_L1_V1.0_veridical_freeview_isoTrue_fps144_reversed_REAL.mp4",""
"null","","","html-keyboard-response","309","857022","0.0-309.0","eo54l9ym","","<span style=""color:Black; font-size:50px;"">Agent B","null","","","","",""
"null","","","video-keyboard-response","310","859778","0.0-310.0","eo54l9ym","","","null","","Agent B","veridical","FOR_REV_MAP_BLOBBY_STIM/1592047.bmp_pp51_L1_V1.0_veridical_freeview_isoTrue_fps144.mp4",""
"","","","call-function","311","859779","0.0-311.0","eo54l9ym","","","","","","","",""
"1484.0849999999627","{""judgement"":0}","[0]","survey-likert","312","861263","0.0-312.0","eo54l9ym","","","","","","","","1"
"1226.5250000000233","{""confidence"":1}","[0]","survey-likert","313","862491","0.0-313.0","eo54l9ym","","","","","","","",""
"","","","call-function","314","862491","0.0-314.0","eo54l9ym","","","","","","","",""
"null","","","html-keyboard-response","315","863994","0.0-315.0","eo54l9ym","","<span style=""color:Black; font-size:50px;"">Agent A","null","","","","",""
"null","","","video-keyboard-response","316","866831","0.0-316.0","eo54l9ym","","","null","","Agent A","veridical","FOR_REV_MAP_BLOBBY_STIM/1160204.bmp_pp54_L2_V1.0_veridical_freeview_isoTrue_fps144.mp4",""
"null","","","html-keyboard-response","317","868338","0.0-317.0","eo54l9ym","","<span style=""color:Black; font-size:50px;"">Agent B","null","","","","",""
"null","","","video-keyboard-response","318","871171","0.0-318.0","eo54l9ym","","","null","","Agent B","scrambled","FOR_REV_MAP_BLOBBY_STIM/1160204.bmp_pp54_L2_V1.0_veridical_freeview_isoTrue_fps144_reversed_REAL.mp4",""
"","","","call-function","319","871172","0.0-319.0","eo54l9ym","","","","","","","",""
"2319.159999999916","{""judgement"":0}","[0]","survey-likert","320","873492","0.0-320.0","eo54l9ym","","","","","","","","0"
"1152.1900000000605","{""confidence"":0}","[0]","survey-likert","321","874645","0.0-321.0","eo54l9ym","","","","","","","",""
"","","","call-function","322","874645","0.0-322.0","eo54l9ym","","","","","","","",""
"null","","","html-keyboard-response","323","876149","0.0-323.0","eo54l9ym","","<span style=""color:Black; font-size:50px;"">Agent A","null","","","","",""
"null","","","video-keyboard-response","324","878957","0.0-324.0","eo54l9ym","","","null","","Agent A","veridical","FOR_REV_MAP_BLOBBY_STIM/1591920.bmp_pp97_L3_V1.0_veridical_freeview_isoTrue_fps144.mp4",""
"null","","","html-keyboard-response","325","880460","0.0-325.0","eo54l9ym","","<span style=""color:Black; font-size:50px;"">Agent B","null","","","","",""
"null","","","video-keyboard-response","326","883263","0.0-326.0","eo54l9ym","","","null","","Agent B","scrambled","FOR_REV_MAP_BLOBBY_STIM/1591920.bmp_pp97_L3_V1.0_veridical_freeview_isoTrue_fps144_reversed_REAL.mp4",""
"","","","call-function","327","883264","0.0-327.0","eo54l9ym","","","","","","","",""
"2183.6199999999953","{""judgement"":0}","[0]","survey-likert","328","885449","0.0-328.0","eo54l9ym","","","","","","","","0"
"2025.1500000000233","{""confidence"":1}","[0]","survey-likert","329","887475","0.0-329.0","eo54l9ym","","","","","","","",""
"","","","call-function","330","887475","0.0-330.0","eo54l9ym","","","","","","","",""
"null","","","html-keyboard-response","331","888976","0.0-331.0","eo54l9ym","","<span style=""color:Black; font-size:50px;"">Agent A","null","","","","",""
"null","","","video-keyboard-response","332","891760","0.0-332.0","eo54l9ym","","","null","","Agent A","veridical","FOR_REV_MAP_BLOBBY_STIM/150277.bmp_pp65_L3_V1.0_veridical_freeview_isoTrue_fps144.mp4",""
"null","","","html-keyboard-response","333","893265","0.0-333.0","eo54l9ym","","<span style=""color:Black; font-size:50px;"">Agent B","null","","","","",""
"null","","","video-keyboard-response","334","896050","0.0-334.0","eo54l9ym","","","null","","Agent B","scrambled","FOR_REV_MAP_BLOBBY_STIM/150277.bmp_pp65_L3_V1.0_veridical_freeview_isoTrue_fps144_reversed_REAL.mp4",""
"","","","call-function","335","896051","0.0-335.0","eo54l9ym","","","","","","","",""
"2900.1699999999255","{""judgement"":0}","[0]","survey-likert","336","898952","0.0-336.0","eo54l9ym","","","","","","","","0"
"1604.5200000000186","{""confidence"":1}","[0]","survey-likert","337","900557","0.0-337.0","eo54l9ym","","","","","","","",""
"9877.619999999995","","","instructions","338","910436","0.0-338.0","eo54l9ym","[{""page_index"":0,""viewing_time"":4470.380000000005},{""page_index"":1,""viewing_time"":4312.25},{""page_index"":2,""viewing_time"":1094.8399999999674}]","","","","","","",""
"3306.3850000000093","","","instructions","339","913742","0.0-339.0","eo54l9ym","[{""page_index"":0,""viewing_time"":993.3249999999534},{""page_index"":1,""viewing_time"":1523.0800000000745},{""page_index"":2,""viewing_time"":789.8800000000047}]","","","","","","",""
"","","","call-function","340","913743","0.0-340.0","eo54l9ym","","","","","","","",""
"null","","","html-keyboard-response","341","915245","0.0-341.0","eo54l9ym","","<span style=""color:Black; font-size:50px;"">Agent A","null","","","","",""
"null","","","video-keyboard-response","342","918065","0.0-342.0","eo54l9ym","","","null","","Agent A","veridical","FOR_REV_MAP_BLOBBY_STIM/1592530.bmp_pp75_L1_V1.0_veridical_freeview_isoTrue_fps144.mp4",""
"null","","","html-keyboard-response","343","919569","0.0-343.0","eo54l9ym","","<span style=""color:Black; font-size:50px;"">Agent B","null","","","","",""
"null","","","video-keyboard-response","344","922408","0.0-344.0","eo54l9ym","","","null","","Agent B","scrambled","FOR_REV_MAP_BLOBBY_STIM/1592530.bmp_pp75_L1_V1.0_veridical_freeview_isoTrue_fps144_reversed_REAL.mp4",""
"","","","call-function","345","922409","0.0-345.0","eo54l9ym","","","","","","","",""
"11104.369999999995","{""judgement"":0}","[0]","survey-likert","346","933514","0.0-346.0","eo54l9ym","","","","","","","","0"
"2238.7600000000093","{""confidence"":0}","[0]","survey-likert","347","935754","0.0-347.0","eo54l9ym","","","","","","","",""
"","","","call-function","348","935754","0.0-348.0","eo54l9ym","","","","","","","",""
"null","","","html-keyboard-response","349","937259","0.0-349.0","eo54l9ym","","<span style=""color:Black; font-size:50px;"">Agent A","null","","","","",""
"null","","","video-keyboard-response","350","940021","0.0-350.0","eo54l9ym","","","null","","Agent A","veridical","FOR_REV_MAP_BLOBBY_STIM/150463.bmp_pp55_L3_V1.0_veridical_freeview_isoTrue_fps144.mp4",""
"null","","","html-keyboard-response","351","941529","0.0-351.0","eo54l9ym","","<span style=""color:Black; font-size:50px;"">Agent B","null","","","","",""
"null","","","video-keyboard-response","352","944290","0.0-352.0","eo54l9ym","","","null","","Agent B","scrambled","FOR_REV_MAP_BLOBBY_STIM/150463.bmp_pp55_L3_V1.0_veridical_freeview_isoTrue_fps144_reversed_REAL.mp4",""
"","","","call-function","353","944291","0.0-353.0","eo54l9ym","","","","","","","",""
"2200.859999999986","{""judgement"":1}","[0]","survey-likert","354","946493","0.0-354.0","eo54l9ym","","","","","","","","0"
"1417.8049999999348","{""confidence"":1}","[0]","survey-likert","355","947913","0.0-355.0","eo54l9ym","","","","","","","",""
"","","","call-function","356","947914","0.0-356.0","eo54l9ym","","","","","","","",""
"null","","","html-keyboard-response","357","949418","0.0-357.0","eo54l9ym","","<span style=""color:Black; font-size:50px;"">Agent A","null","","","","",""
"null","","","video-keyboard-response","358","952139","0.0-358.0","eo54l9ym","","","null","","Agent A","scrambled","FOR_REV_MAP_BLOBBY_STIM/1159592.bmp_pp91_L3_V1.0_veridical_freeview_isoTrue_fps144_reversed_REAL.mp4",""
"null","","","html-keyboard-response","359","953642","0.0-359.0","eo54l9ym","","<span style=""color:Black; font-size:50px;"">Agent B","null","","","","",""
"null","","","video-keyboard-response","360","956369","0.0-360.0","eo54l9ym","","","null","","Agent B","veridical","FOR_REV_MAP_BLOBBY_STIM/1159592.bmp_pp91_L3_V1.0_veridical_freeview_isoTrue_fps144.mp4",""
"","","","call-function","361","956369","0.0-361.0","eo54l9ym","","","","","","","",""
"2912.9599999999627","{""judgement"":1}","[0]","survey-likert","362","959283","0.0-362.0","eo54l9ym","","","","","","","","1"
"1022.0600000000559","{""confidence"":2}","[0]","survey-likert","363","960306","0.0-363.0","eo54l9ym","","","","","","","",""
"","","","call-function","364","960307","0.0-364.0","eo54l9ym","","","","","","","",""
"null","","","html-keyboard-response","365","961811","0.0-365.0","eo54l9ym","","<span style=""color:Black; font-size:50px;"">Agent A","null","","","","",""
"null","","","video-keyboard-response","366","964628","0.0-366.0","eo54l9ym","","","null","","Agent A","veridical","FOR_REV_MAP_BLOBBY_STIM/107955.bmp_pp90_L2_V1.0_veridical_freeview_isoTrue_fps144.mp4",""
"null","","","html-keyboard-response","367","966132","0.0-367.0","eo54l9ym","","<span style=""color:Black; font-size:50px;"">Agent B","null","","","","",""
"null","","","video-keyboard-response","368","968948","0.0-368.0","eo54l9ym","","","null","","Agent B","scrambled","FOR_REV_MAP_BLOBBY_STIM/107955.bmp_pp90_L2_V1.0_veridical_freeview_isoTrue_fps144_reversed_REAL.mp4",""
"","","","call-function","369","968948","0.0-369.0","eo54l9ym","","","","","","","",""
"3956.0999999999767","{""judgement"":0}","[0]","survey-likert","370","972905","0.0-370.0","eo54l9ym","","","","","","","","0"
"1620.280000000028","{""confidence"":0}","[0]","survey-likert","371","974527","0.0-371.0","eo54l9ym","","","","","","","",""
"","","","call-function","372","974527","0.0-372.0","eo54l9ym","","","","","","","",""
"null","","","html-keyboard-response","373","976031","0.0-373.0","eo54l9ym","","<span style=""color:Black; font-size:50px;"">Agent A","null","","","","",""
"null","","","video-keyboard-response","374","978805","0.0-374.0","eo54l9ym","","","null","","Agent A","scrambled","FOR_REV_MAP_BLOBBY_STIM/1160247.bmp_pp54_L2_V1.0_veridical_freeview_isoTrue_fps144_reversed_REAL.mp4",""
"null","","","html-keyboard-response","375","980311","0.0-375.0","eo54l9ym","","<span style=""color:Black; font-size:50px;"">Agent B","null","","","","",""
"null","","","video-keyboard-response","376","983074","0.0-376.0","eo54l9ym","","","null","","Agent B","veridical","FOR_REV_MAP_BLOBBY_STIM/1160247.bmp_pp54_L2_V1.0_veridical_freeview_isoTrue_fps144.mp4",""
"","","","call-function","377","983075","0.0-377.0","eo54l9ym","","","","","","","",""
"1992.5749999999534","{""judgement"":1}","[0]","survey-likert","378","985068","0.0-378.0","eo54l9ym","","","","","","","","1"
"2826.5999999999767","{""confidence"":2}","[0]","survey-likert","379","987896","0.0-379.0","eo54l9ym","","","","","","","",""
"","","","call-function","380","987897","0.0-380.0","eo54l9ym","","","","","","","",""
"null","","","html-keyboard-response","381","989399","0.0-381.0","eo54l9ym","","<span style=""color:Black; font-size:50px;"">Agent A","null","","","","",""
"null","","","video-keyboard-response","382","992201","0.0-382.0","eo54l9ym","","","null","","Agent A","veridical","FOR_REV_MAP_BLOBBY_STIM/1592305.bmp_pp65_L3_V1.0_veridical_freeview_isoTrue_fps144.mp4",""
"null","","","html-keyboard-response","383","993705","0.0-383.0","eo54l9ym","","<span style=""color:Black; font-size:50px;"">Agent B","null","","","","",""
"null","","","video-keyboard-response","384","996511","0.0-384.0","eo54l9ym","","","null","","Agent B","scrambled","FOR_REV_MAP_BLOBBY_STIM/1592305.bmp_pp65_L3_V1.0_veridical_freeview_isoTrue_fps144_reversed_REAL.mp4",""
"","","","call-function","385","996512","0.0-385.0","eo54l9ym","","","","","","","",""
"1351.3400000000838","{""judgement"":1}","[0]","survey-likert","386","997864","0.0-386.0","eo54l9ym","","","","","","","","0"
"1593.155000000028","{""confidence"":2}","[0]","survey-likert","387","999458","0.0-387.0","eo54l9ym","","","","","","","",""
"","","","call-function","388","999459","0.0-388.0","eo54l9ym","","","","","","","",""
"null","","","html-keyboard-response","389","1000960","0.0-389.0","eo54l9ym","","<span style=""color:Black; font-size:50px;"">Agent A","null","","","","",""
"null","","","video-keyboard-response","390","1003699","0.0-390.0","eo54l9ym","","","null","","Agent A","scrambled","FOR_REV_MAP_BLOBBY_STIM/285959.bmp_pp93_L1_V1.0_veridical_freeview_isoTrue_fps144_reversed_REAL.mp4",""
"null","","","html-keyboard-response","391","1005201","0.0-391.0","eo54l9ym","","<span style=""color:Black; font-size:50px;"">Agent B","null","","","","",""
"null","","","video-keyboard-response","392","1007946","0.0-392.0","eo54l9ym","","","null","","Agent B","veridical","FOR_REV_MAP_BLOBBY_STIM/285959.bmp_pp93_L1_V1.0_veridical_freeview_isoTrue_fps144.mp4",""
"","","","call-function","393","1007947","0.0-393.0","eo54l9ym","","","","","","","",""
"5410.234999999986","{""judgement"":0}","[0]","survey-likert","394","1013358","0.0-394.0","eo54l9ym","","","","","","","","1"
"1120.9350000000559","{""confidence"":0}","[0]","survey-likert","395","1014480","0.0-395.0","eo54l9ym","","","","","","","",""
"","","","call-function","396","1014481","0.0-396.0","eo54l9ym","","","","","","","",""
"null","","","html-keyboard-response","397","1015984","0.0-397.0","eo54l9ym","","<span style=""color:Black; font-size:50px;"">Agent A","null","","","","",""
"null","","","video-keyboard-response","398","1018774","0.0-398.0","eo54l9ym","","","null","","Agent A","scrambled","FOR_REV_MAP_BLOBBY_STIM/1592150.bmp_pp77_L3_V1.0_veridical_freeview_isoTrue_fps144_reversed_REAL.mp4",""
"null","","","html-keyboard-response","399","1020278","0.0-399.0","eo54l9ym","","<span style=""color:Black; font-size:50px;"">Agent B","null","","","","",""
"null","","","video-keyboard-response","400","1023067","0.0-400.0","eo54l9ym","","","null","","Agent B","veridical","FOR_REV_MAP_BLOBBY_STIM/1592150.bmp_pp77_L3_V1.0_veridical_freeview_isoTrue_fps144.mp4",""
"","","","call-function","401","1023068","0.0-401.0","eo54l9ym","","","","","","","",""
"2350.6450000000186","{""judgement"":0}","[0]","survey-likert","402","1025419","0.0-402.0","eo54l9ym","","","","","","","","1"
"4516.519999999902","{""confidence"":0}","[0]","survey-likert","403","1029937","0.0-403.0","eo54l9ym","","","","","","","",""
"","","","call-function","404","1029937","0.0-404.0","eo54l9ym","","","","","","","",""
"null","","","html-keyboard-response","405","1031441","0.0-405.0","eo54l9ym","","<span style=""color:Black; font-size:50px;"">Agent A","null","","","","",""
"null","","","video-keyboard-response","406","1034021","0.0-406.0","eo54l9ym","","","null","","Agent A","scrambled","FOR_REV_MAP_BLOBBY_STIM/498398.bmp_pp81_L1_V1.0_veridical_freeview_isoTrue_fps144_reversed_REAL.mp4",""
"null","","","html-keyboard-response","407","1035524","0.0-407.0","eo54l9ym","","<span style=""color:Black; font-size:50px;"">Agent B","null","","","","",""
"null","","","video-keyboard-response","408","1038088","0.0-408.0","eo54l9ym","","","null","","Agent B","veridical","FOR_REV_MAP_BLOBBY_STIM/498398.bmp_pp81_L1_V1.0_veridical_freeview_isoTrue_fps144.mp4",""
"","","","call-function","409","1038089","0.0-409.0","eo54l9ym","","","","","","","",""
"3704.1500000000233","{""judgement"":1}","[0]","survey-likert","410","1041795","0.0-410.0","eo54l9ym","","","","","","","","1"
"2257.310000000056","{""confidence"":1}","[0]","survey-likert","411","1044053","0.0-411.0","eo54l9ym","","","","","","","",""
"","","","call-function","412","1044054","0.0-412.0","eo54l9ym","","","","","","","",""
"null","","","html-keyboard-response","413","1045556","0.0-413.0","eo54l9ym","","<span style=""color:Black; font-size:50px;"">Agent A","null","","","","",""
"null","","","video-keyboard-response","414","1048251","0.0-414.0","eo54l9ym","","","null","","Agent A","scrambled","FOR_REV_MAP_BLOBBY_STIM/713788.bmp_pp52_L1_V1.0_veridical_freeview_isoTrue_fps144_reversed_REAL.mp4",""
"null","","","html-keyboard-response","415","1049753","0.0-415.0","eo54l9ym","","<span style=""color:Black; font-size:50px;"">Agent B","null","","","","",""
"null","","","video-keyboard-response","416","1052439","0.0-416.0","eo54l9ym","","","null","","Agent B","veridical","FOR_REV_MAP_BLOBBY_STIM/713788.bmp_pp52_L1_V1.0_veridical_freeview_isoTrue_fps144.mp4",""
"","","","call-function","417","1052440","0.0-417.0","eo54l9ym","","","","","","","",""
"7692.410000000149","{""judgement"":0}","[0]","survey-likert","418","1060136","0.0-418.0","eo54l9ym","","","","","","","","1"
"1438.595000000205","{""confidence"":1}","[0]","survey-likert","419","1061576","0.0-419.0","eo54l9ym","","","","","","","",""
"55791.41500000004","","","instructions","420","1117369","0.0-420.0","eo54l9ym","[{""page_index"":0,""viewing_time"":1993.469999999972},{""page_index"":1,""viewing_time"":53254.36499999999},{""page_index"":2,""viewing_time"":543.3500000000931}]","","","","","","",""
"4277.290000000037","","","instructions","421","1121647","0.0-421.0","eo54l9ym","[{""page_index"":0,""viewing_time"":624.2750000001397},{""page_index"":1,""viewing_time"":3007.0149999998976},{""page_index"":2,""viewing_time"":645.8950000000186}]","","","","","","",""
"","","","call-function","422","1121648","0.0-422.0","eo54l9ym","","","","","","","",""
"null","","","html-keyboard-response","423","1123151","0.0-423.0","eo54l9ym","","<span style=""color:Black; font-size:50px;"">Agent A","null","","","","",""
"null","","","video-keyboard-response","424","1125910","0.0-424.0","eo54l9ym","","","null","","Agent A","scrambled","FOR_REV_MAP_BLOBBY_STIM/1592017.bmp_pp154_L1_V1.0_veridical_freeview_isoTrue_fps144_reversed_REAL.mp4",""
"null","","","html-keyboard-response","425","1127416","0.0-425.0","eo54l9ym","","<span style=""color:Black; font-size:50px;"">Agent B","null","","","","",""
"null","","","video-keyboard-response","426","1130168","0.0-426.0","eo54l9ym","","","null","","Agent B","veridical","FOR_REV_MAP_BLOBBY_STIM/1592017.bmp_pp154_L1_V1.0_veridical_freeview_isoTrue_fps144.mp4",""
"","","","call-function","427","1130169","0.0-427.0","eo54l9ym","","","","","","","",""
"1716","{""judgement"":1}","[0]","survey-likert","428","1131886","0.0-428.0","eo54l9ym","","","","","","","","1"
"1085.9350000000559","{""confidence"":3}","[0]","survey-likert","429","1132974","0.0-429.0","eo54l9ym","","","","","","","",""
"","","","call-function","430","1132974","0.0-430.0","eo54l9ym","","","","","","","",""
"null","","","html-keyboard-response","431","1134478","0.0-431.0","eo54l9ym","","<span style=""color:Black; font-size:50px;"">Agent A","null","","","","",""
"null","","","video-keyboard-response","432","1137317","0.0-432.0","eo54l9ym","","","null","","Agent A","veridical","FOR_REV_MAP_BLOBBY_STIM/498326.bmp_pp57_L1_V1.0_veridical_freeview_isoTrue_fps144.mp4",""
"null","","","html-keyboard-response","433","1138820","0.0-433.0","eo54l9ym","","<span style=""color:Black; font-size:50px;"">Agent B","null","","","","",""
"null","","","video-keyboard-response","434","1141657","0.0-434.0","eo54l9ym","","","null","","Agent B","scrambled","FOR_REV_MAP_BLOBBY_STIM/498326.bmp_pp57_L1_V1.0_veridical_freeview_isoTrue_fps144_reversed_REAL.mp4",""
"","","","call-function","435","1141658","0.0-435.0","eo54l9ym","","","","","","","",""
"1210.4899999999907","{""judgement"":0}","[0]","survey-likert","436","1142869","0.0-436.0","eo54l9ym","","","","","","","","0"
"1042.0349999999162","{""confidence"":2}","[0]","survey-likert","437","1143913","0.0-437.0","eo54l9ym","","","","","","","",""
"","","","call-function","438","1143913","0.0-438.0","eo54l9ym","","","","","","","",""
"null","","","html-keyboard-response","439","1145417","0.0-439.0","eo54l9ym","","<span style=""color:Black; font-size:50px;"">Agent A","null","","","","",""
"null","","","video-keyboard-response","440","1148122","0.0-440.0","eo54l9ym","","","null","","Agent A","scrambled","FOR_REV_MAP_BLOBBY_STIM/1592038.bmp_pp79_L2_V1.0_veridical_freeview_isoTrue_fps144_reversed_REAL.mp4",""
"null","","","html-keyboard-response","441","1149627","0.0-441.0","eo54l9ym","","<span style=""color:Black; font-size:50px;"">Agent B","null","","","","",""
"null","","","video-keyboard-response","442","1152316","0.0-442.0","eo54l9ym","","","null","","Agent B","veridical","FOR_REV_MAP_BLOBBY_STIM/1592038.bmp_pp79_L2_V1.0_veridical_freeview_isoTrue_fps144.mp4",""
"","","","call-function","443","1152317","0.0-443.0","eo54l9ym","","","","","","","",""
"2513.5699999998324","{""judgement"":0}","[0]","survey-likert","444","1154831","0.0-444.0","eo54l9ym","","","","","","","","1"
"1069.8400000000838","{""confidence"":1}","[0]","survey-likert","445","1155902","0.0-445.0","eo54l9ym","","","","","","","",""
"","","","call-function","446","1155903","0.0-446.0","eo54l9ym","","","","","","","",""
"null","","","html-keyboard-response","447","1157405","0.0-447.0","eo54l9ym","","<span style=""color:Black; font-size:50px;"">Agent A","null","","","","",""
"null","","","video-keyboard-response","448","1160184","0.0-448.0","eo54l9ym","","","null","","Agent A","veridical","FOR_REV_MAP_BLOBBY_STIM/498372.bmp_pp95_L2_V1.0_veridical_freeview_isoTrue_fps144.mp4",""
"null","","","html-keyboard-response","449","1161689","0.0-449.0","eo54l9ym","","<span style=""color:Black; font-size:50px;"">Agent B","null","","","","",""
"null","","","video-keyboard-response","450","1164472","0.0-450.0","eo54l9ym","","","null","","Agent B","scrambled","FOR_REV_MAP_BLOBBY_STIM/498372.bmp_pp95_L2_V1.0_veridical_freeview_isoTrue_fps144_reversed_REAL.mp4",""
"","","","call-function","451","1164473","0.0-451.0","eo54l9ym","","","","","","","",""
"2829.6500000001397","{""judgement"":1}","[0]","survey-likert","452","1167303","0.0-452.0","eo54l9ym","","","","","","","","0"
"1923.7549999998882","{""confidence"":1}","[0]","survey-likert","453","1169228","0.0-453.0","eo54l9ym","","","","","","","",""
"","","","call-function","454","1169229","0.0-454.0","eo54l9ym","","","","","","","",""
"null","","","html-keyboard-response","455","1170733","0.0-455.0","eo54l9ym","","<span style=""color:Black; font-size:50px;"">Agent A","null","","","","",""
"null","","","video-keyboard-response","456","1173542","0.0-456.0","eo54l9ym","","","null","","Agent A","veridical","FOR_REV_MAP_BLOBBY_STIM/1592921.bmp_pp69_L3_V1.0_veridical_freeview_isoTrue_fps144.mp4",""
"null","","","html-keyboard-response","457","1175045","0.0-457.0","eo54l9ym","","<span style=""color:Black; font-size:50px;"">Agent B","null","","","","",""
"null","","","video-keyboard-response","458","1177857","0.0-458.0","eo54l9ym","","","null","","Agent B","scrambled","FOR_REV_MAP_BLOBBY_STIM/1592921.bmp_pp69_L3_V1.0_veridical_freeview_isoTrue_fps144_reversed_REAL.mp4",""
"","","","call-function","459","1177858","0.0-459.0","eo54l9ym","","","","","","","",""
"2524.9250000000466","{""judgement"":0}","[0]","survey-likert","460","1180383","0.0-460.0","eo54l9ym","","","","","","","","0"
"2066.780000000028","{""confidence"":1}","[0]","survey-likert","461","1182451","0.0-461.0","eo54l9ym","","","","","","","",""
"","","","call-function","462","1182452","0.0-462.0","eo54l9ym","","","","","","","",""
"null","","","html-keyboard-response","463","1183958","0.0-463.0","eo54l9ym","","<span style=""color:Black; font-size:50px;"">Agent A","null","","","","",""
"null","","","video-keyboard-response","464","1186676","0.0-464.0","eo54l9ym","","","null","","Agent A","scrambled","FOR_REV_MAP_BLOBBY_STIM/1159427.bmp_pp98_L1_V1.0_veridical_freeview_isoTrue_fps144_reversed_REAL.mp4",""
"null","","","html-keyboard-response","465","1188183","0.0-465.0","eo54l9ym","","<span style=""color:Black; font-size:50px;"">Agent B","null","","","","",""
"null","","","video-keyboard-response","466","1190883","0.0-466.0","eo54l9ym","","","null","","Agent B","veridical","FOR_REV_MAP_BLOBBY_STIM/1159427.bmp_pp98_L1_V1.0_veridical_freeview_isoTrue_fps144.mp4",""
"","","","call-function","467","1190883","0.0-467.0","eo54l9ym","","","","","","","",""
"5135.475000000093","{""judgement"":1}","[0]","survey-likert","468","1196020","0.0-468.0","eo54l9ym","","","","","","","","1"
"2762.5449999999255","{""confidence"":1}","[0]","survey-likert","469","1198784","0.0-469.0","eo54l9ym","","","","","","","",""
"","","","call-function","470","1198784","0.0-470.0","eo54l9ym","","","","","","","",""
"null","","","html-keyboard-response","471","1200290","0.0-471.0","eo54l9ym","","<span style=""color:Black; font-size:50px;"">Agent A","null","","","","",""
"null","","","video-keyboard-response","472","1203099","0.0-472.0","eo54l9ym","","","null","","Agent A","veridical","FOR_REV_MAP_BLOBBY_STIM/1159508.bmp_pp151_L1_V1.0_veridical_freeview_isoTrue_fps144.mp4",""
"null","","","html-keyboard-response","473","1204604","0.0-473.0","eo54l9ym","","<span style=""color:Black; font-size:50px;"">Agent B","null","","","","",""
"null","","","video-keyboard-response","474","1207413","0.0-474.0","eo54l9ym","","","null","","Agent B","scrambled","FOR_REV_MAP_BLOBBY_STIM/1159508.bmp_pp151_L1_V1.0_veridical_freeview_isoTrue_fps144_reversed_REAL.mp4",""
"","","","call-function","475","1207414","0.0-475.0","eo54l9ym","","","","","","","",""
"1590.7099999999627","{""judgement"":0}","[0]","survey-likert","476","1209005","0.0-476.0","eo54l9ym","","","","","","","","0"
"1314.2600000000093","{""confidence"":1}","[0]","survey-likert","477","1210321","0.0-477.0","eo54l9ym","","","","","","","",""
"","","","call-function","478","1210321","0.0-478.0","eo54l9ym","","","","","","","",""
"null","","","html-keyboard-response","479","1211828","0.0-479.0","eo54l9ym","","<span style=""color:Black; font-size:50px;"">Agent A","null","","","","",""
"null","","","video-keyboard-response","480","1214598","0.0-480.0","eo54l9ym","","","null","","Agent A","scrambled","FOR_REV_MAP_BLOBBY_STIM/285932.bmp_pp64_L1_V1.0_veridical_freeview_isoTrue_fps144_reversed_REAL.mp4",""
"null","","","html-keyboard-response","481","1216100","0.0-481.0","eo54l9ym","","<span style=""color:Black; font-size:50px;"">Agent B","null","","","","",""
"null","","","video-keyboard-response","482","1218890","0.0-482.0","eo54l9ym","","","null","","Agent B","veridical","FOR_REV_MAP_BLOBBY_STIM/285932.bmp_pp64_L1_V1.0_veridical_freeview_isoTrue_fps144.mp4",""
"","","","call-function","483","1218890","0.0-483.0","eo54l9ym","","","","","","","",""
"1590.2900000000373","{""judgement"":1}","[0]","survey-likert","484","1220481","0.0-484.0","eo54l9ym","","","","","","","","1"
"2155.0149999998976","{""confidence"":2}","[0]","survey-likert","485","1222638","0.0-485.0","eo54l9ym","","","","","","","",""
"","","","call-function","486","1222638","0.0-486.0","eo54l9ym","","","","","","","",""
"null","","","html-keyboard-response","487","1224145","0.0-487.0","eo54l9ym","","<span style=""color:Black; font-size:50px;"">Agent A","null","","","","",""
"null","","","video-keyboard-response","488","1226985","0.0-488.0","eo54l9ym","","","null","","Agent A","scrambled","FOR_REV_MAP_BLOBBY_STIM/1592025.bmp_pp68_L1_V1.0_veridical_freeview_isoTrue_fps144_reversed_REAL.mp4",""
"null","","","html-keyboard-response","489","1228489","0.0-489.0","eo54l9ym","","<span style=""color:Black; font-size:50px;"">Agent B","null","","","","",""
"null","","","video-keyboard-response","490","1231306","0.0-490.0","eo54l9ym","","","null","","Agent B","veridical","FOR_REV_MAP_BLOBBY_STIM/1592025.bmp_pp68_L1_V1.0_veridical_freeview_isoTrue_fps144.mp4",""
"","","","call-function","491","1231308","0.0-491.0","eo54l9ym","","","","","","","",""
"2719.7399999999907","{""judgement"":0}","[0]","survey-likert","492","1234029","0.0-492.0","eo54l9ym","","","","","","","","1"
"2080.469999999972","{""confidence"":0}","[0]","survey-likert","493","1236111","0.0-493.0","eo54l9ym","","","","","","","",""
"","","","call-function","494","1236111","0.0-494.0","eo54l9ym","","","","","","","",""
"null","","","html-keyboard-response","495","1237616","0.0-495.0","eo54l9ym","","<span style=""color:Black; font-size:50px;"">Agent A","null","","","","",""
"null","","","video-keyboard-response","496","1240538","0.0-496.0","eo54l9ym","","","null","","Agent A","veridical","FOR_REV_MAP_BLOBBY_STIM/1592568.bmp_pp71_L1_V1.0_veridical_freeview_isoTrue_fps144.mp4",""
"null","","","html-keyboard-response","497","1242042","0.0-497.0","eo54l9ym","","<span style=""color:Black; font-size:50px;"">Agent B","null","","","","",""
"null","","","video-keyboard-response","498","1244963","0.0-498.0","eo54l9ym","","","null","","Agent B","scrambled","FOR_REV_MAP_BLOBBY_STIM/1592568.bmp_pp71_L1_V1.0_veridical_freeview_isoTrue_fps144_reversed_REAL.mp4",""
"","","","call-function","499","1244964","0.0-499.0","eo54l9ym","","","","","","","",""
"1730.184999999823","{""judgement"":0}","[0]","survey-likert","500","1246695","0.0-500.0","eo54l9ym","","","","","","","","0"
"1363.5250000001397","{""confidence"":1}","[0]","survey-likert","501","1248060","0.0-501.0","eo54l9ym","","","","","","","",""
"92627.56000000006","","","instructions","502","1340688","0.0-502.0","eo54l9ym","[{""page_index"":0,""viewing_time"":2068.4550000000745},{""page_index"":1,""viewing_time"":89994.10499999998},{""page_index"":2,""viewing_time"":564.8449999999721}]","","","","","","",""
"2048.399999999907","","","instructions","503","1342737","0.0-503.0","eo54l9ym","[{""page_index"":0,""viewing_time"":624.3349999999627},{""page_index"":1,""viewing_time"":897.9799999999814},{""page_index"":2,""viewing_time"":525.9799999999814}]","","","","","","",""
"","","","call-function","504","1342738","0.0-504.0","eo54l9ym","","","","","","","",""
"null","","","html-keyboard-response","505","1344240","0.0-505.0","eo54l9ym","","<span style=""color:Black; font-size:50px;"">Agent A","null","","","","",""
"null","","","video-keyboard-response","506","1347031","0.0-506.0","eo54l9ym","","","null","","Agent A","veridical","FOR_REV_MAP_BLOBBY_STIM/1591781.bmp_pp63_L1_V1.0_veridical_freeview_isoTrue_fps144.mp4",""
"null","","","html-keyboard-response","507","1348535","0.0-507.0","eo54l9ym","","<span style=""color:Black; font-size:50px;"">Agent B","null","","","","",""
"null","","","video-keyboard-response","508","1351324","0.0-508.0","eo54l9ym","","","null","","Agent B","scrambled","FOR_REV_MAP_BLOBBY_STIM/1591781.bmp_pp63_L1_V1.0_veridical_freeview_isoTrue_fps144_reversed_REAL.mp4",""
"","","","call-function","509","1351324","0.0-509.0","eo54l9ym","","","","","","","",""
"2735.7000000001863","{""judgement"":1}","[0]","survey-likert","510","1354061","0.0-510.0","eo54l9ym","","","","","","","","0"
"1639.1499999999069","{""confidence"":1}","[0]","survey-likert","511","1355701","0.0-511.0","eo54l9ym","","","","","","","",""
"","","","call-function","512","1355702","0.0-512.0","eo54l9ym","","","","","","","",""
"null","","","html-keyboard-response","513","1357208","0.0-513.0","eo54l9ym","","<span style=""color:Black; font-size:50px;"">Agent A","null","","","","",""
"null","","","video-keyboard-response","514","1359896","0.0-514.0","eo54l9ym","","","null","","Agent A","scrambled","FOR_REV_MAP_BLOBBY_STIM/713858.bmp_pp57_L1_V1.0_veridical_freeview_isoTrue_fps144_reversed_REAL.mp4",""
"null","","","html-keyboard-response","515","1361403","0.0-515.0","eo54l9ym","","<span style=""color:Black; font-size:50px;"">Agent B","null","","","","",""
"null","","","video-keyboard-response","516","1364087","0.0-516.0","eo54l9ym","","","null","","Agent B","veridical","FOR_REV_MAP_BLOBBY_STIM/713858.bmp_pp57_L1_V1.0_veridical_freeview_isoTrue_fps144.mp4",""
"","","","call-function","517","1364088","0.0-517.0","eo54l9ym","","","","","","","",""
"2700.1450000000186","{""judgement"":0}","[0]","survey-likert","518","1366789","0.0-518.0","eo54l9ym","","","","","","","","1"
"3791.060000000056","{""confidence"":0}","[0]","survey-likert","519","1370581","0.0-519.0","eo54l9ym","","","","","","","",""
"","","","call-function","520","1370582","0.0-520.0","eo54l9ym","","","","","","","",""
"null","","","html-keyboard-response","521","1372084","0.0-521.0","eo54l9ym","","<span style=""color:Black; font-size:50px;"">Agent A","null","","","","",""
"null","","","video-keyboard-response","522","1374861","0.0-522.0","eo54l9ym","","","null","","Agent A","scrambled","FOR_REV_MAP_BLOBBY_STIM/1592747.bmp_pp53_L2_V1.0_veridical_freeview_isoTrue_fps144_reversed_REAL.mp4",""
"null","","","html-keyboard-response","523","1376364","0.0-523.0","eo54l9ym","","<span style=""color:Black; font-size:50px;"">Agent B","null","","","","",""
"null","","","video-keyboard-response","524","1379132","0.0-524.0","eo54l9ym","","","null","","Agent B","veridical","FOR_REV_MAP_BLOBBY_STIM/1592747.bmp_pp53_L2_V1.0_veridical_freeview_isoTrue_fps144.mp4",""
"","","","call-function","525","1379133","0.0-525.0","eo54l9ym","","","","","","","",""
"1498.9799999999814","{""judgement"":0}","[0]","survey-likert","526","1380632","0.0-526.0","eo54l9ym","","","","","","","","1"
"2166.8249999999534","{""confidence"":0}","[0]","survey-likert","527","1382800","0.0-527.0","eo54l9ym","","","","","","","",""
"","","","call-function","528","1382801","0.0-528.0","eo54l9ym","","","","","","","",""
"null","","","html-keyboard-response","529","1384304","0.0-529.0","eo54l9ym","","<span style=""color:Black; font-size:50px;"">Agent A","null","","","","",""
"null","","","video-keyboard-response","530","1387002","0.0-530.0","eo54l9ym","","","null","","Agent A","veridical","FOR_REV_MAP_BLOBBY_STIM/61513.bmp_pp75_L1_V1.0_veridical_freeview_isoTrue_fps144.mp4",""
"null","","","html-keyboard-response","531","1388506","0.0-531.0","eo54l9ym","","<span style=""color:Black; font-size:50px;"">Agent B","null","","","","",""
"null","","","video-keyboard-response","532","1391181","0.0-532.0","eo54l9ym","","","null","","Agent B","scrambled","FOR_REV_MAP_BLOBBY_STIM/61513.bmp_pp75_L1_V1.0_veridical_freeview_isoTrue_fps144_reversed_REAL.mp4",""
"","","","call-function","533","1391182","0.0-533.0","eo54l9ym","","","","","","","",""
"2282.8000000000466","{""judgement"":0}","[0]","survey-likert","534","1393466","0.0-534.0","eo54l9ym","","","","","","","","0"
"1361.1649999998044","{""confidence"":2}","[0]","survey-likert","535","1394828","0.0-535.0","eo54l9ym","","","","","","","",""
"","","","call-function","536","1394828","0.0-536.0","eo54l9ym","","","","","","","",""
"null","","","html-keyboard-response","537","1396333","0.0-537.0","eo54l9ym","","<span style=""color:Black; font-size:50px;"">Agent A","null","","","","",""
"null","","","video-keyboard-response","538","1399126","0.0-538.0","eo54l9ym","","","null","","Agent A","veridical","FOR_REV_MAP_BLOBBY_STIM/1592289.bmp_pp92_L3_V1.0_veridical_freeview_isoTrue_fps144.mp4",""
"null","","","html-keyboard-response","539","1400629","0.0-539.0","eo54l9ym","","<span style=""color:Black; font-size:50px;"">Agent B","null","","","","",""
"null","","","video-keyboard-response","540","1403419","0.0-540.0","eo54l9ym","","","null","","Agent B","scrambled","FOR_REV_MAP_BLOBBY_STIM/1592289.bmp_pp92_L3_V1.0_veridical_freeview_isoTrue_fps144_reversed_REAL.mp4",""
"","","","call-function","541","1403419","0.0-541.0","eo54l9ym","","","","","","","",""
"1656.940000000177","{""judgement"":0}","[0]","survey-likert","542","1405077","0.0-542.0","eo54l9ym","","","","","","","","0"
"1405.4650000000838","{""confidence"":2}","[0]","survey-likert","543","1406483","0.0-543.0","eo54l9ym","","","","","","","",""
"","","","call-function","544","1406484","0.0-544.0","eo54l9ym","","","","","","","",""
"null","","","html-keyboard-response","545","1407987","0.0-545.0","eo54l9ym","","<span style=""color:Black; font-size:50px;"">Agent A","null","","","","",""
"null","","","video-keyboard-response","546","1410748","0.0-546.0","eo54l9ym","","","null","","Agent A","scrambled","FOR_REV_MAP_BLOBBY_STIM/285684.bmp_pp80_L3_V1.0_veridical_freeview_isoTrue_fps144_reversed_REAL.mp4",""
"null","","","html-keyboard-response","547","1412254","0.0-547.0","eo54l9ym","","<span style=""color:Black; font-size:50px;"">Agent B","null","","","","",""
"null","","","video-keyboard-response","548","1415018","0.0-548.0","eo54l9ym","","","null","","Agent B","veridical","FOR_REV_MAP_BLOBBY_STIM/285684.bmp_pp80_L3_V1.0_veridical_freeview_isoTrue_fps144.mp4",""
"","","","call-function","549","1415018","0.0-549.0","eo54l9ym","","","","","","","",""
"12929.064999999944","{""judgement"":0}","[0]","survey-likert","550","1427949","0.0-550.0","eo54l9ym","","","","","","","","1"
"1619.9950000001118","{""confidence"":0}","[0]","survey-likert","551","1429571","0.0-551.0","eo54l9ym","","","","","","","",""
"","","","call-function","552","1429572","0.0-552.0","eo54l9ym","","","","","","","",""
"null","","","html-keyboard-response","553","1431076","0.0-553.0","eo54l9ym","","<span style=""color:Black; font-size:50px;"">Agent A","null","","","","",""
"null","","","video-keyboard-response","554","1433795","0.0-554.0","eo54l9ym","","","null","","Agent A","veridical","FOR_REV_MAP_BLOBBY_STIM/285715.bmp_pp67_L2_V1.0_veridical_freeview_isoTrue_fps144.mp4",""
"null","","","html-keyboard-response","555","1435298","0.0-555.0","eo54l9ym","","<span style=""color:Black; font-size:50px;"">Agent B","null","","","","",""
"null","","","video-keyboard-response","556","1438019","0.0-556.0","eo54l9ym","","","null","","Agent B","scrambled","FOR_REV_MAP_BLOBBY_STIM/285715.bmp_pp67_L2_V1.0_veridical_freeview_isoTrue_fps144_reversed_REAL.mp4",""
"","","","call-function","557","1438020","0.0-557.0","eo54l9ym","","","","","","","",""
"1550.125","{""judgement"":0}","[0]","survey-likert","558","1439572","0.0-558.0","eo54l9ym","","","","","","","","0"
"1508.1750000000466","{""confidence"":1}","[0]","survey-likert","559","1441081","0.0-559.0","eo54l9ym","","","","","","","",""
"","","","call-function","560","1441082","0.0-560.0","eo54l9ym","","","","","","","",""
"null","","","html-keyboard-response","561","1442587","0.0-561.0","eo54l9ym","","<span style=""color:Black; font-size:50px;"">Agent A","null","","","","",""
"null","","","video-keyboard-response","562","1445191","0.0-562.0","eo54l9ym","","","null","","Agent A","scrambled","FOR_REV_MAP_BLOBBY_STIM/1159874.bmp_pp96_L2_V1.0_veridical_freeview_isoTrue_fps144_reversed_REAL.mp4",""
"null","","","html-keyboard-response","563","1446694","0.0-563.0","eo54l9ym","","<span style=""color:Black; font-size:50px;"">Agent B","null","","","","",""
"null","","","video-keyboard-response","564","1449296","0.0-564.0","eo54l9ym","","","null","","Agent B","veridical","FOR_REV_MAP_BLOBBY_STIM/1159874.bmp_pp96_L2_V1.0_veridical_freeview_isoTrue_fps144.mp4",""
"","","","call-function","565","1449297","0.0-565.0","eo54l9ym","","","","","","","",""
"1813.6999999999534","{""judgement"":0}","[0]","survey-likert","566","1451112","0.0-566.0","eo54l9ym","","","","","","","","1"
"1910.094999999972","{""confidence"":1}","[0]","survey-likert","567","1453023","0.0-567.0","eo54l9ym","","","","","","","",""
"","","","call-function","568","1453024","0.0-568.0","eo54l9ym","","","","","","","",""
"null","","","html-keyboard-response","569","1454531","0.0-569.0","eo54l9ym","","<span style=""color:Black; font-size:50px;"">Agent A","null","","","","",""
"null","","","video-keyboard-response","570","1457315","0.0-570.0","eo54l9ym","","","null","","Agent A","scrambled","FOR_REV_MAP_BLOBBY_STIM/1159329.bmp_pp61_L2_V1.0_veridical_freeview_isoTrue_fps144_reversed_REAL.mp4",""
"null","","","html-keyboard-response","571","1458819","0.0-571.0","eo54l9ym","","<span style=""color:Black; font-size:50px;"">Agent B","null","","","","",""
"null","","","video-keyboard-response","572","1461592","0.0-572.0","eo54l9ym","","","null","","Agent B","veridical","FOR_REV_MAP_BLOBBY_STIM/1159329.bmp_pp61_L2_V1.0_veridical_freeview_isoTrue_fps144.mp4",""
"","","","call-function","573","1461593","0.0-573.0","eo54l9ym","","","","","","","",""
"1846.9899999999907","{""judgement"":1}","[0]","survey-likert","574","1463441","0.0-574.0","eo54l9ym","","","","","","","","1"
"1208.5450000001583","{""confidence"":2}","[0]","survey-likert","575","1464651","0.0-575.0","eo54l9ym","","","","","","","",""
"","","","call-function","576","1464651","0.0-576.0","eo54l9ym","","","","","","","",""
"null","","","html-keyboard-response","577","1466155","0.0-577.0","eo54l9ym","","<span style=""color:Black; font-size:50px;"">Agent A","null","","","","",""
"null","","","video-keyboard-response","578","1468951","0.0-578.0","eo54l9ym","","","null","","Agent A","veridical","FOR_REV_MAP_BLOBBY_STIM/286034.bmp_pp69_L3_V1.0_veridical_freeview_isoTrue_fps144.mp4",""
"null","","","html-keyboard-response","579","1470454","0.0-579.0","eo54l9ym","","<span style=""color:Black; font-size:50px;"">Agent B","null","","","","",""
"null","","","video-keyboard-response","580","1473252","0.0-580.0","eo54l9ym","","","null","","Agent B","scrambled","FOR_REV_MAP_BLOBBY_STIM/286034.bmp_pp69_L3_V1.0_veridical_freeview_isoTrue_fps144_reversed_REAL.mp4",""
"","","","call-function","581","1473253","0.0-581.0","eo54l9ym","","","","","","","",""
"2285.4899999999907","{""judgement"":0}","[0]","survey-likert","582","1475539","0.0-582.0","eo54l9ym","","","","","","","","0"
"1983.6800000001676","{""confidence"":0}","[0]","survey-likert","583","1477524","0.0-583.0","eo54l9ym","","","","","","","",""
"2242.0149999998976","","","instructions","584","1479766","0.0-584.0","eo54l9ym","[{""page_index"":0,""viewing_time"":2241.8799999998882}]","","","","","","",""
"3442.9599999999627","","","instructions","585","1483210","0.0-585.0","eo54l9ym","[{""page_index"":0,""viewing_time"":3442.7650000001304}]","","","","","","",""
"15444.110000000102","{""post-1"":1}","[0]","survey-likert","586","1498656","0.0-586.0","eo54l9ym","","","","","","","",""
"18378.935000000056","{""post-1"":0}","[0]","survey-likert","587","1517036","0.0-587.0","eo54l9ym","","","","","","","",""
"23814.530000000028","{""post-2"":1}","[0]","survey-likert","588","1540852","0.0-588.0","eo54l9ym","","","","","","","",""
"1910.2700000000186","{""post-2"":0}","[0]","survey-likert","589","1542763","0.0-589.0","eo54l9ym","","","","","","","",""
"5074.324999999953","{""post-3"":2}","[0]","survey-likert","590","1547839","0.0-590.0","eo54l9ym","","","","","","","",""
"5687.244999999879","{""post-3"":1}","[0]","survey-likert","591","1553527","0.0-591.0","eo54l9ym","","","","","","","",""
"5446.305000000168","{""post-4"":1}","[0]","survey-likert","592","1558976","0.0-592.0","eo54l9ym","","","","","","","",""
"2039.5749999999534","{""post-4"":0}","[0]","survey-likert","593","1561018","0.0-593.0","eo54l9ym","","","","","","","",""
"5996.415000000037","{""post-5"":1}","[0]","survey-likert","594","1567016","0.0-594.0","eo54l9ym","","","","","","","",""
"2071.590000000084","{""post-5"":2}","[0]","survey-likert","595","1569089","0.0-595.0","eo54l9ym","","","","","","","",""
"62846.22999999998","{""Q0"":""I found this surprisingly hard. I think the main mechanism I used to judge whether the attention hotspots were \""human\"" or not was the starting point and how regular the jumps were.""}","","survey-text","596","1631941","0.0-596.0","eo54l9ym","","","","","","","",""
"84826.72999999998","{""Q0"":""I did not find the experiment easy at all. The strategies that I used were thinking about how I usually pay attention to an image, and how I tend to start by looking at the middle or maybe the middle left and then shift my focus to the right. Also, lingering a bit in a specific part of the image instead of just jumping around regularly seemed more human to me.""}","","survey-text","597","1716771","0.0-597.0","eo54l9ym","","","","","","","",""
"66302.14500000002","{""Q0"":""I generally found it very difficult to determine whether it was a human or artificial actor. I think what made it harder was not having the actual picture in front of me, so I just had to generalize my responses.""}","","survey-text","598","1783077","0.0-598.0","eo54l9ym","","","","","","","",""
"30181.294999999925","","","instructions","599","1813260","0.0-599.0","eo54l9ym","[{""page_index"":0,""viewing_time"":30181.159999999916}]","","","","","","",""
"20774.89500000002","{""Experimenter_end"":[""Printed ID# eo54l9ym on consent form"",""Given subject SONA credit or payment"",""Given the subject debrief form""]}","[0]","survey-multi-select","600","1834037","0.0-600.0","eo54l9ym","","","","","","","",""
