"rt","responses","question_order","trial_type","trial_index","time_elapsed","internal_node_id","ID","view_history","stimulus","key_press","value","agent","condition","image","correct_answer"
"268730.77","{""Experimenter"":[""Confirmed subject's identity (ID card)"",""Confirmed normal or corrected-to-normal vision"",""Obtained consent (signature and date)"",""Checked the test room lighting"",""Checked computer screen lighting"",""Checked distance from screen to chin rest (50cm)"",""Cleaned and adjusted chin rest"",""Counterbalanced the order of the tasks"",""Opened the experiment in Firefox"",""Made the experiment full screen"",""Encouraged subject to silence phone, put away distractors, etc.""]}","[0]","survey-multi-select","0","268739","0.0-0.0","eoycy3ot","","","","","","","",""
"27158.23999999999","","","instructions","1","295899","0.0-1.0","eoycy3ot","[{""page_index"":0,""viewing_time"":27158.08500000002}]","","","","","","",""
"39530.140000000014","","","instructions","2","335431","0.0-2.0","eoycy3ot","[{""page_index"":0,""viewing_time"":2351.070000000007},{""page_index"":1,""viewing_time"":24057.130000000005},{""page_index"":2,""viewing_time"":13121.820000000007}]","","","","","","",""
"5054.915000000037","","","instructions","3","340487","0.0-3.0","eoycy3ot","[{""page_index"":0,""viewing_time"":5054.809999999998}]","","","","","","",""
"null","","","video-keyboard-response","4","343563","0.0-4.0","eoycy3ot","","","null","","","","",""
"40441.185","","","instructions","5","384005","0.0-5.0","eoycy3ot","[{""page_index"":0,""viewing_time"":7582.319999999949},{""page_index"":1,""viewing_time"":9533.85500000004},{""page_index"":2,""viewing_time"":3026.070000000007},{""page_index"":3,""viewing_time"":11521.844999999972},{""page_index"":4,""viewing_time"":8776.875}]","","","","","","",""
"5268.915000000037","","","instructions","6","389275","0.0-6.0","eoycy3ot","[{""page_index"":0,""viewing_time"":5268.785000000033}]","","","","","","",""
"","","","call-function","7","389277","0.0-7.0","eoycy3ot","","","","","","","",""
"null","","","html-keyboard-response","8","390780","0.0-8.0","eoycy3ot","","<span style=""color:Black; font-size:50px;"">Agent A","null","","","","",""
"null","","","video-keyboard-response","9","393871","0.0-9.0","eoycy3ot","","","null","","Agent A","scrambled","STIM_SET_3/1159508.bmp_pp151_L1_V2_veridical_freeview_isoFalsemismatch_1159675.bmp_L3_fps90.mp4",""
"null","","","html-keyboard-response","10","395373","0.0-10.0","eoycy3ot","","<span style=""color:Black; font-size:50px;"">Agent B","null","","","","",""
"null","","","video-keyboard-response","11","398452","0.0-11.0","eoycy3ot","","","null","","Agent B","veridical","STIM_SET_1_REAL/1159675.bmp_pp77_L3_V1.0_veridical_freeview_isoFalse_fps144.mp4",""
"","","","call-function","12","398453","0.0-12.0","eoycy3ot","","","","","","","",""
"9170.265000000014","{""judgement"":1}","[0]","survey-likert","13","407625","0.0-13.0","eoycy3ot","","","","","","","","1"
"4001.75","{""confidence"":1}","[0]","survey-likert","14","411628","0.0-14.0","eoycy3ot","","","","","","","",""
"","","","call-function","15","411629","0.0-15.0","eoycy3ot","","","","","","","",""
"null","","","html-keyboard-response","16","413131","0.0-16.0","eoycy3ot","","<span style=""color:Black; font-size:50px;"">Agent A","null","","","","",""
"null","","","video-keyboard-response","17","416198","0.0-17.0","eoycy3ot","","","null","","Agent A","veridical","STIM_SET_1_REAL/1592362.bmp_pp95_L2_V1.0_veridical_freeview_isoFalse_fps144.mp4",""
"null","","","html-keyboard-response","18","417702","0.0-18.0","eoycy3ot","","<span style=""color:Black; font-size:50px;"">Agent B","null","","","","",""
"null","","","video-keyboard-response","19","420799","0.0-19.0","eoycy3ot","","","null","","Agent B","scrambled","STIM_SET_3/150277.bmp_pp65_L3_V2_veridical_freeview_isoFalsemismatch_1592362.bmp_L2_fps90.mp4",""
"","","","call-function","20","420800","0.0-20.0","eoycy3ot","","","","","","","",""
"5052.989999999991","{""judgement"":0}","[0]","survey-likert","21","425855","0.0-21.0","eoycy3ot","","","","","","","","0"
"4038.2450000000536","{""confidence"":2}","[0]","survey-likert","22","429895","0.0-22.0","eoycy3ot","","","","","","","",""
"","","","call-function","23","429896","0.0-23.0","eoycy3ot","","","","","","","",""
"null","","","html-keyboard-response","24","431399","0.0-24.0","eoycy3ot","","<span style=""color:Black; font-size:50px;"">Agent A","null","","","","",""
"null","","","video-keyboard-response","25","434506","0.0-25.0","eoycy3ot","","","null","","Agent A","scrambled","STIM_SET_3/1159874.bmp_pp96_L2_V2_veridical_freeview_isoFalsemismatch_1159515.bmp_L3_fps90.mp4",""
"null","","","html-keyboard-response","26","436013","0.0-26.0","eoycy3ot","","<span style=""color:Black; font-size:50px;"">Agent B","null","","","","",""
"null","","","video-keyboard-response","27","439084","0.0-27.0","eoycy3ot","","","null","","Agent B","veridical","STIM_SET_1_REAL/1159515.bmp_pp84_L3_V1.0_veridical_freeview_isoFalse_fps144.mp4",""
"","","","call-function","28","439086","0.0-28.0","eoycy3ot","","","","","","","",""
"6123.135000000009","{""judgement"":1}","[0]","survey-likert","29","445210","0.0-29.0","eoycy3ot","","","","","","","","1"
"2667.2300000000396","{""confidence"":1}","[0]","survey-likert","30","447879","0.0-30.0","eoycy3ot","","","","","","","",""
"","","","call-function","31","447880","0.0-31.0","eoycy3ot","","","","","","","",""
"null","","","html-keyboard-response","32","449381","0.0-32.0","eoycy3ot","","<span style=""color:Black; font-size:50px;"">Agent A","null","","","","",""
"null","","","video-keyboard-response","33","452451","0.0-33.0","eoycy3ot","","","null","","Agent A","veridical","STIM_SET_1_REAL/713017.bmp_pp152_L2_V1.0_veridical_freeview_isoFalse_fps144.mp4",""
"null","","","html-keyboard-response","34","453957","0.0-34.0","eoycy3ot","","<span style=""color:Black; font-size:50px;"">Agent B","null","","","","",""
"null","","","video-keyboard-response","35","457032","0.0-35.0","eoycy3ot","","","null","","Agent B","scrambled","STIM_SET_3/1591975.bmp_pp88_L2_V2_veridical_freeview_isoFalsemismatch_713017.bmp_L2_fps90.mp4",""
"","","","call-function","36","457033","0.0-36.0","eoycy3ot","","","","","","","",""
"2235.539999999979","{""judgement"":0}","[0]","survey-likert","37","459270","0.0-37.0","eoycy3ot","","","","","","","","0"
"8330.085000000021","{""confidence"":2}","[0]","survey-likert","38","467602","0.0-38.0","eoycy3ot","","","","","","","",""
"","","","call-function","39","467603","0.0-39.0","eoycy3ot","","","","","","","",""
"null","","","html-keyboard-response","40","469109","0.0-40.0","eoycy3ot","","<span style=""color:Black; font-size:50px;"">Agent A","null","","","","",""
"null","","","video-keyboard-response","41","472188","0.0-41.0","eoycy3ot","","","null","","Agent A","veridical","STIM_SET_1_REAL/713707.bmp_pp154_L1_V1.0_veridical_freeview_isoFalse_fps144.mp4",""
"null","","","html-keyboard-response","42","473693","0.0-42.0","eoycy3ot","","<span style=""color:Black; font-size:50px;"">Agent B","null","","","","",""
"null","","","video-keyboard-response","43","476787","0.0-43.0","eoycy3ot","","","null","","Agent B","scrambled","STIM_SET_3/1592314.bmp_pp100_L3_V2_veridical_freeview_isoFalsemismatch_713707.bmp_L1_fps90.mp4",""
"","","","call-function","44","476788","0.0-44.0","eoycy3ot","","","","","","","",""
"6297.809999999998","{""judgement"":1}","[0]","survey-likert","45","483087","0.0-45.0","eoycy3ot","","","","","","","","0"
"2747.820000000007","{""confidence"":1}","[0]","survey-likert","46","485836","0.0-46.0","eoycy3ot","","","","","","","",""
"","","","call-function","47","485837","0.0-47.0","eoycy3ot","","","","","","","",""
"null","","","html-keyboard-response","48","487340","0.0-48.0","eoycy3ot","","<span style=""color:Black; font-size:50px;"">Agent A","null","","","","",""
"null","","","video-keyboard-response","49","490457","0.0-49.0","eoycy3ot","","","null","","Agent A","veridical","STIM_SET_1_REAL/1159813.bmp_pp79_L2_V1.0_veridical_freeview_isoFalse_fps144.mp4",""
"null","","","html-keyboard-response","50","491964","0.0-50.0","eoycy3ot","","<span style=""color:Black; font-size:50px;"">Agent B","null","","","","",""
"null","","","video-keyboard-response","51","495051","0.0-51.0","eoycy3ot","","","null","","Agent B","scrambled","STIM_SET_3/1592129.bmp_pp153_L3_V2_veridical_freeview_isoFalsemismatch_1159813.bmp_L2_fps90.mp4",""
"","","","call-function","52","495052","0.0-52.0","eoycy3ot","","","","","","","",""
"5949.339999999967","{""judgement"":1}","[0]","survey-likert","53","501002","0.0-53.0","eoycy3ot","","","","","","","","0"
"3271.594999999972","{""confidence"":0}","[0]","survey-likert","54","504275","0.0-54.0","eoycy3ot","","","","","","","",""
"","","","call-function","55","504276","0.0-55.0","eoycy3ot","","","","","","","",""
"null","","","html-keyboard-response","56","505781","0.0-56.0","eoycy3ot","","<span style=""color:Black; font-size:50px;"">Agent A","null","","","","",""
"null","","","video-keyboard-response","57","508853","0.0-57.0","eoycy3ot","","","null","","Agent A","scrambled","STIM_SET_3/713788.bmp_pp52_L1_V2_veridical_freeview_isoFalsemismatch_1159768.bmp_L1_fps90.mp4",""
"null","","","html-keyboard-response","58","510357","0.0-58.0","eoycy3ot","","<span style=""color:Black; font-size:50px;"">Agent B","null","","","","",""
"null","","","video-keyboard-response","59","513467","0.0-59.0","eoycy3ot","","","null","","Agent B","veridical","STIM_SET_1_REAL/1159768.bmp_pp89_L1_V1.0_veridical_freeview_isoFalse_fps144.mp4",""
"","","","call-function","60","513468","0.0-60.0","eoycy3ot","","","","","","","",""
"7620.695000000007","{""judgement"":1}","[0]","survey-likert","61","521089","0.0-61.0","eoycy3ot","","","","","","","","1"
"3416.8549999999814","{""confidence"":1}","[0]","survey-likert","62","524508","0.0-62.0","eoycy3ot","","","","","","","",""
"","","","call-function","63","524509","0.0-63.0","eoycy3ot","","","","","","","",""
"null","","","html-keyboard-response","64","526013","0.0-64.0","eoycy3ot","","<span style=""color:Black; font-size:50px;"">Agent A","null","","","","",""
"null","","","video-keyboard-response","65","529092","0.0-65.0","eoycy3ot","","","null","","Agent A","veridical","STIM_SET_1_REAL/1159855.bmp_pp99_L2_V1.0_veridical_freeview_isoFalse_fps144.mp4",""
"null","","","html-keyboard-response","66","530595","0.0-66.0","eoycy3ot","","<span style=""color:Black; font-size:50px;"">Agent B","null","","","","",""
"null","","","video-keyboard-response","67","533680","0.0-67.0","eoycy3ot","","","null","","Agent B","scrambled","STIM_SET_3/285932.bmp_pp64_L1_V2_veridical_freeview_isoFalsemismatch_1159855.bmp_L2_fps90.mp4",""
"","","","call-function","68","533681","0.0-68.0","eoycy3ot","","","","","","","",""
"2365.5","{""judgement"":0}","[0]","survey-likert","69","536047","0.0-69.0","eoycy3ot","","","","","","","","0"
"3592.0100000000093","{""confidence"":3}","[0]","survey-likert","70","539641","0.0-70.0","eoycy3ot","","","","","","","",""
"","","","call-function","71","539642","0.0-71.0","eoycy3ot","","","","","","","",""
"null","","","html-keyboard-response","72","541144","0.0-72.0","eoycy3ot","","<span style=""color:Black; font-size:50px;"">Agent A","null","","","","",""
"null","","","video-keyboard-response","73","544207","0.0-73.0","eoycy3ot","","","null","","Agent A","scrambled","STIM_SET_3/1591920.bmp_pp97_L3_V2_veridical_freeview_isoFalsemismatch_1592804.bmp_L3_fps90.mp4",""
"null","","","html-keyboard-response","74","545731","0.0-74.0","eoycy3ot","","<span style=""color:Black; font-size:50px;"">Agent B","null","","","","",""
"null","","","video-keyboard-response","75","548840","0.0-75.0","eoycy3ot","","","null","","Agent B","veridical","STIM_SET_1_REAL/1592804.bmp_pp91_L3_V1.0_veridical_freeview_isoFalse_fps144.mp4",""
"","","","call-function","76","548843","0.0-76.0","eoycy3ot","","","","","","","",""
"3438.835000000079","{""judgement"":0}","[0]","survey-likert","77","552283","0.0-77.0","eoycy3ot","","","","","","","","1"
"2937.8300000000745","{""confidence"":2}","[0]","survey-likert","78","555224","0.0-78.0","eoycy3ot","","","","","","","",""
"","","","call-function","79","555226","0.0-79.0","eoycy3ot","","","","","","","",""
"null","","","html-keyboard-response","80","556730","0.0-80.0","eoycy3ot","","<span style=""color:Black; font-size:50px;"">Agent A","null","","","","",""
"null","","","video-keyboard-response","81","559807","0.0-81.0","eoycy3ot","","","null","","Agent A","scrambled","STIM_SET_3/713381.bmp_pp82_L2_V2_veridical_freeview_isoFalsemismatch_1159572.bmp_L1_fps90.mp4",""
"null","","","html-keyboard-response","82","561313","0.0-82.0","eoycy3ot","","<span style=""color:Black; font-size:50px;"">Agent B","null","","","","",""
"null","","","video-keyboard-response","83","564377","0.0-83.0","eoycy3ot","","","null","","Agent B","veridical","STIM_SET_1_REAL/1159572.bmp_pp71_L1_V1.0_veridical_freeview_isoFalse_fps144.mp4",""
"","","","call-function","84","564379","0.0-84.0","eoycy3ot","","","","","","","",""
"3757.454999999958","{""judgement"":1}","[0]","survey-likert","85","568137","0.0-85.0","eoycy3ot","","","","","","","","1"
"2185.219999999972","{""confidence"":1}","[0]","survey-likert","86","570324","0.0-86.0","eoycy3ot","","","","","","","",""
"29806.484999999986","","","instructions","87","600132","0.0-87.0","eoycy3ot","[{""page_index"":0,""viewing_time"":10337.369999999995},{""page_index"":1,""viewing_time"":17644.785000000033},{""page_index"":2,""viewing_time"":1824.1699999999255}]","","","","","","",""
"13496.81500000006","","","instructions","88","613630","0.0-88.0","eoycy3ot","[{""page_index"":0,""viewing_time"":2313.594999999972},{""page_index"":1,""viewing_time"":4590.070000000065},{""page_index"":2,""viewing_time"":6593.04999999993}]","","","","","","",""
"","","","call-function","89","613631","0.0-89.0","eoycy3ot","","","","","","","",""
"null","","","html-keyboard-response","90","615137","0.0-90.0","eoycy3ot","","<span style=""color:Black; font-size:50px;"">Agent A","null","","","","",""
"null","","","video-keyboard-response","91","618206","0.0-91.0","eoycy3ot","","","null","","Agent A","veridical","STIM_SET_1_REAL/713681.bmp_pp86_L2_V1.0_veridical_freeview_isoFalse_fps144.mp4",""
"null","","","html-keyboard-response","92","619710","0.0-92.0","eoycy3ot","","<span style=""color:Black; font-size:50px;"">Agent B","null","","","","",""
"null","","","video-keyboard-response","93","622792","0.0-93.0","eoycy3ot","","","null","","Agent B","scrambled","STIM_SET_3/498025.bmp_pp81_L1_V2_veridical_freeview_isoFalsemismatch_713681.bmp_L2_fps90.mp4",""
"","","","call-function","94","622793","0.0-94.0","eoycy3ot","","","","","","","",""
"3176.7149999999674","{""judgement"":0}","[0]","survey-likert","95","625970","0.0-95.0","eoycy3ot","","","","","","","","0"
"1784.25","{""confidence"":1}","[0]","survey-likert","96","627756","0.0-96.0","eoycy3ot","","","","","","","",""
"","","","call-function","97","627757","0.0-97.0","eoycy3ot","","","","","","","",""
"null","","","html-keyboard-response","98","629260","0.0-98.0","eoycy3ot","","<span style=""color:Black; font-size:50px;"">Agent A","null","","","","",""
"null","","","video-keyboard-response","99","632350","0.0-99.0","eoycy3ot","","","null","","Agent A","veridical","STIM_SET_1_REAL/1593041.bmp_pp58_L1_V1.0_veridical_freeview_isoFalse_fps144.mp4",""
"null","","","html-keyboard-response","100","633853","0.0-100.0","eoycy3ot","","<span style=""color:Black; font-size:50px;"">Agent B","null","","","","",""
"null","","","video-keyboard-response","101","636932","0.0-101.0","eoycy3ot","","","null","","Agent B","scrambled","STIM_SET_3/1591781.bmp_pp63_L1_V2_veridical_freeview_isoFalsemismatch_1593041.bmp_L1_fps90.mp4",""
"","","","call-function","102","636933","0.0-102.0","eoycy3ot","","","","","","","",""
"2217.109999999986","{""judgement"":0}","[0]","survey-likert","103","639151","0.0-103.0","eoycy3ot","","","","","","","","0"
"2044.9749999999767","{""confidence"":1}","[0]","survey-likert","104","641198","0.0-104.0","eoycy3ot","","","","","","","",""
"","","","call-function","105","641199","0.0-105.0","eoycy3ot","","","","","","","",""
"null","","","html-keyboard-response","106","642703","0.0-106.0","eoycy3ot","","<span style=""color:Black; font-size:50px;"">Agent A","null","","","","",""
"null","","","video-keyboard-response","107","645807","0.0-107.0","eoycy3ot","","","null","","Agent A","veridical","STIM_SET_1_REAL/1592657.bmp_pp98_L1_V1.0_veridical_freeview_isoFalse_fps144.mp4",""
"null","","","html-keyboard-response","108","647314","0.0-108.0","eoycy3ot","","<span style=""color:Black; font-size:50px;"">Agent B","null","","","","",""
"null","","","video-keyboard-response","109","650412","0.0-109.0","eoycy3ot","","","null","","Agent B","scrambled","STIM_SET_3/498261.bmp_pp84_L3_V2_veridical_freeview_isoFalsemismatch_1592657.bmp_L1_fps90.mp4",""
"","","","call-function","110","650413","0.0-110.0","eoycy3ot","","","","","","","",""
"2669.460000000079","{""judgement"":0}","[0]","survey-likert","111","653083","0.0-111.0","eoycy3ot","","","","","","","","0"
"2107.8699999999953","{""confidence"":1}","[0]","survey-likert","112","655193","0.0-112.0","eoycy3ot","","","","","","","",""
"","","","call-function","113","655194","0.0-113.0","eoycy3ot","","","","","","","",""
"null","","","html-keyboard-response","114","656697","0.0-114.0","eoycy3ot","","<span style=""color:Black; font-size:50px;"">Agent A","null","","","","",""
"null","","","video-keyboard-response","115","659801","0.0-115.0","eoycy3ot","","","null","","Agent A","veridical","STIM_SET_1_REAL/1160127.bmp_pp90_L2_V1.0_veridical_freeview_isoFalse_fps144.mp4",""
"null","","","html-keyboard-response","116","661307","0.0-116.0","eoycy3ot","","<span style=""color:Black; font-size:50px;"">Agent B","null","","","","",""
"null","","","video-keyboard-response","117","664411","0.0-117.0","eoycy3ot","","","null","","Agent B","scrambled","STIM_SET_3/498372.bmp_pp95_L2_V2_veridical_freeview_isoFalsemismatch_1160127.bmp_L2_fps90.mp4",""
"","","","call-function","118","664412","0.0-118.0","eoycy3ot","","","","","","","",""
"6625.329999999958","{""judgement"":1}","[0]","survey-likert","119","671039","0.0-119.0","eoycy3ot","","","","","","","","0"
"2450.8549999999814","{""confidence"":0}","[0]","survey-likert","120","673491","0.0-120.0","eoycy3ot","","","","","","","",""
"","","","call-function","121","673492","0.0-121.0","eoycy3ot","","","","","","","",""
"null","","","html-keyboard-response","122","674994","0.0-122.0","eoycy3ot","","<span style=""color:Black; font-size:50px;"">Agent A","null","","","","",""
"null","","","video-keyboard-response","123","678102","0.0-123.0","eoycy3ot","","","null","","Agent A","veridical","STIM_SET_1_REAL/498155.bmp_pp61_L2_V1.0_veridical_freeview_isoFalse_fps144.mp4",""
"null","","","html-keyboard-response","124","679605","0.0-124.0","eoycy3ot","","<span style=""color:Black; font-size:50px;"">Agent B","null","","","","",""
"null","","","video-keyboard-response","125","682674","0.0-125.0","eoycy3ot","","","null","","Agent B","scrambled","STIM_SET_3/498258.bmp_pp51_L1_V2_veridical_freeview_isoFalsemismatch_498155.bmp_L2_fps90.mp4",""
"","","","call-function","126","682675","0.0-126.0","eoycy3ot","","","","","","","",""
"4342.769999999902","{""judgement"":0}","[0]","survey-likert","127","687018","0.0-127.0","eoycy3ot","","","","","","","","0"
"3046.469999999972","{""confidence"":3}","[0]","survey-likert","128","690067","0.0-128.0","eoycy3ot","","","","","","","",""
"","","","call-function","129","690068","0.0-129.0","eoycy3ot","","","","","","","",""
"null","","","html-keyboard-response","130","691569","0.0-130.0","eoycy3ot","","<span style=""color:Black; font-size:50px;"">Agent A","null","","","","",""
"null","","","video-keyboard-response","131","694645","0.0-131.0","eoycy3ot","","","null","","Agent A","scrambled","STIM_SET_3/107909.bmp_pp95_L2_V2_veridical_freeview_isoFalsemismatch_1592372.bmp_L1_fps90.mp4",""
"null","","","html-keyboard-response","132","696152","0.0-132.0","eoycy3ot","","<span style=""color:Black; font-size:50px;"">Agent B","null","","","","",""
"null","","","video-keyboard-response","133","699233","0.0-133.0","eoycy3ot","","","null","","Agent B","veridical","STIM_SET_1_REAL/1592372.bmp_pp76_L1_V1.0_veridical_freeview_isoFalse_fps144.mp4",""
"","","","call-function","134","699234","0.0-134.0","eoycy3ot","","","","","","","",""
"2264.405000000028","{""judgement"":1}","[0]","survey-likert","135","701500","0.0-135.0","eoycy3ot","","","","","","","","1"
"2101.905000000028","{""confidence"":1}","[0]","survey-likert","136","703603","0.0-136.0","eoycy3ot","","","","","","","",""
"","","","call-function","137","703604","0.0-137.0","eoycy3ot","","","","","","","",""
"null","","","html-keyboard-response","138","705108","0.0-138.0","eoycy3ot","","<span style=""color:Black; font-size:50px;"">Agent A","null","","","","",""
"null","","","video-keyboard-response","139","708190","0.0-139.0","eoycy3ot","","","null","","Agent A","scrambled","STIM_SET_3/1160049.bmp_pp53_L2_V2_veridical_freeview_isoFalsemismatch_1591954.bmp_L2_fps90.mp4",""
"null","","","html-keyboard-response","140","709694","0.0-140.0","eoycy3ot","","<span style=""color:Black; font-size:50px;"">Agent B","null","","","","",""
"null","","","video-keyboard-response","141","712774","0.0-141.0","eoycy3ot","","","null","","Agent B","veridical","STIM_SET_1_REAL/1591954.bmp_pp62_L2_V1.0_veridical_freeview_isoFalse_fps144.mp4",""
"","","","call-function","142","712776","0.0-142.0","eoycy3ot","","","","","","","",""
"2971.689999999944","{""judgement"":1}","[0]","survey-likert","143","715749","0.0-143.0","eoycy3ot","","","","","","","","1"
"5389.545000000042","{""confidence"":1}","[0]","survey-likert","144","721141","0.0-144.0","eoycy3ot","","","","","","","",""
"","","","call-function","145","721142","0.0-145.0","eoycy3ot","","","","","","","",""
"null","","","html-keyboard-response","146","722644","0.0-146.0","eoycy3ot","","<span style=""color:Black; font-size:50px;"">Agent A","null","","","","",""
"null","","","video-keyboard-response","147","725718","0.0-147.0","eoycy3ot","","","null","","Agent A","scrambled","STIM_SET_3/498396.bmp_pp99_L2_V2_veridical_freeview_isoFalsemismatch_713371.bmp_L1_fps90.mp4",""
"null","","","html-keyboard-response","148","727223","0.0-148.0","eoycy3ot","","<span style=""color:Black; font-size:50px;"">Agent B","null","","","","",""
"null","","","video-keyboard-response","149","730299","0.0-149.0","eoycy3ot","","","null","","Agent B","veridical","STIM_SET_1_REAL/713371.bmp_pp68_L1_V1.0_veridical_freeview_isoFalse_fps144.mp4",""
"","","","call-function","150","730300","0.0-150.0","eoycy3ot","","","","","","","",""
"3752.195000000065","{""judgement"":1}","[0]","survey-likert","151","734054","0.0-151.0","eoycy3ot","","","","","","","","1"
"1820.109999999986","{""confidence"":2}","[0]","survey-likert","152","735876","0.0-152.0","eoycy3ot","","","","","","","",""
"","","","call-function","153","735877","0.0-153.0","eoycy3ot","","","","","","","",""
"null","","","html-keyboard-response","154","737380","0.0-154.0","eoycy3ot","","<span style=""color:Black; font-size:50px;"">Agent A","null","","","","",""
"null","","","video-keyboard-response","155","740443","0.0-155.0","eoycy3ot","","","null","","Agent A","veridical","STIM_SET_1_REAL/1592817.bmp_pp55_L3_V1.0_veridical_freeview_isoFalse_fps144.mp4",""
"null","","","html-keyboard-response","156","741946","0.0-156.0","eoycy3ot","","<span style=""color:Black; font-size:50px;"">Agent B","null","","","","",""
"null","","","video-keyboard-response","157","745077","0.0-157.0","eoycy3ot","","","null","","Agent B","scrambled","STIM_SET_3/1159329.bmp_pp61_L2_V2_veridical_freeview_isoFalsemismatch_1592817.bmp_L3_fps90.mp4",""
"","","","call-function","158","745078","0.0-158.0","eoycy3ot","","","","","","","",""
"3149.5250000000233","{""judgement"":1}","[0]","survey-likert","159","748228","0.0-159.0","eoycy3ot","","","","","","","","0"
"3493.969999999972","{""confidence"":0}","[0]","survey-likert","160","751724","0.0-160.0","eoycy3ot","","","","","","","",""
"","","","call-function","161","751726","0.0-161.0","eoycy3ot","","","","","","","",""
"null","","","html-keyboard-response","162","753230","0.0-162.0","eoycy3ot","","<span style=""color:Black; font-size:50px;"">Agent A","null","","","","",""
"null","","","video-keyboard-response","163","756339","0.0-163.0","eoycy3ot","","","null","","Agent A","veridical","STIM_SET_1_REAL/713593.bmp_pp64_L1_V1.0_veridical_freeview_isoFalse_fps144.mp4",""
"null","","","html-keyboard-response","164","757845","0.0-164.0","eoycy3ot","","<span style=""color:Black; font-size:50px;"">Agent B","null","","","","",""
"null","","","video-keyboard-response","165","760939","0.0-165.0","eoycy3ot","","","null","","Agent B","scrambled","STIM_SET_3/1592747.bmp_pp53_L2_V2_veridical_freeview_isoFalsemismatch_713593.bmp_L1_fps90.mp4",""
"","","","call-function","166","760940","0.0-166.0","eoycy3ot","","","","","","","",""
"3574.3150000000605","{""judgement"":0}","[0]","survey-likert","167","764516","0.0-167.0","eoycy3ot","","","","","","","","0"
"4390.045000000042","{""confidence"":2}","[0]","survey-likert","168","768908","0.0-168.0","eoycy3ot","","","","","","","",""
"6889.195000000065","","","instructions","169","775798","0.0-169.0","eoycy3ot","[{""page_index"":0,""viewing_time"":5279.57500000007},{""page_index"":1,""viewing_time"":965.5499999999302},{""page_index"":2,""viewing_time"":643.9150000000373}]","","","","","","",""
"3570.8800000000047","","","instructions","170","779370","0.0-170.0","eoycy3ot","[{""page_index"":0,""viewing_time"":1120.6600000000326},{""page_index"":1,""viewing_time"":1300.0649999999441},{""page_index"":2,""viewing_time"":1150.045000000042}]","","","","","","",""
"","","","call-function","171","779371","0.0-171.0","eoycy3ot","","","","","","","",""
"null","","","html-keyboard-response","172","780877","0.0-172.0","eoycy3ot","","<span style=""color:Black; font-size:50px;"">Agent A","null","","","","",""
"null","","","video-keyboard-response","173","783941","0.0-173.0","eoycy3ot","","","null","","Agent A","scrambled","STIM_SET_3/1592951.bmp_pp80_L3_V2_veridical_freeview_isoFalsemismatch_712977.bmp_L1_fps90.mp4",""
"null","","","html-keyboard-response","174","785447","0.0-174.0","eoycy3ot","","<span style=""color:Black; font-size:50px;"">Agent B","null","","","","",""
"null","","","video-keyboard-response","175","788551","0.0-175.0","eoycy3ot","","","null","","Agent B","veridical","STIM_SET_1_REAL/712977.bmp_pp51_L1_V1.0_veridical_freeview_isoFalse_fps144.mp4",""
"","","","call-function","176","788552","0.0-176.0","eoycy3ot","","","","","","","",""
"5974.479999999981","{""judgement"":1}","[0]","survey-likert","177","794527","0.0-177.0","eoycy3ot","","","","","","","","1"
"4428.789999999921","{""confidence"":1}","[0]","survey-likert","178","798958","0.0-178.0","eoycy3ot","","","","","","","",""
"","","","call-function","179","798959","0.0-179.0","eoycy3ot","","","","","","","",""
"null","","","html-keyboard-response","180","800461","0.0-180.0","eoycy3ot","","<span style=""color:Black; font-size:50px;"">Agent A","null","","","","",""
"null","","","video-keyboard-response","181","803540","0.0-181.0","eoycy3ot","","","null","","Agent A","scrambled","STIM_SET_3/713770.bmp_pp89_L1_V2_veridical_freeview_isoFalsemismatch_61537.bmp_L3_fps90.mp4",""
"null","","","html-keyboard-response","182","805042","0.0-182.0","eoycy3ot","","<span style=""color:Black; font-size:50px;"">Agent B","null","","","","",""
"null","","","video-keyboard-response","183","808121","0.0-183.0","eoycy3ot","","","null","","Agent B","veridical","STIM_SET_1_REAL/61537.bmp_pp73_L3_V1.0_veridical_freeview_isoFalse_fps144.mp4",""
"","","","call-function","184","808122","0.0-184.0","eoycy3ot","","","","","","","",""
"2723.524999999907","{""judgement"":1}","[0]","survey-likert","185","810847","0.0-185.0","eoycy3ot","","","","","","","","1"
"2928.04999999993","{""confidence"":2}","[0]","survey-likert","186","813777","0.0-186.0","eoycy3ot","","","","","","","",""
"","","","call-function","187","813778","0.0-187.0","eoycy3ot","","","","","","","",""
"null","","","html-keyboard-response","188","815281","0.0-188.0","eoycy3ot","","<span style=""color:Black; font-size:50px;"">Agent A","null","","","","",""
"null","","","video-keyboard-response","189","818359","0.0-189.0","eoycy3ot","","","null","","Agent A","veridical","STIM_SET_1_REAL/498253.bmp_pp67_L2_V1.0_veridical_freeview_isoFalse_fps144.mp4",""
"null","","","html-keyboard-response","190","819862","0.0-190.0","eoycy3ot","","<span style=""color:Black; font-size:50px;"">Agent B","null","","","","",""
"null","","","video-keyboard-response","191","822972","0.0-191.0","eoycy3ot","","","null","","Agent B","scrambled","STIM_SET_3/285959.bmp_pp93_L1_V2_veridical_freeview_isoFalsemismatch_498253.bmp_L2_fps90.mp4",""
"","","","call-function","192","822973","0.0-192.0","eoycy3ot","","","","","","","",""
"2694.155000000028","{""judgement"":0}","[0]","survey-likert","193","825668","0.0-193.0","eoycy3ot","","","","","","","","0"
"3681.5350000000326","{""confidence"":3}","[0]","survey-likert","194","829351","0.0-194.0","eoycy3ot","","","","","","","",""
"","","","call-function","195","829353","0.0-195.0","eoycy3ot","","","","","","","",""
"null","","","html-keyboard-response","196","830863","0.0-196.0","eoycy3ot","","<span style=""color:Black; font-size:50px;"">Agent A","null","","","","",""
"null","","","video-keyboard-response","197","833949","0.0-197.0","eoycy3ot","","","null","","Agent A","scrambled","STIM_SET_3/1160247.bmp_pp54_L2_V2_veridical_freeview_isoFalsemismatch_1592133.bmp_L1_fps90.mp4",""
"null","","","html-keyboard-response","198","835452","0.0-198.0","eoycy3ot","","<span style=""color:Black; font-size:50px;"">Agent B","null","","","","",""
"null","","","video-keyboard-response","199","838520","0.0-199.0","eoycy3ot","","","null","","Agent B","veridical","STIM_SET_1_REAL/1592133.bmp_pp75_L1_V1.0_veridical_freeview_isoFalse_fps144.mp4",""
"","","","call-function","200","838522","0.0-200.0","eoycy3ot","","","","","","","",""
"2143.4799999999814","{""judgement"":1}","[0]","survey-likert","201","840666","0.0-201.0","eoycy3ot","","","","","","","","1"
"2083.9599999999627","{""confidence"":1}","[0]","survey-likert","202","842752","0.0-202.0","eoycy3ot","","","","","","","",""
"","","","call-function","203","842753","0.0-203.0","eoycy3ot","","","","","","","",""
"null","","","html-keyboard-response","204","844255","0.0-204.0","eoycy3ot","","<span style=""color:Black; font-size:50px;"">Agent A","null","","","","",""
"null","","","video-keyboard-response","205","847325","0.0-205.0","eoycy3ot","","","null","","Agent A","veridical","STIM_SET_1_REAL/1159447.bmp_pp70_L2_V1.0_veridical_freeview_isoFalse_fps144.mp4",""
"null","","","html-keyboard-response","206","848833","0.0-206.0","eoycy3ot","","<span style=""color:Black; font-size:50px;"">Agent B","null","","","","",""
"null","","","video-keyboard-response","207","851909","0.0-207.0","eoycy3ot","","","null","","Agent B","scrambled","STIM_SET_3/1592150.bmp_pp77_L3_V2_veridical_freeview_isoFalsemismatch_1159447.bmp_L2_fps90.mp4",""
"","","","call-function","208","851910","0.0-208.0","eoycy3ot","","","","","","","",""
"1879.7299999999814","{""judgement"":0}","[0]","survey-likert","209","853791","0.0-209.0","eoycy3ot","","","","","","","","0"
"2640.954999999958","{""confidence"":3}","[0]","survey-likert","210","856433","0.0-210.0","eoycy3ot","","","","","","","",""
"","","","call-function","211","856434","0.0-211.0","eoycy3ot","","","","","","","",""
"null","","","html-keyboard-response","212","857937","0.0-212.0","eoycy3ot","","<span style=""color:Black; font-size:50px;"">Agent A","null","","","","",""
"null","","","video-keyboard-response","213","861008","0.0-213.0","eoycy3ot","","","null","","Agent A","veridical","STIM_SET_1_REAL/1592286.bmp_pp52_L1_V1.0_veridical_freeview_isoFalse_fps144.mp4",""
"null","","","html-keyboard-response","214","862513","0.0-214.0","eoycy3ot","","<span style=""color:Black; font-size:50px;"">Agent B","null","","","","",""
"null","","","video-keyboard-response","215","865604","0.0-215.0","eoycy3ot","","","null","","Agent B","scrambled","STIM_SET_3/498326.bmp_pp57_L1_V2_veridical_freeview_isoFalsemismatch_1592286.bmp_L1_fps90.mp4",""
"","","","call-function","216","865605","0.0-216.0","eoycy3ot","","","","","","","",""
"4274.725000000093","{""judgement"":0}","[0]","survey-likert","217","869881","0.0-217.0","eoycy3ot","","","","","","","","0"
"5023.3150000000605","{""confidence"":1}","[0]","survey-likert","218","874906","0.0-218.0","eoycy3ot","","","","","","","",""
"","","","call-function","219","874908","0.0-219.0","eoycy3ot","","","","","","","",""
"null","","","html-keyboard-response","220","876410","0.0-220.0","eoycy3ot","","<span style=""color:Black; font-size:50px;"">Agent A","null","","","","",""
"null","","","video-keyboard-response","221","879502","0.0-221.0","eoycy3ot","","","null","","Agent A","veridical","STIM_SET_1_REAL/1593035.bmp_pp94_L2_V1.0_veridical_freeview_isoFalse_fps144.mp4",""
"null","","","html-keyboard-response","222","881005","0.0-222.0","eoycy3ot","","<span style=""color:Black; font-size:50px;"">Agent B","null","","","","",""
"null","","","video-keyboard-response","223","884115","0.0-223.0","eoycy3ot","","","null","","Agent B","scrambled","STIM_SET_3/1159325.bmp_pp67_L2_V2_veridical_freeview_isoFalsemismatch_1593035.bmp_L2_fps90.mp4",""
"","","","call-function","224","884116","0.0-224.0","eoycy3ot","","","","","","","",""
"2621.2900000000373","{""judgement"":0}","[0]","survey-likert","225","886739","0.0-225.0","eoycy3ot","","","","","","","","0"
"2433.3000000000466","{""confidence"":1}","[0]","survey-likert","226","889173","0.0-226.0","eoycy3ot","","","","","","","",""
"","","","call-function","227","889175","0.0-227.0","eoycy3ot","","","","","","","",""
"null","","","html-keyboard-response","228","890676","0.0-228.0","eoycy3ot","","<span style=""color:Black; font-size:50px;"">Agent A","null","","","","",""
"null","","","video-keyboard-response","229","893768","0.0-229.0","eoycy3ot","","","null","","Agent A","veridical","STIM_SET_1_REAL/497950.bmp_pp151_L1_V1.0_veridical_freeview_isoFalse_fps144.mp4",""
"null","","","html-keyboard-response","230","895273","0.0-230.0","eoycy3ot","","<span style=""color:Black; font-size:50px;"">Agent B","null","","","","",""
"null","","","video-keyboard-response","231","898373","0.0-231.0","eoycy3ot","","","null","","Agent B","scrambled","STIM_SET_3/713274.bmp_pp73_L3_V2_veridical_freeview_isoFalsemismatch_497950.bmp_L1_fps90.mp4",""
"","","","call-function","232","898374","0.0-232.0","eoycy3ot","","","","","","","",""
"3714.04999999993","{""judgement"":0}","[0]","survey-likert","233","902089","0.0-233.0","eoycy3ot","","","","","","","","0"
"9229.994999999995","{""confidence"":2}","[0]","survey-likert","234","911321","0.0-234.0","eoycy3ot","","","","","","","",""
"","","","call-function","235","911322","0.0-235.0","eoycy3ot","","","","","","","",""
"null","","","html-keyboard-response","236","912824","0.0-236.0","eoycy3ot","","<span style=""color:Black; font-size:50px;"">Agent A","null","","","","",""
"null","","","video-keyboard-response","237","915891","0.0-237.0","eoycy3ot","","","null","","Agent A","veridical","STIM_SET_1_REAL/713403.bmp_pp80_L3_V1.0_veridical_freeview_isoFalse_fps144.mp4",""
"null","","","html-keyboard-response","238","917396","0.0-238.0","eoycy3ot","","<span style=""color:Black; font-size:50px;"">Agent B","null","","","","",""
"null","","","video-keyboard-response","239","920462","0.0-239.0","eoycy3ot","","","null","","Agent B","scrambled","STIM_SET_3/286034.bmp_pp69_L3_V2_veridical_freeview_isoFalsemismatch_713403.bmp_L3_fps90.mp4",""
"","","","call-function","240","920463","0.0-240.0","eoycy3ot","","","","","","","",""
"2313.6049999999814","{""judgement"":0}","[0]","survey-likert","241","922778","0.0-241.0","eoycy3ot","","","","","","","","0"
"2534.914999999921","{""confidence"":3}","[0]","survey-likert","242","925315","0.0-242.0","eoycy3ot","","","","","","","",""
"","","","call-function","243","925316","0.0-243.0","eoycy3ot","","","","","","","",""
"null","","","html-keyboard-response","244","926818","0.0-244.0","eoycy3ot","","<span style=""color:Black; font-size:50px;"">Agent A","null","","","","",""
"null","","","video-keyboard-response","245","929883","0.0-245.0","eoycy3ot","","","null","","Agent A","veridical","STIM_SET_1_REAL/498149.bmp_pp99_L2_V1.0_veridical_freeview_isoFalse_fps144.mp4",""
"null","","","html-keyboard-response","246","931389","0.0-246.0","eoycy3ot","","<span style=""color:Black; font-size:50px;"">Agent B","null","","","","",""
"null","","","video-keyboard-response","247","934473","0.0-247.0","eoycy3ot","","","null","","Agent B","scrambled","STIM_SET_3/107955.bmp_pp90_L2_V2_veridical_freeview_isoFalsemismatch_498149.bmp_L2_fps90.mp4",""
"","","","call-function","248","934474","0.0-248.0","eoycy3ot","","","","","","","",""
"4378.535000000033","{""judgement"":0}","[0]","survey-likert","249","938854","0.0-249.0","eoycy3ot","","","","","","","","0"
"15237.550000000047","{""confidence"":1}","[0]","survey-likert","250","954093","0.0-250.0","eoycy3ot","","","","","","","",""
"39173.62999999989","","","instructions","251","993268","0.0-251.0","eoycy3ot","[{""page_index"":0,""viewing_time"":6606.0449999999255},{""page_index"":1,""viewing_time"":31490.535000000033},{""page_index"":2,""viewing_time"":1076.8950000000186}]","","","","","","",""
"1935.8550000000978","","","instructions","252","995205","0.0-252.0","eoycy3ot","[{""page_index"":0,""viewing_time"":683.2050000000745},{""page_index"":1,""viewing_time"":514.7700000000186},{""page_index"":2,""viewing_time"":737.7749999999069}]","","","","","","",""
"","","","call-function","253","995206","0.0-253.0","eoycy3ot","","","","","","","",""
"null","","","html-keyboard-response","254","996708","0.0-254.0","eoycy3ot","","<span style=""color:Black; font-size:50px;"">Agent A","null","","","","",""
"null","","","video-keyboard-response","255","999776","0.0-255.0","eoycy3ot","","","null","","Agent A","scrambled","STIM_SET_3/150463.bmp_pp55_L3_V2_veridical_freeview_isoFalsemismatch_1592619.bmp_L3_fps90.mp4",""
"null","","","html-keyboard-response","256","1001278","0.0-256.0","eoycy3ot","","<span style=""color:Black; font-size:50px;"">Agent B","null","","","","",""
"null","","","video-keyboard-response","257","1004342","0.0-257.0","eoycy3ot","","","null","","Agent B","veridical","STIM_SET_1_REAL/1592619.bmp_pp56_L3_V1.0_veridical_freeview_isoFalse_fps144.mp4",""
"","","","call-function","258","1004343","0.0-258.0","eoycy3ot","","","","","","","",""
"1947.0749999999534","{""judgement"":1}","[0]","survey-likert","259","1006291","0.0-259.0","eoycy3ot","","","","","","","","1"
"1539.6549999999115","{""confidence"":2}","[0]","survey-likert","260","1007832","0.0-260.0","eoycy3ot","","","","","","","",""
"","","","call-function","261","1007833","0.0-261.0","eoycy3ot","","","","","","","",""
"null","","","html-keyboard-response","262","1009337","0.0-262.0","eoycy3ot","","<span style=""color:Black; font-size:50px;"">Agent A","null","","","","",""
"null","","","video-keyboard-response","263","1012432","0.0-263.0","eoycy3ot","","","null","","Agent A","scrambled","STIM_SET_3/1592857.bmp_pp52_L1_V2_veridical_freeview_isoFalsemismatch_1160168.bmp_L2_fps90.mp4",""
"null","","","html-keyboard-response","264","1013936","0.0-264.0","eoycy3ot","","<span style=""color:Black; font-size:50px;"">Agent B","null","","","","",""
"null","","","video-keyboard-response","265","1017011","0.0-265.0","eoycy3ot","","","null","","Agent B","veridical","STIM_SET_1_REAL/1160168.bmp_pp53_L2_V1.0_veridical_freeview_isoFalse_fps144.mp4",""
"","","","call-function","266","1017013","0.0-266.0","eoycy3ot","","","","","","","",""
"3303.484999999986","{""judgement"":1}","[0]","survey-likert","267","1020318","0.0-267.0","eoycy3ot","","","","","","","","1"
"2328.6500000000233","{""confidence"":2}","[0]","survey-likert","268","1022649","0.0-268.0","eoycy3ot","","","","","","","",""
"","","","call-function","269","1022650","0.0-269.0","eoycy3ot","","","","","","","",""
"null","","","html-keyboard-response","270","1024156","0.0-270.0","eoycy3ot","","<span style=""color:Black; font-size:50px;"">Agent A","null","","","","",""
"null","","","video-keyboard-response","271","1027226","0.0-271.0","eoycy3ot","","","null","","Agent A","scrambled","STIM_SET_3/1592530.bmp_pp75_L1_V2_veridical_freeview_isoFalsemismatch_1591961.bmp_L2_fps90.mp4",""
"null","","","html-keyboard-response","272","1028730","0.0-272.0","eoycy3ot","","<span style=""color:Black; font-size:50px;"">Agent B","null","","","","",""
"null","","","video-keyboard-response","273","1031804","0.0-273.0","eoycy3ot","","","null","","Agent B","veridical","STIM_SET_1_REAL/1591961.bmp_pp67_L2_V1.0_veridical_freeview_isoFalse_fps144.mp4",""
"","","","call-function","274","1031805","0.0-274.0","eoycy3ot","","","","","","","",""
"11052.540000000037","{""judgement"":1}","[0]","survey-likert","275","1042858","0.0-275.0","eoycy3ot","","","","","","","","1"
"7842.375000000116","{""confidence"":1}","[0]","survey-likert","276","1050703","0.0-276.0","eoycy3ot","","","","","","","",""
"","","","call-function","277","1050704","0.0-277.0","eoycy3ot","","","","","","","",""
"null","","","html-keyboard-response","278","1052206","0.0-278.0","eoycy3ot","","<span style=""color:Black; font-size:50px;"">Agent A","null","","","","",""
"null","","","video-keyboard-response","279","1055269","0.0-279.0","eoycy3ot","","","null","","Agent A","scrambled","STIM_SET_3/498398.bmp_pp81_L1_V2_veridical_freeview_isoFalsemismatch_713620.bmp_L3_fps90.mp4",""
"null","","","html-keyboard-response","280","1056774","0.0-280.0","eoycy3ot","","<span style=""color:Black; font-size:50px;"">Agent B","null","","","","",""
"null","","","video-keyboard-response","281","1059880","0.0-281.0","eoycy3ot","","","null","","Agent B","veridical","STIM_SET_1_REAL/713620.bmp_pp65_L3_V1.0_veridical_freeview_isoFalse_fps144.mp4",""
"","","","call-function","282","1059881","0.0-282.0","eoycy3ot","","","","","","","",""
"11697.879999999888","{""judgement"":1}","[0]","survey-likert","283","1071579","0.0-283.0","eoycy3ot","","","","","","","","1"
"3081.179999999935","{""confidence"":0}","[0]","survey-likert","284","1074662","0.0-284.0","eoycy3ot","","","","","","","",""
"","","","call-function","285","1074663","0.0-285.0","eoycy3ot","","","","","","","",""
"null","","","html-keyboard-response","286","1076167","0.0-286.0","eoycy3ot","","<span style=""color:Black; font-size:50px;"">Agent A","null","","","","",""
"null","","","video-keyboard-response","287","1079262","0.0-287.0","eoycy3ot","","","null","","Agent A","scrambled","STIM_SET_3/1159819.bmp_pp151_L1_V2_veridical_freeview_isoFalsemismatch_1592499.bmp_L2_fps90.mp4",""
"null","","","html-keyboard-response","288","1080766","0.0-288.0","eoycy3ot","","<span style=""color:Black; font-size:50px;"">Agent B","null","","","","",""
"null","","","video-keyboard-response","289","1083834","0.0-289.0","eoycy3ot","","","null","","Agent B","veridical","STIM_SET_1_REAL/1592499.bmp_pp96_L2_V1.0_veridical_freeview_isoFalse_fps144.mp4",""
"","","","call-function","290","1083836","0.0-290.0","eoycy3ot","","","","","","","",""
"2361.840000000084","{""judgement"":1}","[0]","survey-likert","291","1086198","0.0-291.0","eoycy3ot","","","","","","","","1"
"6151.324999999953","{""confidence"":2}","[0]","survey-likert","292","1092351","0.0-292.0","eoycy3ot","","","","","","","",""
"","","","call-function","293","1092352","0.0-293.0","eoycy3ot","","","","","","","",""
"null","","","html-keyboard-response","294","1093855","0.0-294.0","eoycy3ot","","<span style=""color:Black; font-size:50px;"">Agent A","null","","","","",""
"null","","","video-keyboard-response","295","1096923","0.0-295.0","eoycy3ot","","","null","","Agent A","veridical","STIM_SET_1_REAL/713135.bmp_pp54_L2_V1.0_veridical_freeview_isoFalse_fps144.mp4",""
"null","","","html-keyboard-response","296","1098431","0.0-296.0","eoycy3ot","","<span style=""color:Black; font-size:50px;"">Agent B","null","","","","",""
"null","","","video-keyboard-response","297","1101498","0.0-297.0","eoycy3ot","","","null","","Agent B","scrambled","STIM_SET_3/1592567.bmp_pp70_L2_V2_veridical_freeview_isoFalsemismatch_713135.bmp_L2_fps90.mp4",""
"","","","call-function","298","1101499","0.0-298.0","eoycy3ot","","","","","","","",""
"2614.715000000084","{""judgement"":0}","[0]","survey-likert","299","1104114","0.0-299.0","eoycy3ot","","","","","","","","0"
"1886.3100000000559","{""confidence"":2}","[0]","survey-likert","300","1106002","0.0-300.0","eoycy3ot","","","","","","","",""
"","","","call-function","301","1106003","0.0-301.0","eoycy3ot","","","","","","","",""
"null","","","html-keyboard-response","302","1107507","0.0-302.0","eoycy3ot","","<span style=""color:Black; font-size:50px;"">Agent A","null","","","","",""
"null","","","video-keyboard-response","303","1110621","0.0-303.0","eoycy3ot","","","null","","Agent A","scrambled","STIM_SET_3/1592568.bmp_pp71_L1_V2_veridical_freeview_isoFalsemismatch_285905.bmp_L1_fps90.mp4",""
"null","","","html-keyboard-response","304","1112125","0.0-304.0","eoycy3ot","","<span style=""color:Black; font-size:50px;"">Agent B","null","","","","",""
"null","","","video-keyboard-response","305","1115229","0.0-305.0","eoycy3ot","","","null","","Agent B","veridical","STIM_SET_1_REAL/285905.bmp_pp57_L1_V1.0_veridical_freeview_isoFalse_fps144.mp4",""
"","","","call-function","306","1115230","0.0-306.0","eoycy3ot","","","","","","","",""
"2706.3899999998976","{""judgement"":1}","[0]","survey-likert","307","1117938","0.0-307.0","eoycy3ot","","","","","","","","1"
"3359.9199999999255","{""confidence"":1}","[0]","survey-likert","308","1121299","0.0-308.0","eoycy3ot","","","","","","","",""
"","","","call-function","309","1121300","0.0-309.0","eoycy3ot","","","","","","","",""
"null","","","html-keyboard-response","310","1122806","0.0-310.0","eoycy3ot","","<span style=""color:Black; font-size:50px;"">Agent A","null","","","","",""
"null","","","video-keyboard-response","311","1125875","0.0-311.0","eoycy3ot","","","null","","Agent A","veridical","STIM_SET_1_REAL/1159440.bmp_pp98_L1_V1.0_veridical_freeview_isoFalse_fps144.mp4",""
"null","","","html-keyboard-response","312","1127378","0.0-312.0","eoycy3ot","","<span style=""color:Black; font-size:50px;"">Agent B","null","","","","",""
"null","","","video-keyboard-response","313","1130478","0.0-313.0","eoycy3ot","","","null","","Agent B","scrambled","STIM_SET_3/713829.bmp_pp60_L3_V2_veridical_freeview_isoFalsemismatch_1159440.bmp_L1_fps90.mp4",""
"","","","call-function","314","1130479","0.0-314.0","eoycy3ot","","","","","","","",""
"3603.969999999972","{""judgement"":0}","[0]","survey-likert","315","1134084","0.0-315.0","eoycy3ot","","","","","","","","0"
"2110.064999999944","{""confidence"":2}","[0]","survey-likert","316","1136195","0.0-316.0","eoycy3ot","","","","","","","",""
"","","","call-function","317","1136196","0.0-317.0","eoycy3ot","","","","","","","",""
"null","","","html-keyboard-response","318","1137699","0.0-318.0","eoycy3ot","","<span style=""color:Black; font-size:50px;"">Agent A","null","","","","",""
"null","","","video-keyboard-response","319","1140793","0.0-319.0","eoycy3ot","","","null","","Agent A","veridical","STIM_SET_1_REAL/498170.bmp_pp153_L3_V1.0_veridical_freeview_isoFalse_fps144.mp4",""
"null","","","html-keyboard-response","320","1142297","0.0-320.0","eoycy3ot","","<span style=""color:Black; font-size:50px;"">Agent B","null","","","","",""
"null","","","video-keyboard-response","321","1145422","0.0-321.0","eoycy3ot","","","null","","Agent B","scrambled","STIM_SET_3/713742.bmp_pp91_L3_V2_veridical_freeview_isoFalsemismatch_498170.bmp_L3_fps90.mp4",""
"","","","call-function","322","1145424","0.0-322.0","eoycy3ot","","","","","","","",""
"2606.3349999999627","{""judgement"":0}","[0]","survey-likert","323","1148032","0.0-323.0","eoycy3ot","","","","","","","","0"
"5444.579999999842","{""confidence"":1}","[0]","survey-likert","324","1153479","0.0-324.0","eoycy3ot","","","","","","","",""
"","","","call-function","325","1153481","0.0-325.0","eoycy3ot","","","","","","","",""
"null","","","html-keyboard-response","326","1154984","0.0-326.0","eoycy3ot","","<span style=""color:Black; font-size:50px;"">Agent A","null","","","","",""
"null","","","video-keyboard-response","327","1158052","0.0-327.0","eoycy3ot","","","null","","Agent A","scrambled","STIM_SET_3/1592305.bmp_pp65_L3_V2_veridical_freeview_isoFalsemismatch_713779.bmp_L2_fps90.mp4",""
"null","","","html-keyboard-response","328","1159560","0.0-328.0","eoycy3ot","","<span style=""color:Black; font-size:50px;"">Agent B","null","","","","",""
"null","","","video-keyboard-response","329","1162629","0.0-329.0","eoycy3ot","","","null","","Agent B","veridical","STIM_SET_1_REAL/713779.bmp_pp152_L2_V1.0_veridical_freeview_isoFalse_fps144.mp4",""
"","","","call-function","330","1162630","0.0-330.0","eoycy3ot","","","","","","","",""
"4405.319999999832","{""judgement"":1}","[0]","survey-likert","331","1167037","0.0-331.0","eoycy3ot","","","","","","","","1"
"2076.494999999879","{""confidence"":1}","[0]","survey-likert","332","1169115","0.0-332.0","eoycy3ot","","","","","","","",""
"37984.439999999944","","","instructions","333","1207101","0.0-333.0","eoycy3ot","[{""page_index"":0,""viewing_time"":3307.2349999998696},{""page_index"":1,""viewing_time"":33768.89500000002},{""page_index"":2,""viewing_time"":908.1550000000279}]","","","","","","",""
"4648.864999999991","","","instructions","334","1211751","0.0-334.0","eoycy3ot","[{""page_index"":0,""viewing_time"":922.7550000001211},{""page_index"":1,""viewing_time"":1527.0600000000559},{""page_index"":2,""viewing_time"":2198.9449999998324}]","","","","","","",""
"","","","call-function","335","1211752","0.0-335.0","eoycy3ot","","","","","","","",""
"null","","","html-keyboard-response","336","1213257","0.0-336.0","eoycy3ot","","<span style=""color:Black; font-size:50px;"">Agent A","null","","","","",""
"null","","","video-keyboard-response","337","1216326","0.0-337.0","eoycy3ot","","","null","","Agent A","scrambled","STIM_SET_3/1159860.bmp_pp152_L2_V2_veridical_freeview_isoFalsemismatch_1159621.bmp_L3_fps90.mp4",""
"null","","","html-keyboard-response","338","1217828","0.0-338.0","eoycy3ot","","<span style=""color:Black; font-size:50px;"">Agent B","null","","","","",""
"null","","","video-keyboard-response","339","1220893","0.0-339.0","eoycy3ot","","","null","","Agent B","veridical","STIM_SET_1_REAL/1159621.bmp_pp92_L3_V1.0_veridical_freeview_isoFalse_fps144.mp4",""
"","","","call-function","340","1220894","0.0-340.0","eoycy3ot","","","","","","","",""
"5053.514999999898","{""judgement"":1}","[0]","survey-likert","341","1225949","0.0-341.0","eoycy3ot","","","","","","","","1"
"9412.13500000001","{""confidence"":2}","[0]","survey-likert","342","1235363","0.0-342.0","eoycy3ot","","","","","","","",""
"","","","call-function","343","1235364","0.0-343.0","eoycy3ot","","","","","","","",""
"null","","","html-keyboard-response","344","1236865","0.0-344.0","eoycy3ot","","<span style=""color:Black; font-size:50px;"">Agent A","null","","","","",""
"null","","","video-keyboard-response","345","1239944","0.0-345.0","eoycy3ot","","","null","","Agent A","veridical","STIM_SET_1_REAL/713211.bmp_pp100_L3_V1.0_veridical_freeview_isoFalse_fps144.mp4",""
"null","","","html-keyboard-response","346","1241449","0.0-346.0","eoycy3ot","","<span style=""color:Black; font-size:50px;"">Agent B","null","","","","",""
"null","","","video-keyboard-response","347","1244517","0.0-347.0","eoycy3ot","","","null","","Agent B","scrambled","STIM_SET_3/1592921.bmp_pp69_L3_V2_veridical_freeview_isoFalsemismatch_713211.bmp_L3_fps90.mp4",""
"","","","call-function","348","1244518","0.0-348.0","eoycy3ot","","","","","","","",""
"2537.685000000056","{""judgement"":0}","[0]","survey-likert","349","1247057","0.0-349.0","eoycy3ot","","","","","","","","0"
"10664.254999999888","{""confidence"":2}","[0]","survey-likert","350","1257723","0.0-350.0","eoycy3ot","","","","","","","",""
"","","","call-function","351","1257724","0.0-351.0","eoycy3ot","","","","","","","",""
"null","","","html-keyboard-response","352","1259225","0.0-352.0","eoycy3ot","","<span style=""color:Black; font-size:50px;"">Agent A","null","","","","",""
"null","","","video-keyboard-response","353","1262329","0.0-353.0","eoycy3ot","","","null","","Agent A","veridical","STIM_SET_1_REAL/1159777.bmp_pp77_L3_V1.0_veridical_freeview_isoFalse_fps144.mp4",""
"null","","","html-keyboard-response","354","1263833","0.0-354.0","eoycy3ot","","<span style=""color:Black; font-size:50px;"">Agent B","null","","","","",""
"null","","","video-keyboard-response","355","1266928","0.0-355.0","eoycy3ot","","","null","","Agent B","scrambled","STIM_SET_3/1592017.bmp_pp154_L1_V2_veridical_freeview_isoFalsemismatch_1159777.bmp_L3_fps90.mp4",""
"","","","call-function","356","1266929","0.0-356.0","eoycy3ot","","","","","","","",""
"1973.4899999999907","{""judgement"":0}","[0]","survey-likert","357","1268903","0.0-357.0","eoycy3ot","","","","","","","","0"
"1985.3100000000559","{""confidence"":2}","[0]","survey-likert","358","1270890","0.0-358.0","eoycy3ot","","","","","","","",""
"","","","call-function","359","1270891","0.0-359.0","eoycy3ot","","","","","","","",""
"null","","","html-keyboard-response","360","1272393","0.0-360.0","eoycy3ot","","<span style=""color:Black; font-size:50px;"">Agent A","null","","","","",""
"null","","","video-keyboard-response","361","1275490","0.0-361.0","eoycy3ot","","","null","","Agent A","scrambled","STIM_SET_3/1592298.bmp_pp56_L3_V2_veridical_freeview_isoFalsemismatch_1593146.bmp_L1_fps90.mp4",""
"null","","","html-keyboard-response","362","1276994","0.0-362.0","eoycy3ot","","<span style=""color:Black; font-size:50px;"">Agent B","null","","","","",""
"null","","","video-keyboard-response","363","1280072","0.0-363.0","eoycy3ot","","","null","","Agent B","veridical","STIM_SET_1_REAL/1593146.bmp_pp93_L1_V1.0_veridical_freeview_isoFalse_fps144.mp4",""
"","","","call-function","364","1280073","0.0-364.0","eoycy3ot","","","","","","","",""
"2060.070000000065","{""judgement"":1}","[0]","survey-likert","365","1282134","0.0-365.0","eoycy3ot","","","","","","","","1"
"2337.3799999998882","{""confidence"":3}","[0]","survey-likert","366","1284473","0.0-366.0","eoycy3ot","","","","","","","",""
"","","","call-function","367","1284474","0.0-367.0","eoycy3ot","","","","","","","",""
"null","","","html-keyboard-response","368","1285976","0.0-368.0","eoycy3ot","","<span style=""color:Black; font-size:50px;"">Agent A","null","","","","",""
"null","","","video-keyboard-response","369","1289049","0.0-369.0","eoycy3ot","","","null","","Agent A","scrambled","STIM_SET_3/1592025.bmp_pp68_L1_V2_veridical_freeview_isoFalsemismatch_1592351.bmp_L1_fps90.mp4",""
"null","","","html-keyboard-response","370","1290553","0.0-370.0","eoycy3ot","","<span style=""color:Black; font-size:50px;"">Agent B","null","","","","",""
"null","","","video-keyboard-response","371","1293643","0.0-371.0","eoycy3ot","","","null","","Agent B","veridical","STIM_SET_1_REAL/1592351.bmp_pp51_L1_V1.0_veridical_freeview_isoFalse_fps144.mp4",""
"","","","call-function","372","1293644","0.0-372.0","eoycy3ot","","","","","","","",""
"2748.0500000000466","{""judgement"":1}","[0]","survey-likert","373","1296393","0.0-373.0","eoycy3ot","","","","","","","","1"
"1829.3349999999627","{""confidence"":2}","[0]","survey-likert","374","1298224","0.0-374.0","eoycy3ot","","","","","","","",""
"","","","call-function","375","1298225","0.0-375.0","eoycy3ot","","","","","","","",""
"null","","","html-keyboard-response","376","1299730","0.0-376.0","eoycy3ot","","<span style=""color:Black; font-size:50px;"">Agent A","null","","","","",""
"null","","","video-keyboard-response","377","1302839","0.0-377.0","eoycy3ot","","","null","","Agent A","scrambled","STIM_SET_3/713790.bmp_pp100_L3_V2_veridical_freeview_isoFalsemismatch_1592397.bmp_L3_fps90.mp4",""
"null","","","html-keyboard-response","378","1304344","0.0-378.0","eoycy3ot","","<span style=""color:Black; font-size:50px;"">Agent B","null","","","","",""
"null","","","video-keyboard-response","379","1307414","0.0-379.0","eoycy3ot","","","null","","Agent B","veridical","STIM_SET_1_REAL/1592397.bmp_pp85_L3_V1.0_veridical_freeview_isoFalse_fps144.mp4",""
"","","","call-function","380","1307416","0.0-380.0","eoycy3ot","","","","","","","",""
"3020.909999999916","{""judgement"":1}","[0]","survey-likert","381","1310439","0.0-381.0","eoycy3ot","","","","","","","","1"
"1837.7050000000745","{""confidence"":1}","[0]","survey-likert","382","1312278","0.0-382.0","eoycy3ot","","","","","","","",""
"","","","call-function","383","1312281","0.0-383.0","eoycy3ot","","","","","","","",""
"null","","","html-keyboard-response","384","1313786","0.0-384.0","eoycy3ot","","<span style=""color:Black; font-size:50px;"">Agent A","null","","","","",""
"null","","","video-keyboard-response","385","1316891","0.0-385.0","eoycy3ot","","","null","","Agent A","scrambled","STIM_SET_3/285946.bmp_pp79_L2_V2_veridical_freeview_isoFalsemismatch_285751.bmp_L3_fps90.mp4",""
"null","","","html-keyboard-response","386","1318395","0.0-386.0","eoycy3ot","","<span style=""color:Black; font-size:50px;"">Agent B","null","","","","",""
"null","","","video-keyboard-response","387","1321469","0.0-387.0","eoycy3ot","","","null","","Agent B","veridical","STIM_SET_1_REAL/285751.bmp_pp55_L3_V1.0_veridical_freeview_isoFalse_fps144.mp4",""
"","","","call-function","388","1321470","0.0-388.0","eoycy3ot","","","","","","","",""
"9617.38500000001","{""judgement"":0}","[0]","survey-likert","389","1331088","0.0-389.0","eoycy3ot","","","","","","","","1"
"2207.6700000001583","{""confidence"":1}","[0]","survey-likert","390","1333298","0.0-390.0","eoycy3ot","","","","","","","",""
"","","","call-function","391","1333299","0.0-391.0","eoycy3ot","","","","","","","",""
"null","","","html-keyboard-response","392","1334802","0.0-392.0","eoycy3ot","","<span style=""color:Black; font-size:50px;"">Agent A","null","","","","",""
"null","","","video-keyboard-response","393","1337897","0.0-393.0","eoycy3ot","","","null","","Agent A","scrambled","STIM_SET_3/1159392.bmp_pp96_L2_V2_veridical_freeview_isoFalsemismatch_1592934.bmp_L1_fps90.mp4",""
"null","","","html-keyboard-response","394","1339402","0.0-394.0","eoycy3ot","","<span style=""color:Black; font-size:50px;"">Agent B","null","","","","",""
"null","","","video-keyboard-response","395","1342473","0.0-395.0","eoycy3ot","","","null","","Agent B","veridical","STIM_SET_1_REAL/1592934.bmp_pp63_L1_V1.0_veridical_freeview_isoFalse_fps144.mp4",""
"","","","call-function","396","1342474","0.0-396.0","eoycy3ot","","","","","","","",""
"2766.1149999999907","{""judgement"":0}","[0]","survey-likert","397","1345241","0.0-397.0","eoycy3ot","","","","","","","","1"
"1965.7600000000093","{""confidence"":1}","[0]","survey-likert","398","1347209","0.0-398.0","eoycy3ot","","","","","","","",""
"","","","call-function","399","1347210","0.0-399.0","eoycy3ot","","","","","","","",""
"null","","","html-keyboard-response","400","1348713","0.0-400.0","eoycy3ot","","<span style=""color:Black; font-size:50px;"">Agent A","null","","","","",""
"null","","","video-keyboard-response","401","1351818","0.0-401.0","eoycy3ot","","","null","","Agent A","veridical","STIM_SET_1_REAL/1591876.bmp_pp63_L1_V1.0_veridical_freeview_isoFalse_fps144.mp4",""
"null","","","html-keyboard-response","402","1353321","0.0-402.0","eoycy3ot","","<span style=""color:Black; font-size:50px;"">Agent B","null","","","","",""
"null","","","video-keyboard-response","403","1356408","0.0-403.0","eoycy3ot","","","null","","Agent B","scrambled","STIM_SET_3/1159427.bmp_pp98_L1_V2_veridical_freeview_isoFalsemismatch_1591876.bmp_L1_fps90.mp4",""
"","","","call-function","404","1356409","0.0-404.0","eoycy3ot","","","","","","","",""
"3466.3549999999814","{""judgement"":0}","[0]","survey-likert","405","1359877","0.0-405.0","eoycy3ot","","","","","","","","0"
"2066.429999999935","{""confidence"":2}","[0]","survey-likert","406","1361945","0.0-406.0","eoycy3ot","","","","","","","",""
"","","","call-function","407","1361946","0.0-407.0","eoycy3ot","","","","","","","",""
"null","","","html-keyboard-response","408","1363449","0.0-408.0","eoycy3ot","","<span style=""color:Black; font-size:50px;"">Agent A","null","","","","",""
"null","","","video-keyboard-response","409","1366545","0.0-409.0","eoycy3ot","","","null","","Agent A","scrambled","STIM_SET_3/1592201.bmp_pp97_L3_V2_veridical_freeview_isoFalsemismatch_713089.bmp_L3_fps90.mp4",""
"null","","","html-keyboard-response","410","1368049","0.0-410.0","eoycy3ot","","<span style=""color:Black; font-size:50px;"">Agent B","null","","","","",""
"null","","","video-keyboard-response","411","1371139","0.0-411.0","eoycy3ot","","","null","","Agent B","veridical","STIM_SET_1_REAL/713089.bmp_pp60_L3_V1.0_veridical_freeview_isoFalse_fps144.mp4",""
"","","","call-function","412","1371140","0.0-412.0","eoycy3ot","","","","","","","",""
"2789.4250000000466","{""judgement"":1}","[0]","survey-likert","413","1373931","0.0-413.0","eoycy3ot","","","","","","","","1"
"1991.5149999998976","{""confidence"":2}","[0]","survey-likert","414","1375924","0.0-414.0","eoycy3ot","","","","","","","",""
"25822.655000000028","","","instructions","415","1401748","0.0-415.0","eoycy3ot","[{""page_index"":0,""viewing_time"":21682.324999999953},{""page_index"":1,""viewing_time"":2140.9499999999534},{""page_index"":2,""viewing_time"":1999.1899999999441}]","","","","","","",""
"7126.815000000177","","","instructions","416","1408876","0.0-416.0","eoycy3ot","[{""page_index"":0,""viewing_time"":1988.6800000001676},{""page_index"":1,""viewing_time"":2659.9899999999907},{""page_index"":2,""viewing_time"":2478.0400000000373}]","","","","","","",""
"","","","call-function","417","1408877","0.0-417.0","eoycy3ot","","","","","","","",""
"null","","","html-keyboard-response","418","1410379","0.0-418.0","eoycy3ot","","<span style=""color:Black; font-size:50px;"">Agent A","null","","","","",""
"null","","","video-keyboard-response","419","1413456","0.0-419.0","eoycy3ot","","","null","","Agent A","veridical","STIM_SET_1_REAL/1591994.bmp_pp69_L3_V1.0_veridical_freeview_isoFalse_fps144.mp4",""
"null","","","html-keyboard-response","420","1414960","0.0-420.0","eoycy3ot","","<span style=""color:Black; font-size:50px;"">Agent B","null","","","","",""
"null","","","video-keyboard-response","421","1418023","0.0-421.0","eoycy3ot","","","null","","Agent B","scrambled","STIM_SET_3/713328.bmp_pp86_L2_V2_veridical_freeview_isoFalsemismatch_1591994.bmp_L3_fps90.mp4",""
"","","","call-function","422","1418025","0.0-422.0","eoycy3ot","","","","","","","",""
"3894.030000000028","{""judgement"":0}","[0]","survey-likert","423","1421920","0.0-423.0","eoycy3ot","","","","","","","","0"
"2525.8249999999534","{""confidence"":2}","[0]","survey-likert","424","1424447","0.0-424.0","eoycy3ot","","","","","","","",""
"","","","call-function","425","1424449","0.0-425.0","eoycy3ot","","","","","","","",""
"null","","","html-keyboard-response","426","1425955","0.0-426.0","eoycy3ot","","<span style=""color:Black; font-size:50px;"">Agent A","null","","","","",""
"null","","","video-keyboard-response","427","1429034","0.0-427.0","eoycy3ot","","","null","","Agent A","veridical","STIM_SET_1_REAL/498175.bmp_pp154_L1_V1.0_veridical_freeview_isoFalse_fps144.mp4",""
"null","","","html-keyboard-response","428","1430538","0.0-428.0","eoycy3ot","","<span style=""color:Black; font-size:50px;"">Agent B","null","","","","",""
"null","","","video-keyboard-response","429","1433601","0.0-429.0","eoycy3ot","","","null","","Agent B","scrambled","STIM_SET_3/713689.bmp_pp153_L3_V2_veridical_freeview_isoFalsemismatch_498175.bmp_L1_fps90.mp4",""
"","","","call-function","430","1433602","0.0-430.0","eoycy3ot","","","","","","","",""
"1952.9899999999907","{""judgement"":0}","[0]","survey-likert","431","1435556","0.0-431.0","eoycy3ot","","","","","","","","0"
"3573.975000000093","{""confidence"":3}","[0]","survey-likert","432","1439131","0.0-432.0","eoycy3ot","","","","","","","",""
"","","","call-function","433","1439132","0.0-433.0","eoycy3ot","","","","","","","",""
"null","","","html-keyboard-response","434","1440636","0.0-434.0","eoycy3ot","","<span style=""color:Black; font-size:50px;"">Agent A","null","","","","",""
"null","","","video-keyboard-response","435","1443768","0.0-435.0","eoycy3ot","","","null","","Agent A","scrambled","STIM_SET_3/713858.bmp_pp57_L1_V2_veridical_freeview_isoFalsemismatch_713749.bmp_L2_fps90.mp4",""
"null","","","html-keyboard-response","436","1445271","0.0-436.0","eoycy3ot","","<span style=""color:Black; font-size:50px;"">Agent B","null","","","","",""
"null","","","video-keyboard-response","437","1448349","0.0-437.0","eoycy3ot","","","null","","Agent B","veridical","STIM_SET_1_REAL/713749.bmp_pp88_L2_V1.0_veridical_freeview_isoFalse_fps144.mp4",""
"","","","call-function","438","1448352","0.0-438.0","eoycy3ot","","","","","","","",""
"2688.9150000000373","{""judgement"":1}","[0]","survey-likert","439","1451042","0.0-439.0","eoycy3ot","","","","","","","","1"
"1648.4749999998603","{""confidence"":1}","[0]","survey-likert","440","1452692","0.0-440.0","eoycy3ot","","","","","","","",""
"","","","call-function","441","1452693","0.0-441.0","eoycy3ot","","","","","","","",""
"null","","","html-keyboard-response","442","1454198","0.0-442.0","eoycy3ot","","<span style=""color:Black; font-size:50px;"">Agent A","null","","","","",""
"null","","","video-keyboard-response","443","1457262","0.0-443.0","eoycy3ot","","","null","","Agent A","scrambled","STIM_SET_3/713652.bmp_pp89_L1_V2_veridical_freeview_isoFalsemismatch_1592807.bmp_L1_fps90.mp4",""
"null","","","html-keyboard-response","444","1458768","0.0-444.0","eoycy3ot","","<span style=""color:Black; font-size:50px;"">Agent B","null","","","","",""
"null","","","video-keyboard-response","445","1461849","0.0-445.0","eoycy3ot","","","null","","Agent B","veridical","STIM_SET_1_REAL/1592807.bmp_pp68_L1_V1.0_veridical_freeview_isoFalse_fps144.mp4",""
"","","","call-function","446","1461850","0.0-446.0","eoycy3ot","","","","","","","",""
"6121.860000000102","{""judgement"":1}","[0]","survey-likert","447","1467973","0.0-447.0","eoycy3ot","","","","","","","","1"
"2656.160000000149","{""confidence"":2}","[0]","survey-likert","448","1470631","0.0-448.0","eoycy3ot","","","","","","","",""
"","","","call-function","449","1470632","0.0-449.0","eoycy3ot","","","","","","","",""
"null","","","html-keyboard-response","450","1472134","0.0-450.0","eoycy3ot","","<span style=""color:Black; font-size:50px;"">Agent A","null","","","","",""
"null","","","video-keyboard-response","451","1475206","0.0-451.0","eoycy3ot","","","null","","Agent A","veridical","STIM_SET_1_REAL/713513.bmp_pp62_L2_V1.0_veridical_freeview_isoFalse_fps144.mp4",""
"null","","","html-keyboard-response","452","1476711","0.0-452.0","eoycy3ot","","<span style=""color:Black; font-size:50px;"">Agent B","null","","","","",""
"null","","","video-keyboard-response","453","1479799","0.0-453.0","eoycy3ot","","","null","","Agent B","scrambled","STIM_SET_3/1592047.bmp_pp51_L1_V2_veridical_freeview_isoFalsemismatch_713513.bmp_L2_fps90.mp4",""
"","","","call-function","454","1479800","0.0-454.0","eoycy3ot","","","","","","","",""
"1953.530000000028","{""judgement"":0}","[0]","survey-likert","455","1481755","0.0-455.0","eoycy3ot","","","","","","","","0"
"2820.155000000028","{""confidence"":1}","[0]","survey-likert","456","1484577","0.0-456.0","eoycy3ot","","","","","","","",""
"","","","call-function","457","1484578","0.0-457.0","eoycy3ot","","","","","","","",""
"null","","","html-keyboard-response","458","1486083","0.0-458.0","eoycy3ot","","<span style=""color:Black; font-size:50px;"">Agent A","null","","","","",""
"null","","","video-keyboard-response","459","1489196","0.0-459.0","eoycy3ot","","","null","","Agent A","veridical","STIM_SET_1_REAL/713666.bmp_pp97_L3_V1.0_veridical_freeview_isoFalse_fps144.mp4",""
"null","","","html-keyboard-response","460","1490702","0.0-460.0","eoycy3ot","","<span style=""color:Black; font-size:50px;"">Agent B","null","","","","",""
"null","","","video-keyboard-response","461","1493807","0.0-461.0","eoycy3ot","","","null","","Agent B","scrambled","STIM_SET_3/1592289.bmp_pp92_L3_V2_veridical_freeview_isoFalsemismatch_713666.bmp_L3_fps90.mp4",""
"","","","call-function","462","1493808","0.0-462.0","eoycy3ot","","","","","","","",""
"2458.530000000028","{""judgement"":0}","[0]","survey-likert","463","1496267","0.0-463.0","eoycy3ot","","","","","","","","0"
"1363.9899999999907","{""confidence"":1}","[0]","survey-likert","464","1497633","0.0-464.0","eoycy3ot","","","","","","","",""
"","","","call-function","465","1497634","0.0-465.0","eoycy3ot","","","","","","","",""
"null","","","html-keyboard-response","466","1499135","0.0-466.0","eoycy3ot","","<span style=""color:Black; font-size:50px;"">Agent A","null","","","","",""
"null","","","video-keyboard-response","467","1502237","0.0-467.0","eoycy3ot","","","null","","Agent A","scrambled","STIM_SET_3/713920.bmp_pp76_L1_V2_veridical_freeview_isoFalsemismatch_713684.bmp_L3_fps90.mp4",""
"null","","","html-keyboard-response","468","1503743","0.0-468.0","eoycy3ot","","<span style=""color:Black; font-size:50px;"">Agent B","null","","","","",""
"null","","","video-keyboard-response","469","1506850","0.0-469.0","eoycy3ot","","","null","","Agent B","veridical","STIM_SET_1_REAL/713684.bmp_pp85_L3_V1.0_veridical_freeview_isoFalse_fps144.mp4",""
"","","","call-function","470","1506852","0.0-470.0","eoycy3ot","","","","","","","",""
"7681.929999999935","{""judgement"":0}","[0]","survey-likert","471","1514534","0.0-471.0","eoycy3ot","","","","","","","","1"
"3863.445000000065","{""confidence"":0}","[0]","survey-likert","472","1518399","0.0-472.0","eoycy3ot","","","","","","","",""
"","","","call-function","473","1518401","0.0-473.0","eoycy3ot","","","","","","","",""
"null","","","html-keyboard-response","474","1519901","0.0-474.0","eoycy3ot","","<span style=""color:Black; font-size:50px;"">Agent A","null","","","","",""
"null","","","video-keyboard-response","475","1522979","0.0-475.0","eoycy3ot","","","null","","Agent A","veridical","STIM_SET_1_REAL/1159784.bmp_pp73_L3_V1.0_veridical_freeview_isoFalse_fps144.mp4",""
"null","","","html-keyboard-response","476","1524484","0.0-476.0","eoycy3ot","","<span style=""color:Black; font-size:50px;"">Agent B","null","","","","",""
"null","","","video-keyboard-response","477","1527554","0.0-477.0","eoycy3ot","","","null","","Agent B","scrambled","STIM_SET_3/61513.bmp_pp75_L1_V2_veridical_freeview_isoFalsemismatch_1159784.bmp_L3_fps90.mp4",""
"","","","call-function","478","1527555","0.0-478.0","eoycy3ot","","","","","","","",""
"9761.840000000084","{""judgement"":0}","[0]","survey-likert","479","1537318","0.0-479.0","eoycy3ot","","","","","","","","0"
"1800.3950000000186","{""confidence"":0}","[0]","survey-likert","480","1539120","0.0-480.0","eoycy3ot","","","","","","","",""
"","","","call-function","481","1539122","0.0-481.0","eoycy3ot","","","","","","","",""
"null","","","html-keyboard-response","482","1540627","0.0-482.0","eoycy3ot","","<span style=""color:Black; font-size:50px;"">Agent A","null","","","","",""
"null","","","video-keyboard-response","483","1543704","0.0-483.0","eoycy3ot","","","null","","Agent A","scrambled","STIM_SET_3/1592168.bmp_pp71_L1_V2_veridical_freeview_isoFalsemismatch_1592890.bmp_L2_fps90.mp4",""
"null","","","html-keyboard-response","484","1545206","0.0-484.0","eoycy3ot","","<span style=""color:Black; font-size:50px;"">Agent B","null","","","","",""
"null","","","video-keyboard-response","485","1548269","0.0-485.0","eoycy3ot","","","null","","Agent B","veridical","STIM_SET_1_REAL/1592890.bmp_pp82_L2_V1.0_veridical_freeview_isoFalse_fps144.mp4",""
"","","","call-function","486","1548270","0.0-486.0","eoycy3ot","","","","","","","",""
"2929.8649999999907","{""judgement"":1}","[0]","survey-likert","487","1551201","0.0-487.0","eoycy3ot","","","","","","","","1"
"2043.4350000000559","{""confidence"":1}","[0]","survey-likert","488","1553246","0.0-488.0","eoycy3ot","","","","","","","",""
"","","","call-function","489","1553247","0.0-489.0","eoycy3ot","","","","","","","",""
"null","","","html-keyboard-response","490","1554750","0.0-490.0","eoycy3ot","","<span style=""color:Black; font-size:50px;"">Agent A","null","","","","",""
"null","","","video-keyboard-response","491","1557844","0.0-491.0","eoycy3ot","","","null","","Agent A","scrambled","STIM_SET_3/1160204.bmp_pp54_L2_V2_veridical_freeview_isoFalsemismatch_286001.bmp_L2_fps90.mp4",""
"null","","","html-keyboard-response","492","1559351","0.0-492.0","eoycy3ot","","<span style=""color:Black; font-size:50px;"">Agent B","null","","","","",""
"null","","","video-keyboard-response","493","1562442","0.0-493.0","eoycy3ot","","","null","","Agent B","veridical","STIM_SET_1_REAL/286001.bmp_pp54_L2_V1.0_veridical_freeview_isoFalse_fps144.mp4",""
"","","","call-function","494","1562443","0.0-494.0","eoycy3ot","","","","","","","",""
"5360.90000000014","{""judgement"":0}","[0]","survey-likert","495","1567805","0.0-495.0","eoycy3ot","","","","","","","","1"
"5337.550000000047","{""confidence"":1}","[0]","survey-likert","496","1573144","0.0-496.0","eoycy3ot","","","","","","","",""
"31910.76500000013","","","instructions","497","1605056","0.0-497.0","eoycy3ot","[{""page_index"":0,""viewing_time"":7668.420000000158},{""page_index"":1,""viewing_time"":23074.814999999944},{""page_index"":2,""viewing_time"":1167.3649999999907}]","","","","","","",""
"14487.535000000149","","","instructions","498","1619546","0.0-498.0","eoycy3ot","[{""page_index"":0,""viewing_time"":8964.39000000013},{""page_index"":1,""viewing_time"":4429.010000000009},{""page_index"":2,""viewing_time"":1094.030000000028}]","","","","","","",""
"","","","call-function","499","1619548","0.0-499.0","eoycy3ot","","","","","","","",""
"null","","","html-keyboard-response","500","1621054","0.0-500.0","eoycy3ot","","<span style=""color:Black; font-size:50px;"">Agent A","null","","","","",""
"null","","","video-keyboard-response","501","1624135","0.0-501.0","eoycy3ot","","","null","","Agent A","veridical","STIM_SET_1_REAL/498111.bmp_pp88_L2_V1.0_veridical_freeview_isoFalse_fps144.mp4",""
"null","","","html-keyboard-response","502","1625641","0.0-502.0","eoycy3ot","","<span style=""color:Black; font-size:50px;"">Agent B","null","","","","",""
"null","","","video-keyboard-response","503","1628802","0.0-503.0","eoycy3ot","","","null","","Agent B","scrambled","STIM_SET_3/1592350.bmp_pp55_L3_V2_veridical_freeview_isoFalsemismatch_498111.bmp_L2_fps90.mp4",""
"","","","call-function","504","1628803","0.0-504.0","eoycy3ot","","","","","","","",""
"2830.149999999907","{""judgement"":0}","[0]","survey-likert","505","1631634","0.0-505.0","eoycy3ot","","","","","","","","0"
"1810.1450000000186","{""confidence"":1}","[0]","survey-likert","506","1633446","0.0-506.0","eoycy3ot","","","","","","","",""
"","","","call-function","507","1633447","0.0-507.0","eoycy3ot","","","","","","","",""
"null","","","html-keyboard-response","508","1634953","0.0-508.0","eoycy3ot","","<span style=""color:Black; font-size:50px;"">Agent A","null","","","","",""
"null","","","video-keyboard-response","509","1638015","0.0-509.0","eoycy3ot","","","null","","Agent A","veridical","STIM_SET_1_REAL/285994.bmp_pp92_L3_V1.0_veridical_freeview_isoFalse_fps144.mp4",""
"null","","","html-keyboard-response","510","1639522","0.0-510.0","eoycy3ot","","<span style=""color:Black; font-size:50px;"">Agent B","null","","","","",""
"null","","","video-keyboard-response","511","1642600","0.0-511.0","eoycy3ot","","","null","","Agent B","scrambled","STIM_SET_3/1159592.bmp_pp91_L3_V2_veridical_freeview_isoFalsemismatch_285994.bmp_L3_fps90.mp4",""
"","","","call-function","512","1642601","0.0-512.0","eoycy3ot","","","","","","","",""
"10419.574999999953","{""judgement"":0}","[0]","survey-likert","513","1653022","0.0-513.0","eoycy3ot","","","","","","","","0"
"2683.554999999935","{""confidence"":0}","[0]","survey-likert","514","1655707","0.0-514.0","eoycy3ot","","","","","","","",""
"","","","call-function","515","1655708","0.0-515.0","eoycy3ot","","","","","","","",""
"null","","","html-keyboard-response","516","1657211","0.0-516.0","eoycy3ot","","<span style=""color:Black; font-size:50px;"">Agent A","null","","","","",""
"null","","","video-keyboard-response","517","1660300","0.0-517.0","eoycy3ot","","","null","","Agent A","scrambled","STIM_SET_3/1592044.bmp_pp94_L2_V2_veridical_freeview_isoFalsemismatch_1159446.bmp_L3_fps90.mp4",""
"null","","","html-keyboard-response","518","1661804","0.0-518.0","eoycy3ot","","<span style=""color:Black; font-size:50px;"">Agent B","null","","","","",""
"null","","","video-keyboard-response","519","1664900","0.0-519.0","eoycy3ot","","","null","","Agent B","veridical","STIM_SET_1_REAL/1159446.bmp_pp60_L3_V1.0_veridical_freeview_isoFalse_fps144.mp4",""
"","","","call-function","520","1664901","0.0-520.0","eoycy3ot","","","","","","","",""
"3081.9550000000745","{""judgement"":1}","[0]","survey-likert","521","1667984","0.0-521.0","eoycy3ot","","","","","","","","1"
"5962.339999999851","{""confidence"":2}","[0]","survey-likert","522","1673948","0.0-522.0","eoycy3ot","","","","","","","",""
"","","","call-function","523","1673949","0.0-523.0","eoycy3ot","","","","","","","",""
"null","","","html-keyboard-response","524","1675455","0.0-524.0","eoycy3ot","","<span style=""color:Black; font-size:50px;"">Agent A","null","","","","",""
"null","","","video-keyboard-response","525","1678547","0.0-525.0","eoycy3ot","","","null","","Agent A","veridical","STIM_SET_1_REAL/1159882.bmp_pp61_L2_V1.0_veridical_freeview_isoFalse_fps144.mp4",""
"null","","","html-keyboard-response","526","1680050","0.0-526.0","eoycy3ot","","<span style=""color:Black; font-size:50px;"">Agent B","null","","","","",""
"null","","","video-keyboard-response","527","1683142","0.0-527.0","eoycy3ot","","","null","","Agent B","scrambled","STIM_SET_3/285715.bmp_pp67_L2_V2_veridical_freeview_isoFalsemismatch_1159882.bmp_L2_fps90.mp4",""
"","","","call-function","528","1683143","0.0-528.0","eoycy3ot","","","","","","","",""
"4698.954999999842","{""judgement"":1}","[0]","survey-likert","529","1687843","0.0-529.0","eoycy3ot","","","","","","","","0"
"5500.954999999842","{""confidence"":0}","[0]","survey-likert","530","1693346","0.0-530.0","eoycy3ot","","","","","","","",""
"","","","call-function","531","1693347","0.0-531.0","eoycy3ot","","","","","","","",""
"null","","","html-keyboard-response","532","1694852","0.0-532.0","eoycy3ot","","<span style=""color:Black; font-size:50px;"">Agent A","null","","","","",""
"null","","","video-keyboard-response","533","1697953","0.0-533.0","eoycy3ot","","","null","","Agent A","scrambled","STIM_SET_3/1592038.bmp_pp79_L2_V2_veridical_freeview_isoFalsemismatch_1592727.bmp_L3_fps90.mp4",""
"null","","","html-keyboard-response","534","1699460","0.0-534.0","eoycy3ot","","<span style=""color:Black; font-size:50px;"">Agent B","null","","","","",""
"null","","","video-keyboard-response","535","1702530","0.0-535.0","eoycy3ot","","","null","","Agent B","veridical","STIM_SET_1_REAL/1592727.bmp_pp59_L3_V1.0_veridical_freeview_isoFalse_fps144.mp4",""
"","","","call-function","536","1702532","0.0-536.0","eoycy3ot","","","","","","","",""
"2297.3349999999627","{""judgement"":1}","[0]","survey-likert","537","1704831","0.0-537.0","eoycy3ot","","","","","","","","1"
"2909.155000000028","{""confidence"":1}","[0]","survey-likert","538","1707742","0.0-538.0","eoycy3ot","","","","","","","",""
"","","","call-function","539","1707743","0.0-539.0","eoycy3ot","","","","","","","",""
"null","","","html-keyboard-response","540","1709245","0.0-540.0","eoycy3ot","","<span style=""color:Black; font-size:50px;"">Agent A","null","","","","",""
"null","","","video-keyboard-response","541","1712339","0.0-541.0","eoycy3ot","","","null","","Agent A","scrambled","STIM_SET_3/1159956.bmp_pp59_L3_V2_veridical_freeview_isoFalsemismatch_1159829.bmp_L3_fps90.mp4",""
"null","","","html-keyboard-response","542","1713841","0.0-542.0","eoycy3ot","","<span style=""color:Black; font-size:50px;"">Agent B","null","","","","",""
"null","","","video-keyboard-response","543","1716913","0.0-543.0","eoycy3ot","","","null","","Agent B","veridical","STIM_SET_1_REAL/1159829.bmp_pp91_L3_V1.0_veridical_freeview_isoFalse_fps144.mp4",""
"","","","call-function","544","1716914","0.0-544.0","eoycy3ot","","","","","","","",""
"2606.189999999944","{""judgement"":1}","[0]","survey-likert","545","1719521","0.0-545.0","eoycy3ot","","","","","","","","1"
"2439.844999999972","{""confidence"":0}","[0]","survey-likert","546","1721964","0.0-546.0","eoycy3ot","","","","","","","",""
"","","","call-function","547","1721965","0.0-547.0","eoycy3ot","","","","","","","",""
"null","","","html-keyboard-response","548","1723468","0.0-548.0","eoycy3ot","","<span style=""color:Black; font-size:50px;"">Agent A","null","","","","",""
"null","","","video-keyboard-response","549","1726568","0.0-549.0","eoycy3ot","","","null","","Agent A","veridical","STIM_SET_1_REAL/285933.bmp_pp81_L1_V1.0_veridical_freeview_isoFalse_fps144.mp4",""
"null","","","html-keyboard-response","550","1728073","0.0-550.0","eoycy3ot","","<span style=""color:Black; font-size:50px;"">Agent B","null","","","","",""
"null","","","video-keyboard-response","551","1731177","0.0-551.0","eoycy3ot","","","null","","Agent B","scrambled","STIM_SET_3/1159973.bmp_pp98_L1_V2_veridical_freeview_isoFalsemismatch_285933.bmp_L1_fps90.mp4",""
"","","","call-function","552","1731179","0.0-552.0","eoycy3ot","","","","","","","",""
"3331.160000000149","{""judgement"":0}","[0]","survey-likert","553","1734512","0.0-553.0","eoycy3ot","","","","","","","","0"
"3132.409999999916","{""confidence"":2}","[0]","survey-likert","554","1737646","0.0-554.0","eoycy3ot","","","","","","","",""
"","","","call-function","555","1737649","0.0-555.0","eoycy3ot","","","","","","","",""
"null","","","html-keyboard-response","556","1739154","0.0-556.0","eoycy3ot","","<span style=""color:Black; font-size:50px;"">Agent A","null","","","","",""
"null","","","video-keyboard-response","557","1742251","0.0-557.0","eoycy3ot","","","null","","Agent A","scrambled","STIM_SET_3/713633.bmp_pp58_L1_V2_veridical_freeview_isoFalsemismatch_713796.bmp_L3_fps90.mp4",""
"null","","","html-keyboard-response","558","1743755","0.0-558.0","eoycy3ot","","<span style=""color:Black; font-size:50px;"">Agent B","null","","","","",""
"null","","","video-keyboard-response","559","1746824","0.0-559.0","eoycy3ot","","","null","","Agent B","veridical","STIM_SET_1_REAL/713796.bmp_pp84_L3_V1.0_veridical_freeview_isoFalse_fps144.mp4",""
"","","","call-function","560","1746825","0.0-560.0","eoycy3ot","","","","","","","",""
"2169.9499999999534","{""judgement"":1}","[0]","survey-likert","561","1748996","0.0-561.0","eoycy3ot","","","","","","","","1"
"1391.0850000001956","{""confidence"":2}","[0]","survey-likert","562","1750388","0.0-562.0","eoycy3ot","","","","","","","",""
"","","","call-function","563","1750389","0.0-563.0","eoycy3ot","","","","","","","",""
"null","","","html-keyboard-response","564","1751894","0.0-564.0","eoycy3ot","","<span style=""color:Black; font-size:50px;"">Agent A","null","","","","",""
"null","","","video-keyboard-response","565","1754971","0.0-565.0","eoycy3ot","","","null","","Agent A","veridical","STIM_SET_1_REAL/713760.bmp_pp81_L1_V1.0_veridical_freeview_isoFalse_fps144.mp4",""
"null","","","html-keyboard-response","566","1756474","0.0-566.0","eoycy3ot","","<span style=""color:Black; font-size:50px;"">Agent B","null","","","","",""
"null","","","video-keyboard-response","567","1759550","0.0-567.0","eoycy3ot","","","null","","Agent B","scrambled","STIM_SET_3/285684.bmp_pp80_L3_V2_veridical_freeview_isoFalsemismatch_713760.bmp_L1_fps90.mp4",""
"","","","call-function","568","1759551","0.0-568.0","eoycy3ot","","","","","","","",""
"3238.3000000000466","{""judgement"":0}","[0]","survey-likert","569","1762790","0.0-569.0","eoycy3ot","","","","","","","","0"
"2005.3850000000093","{""confidence"":1}","[0]","survey-likert","570","1764797","0.0-570.0","eoycy3ot","","","","","","","",""
"","","","call-function","571","1764798","0.0-571.0","eoycy3ot","","","","","","","",""
"null","","","html-keyboard-response","572","1766303","0.0-572.0","eoycy3ot","","<span style=""color:Black; font-size:50px;"">Agent A","null","","","","",""
"null","","","video-keyboard-response","573","1769403","0.0-573.0","eoycy3ot","","","null","","Agent A","scrambled","STIM_SET_3/1160189.bmp_pp64_L1_V2_veridical_freeview_isoFalsemismatch_1592581.bmp_L3_fps90.mp4",""
"null","","","html-keyboard-response","574","1770909","0.0-574.0","eoycy3ot","","<span style=""color:Black; font-size:50px;"">Agent B","null","","","","",""
"null","","","video-keyboard-response","575","1774008","0.0-575.0","eoycy3ot","","","null","","Agent B","veridical","STIM_SET_1_REAL/1592581.bmp_pp100_L3_V1.0_veridical_freeview_isoFalse_fps144.mp4",""
"","","","call-function","576","1774009","0.0-576.0","eoycy3ot","","","","","","","",""
"4978.915000000037","{""judgement"":1}","[0]","survey-likert","577","1778988","0.0-577.0","eoycy3ot","","","","","","","","1"
"1748.8850000000093","{""confidence"":0}","[0]","survey-likert","578","1780739","0.0-578.0","eoycy3ot","","","","","","","",""
"3990.0049999998882","","","instructions","579","1784730","0.0-579.0","eoycy3ot","[{""page_index"":0,""viewing_time"":3989.869999999879}]","","","","","","",""
"3925.659999999916","","","instructions","580","1788657","0.0-580.0","eoycy3ot","[{""page_index"":0,""viewing_time"":3925.554999999935}]","","","","","","",""
"27174.790000000037","{""post-1"":2}","[0]","survey-likert","581","1815833","0.0-581.0","eoycy3ot","","","","","","","",""
"21511.924999999814","{""post-1"":0}","[0]","survey-likert","582","1837349","0.0-582.0","eoycy3ot","","","","","","","",""
"17955.155000000028","{""post-2"":2}","[0]","survey-likert","583","1855307","0.0-583.0","eoycy3ot","","","","","","","",""
"12744.425000000047","{""post-2"":0}","[0]","survey-likert","584","1868055","0.0-584.0","eoycy3ot","","","","","","","",""
"15672.780000000028","{""post-3"":3}","[0]","survey-likert","585","1883730","0.0-585.0","eoycy3ot","","","","","","","",""
"4592.380000000121","{""post-3"":0}","[0]","survey-likert","586","1888324","0.0-586.0","eoycy3ot","","","","","","","",""
"11831.945000000065","{""post-4"":1}","[0]","survey-likert","587","1900158","0.0-587.0","eoycy3ot","","","","","","","",""
"4798.034999999916","{""post-4"":0}","[0]","survey-likert","588","1904958","0.0-588.0","eoycy3ot","","","","","","","",""
"13688.209999999963","{""post-5"":1}","[0]","survey-likert","589","1918648","0.0-589.0","eoycy3ot","","","","","","","",""
"8283.354999999981","{""post-5"":2}","[0]","survey-likert","590","1926935","0.0-590.0","eoycy3ot","","","","","","","",""
"150158.36999999988","{""Q0"":""When judging if the agent was real, I tried to think of if they were looking in a way that seemed logical and not just random. I think it was easier to do so when there were close-up people or words in the images because to me it seemed more realistic that they would focus on words or the main people in the images.""}","","survey-text","591","2077101","0.0-591.0","eoycy3ot","","","","","","","",""
"129211.12000000011","{""Q0"":""I found it easiest to determine which agent was real when there were close-up people or words in the images because it seemed more realistic that a real person would look at those features in the images instead of like the sky or unimportant features of the image. I tried to think of what I would have looked at in the images to help determine which agent was a real person.""}","","survey-text","592","2206318","0.0-592.0","eoycy3ot","","","","","","","",""
"133960.1799999997","{""Q0"":""I found it difficult when the images were of random things and seemed to have no focus. I recall that I was unsure about pictures that just showed cluttered rooms because I thought that what I may have looked at first in the image may not be the same thing that someone else looks at because of a lack of a main focus in the image.""}","","survey-text","593","2340284","0.0-593.0","eoycy3ot","","","","","","","",""
"44438.075000000186","","","instructions","594","2384724","0.0-594.0","eoycy3ot","[{""page_index"":0,""viewing_time"":44437.845000000205}]","","","","","","",""
"22828.459999999963","{""Experimenter_end"":[""Printed ID# eoycy3ot on consent form"",""Given subject SONA credit or payment"",""Given the subject debrief form""]}","[0]","survey-multi-select","595","2407555","0.0-595.0","eoycy3ot","","","","","","","",""
