"rt","responses","question_order","trial_type","trial_index","time_elapsed","internal_node_id","ID","view_history","stimulus","key_press","value","agent","condition","image","correct_answer"
"141128.905","{""Experimenter"":[""Confirmed subject's identity (ID card)"",""Confirmed normal or corrected-to-normal vision"",""Obtained consent (signature and date)"",""Checked the test room lighting"",""Checked computer screen lighting"",""Checked distance from screen to chin rest (50cm)"",""Cleaned and adjusted chin rest"",""Counterbalanced the order of the tasks"",""Opened the experiment in Firefox"",""Made the experiment full screen"",""Encouraged subject to silence phone, put away distractors, etc.""]}","[0]","survey-multi-select","0","141138","0.0-0.0","fcdq4u3b","","","","","","","",""
"25986.464999999997","","","instructions","1","167126","0.0-1.0","fcdq4u3b","[{""page_index"":0,""viewing_time"":25986.315000000002}]","","","","","","",""
"34716.44","","","instructions","2","201843","0.0-2.0","fcdq4u3b","[{""page_index"":0,""viewing_time"":1343.6849999999977},{""page_index"":1,""viewing_time"":24615.704999999987},{""page_index"":2,""viewing_time"":8756.929999999993}]","","","","","","",""
"2650.320000000007","","","instructions","3","204494","0.0-3.0","fcdq4u3b","[{""page_index"":0,""viewing_time"":2650.2149999999965}]","","","","","","",""
"null","","","video-keyboard-response","4","207574","0.0-4.0","fcdq4u3b","","","null","","","","",""
"17759","","","instructions","5","225334","0.0-5.0","fcdq4u3b","[{""page_index"":0,""viewing_time"":2890.820000000007},{""page_index"":1,""viewing_time"":2357.0899999999965},{""page_index"":2,""viewing_time"":1076.9700000000012},{""page_index"":3,""viewing_time"":4855.1050000000105},{""page_index"":4,""viewing_time"":6578.8949999999895}]","","","","","","",""
"5770.705000000016","","","instructions","6","231105","0.0-6.0","fcdq4u3b","[{""page_index"":0,""viewing_time"":5770.584999999992}]","","","","","","",""
"","","","call-function","7","231106","0.0-7.0","fcdq4u3b","","","","","","","",""
"null","","","html-keyboard-response","8","232612","0.0-8.0","fcdq4u3b","","<span style=""color:Black; font-size:50px;"">Agent A","null","","","","",""
"null","","","video-keyboard-response","9","235680","0.0-9.0","fcdq4u3b","","","null","","Agent A","veridical","STIM_SET_1/286001.bmp_pp54_L2_V1.0_veridical_freeview_isoFalse.mp4",""
"null","","","html-keyboard-response","10","237184","0.0-10.0","fcdq4u3b","","<span style=""color:Black; font-size:50px;"">Agent B","null","","","","",""
"null","","","video-keyboard-response","11","240252","0.0-11.0","fcdq4u3b","","","null","","Agent B","scrambled","STIM_SET_1/286001.bmp_pp54_L2_V1.0_scrambled_freeview_isoFalse.mp4",""
"","","","call-function","12","240253","0.0-12.0","fcdq4u3b","","","","","","","",""
"2196.154999999999","{""judgement"":0}","[0]","survey-likert","13","242450","0.0-13.0","fcdq4u3b","","","","","","","","0"
"3887.1049999999814","{""confidence"":2}","[0]","survey-likert","14","246339","0.0-14.0","fcdq4u3b","","","","","","","",""
"","","","call-function","15","246339","0.0-15.0","fcdq4u3b","","","","","","","",""
"null","","","html-keyboard-response","16","247841","0.0-16.0","fcdq4u3b","","<span style=""color:Black; font-size:50px;"">Agent A","null","","","","",""
"null","","","video-keyboard-response","17","250917","0.0-17.0","fcdq4u3b","","","null","","Agent A","veridical","STIM_SET_1/713135.bmp_pp54_L2_V1.0_veridical_freeview_isoFalse.mp4",""
"null","","","html-keyboard-response","18","252420","0.0-18.0","fcdq4u3b","","<span style=""color:Black; font-size:50px;"">Agent B","null","","","","",""
"null","","","video-keyboard-response","19","255489","0.0-19.0","fcdq4u3b","","","null","","Agent B","scrambled","STIM_SET_1/713135.bmp_pp54_L2_V1.0_scrambled_freeview_isoFalse.mp4",""
"","","","call-function","20","255490","0.0-20.0","fcdq4u3b","","","","","","","",""
"2916.149999999994","{""judgement"":0}","[0]","survey-likert","21","258408","0.0-21.0","fcdq4u3b","","","","","","","","0"
"2606.2050000000163","{""confidence"":3}","[0]","survey-likert","22","261016","0.0-22.0","fcdq4u3b","","","","","","","",""
"","","","call-function","23","261016","0.0-23.0","fcdq4u3b","","","","","","","",""
"null","","","html-keyboard-response","24","262520","0.0-24.0","fcdq4u3b","","<span style=""color:Black; font-size:50px;"">Agent A","null","","","","",""
"null","","","video-keyboard-response","25","265599","0.0-25.0","fcdq4u3b","","","null","","Agent A","scrambled","STIM_SET_1/498175.bmp_pp154_L1_V1.0_scrambled_freeview_isoFalse.mp4",""
"null","","","html-keyboard-response","26","267102","0.0-26.0","fcdq4u3b","","<span style=""color:Black; font-size:50px;"">Agent B","null","","","","",""
"null","","","video-keyboard-response","27","270181","0.0-27.0","fcdq4u3b","","","null","","Agent B","veridical","STIM_SET_1/498175.bmp_pp154_L1_V1.0_veridical_freeview_isoFalse.mp4",""
"","","","call-function","28","270181","0.0-28.0","fcdq4u3b","","","","","","","",""
"2019.2099999999627","{""judgement"":1}","[0]","survey-likert","29","272203","0.0-29.0","fcdq4u3b","","","","","","","","1"
"2381.4949999999953","{""confidence"":3}","[0]","survey-likert","30","274586","0.0-30.0","fcdq4u3b","","","","","","","",""
"","","","call-function","31","274586","0.0-31.0","fcdq4u3b","","","","","","","",""
"null","","","html-keyboard-response","32","276088","0.0-32.0","fcdq4u3b","","<span style=""color:Black; font-size:50px;"">Agent A","null","","","","",""
"null","","","video-keyboard-response","33","279168","0.0-33.0","fcdq4u3b","","","null","","Agent A","veridical","STIM_SET_1/1592372.bmp_pp76_L1_V1.0_veridical_freeview_isoFalse.mp4",""
"null","","","html-keyboard-response","34","280674","0.0-34.0","fcdq4u3b","","<span style=""color:Black; font-size:50px;"">Agent B","null","","","","",""
"null","","","video-keyboard-response","35","283798","0.0-35.0","fcdq4u3b","","","null","","Agent B","scrambled","STIM_SET_1/1592372.bmp_pp76_L1_V1.0_scrambled_freeview_isoFalse.mp4",""
"","","","call-function","36","283799","0.0-36.0","fcdq4u3b","","","","","","","",""
"3716.625","{""judgement"":1}","[0]","survey-likert","37","287517","0.0-37.0","fcdq4u3b","","","","","","","","0"
"1638.640000000014","{""confidence"":1}","[0]","survey-likert","38","289156","0.0-38.0","fcdq4u3b","","","","","","","",""
"","","","call-function","39","289157","0.0-39.0","fcdq4u3b","","","","","","","",""
"null","","","html-keyboard-response","40","290660","0.0-40.0","fcdq4u3b","","<span style=""color:Black; font-size:50px;"">Agent A","null","","","","",""
"null","","","video-keyboard-response","41","293750","0.0-41.0","fcdq4u3b","","","null","","Agent A","veridical","STIM_SET_1/713684.bmp_pp85_L3_V1.0_veridical_freeview_isoFalse.mp4",""
"null","","","html-keyboard-response","42","295257","0.0-42.0","fcdq4u3b","","<span style=""color:Black; font-size:50px;"">Agent B","null","","","","",""
"null","","","video-keyboard-response","43","298354","0.0-43.0","fcdq4u3b","","","null","","Agent B","scrambled","STIM_SET_1/713684.bmp_pp85_L3_V1.0_scrambled_freeview_isoFalse.mp4",""
"","","","call-function","44","298354","0.0-44.0","fcdq4u3b","","","","","","","",""
"2540.0800000000163","{""judgement"":1}","[0]","survey-likert","45","300895","0.0-45.0","fcdq4u3b","","","","","","","","0"
"1942.9349999999977","{""confidence"":0}","[0]","survey-likert","46","302839","0.0-46.0","fcdq4u3b","","","","","","","",""
"","","","call-function","47","302840","0.0-47.0","fcdq4u3b","","","","","","","",""
"null","","","html-keyboard-response","48","304342","0.0-48.0","fcdq4u3b","","<span style=""color:Black; font-size:50px;"">Agent A","null","","","","",""
"null","","","video-keyboard-response","49","307427","0.0-49.0","fcdq4u3b","","","null","","Agent A","veridical","STIM_SET_1/1160168.bmp_pp53_L2_V1.0_veridical_freeview_isoFalse.mp4",""
"null","","","html-keyboard-response","50","308930","0.0-50.0","fcdq4u3b","","<span style=""color:Black; font-size:50px;"">Agent B","null","","","","",""
"null","","","video-keyboard-response","51","312015","0.0-51.0","fcdq4u3b","","","null","","Agent B","scrambled","STIM_SET_1/1160168.bmp_pp53_L2_V1.0_scrambled_freeview_isoFalse.mp4",""
"","","","call-function","52","312015","0.0-52.0","fcdq4u3b","","","","","","","",""
"1921.429999999993","{""judgement"":0}","[0]","survey-likert","53","313937","0.0-53.0","fcdq4u3b","","","","","","","","0"
"1597.8399999999674","{""confidence"":0}","[0]","survey-likert","54","315536","0.0-54.0","fcdq4u3b","","","","","","","",""
"","","","call-function","55","315537","0.0-55.0","fcdq4u3b","","","","","","","",""
"null","","","html-keyboard-response","56","317038","0.0-56.0","fcdq4u3b","","<span style=""color:Black; font-size:50px;"">Agent A","null","","","","",""
"null","","","video-keyboard-response","57","320116","0.0-57.0","fcdq4u3b","","","null","","Agent A","veridical","STIM_SET_1/1591954.bmp_pp62_L2_V1.0_veridical_freeview_isoFalse.mp4",""
"null","","","html-keyboard-response","58","321621","0.0-58.0","fcdq4u3b","","<span style=""color:Black; font-size:50px;"">Agent B","null","","","","",""
"null","","","video-keyboard-response","59","324749","0.0-59.0","fcdq4u3b","","","null","","Agent B","scrambled","STIM_SET_1/1591954.bmp_pp62_L2_V1.0_scrambled_freeview_isoFalse.mp4",""
"","","","call-function","60","324750","0.0-60.0","fcdq4u3b","","","","","","","",""
"2388.6900000000023","{""judgement"":1}","[0]","survey-likert","61","327139","0.0-61.0","fcdq4u3b","","","","","","","","0"
"2005.8699999999953","{""confidence"":0}","[0]","survey-likert","62","329146","0.0-62.0","fcdq4u3b","","","","","","","",""
"","","","call-function","63","329147","0.0-63.0","fcdq4u3b","","","","","","","",""
"null","","","html-keyboard-response","64","330651","0.0-64.0","fcdq4u3b","","<span style=""color:Black; font-size:50px;"">Agent A","null","","","","",""
"null","","","video-keyboard-response","65","333729","0.0-65.0","fcdq4u3b","","","null","","Agent A","scrambled","STIM_SET_1/1592657.bmp_pp98_L1_V1.0_scrambled_freeview_isoFalse.mp4",""
"null","","","html-keyboard-response","66","335231","0.0-66.0","fcdq4u3b","","<span style=""color:Black; font-size:50px;"">Agent B","null","","","","",""
"null","","","video-keyboard-response","67","338314","0.0-67.0","fcdq4u3b","","","null","","Agent B","veridical","STIM_SET_1/1592657.bmp_pp98_L1_V1.0_veridical_freeview_isoFalse.mp4",""
"","","","call-function","68","338314","0.0-68.0","fcdq4u3b","","","","","","","",""
"2820.9799999999814","{""judgement"":1}","[0]","survey-likert","69","341136","0.0-69.0","fcdq4u3b","","","","","","","","1"
"1491.9349999999977","{""confidence"":0}","[0]","survey-likert","70","342630","0.0-70.0","fcdq4u3b","","","","","","","",""
"","","","call-function","71","342631","0.0-71.0","fcdq4u3b","","","","","","","",""
"null","","","html-keyboard-response","72","344137","0.0-72.0","fcdq4u3b","","<span style=""color:Black; font-size:50px;"">Agent A","null","","","","",""
"null","","","video-keyboard-response","73","347211","0.0-73.0","fcdq4u3b","","","null","","Agent A","veridical","STIM_SET_1/1160127.bmp_pp90_L2_V1.0_veridical_freeview_isoFalse.mp4",""
"null","","","html-keyboard-response","74","348714","0.0-74.0","fcdq4u3b","","<span style=""color:Black; font-size:50px;"">Agent B","null","","","","",""
"null","","","video-keyboard-response","75","351789","0.0-75.0","fcdq4u3b","","","null","","Agent B","scrambled","STIM_SET_1/1160127.bmp_pp90_L2_V1.0_scrambled_freeview_isoFalse.mp4",""
"","","","call-function","76","351790","0.0-76.0","fcdq4u3b","","","","","","","",""
"2607.804999999993","{""judgement"":1}","[0]","survey-likert","77","354399","0.0-77.0","fcdq4u3b","","","","","","","","0"
"1461.0600000000559","{""confidence"":1}","[0]","survey-likert","78","355862","0.0-78.0","fcdq4u3b","","","","","","","",""
"","","","call-function","79","355862","0.0-79.0","fcdq4u3b","","","","","","","",""
"null","","","html-keyboard-response","80","357366","0.0-80.0","fcdq4u3b","","<span style=""color:Black; font-size:50px;"">Agent A","null","","","","",""
"null","","","video-keyboard-response","81","360435","0.0-81.0","fcdq4u3b","","","null","","Agent A","veridical","STIM_SET_1/1592890.bmp_pp82_L2_V1.0_veridical_freeview_isoFalse.mp4",""
"null","","","html-keyboard-response","82","361942","0.0-82.0","fcdq4u3b","","<span style=""color:Black; font-size:50px;"">Agent B","null","","","","",""
"null","","","video-keyboard-response","83","365010","0.0-83.0","fcdq4u3b","","","null","","Agent B","scrambled","STIM_SET_1/1592890.bmp_pp82_L2_V1.0_scrambled_freeview_isoFalse.mp4",""
"","","","call-function","84","365011","0.0-84.0","fcdq4u3b","","","","","","","",""
"2208.9049999999697","{""judgement"":1}","[0]","survey-likert","85","367221","0.0-85.0","fcdq4u3b","","","","","","","","0"
"3243.3850000000093","{""confidence"":0}","[0]","survey-likert","86","370466","0.0-86.0","fcdq4u3b","","","","","","","",""
"9969.23000000004","","","instructions","87","380435","0.0-87.0","fcdq4u3b","[{""page_index"":0,""viewing_time"":1758.1450000000186},{""page_index"":1,""viewing_time"":7088.455000000016},{""page_index"":2,""viewing_time"":1122.4099999999744}]","","","","","","",""
"4705.90499999997","","","instructions","88","385142","0.0-88.0","fcdq4u3b","[{""page_index"":0,""viewing_time"":891.9349999999977},{""page_index"":1,""viewing_time"":3262.765000000014},{""page_index"":2,""viewing_time"":551.0999999999767}]","","","","","","",""
"","","","call-function","89","385142","0.0-89.0","fcdq4u3b","","","","","","","",""
"null","","","html-keyboard-response","90","386645","0.0-90.0","fcdq4u3b","","<span style=""color:Black; font-size:50px;"">Agent A","null","","","","",""
"null","","","video-keyboard-response","91","389760","0.0-91.0","fcdq4u3b","","","null","","Agent A","veridical","STIM_SET_1/1159515.bmp_pp84_L3_V1.0_veridical_freeview_isoFalse.mp4",""
"null","","","html-keyboard-response","92","391266","0.0-92.0","fcdq4u3b","","<span style=""color:Black; font-size:50px;"">Agent B","null","","","","",""
"null","","","video-keyboard-response","93","394377","0.0-93.0","fcdq4u3b","","","null","","Agent B","scrambled","STIM_SET_1/1159515.bmp_pp84_L3_V1.0_scrambled_freeview_isoFalse.mp4",""
"","","","call-function","94","394379","0.0-94.0","fcdq4u3b","","","","","","","",""
"2738.0100000000093","{""judgement"":0}","[0]","survey-likert","95","397118","0.0-95.0","fcdq4u3b","","","","","","","","0"
"1412.7700000000186","{""confidence"":2}","[0]","survey-likert","96","398532","0.0-96.0","fcdq4u3b","","","","","","","",""
"","","","call-function","97","398532","0.0-97.0","fcdq4u3b","","","","","","","",""
"null","","","html-keyboard-response","98","400033","0.0-98.0","fcdq4u3b","","<span style=""color:Black; font-size:50px;"">Agent A","null","","","","",""
"null","","","video-keyboard-response","99","403105","0.0-99.0","fcdq4u3b","","","null","","Agent A","scrambled","STIM_SET_1/498170.bmp_pp153_L3_V1.0_scrambled_freeview_isoFalse.mp4",""
"null","","","html-keyboard-response","100","404610","0.0-100.0","fcdq4u3b","","<span style=""color:Black; font-size:50px;"">Agent B","null","","","","",""
"null","","","video-keyboard-response","101","407722","0.0-101.0","fcdq4u3b","","","null","","Agent B","veridical","STIM_SET_1/498170.bmp_pp153_L3_V1.0_veridical_freeview_isoFalse.mp4",""
"","","","call-function","102","407722","0.0-102.0","fcdq4u3b","","","","","","","",""
"4787.549999999988","{""judgement"":0}","[0]","survey-likert","103","412511","0.0-103.0","fcdq4u3b","","","","","","","","1"
"1645.5800000000163","{""confidence"":0}","[0]","survey-likert","104","414157","0.0-104.0","fcdq4u3b","","","","","","","",""
"","","","call-function","105","414158","0.0-105.0","fcdq4u3b","","","","","","","",""
"null","","","html-keyboard-response","106","415658","0.0-106.0","fcdq4u3b","","<span style=""color:Black; font-size:50px;"">Agent A","null","","","","",""
"null","","","video-keyboard-response","107","418733","0.0-107.0","fcdq4u3b","","","null","","Agent A","scrambled","STIM_SET_1/1592581.bmp_pp100_L3_V1.0_scrambled_freeview_isoFalse.mp4",""
"null","","","html-keyboard-response","108","420238","0.0-108.0","fcdq4u3b","","<span style=""color:Black; font-size:50px;"">Agent B","null","","","","",""
"null","","","video-keyboard-response","109","423313","0.0-109.0","fcdq4u3b","","","null","","Agent B","veridical","STIM_SET_1/1592581.bmp_pp100_L3_V1.0_veridical_freeview_isoFalse.mp4",""
"","","","call-function","110","423314","0.0-110.0","fcdq4u3b","","","","","","","",""
"2282.2099999999627","{""judgement"":1}","[0]","survey-likert","111","425597","0.0-111.0","fcdq4u3b","","","","","","","","1"
"2444.570000000007","{""confidence"":1}","[0]","survey-likert","112","428043","0.0-112.0","fcdq4u3b","","","","","","","",""
"","","","call-function","113","428044","0.0-113.0","fcdq4u3b","","","","","","","",""
"null","","","html-keyboard-response","114","429549","0.0-114.0","fcdq4u3b","","<span style=""color:Black; font-size:50px;"">Agent A","null","","","","",""
"null","","","video-keyboard-response","115","432619","0.0-115.0","fcdq4u3b","","","null","","Agent A","scrambled","STIM_SET_1/1159813.bmp_pp79_L2_V1.0_scrambled_freeview_isoFalse.mp4",""
"null","","","html-keyboard-response","116","434124","0.0-116.0","fcdq4u3b","","<span style=""color:Black; font-size:50px;"">Agent B","null","","","","",""
"null","","","video-keyboard-response","117","437195","0.0-117.0","fcdq4u3b","","","null","","Agent B","veridical","STIM_SET_1/1159813.bmp_pp79_L2_V1.0_veridical_freeview_isoFalse.mp4",""
"","","","call-function","118","437196","0.0-118.0","fcdq4u3b","","","","","","","",""
"4003.4500000000116","{""judgement"":1}","[0]","survey-likert","119","441200","0.0-119.0","fcdq4u3b","","","","","","","","1"
"1981.625","{""confidence"":0}","[0]","survey-likert","120","443183","0.0-120.0","fcdq4u3b","","","","","","","",""
"","","","call-function","121","443183","0.0-121.0","fcdq4u3b","","","","","","","",""
"null","","","html-keyboard-response","122","444686","0.0-122.0","fcdq4u3b","","<span style=""color:Black; font-size:50px;"">Agent A","null","","","","",""
"null","","","video-keyboard-response","123","447799","0.0-123.0","fcdq4u3b","","","null","","Agent A","veridical","STIM_SET_1/713513.bmp_pp62_L2_V1.0_veridical_freeview_isoFalse.mp4",""
"null","","","html-keyboard-response","124","449302","0.0-124.0","fcdq4u3b","","<span style=""color:Black; font-size:50px;"">Agent B","null","","","","",""
"null","","","video-keyboard-response","125","452377","0.0-125.0","fcdq4u3b","","","null","","Agent B","scrambled","STIM_SET_1/713513.bmp_pp62_L2_V1.0_scrambled_freeview_isoFalse.mp4",""
"","","","call-function","126","452378","0.0-126.0","fcdq4u3b","","","","","","","",""
"2221.429999999993","{""judgement"":1}","[0]","survey-likert","127","454600","0.0-127.0","fcdq4u3b","","","","","","","","0"
"2731.2249999999767","{""confidence"":2}","[0]","survey-likert","128","457334","0.0-128.0","fcdq4u3b","","","","","","","",""
"","","","call-function","129","457335","0.0-129.0","fcdq4u3b","","","","","","","",""
"null","","","html-keyboard-response","130","458839","0.0-130.0","fcdq4u3b","","<span style=""color:Black; font-size:50px;"">Agent A","null","","","","",""
"null","","","video-keyboard-response","131","461916","0.0-131.0","fcdq4u3b","","","null","","Agent A","scrambled","STIM_SET_1/713371.bmp_pp68_L1_V1.0_scrambled_freeview_isoFalse.mp4",""
"null","","","html-keyboard-response","132","463419","0.0-132.0","fcdq4u3b","","<span style=""color:Black; font-size:50px;"">Agent B","null","","","","",""
"null","","","video-keyboard-response","133","466499","0.0-133.0","fcdq4u3b","","","null","","Agent B","veridical","STIM_SET_1/713371.bmp_pp68_L1_V1.0_veridical_freeview_isoFalse.mp4",""
"","","","call-function","134","466499","0.0-134.0","fcdq4u3b","","","","","","","",""
"2736.570000000007","{""judgement"":0}","[0]","survey-likert","135","469237","0.0-135.0","fcdq4u3b","","","","","","","","1"
"3391.2000000000116","{""confidence"":3}","[0]","survey-likert","136","472629","0.0-136.0","fcdq4u3b","","","","","","","",""
"","","","call-function","137","472630","0.0-137.0","fcdq4u3b","","","","","","","",""
"null","","","html-keyboard-response","138","474135","0.0-138.0","fcdq4u3b","","<span style=""color:Black; font-size:50px;"">Agent A","null","","","","",""
"null","","","video-keyboard-response","139","477213","0.0-139.0","fcdq4u3b","","","null","","Agent A","scrambled","STIM_SET_1/713666.bmp_pp97_L3_V1.0_scrambled_freeview_isoFalse.mp4",""
"null","","","html-keyboard-response","140","478716","0.0-140.0","fcdq4u3b","","<span style=""color:Black; font-size:50px;"">Agent B","null","","","","",""
"null","","","video-keyboard-response","141","481796","0.0-141.0","fcdq4u3b","","","null","","Agent B","veridical","STIM_SET_1/713666.bmp_pp97_L3_V1.0_veridical_freeview_isoFalse.mp4",""
"","","","call-function","142","481797","0.0-142.0","fcdq4u3b","","","","","","","",""
"1993.2849999999744","{""judgement"":0}","[0]","survey-likert","143","483791","0.0-143.0","fcdq4u3b","","","","","","","","1"
"3774.75","{""confidence"":3}","[0]","survey-likert","144","487567","0.0-144.0","fcdq4u3b","","","","","","","",""
"","","","call-function","145","487568","0.0-145.0","fcdq4u3b","","","","","","","",""
"null","","","html-keyboard-response","146","489073","0.0-146.0","fcdq4u3b","","<span style=""color:Black; font-size:50px;"">Agent A","null","","","","",""
"null","","","video-keyboard-response","147","492192","0.0-147.0","fcdq4u3b","","","null","","Agent A","veridical","STIM_SET_1/1159855.bmp_pp99_L2_V1.0_veridical_freeview_isoFalse.mp4",""
"null","","","html-keyboard-response","148","493695","0.0-148.0","fcdq4u3b","","<span style=""color:Black; font-size:50px;"">Agent B","null","","","","",""
"null","","","video-keyboard-response","149","496817","0.0-149.0","fcdq4u3b","","","null","","Agent B","scrambled","STIM_SET_1/1159855.bmp_pp99_L2_V1.0_scrambled_freeview_isoFalse.mp4",""
"","","","call-function","150","496817","0.0-150.0","fcdq4u3b","","","","","","","",""
"2118.6599999999744","{""judgement"":0}","[0]","survey-likert","151","498937","0.0-151.0","fcdq4u3b","","","","","","","","0"
"1734.9049999999697","{""confidence"":2}","[0]","survey-likert","152","500673","0.0-152.0","fcdq4u3b","","","","","","","",""
"","","","call-function","153","500673","0.0-153.0","fcdq4u3b","","","","","","","",""
"null","","","html-keyboard-response","154","502178","0.0-154.0","fcdq4u3b","","<span style=""color:Black; font-size:50px;"">Agent A","null","","","","",""
"null","","","video-keyboard-response","155","505295","0.0-155.0","fcdq4u3b","","","null","","Agent A","scrambled","STIM_SET_1/713620.bmp_pp65_L3_V1.0_scrambled_freeview_isoFalse.mp4",""
"null","","","html-keyboard-response","156","506801","0.0-156.0","fcdq4u3b","","<span style=""color:Black; font-size:50px;"">Agent B","null","","","","",""
"null","","","video-keyboard-response","157","509918","0.0-157.0","fcdq4u3b","","","null","","Agent B","veridical","STIM_SET_1/713620.bmp_pp65_L3_V1.0_veridical_freeview_isoFalse.mp4",""
"","","","call-function","158","509919","0.0-158.0","fcdq4u3b","","","","","","","",""
"2795.0900000000256","{""judgement"":1}","[0]","survey-likert","159","512715","0.0-159.0","fcdq4u3b","","","","","","","","1"
"2058","{""confidence"":0}","[0]","survey-likert","160","514774","0.0-160.0","fcdq4u3b","","","","","","","",""
"","","","call-function","161","514775","0.0-161.0","fcdq4u3b","","","","","","","",""
"null","","","html-keyboard-response","162","516277","0.0-162.0","fcdq4u3b","","<span style=""color:Black; font-size:50px;"">Agent A","null","","","","",""
"null","","","video-keyboard-response","163","519392","0.0-163.0","fcdq4u3b","","","null","","Agent A","veridical","STIM_SET_1/1592286.bmp_pp52_L1_V1.0_veridical_freeview_isoFalse.mp4",""
"null","","","html-keyboard-response","164","520898","0.0-164.0","fcdq4u3b","","<span style=""color:Black; font-size:50px;"">Agent B","null","","","","",""
"null","","","video-keyboard-response","165","524016","0.0-165.0","fcdq4u3b","","","null","","Agent B","scrambled","STIM_SET_1/1592286.bmp_pp52_L1_V1.0_scrambled_freeview_isoFalse.mp4",""
"","","","call-function","166","524016","0.0-166.0","fcdq4u3b","","","","","","","",""
"1628.9000000000233","{""judgement"":1}","[0]","survey-likert","167","525646","0.0-167.0","fcdq4u3b","","","","","","","","0"
"2268.7299999999814","{""confidence"":2}","[0]","survey-likert","168","527916","0.0-168.0","fcdq4u3b","","","","","","","",""
"7281.244999999995","","","instructions","169","535198","0.0-169.0","fcdq4u3b","[{""page_index"":0,""viewing_time"":2778.8300000000745},{""page_index"":1,""viewing_time"":2773.0999999999767},{""page_index"":2,""viewing_time"":1729.0250000000233}]","","","","","","",""
"3356.3850000000093","","","instructions","170","538555","0.0-170.0","fcdq4u3b","[{""page_index"":0,""viewing_time"":699.1049999999814},{""page_index"":1,""viewing_time"":1931.9500000000698},{""page_index"":2,""viewing_time"":725.1199999999953}]","","","","","","",""
"","","","call-function","171","538556","0.0-171.0","fcdq4u3b","","","","","","","",""
"null","","","html-keyboard-response","172","540060","0.0-172.0","fcdq4u3b","","<span style=""color:Black; font-size:50px;"">Agent A","null","","","","",""
"null","","","video-keyboard-response","173","543129","0.0-173.0","fcdq4u3b","","","null","","Agent A","veridical","STIM_SET_1/1159882.bmp_pp61_L2_V1.0_veridical_freeview_isoFalse.mp4",""
"null","","","html-keyboard-response","174","544632","0.0-174.0","fcdq4u3b","","<span style=""color:Black; font-size:50px;"">Agent B","null","","","","",""
"null","","","video-keyboard-response","175","547703","0.0-175.0","fcdq4u3b","","","null","","Agent B","scrambled","STIM_SET_1/1159882.bmp_pp61_L2_V1.0_scrambled_freeview_isoFalse.mp4",""
"","","","call-function","176","547704","0.0-176.0","fcdq4u3b","","","","","","","",""
"2520.0800000000745","{""judgement"":0}","[0]","survey-likert","177","550225","0.0-177.0","fcdq4u3b","","","","","","","","0"
"2105.8349999999627","{""confidence"":3}","[0]","survey-likert","178","552333","0.0-178.0","fcdq4u3b","","","","","","","",""
"","","","call-function","179","552333","0.0-179.0","fcdq4u3b","","","","","","","",""
"null","","","html-keyboard-response","180","553834","0.0-180.0","fcdq4u3b","","<span style=""color:Black; font-size:50px;"">Agent A","null","","","","",""
"null","","","video-keyboard-response","181","556897","0.0-181.0","fcdq4u3b","","","null","","Agent A","scrambled","STIM_SET_1/713760.bmp_pp81_L1_V1.0_scrambled_freeview_isoFalse.mp4",""
"null","","","html-keyboard-response","182","558404","0.0-182.0","fcdq4u3b","","<span style=""color:Black; font-size:50px;"">Agent B","null","","","","",""
"null","","","video-keyboard-response","183","561468","0.0-183.0","fcdq4u3b","","","null","","Agent B","veridical","STIM_SET_1/713760.bmp_pp81_L1_V1.0_veridical_freeview_isoFalse.mp4",""
"","","","call-function","184","561469","0.0-184.0","fcdq4u3b","","","","","","","",""
"2337.2350000001024","{""judgement"":1}","[0]","survey-likert","185","563808","0.0-185.0","fcdq4u3b","","","","","","","","1"
"1592.3250000000698","{""confidence"":1}","[0]","survey-likert","186","565401","0.0-186.0","fcdq4u3b","","","","","","","",""
"","","","call-function","187","565402","0.0-187.0","fcdq4u3b","","","","","","","",""
"null","","","html-keyboard-response","188","566903","0.0-188.0","fcdq4u3b","","<span style=""color:Black; font-size:50px;"">Agent A","null","","","","",""
"null","","","video-keyboard-response","189","569971","0.0-189.0","fcdq4u3b","","","null","","Agent A","veridical","STIM_SET_1/1593035.bmp_pp94_L2_V1.0_veridical_freeview_isoFalse.mp4",""
"null","","","html-keyboard-response","190","571473","0.0-190.0","fcdq4u3b","","<span style=""color:Black; font-size:50px;"">Agent B","null","","","","",""
"null","","","video-keyboard-response","191","574579","0.0-191.0","fcdq4u3b","","","null","","Agent B","scrambled","STIM_SET_1/1593035.bmp_pp94_L2_V1.0_scrambled_freeview_isoFalse.mp4",""
"","","","call-function","192","574580","0.0-192.0","fcdq4u3b","","","","","","","",""
"1766.9150000000373","{""judgement"":0}","[0]","survey-likert","193","576347","0.0-193.0","fcdq4u3b","","","","","","","","0"
"8453.550000000047","{""confidence"":3}","[0]","survey-likert","194","584803","0.0-194.0","fcdq4u3b","","","","","","","",""
"","","","call-function","195","584804","0.0-195.0","fcdq4u3b","","","","","","","",""
"null","","","html-keyboard-response","196","586305","0.0-196.0","fcdq4u3b","","<span style=""color:Black; font-size:50px;"">Agent A","null","","","","",""
"null","","","video-keyboard-response","197","589423","0.0-197.0","fcdq4u3b","","","null","","Agent A","veridical","STIM_SET_1/1592804.bmp_pp91_L3_V1.0_veridical_freeview_isoFalse.mp4",""
"null","","","html-keyboard-response","198","590926","0.0-198.0","fcdq4u3b","","<span style=""color:Black; font-size:50px;"">Agent B","null","","","","",""
"null","","","video-keyboard-response","199","594045","0.0-199.0","fcdq4u3b","","","null","","Agent B","scrambled","STIM_SET_1/1592804.bmp_pp91_L3_V1.0_scrambled_freeview_isoFalse.mp4",""
"","","","call-function","200","594045","0.0-200.0","fcdq4u3b","","","","","","","",""
"2611.3499999999767","{""judgement"":1}","[0]","survey-likert","201","596657","0.0-201.0","fcdq4u3b","","","","","","","","0"
"2556.4799999999814","{""confidence"":2}","[0]","survey-likert","202","599215","0.0-202.0","fcdq4u3b","","","","","","","",""
"","","","call-function","203","599216","0.0-203.0","fcdq4u3b","","","","","","","",""
"null","","","html-keyboard-response","204","600717","0.0-204.0","fcdq4u3b","","<span style=""color:Black; font-size:50px;"">Agent A","null","","","","",""
"null","","","video-keyboard-response","205","603845","0.0-205.0","fcdq4u3b","","","null","","Agent A","scrambled","STIM_SET_1/1159440.bmp_pp98_L1_V1.0_scrambled_freeview_isoFalse.mp4",""
"null","","","html-keyboard-response","206","605347","0.0-206.0","fcdq4u3b","","<span style=""color:Black; font-size:50px;"">Agent B","null","","","","",""
"null","","","video-keyboard-response","207","608471","0.0-207.0","fcdq4u3b","","","null","","Agent B","veridical","STIM_SET_1/1159440.bmp_pp98_L1_V1.0_veridical_freeview_isoFalse.mp4",""
"","","","call-function","208","608471","0.0-208.0","fcdq4u3b","","","","","","","",""
"2730.8499999999767","{""judgement"":1}","[0]","survey-likert","209","611203","0.0-209.0","fcdq4u3b","","","","","","","","1"
"2074.7900000000373","{""confidence"":0}","[0]","survey-likert","210","613279","0.0-210.0","fcdq4u3b","","","","","","","",""
"","","","call-function","211","613280","0.0-211.0","fcdq4u3b","","","","","","","",""
"null","","","html-keyboard-response","212","614786","0.0-212.0","fcdq4u3b","","<span style=""color:Black; font-size:50px;"">Agent A","null","","","","",""
"null","","","video-keyboard-response","213","617865","0.0-213.0","fcdq4u3b","","","null","","Agent A","scrambled","STIM_SET_1/285751.bmp_pp55_L3_V1.0_scrambled_freeview_isoFalse.mp4",""
"null","","","html-keyboard-response","214","619368","0.0-214.0","fcdq4u3b","","<span style=""color:Black; font-size:50px;"">Agent B","null","","","","",""
"null","","","video-keyboard-response","215","622449","0.0-215.0","fcdq4u3b","","","null","","Agent B","veridical","STIM_SET_1/285751.bmp_pp55_L3_V1.0_veridical_freeview_isoFalse.mp4",""
"","","","call-function","216","622450","0.0-216.0","fcdq4u3b","","","","","","","",""
"2397.82500000007","{""judgement"":1}","[0]","survey-likert","217","624848","0.0-217.0","fcdq4u3b","","","","","","","","1"
"1602.3549999999814","{""confidence"":0}","[0]","survey-likert","218","626452","0.0-218.0","fcdq4u3b","","","","","","","",""
"","","","call-function","219","626453","0.0-219.0","fcdq4u3b","","","","","","","",""
"null","","","html-keyboard-response","220","627954","0.0-220.0","fcdq4u3b","","<span style=""color:Black; font-size:50px;"">Agent A","null","","","","",""
"null","","","video-keyboard-response","221","631032","0.0-221.0","fcdq4u3b","","","null","","Agent A","veridical","STIM_SET_1/1592807.bmp_pp68_L1_V1.0_veridical_freeview_isoFalse.mp4",""
"null","","","html-keyboard-response","222","632533","0.0-222.0","fcdq4u3b","","<span style=""color:Black; font-size:50px;"">Agent B","null","","","","",""
"null","","","video-keyboard-response","223","635611","0.0-223.0","fcdq4u3b","","","null","","Agent B","scrambled","STIM_SET_1/1592807.bmp_pp68_L1_V1.0_scrambled_freeview_isoFalse.mp4",""
"","","","call-function","224","635613","0.0-224.0","fcdq4u3b","","","","","","","",""
"2747.8950000000186","{""judgement"":1}","[0]","survey-likert","225","638362","0.0-225.0","fcdq4u3b","","","","","","","","0"
"2637.329999999958","{""confidence"":0}","[0]","survey-likert","226","641001","0.0-226.0","fcdq4u3b","","","","","","","",""
"","","","call-function","227","641003","0.0-227.0","fcdq4u3b","","","","","","","",""
"null","","","html-keyboard-response","228","642505","0.0-228.0","fcdq4u3b","","<span style=""color:Black; font-size:50px;"">Agent A","null","","","","",""
"null","","","video-keyboard-response","229","645584","0.0-229.0","fcdq4u3b","","","null","","Agent A","scrambled","STIM_SET_1/1591876.bmp_pp63_L1_V1.0_scrambled_freeview_isoFalse.mp4",""
"null","","","html-keyboard-response","230","647087","0.0-230.0","fcdq4u3b","","<span style=""color:Black; font-size:50px;"">Agent B","null","","","","",""
"null","","","video-keyboard-response","231","650165","0.0-231.0","fcdq4u3b","","","null","","Agent B","veridical","STIM_SET_1/1591876.bmp_pp63_L1_V1.0_veridical_freeview_isoFalse.mp4",""
"","","","call-function","232","650165","0.0-232.0","fcdq4u3b","","","","","","","",""
"4585.175000000047","{""judgement"":1}","[0]","survey-likert","233","654751","0.0-233.0","fcdq4u3b","","","","","","","","1"
"1516.4599999999627","{""confidence"":0}","[0]","survey-likert","234","656269","0.0-234.0","fcdq4u3b","","","","","","","",""
"","","","call-function","235","656270","0.0-235.0","fcdq4u3b","","","","","","","",""
"null","","","html-keyboard-response","236","657772","0.0-236.0","fcdq4u3b","","<span style=""color:Black; font-size:50px;"">Agent A","null","","","","",""
"null","","","video-keyboard-response","237","660850","0.0-237.0","fcdq4u3b","","","null","","Agent A","veridical","STIM_SET_1/1592499.bmp_pp96_L2_V1.0_veridical_freeview_isoFalse.mp4",""
"null","","","html-keyboard-response","238","662354","0.0-238.0","fcdq4u3b","","<span style=""color:Black; font-size:50px;"">Agent B","null","","","","",""
"null","","","video-keyboard-response","239","665427","0.0-239.0","fcdq4u3b","","","null","","Agent B","scrambled","STIM_SET_1/1592499.bmp_pp96_L2_V1.0_scrambled_freeview_isoFalse.mp4",""
"","","","call-function","240","665428","0.0-240.0","fcdq4u3b","","","","","","","",""
"2626.1500000000233","{""judgement"":1}","[0]","survey-likert","241","668055","0.0-241.0","fcdq4u3b","","","","","","","","0"
"1970.2649999998976","{""confidence"":0}","[0]","survey-likert","242","670026","0.0-242.0","fcdq4u3b","","","","","","","",""
"","","","call-function","243","670027","0.0-243.0","fcdq4u3b","","","","","","","",""
"null","","","html-keyboard-response","244","671530","0.0-244.0","fcdq4u3b","","<span style=""color:Black; font-size:50px;"">Agent A","null","","","","",""
"null","","","video-keyboard-response","245","674620","0.0-245.0","fcdq4u3b","","","null","","Agent A","veridical","STIM_SET_1/1593041.bmp_pp58_L1_V1.0_veridical_freeview_isoFalse.mp4",""
"null","","","html-keyboard-response","246","676123","0.0-246.0","fcdq4u3b","","<span style=""color:Black; font-size:50px;"">Agent B","null","","","","",""
"null","","","video-keyboard-response","247","679210","0.0-247.0","fcdq4u3b","","","null","","Agent B","scrambled","STIM_SET_1/1593041.bmp_pp58_L1_V1.0_scrambled_freeview_isoFalse.mp4",""
"","","","call-function","248","679210","0.0-248.0","fcdq4u3b","","","","","","","",""
"3102.7399999999907","{""judgement"":0}","[0]","survey-likert","249","682314","0.0-249.0","fcdq4u3b","","","","","","","","0"
"2731.094999999972","{""confidence"":0}","[0]","survey-likert","250","685046","0.0-250.0","fcdq4u3b","","","","","","","",""
"54513.82499999995","","","instructions","251","739561","0.0-251.0","fcdq4u3b","[{""page_index"":0,""viewing_time"":51971.58999999997},{""page_index"":1,""viewing_time"":1418.9349999999395},{""page_index"":2,""viewing_time"":1123.1500000000233}]","","","","","","",""
"2876.2350000001024","","","instructions","252","742438","0.0-252.0","fcdq4u3b","[{""page_index"":0,""viewing_time"":1121.1850000000559},{""page_index"":1,""viewing_time"":1219.0849999999627},{""page_index"":2,""viewing_time"":535.859999999986}]","","","","","","",""
"","","","call-function","253","742439","0.0-253.0","fcdq4u3b","","","","","","","",""
"null","","","html-keyboard-response","254","743942","0.0-254.0","fcdq4u3b","","<span style=""color:Black; font-size:50px;"">Agent A","null","","","","",""
"null","","","video-keyboard-response","255","747023","0.0-255.0","fcdq4u3b","","","null","","Agent A","veridical","STIM_SET_1/1159675.bmp_pp77_L3_V1.0_veridical_freeview_isoFalse.mp4",""
"null","","","html-keyboard-response","256","748526","0.0-256.0","fcdq4u3b","","<span style=""color:Black; font-size:50px;"">Agent B","null","","","","",""
"null","","","video-keyboard-response","257","751606","0.0-257.0","fcdq4u3b","","","null","","Agent B","scrambled","STIM_SET_1/1159675.bmp_pp77_L3_V1.0_scrambled_freeview_isoFalse.mp4",""
"","","","call-function","258","751607","0.0-258.0","fcdq4u3b","","","","","","","",""
"2892.9150000000373","{""judgement"":1}","[0]","survey-likert","259","754500","0.0-259.0","fcdq4u3b","","","","","","","","0"
"2859.2799999999115","{""confidence"":0}","[0]","survey-likert","260","757361","0.0-260.0","fcdq4u3b","","","","","","","",""
"","","","call-function","261","757361","0.0-261.0","fcdq4u3b","","","","","","","",""
"null","","","html-keyboard-response","262","758865","0.0-262.0","fcdq4u3b","","<span style=""color:Black; font-size:50px;"">Agent A","null","","","","",""
"null","","","video-keyboard-response","263","761945","0.0-263.0","fcdq4u3b","","","null","","Agent A","veridical","STIM_SET_1/1159777.bmp_pp77_L3_V1.0_veridical_freeview_isoFalse.mp4",""
"null","","","html-keyboard-response","264","763451","0.0-264.0","fcdq4u3b","","<span style=""color:Black; font-size:50px;"">Agent B","null","","","","",""
"null","","","video-keyboard-response","265","766532","0.0-265.0","fcdq4u3b","","","null","","Agent B","scrambled","STIM_SET_1/1159777.bmp_pp77_L3_V1.0_scrambled_freeview_isoFalse.mp4",""
"","","","call-function","266","766532","0.0-266.0","fcdq4u3b","","","","","","","",""
"2017.7000000000698","{""judgement"":0}","[0]","survey-likert","267","768551","0.0-267.0","fcdq4u3b","","","","","","","","0"
"2658.644999999902","{""confidence"":0}","[0]","survey-likert","268","771211","0.0-268.0","fcdq4u3b","","","","","","","",""
"","","","call-function","269","771212","0.0-269.0","fcdq4u3b","","","","","","","",""
"null","","","html-keyboard-response","270","772713","0.0-270.0","fcdq4u3b","","<span style=""color:Black; font-size:50px;"">Agent A","null","","","","",""
"null","","","video-keyboard-response","271","775829","0.0-271.0","fcdq4u3b","","","null","","Agent A","scrambled","STIM_SET_1/497950.bmp_pp151_L1_V1.0_scrambled_freeview_isoFalse.mp4",""
"null","","","html-keyboard-response","272","777332","0.0-272.0","fcdq4u3b","","<span style=""color:Black; font-size:50px;"">Agent B","null","","","","",""
"null","","","video-keyboard-response","273","780447","0.0-273.0","fcdq4u3b","","","null","","Agent B","veridical","STIM_SET_1/497950.bmp_pp151_L1_V1.0_veridical_freeview_isoFalse.mp4",""
"","","","call-function","274","780448","0.0-274.0","fcdq4u3b","","","","","","","",""
"1636.5749999999534","{""judgement"":0}","[0]","survey-likert","275","782086","0.0-275.0","fcdq4u3b","","","","","","","","1"
"1334.5549999999348","{""confidence"":1}","[0]","survey-likert","276","783422","0.0-276.0","fcdq4u3b","","","","","","","",""
"","","","call-function","277","783424","0.0-277.0","fcdq4u3b","","","","","","","",""
"null","","","html-keyboard-response","278","784927","0.0-278.0","fcdq4u3b","","<span style=""color:Black; font-size:50px;"">Agent A","null","","","","",""
"null","","","video-keyboard-response","279","787998","0.0-279.0","fcdq4u3b","","","null","","Agent A","scrambled","STIM_SET_1/713796.bmp_pp84_L3_V1.0_scrambled_freeview_isoFalse.mp4",""
"null","","","html-keyboard-response","280","789502","0.0-280.0","fcdq4u3b","","<span style=""color:Black; font-size:50px;"">Agent B","null","","","","",""
"null","","","video-keyboard-response","281","792573","0.0-281.0","fcdq4u3b","","","null","","Agent B","veridical","STIM_SET_1/713796.bmp_pp84_L3_V1.0_veridical_freeview_isoFalse.mp4",""
"","","","call-function","282","792573","0.0-282.0","fcdq4u3b","","","","","","","",""
"2628.8850000000093","{""judgement"":0}","[0]","survey-likert","283","795203","0.0-283.0","fcdq4u3b","","","","","","","","1"
"1779.969999999972","{""confidence"":1}","[0]","survey-likert","284","796985","0.0-284.0","fcdq4u3b","","","","","","","",""
"","","","call-function","285","796985","0.0-285.0","fcdq4u3b","","","","","","","",""
"null","","","html-keyboard-response","286","798487","0.0-286.0","fcdq4u3b","","<span style=""color:Black; font-size:50px;"">Agent A","null","","","","",""
"null","","","video-keyboard-response","287","801558","0.0-287.0","fcdq4u3b","","","null","","Agent A","scrambled","STIM_SET_1/1159572.bmp_pp71_L1_V1.0_scrambled_freeview_isoFalse.mp4",""
"null","","","html-keyboard-response","288","803064","0.0-288.0","fcdq4u3b","","<span style=""color:Black; font-size:50px;"">Agent B","null","","","","",""
"null","","","video-keyboard-response","289","806132","0.0-289.0","fcdq4u3b","","","null","","Agent B","veridical","STIM_SET_1/1159572.bmp_pp71_L1_V1.0_veridical_freeview_isoFalse.mp4",""
"","","","call-function","290","806133","0.0-290.0","fcdq4u3b","","","","","","","",""
"1946.4499999999534","{""judgement"":0}","[0]","survey-likert","291","808080","0.0-291.0","fcdq4u3b","","","","","","","","1"
"1759.875","{""confidence"":0}","[0]","survey-likert","292","809842","0.0-292.0","fcdq4u3b","","","","","","","",""
"","","","call-function","293","809842","0.0-293.0","fcdq4u3b","","","","","","","",""
"null","","","html-keyboard-response","294","811343","0.0-294.0","fcdq4u3b","","<span style=""color:Black; font-size:50px;"">Agent A","null","","","","",""
"null","","","video-keyboard-response","295","814460","0.0-295.0","fcdq4u3b","","","null","","Agent A","scrambled","STIM_SET_1/1592397.bmp_pp85_L3_V1.0_scrambled_freeview_isoFalse.mp4",""
"null","","","html-keyboard-response","296","815966","0.0-296.0","fcdq4u3b","","<span style=""color:Black; font-size:50px;"">Agent B","null","","","","",""
"null","","","video-keyboard-response","297","819081","0.0-297.0","fcdq4u3b","","","null","","Agent B","veridical","STIM_SET_1/1592397.bmp_pp85_L3_V1.0_veridical_freeview_isoFalse.mp4",""
"","","","call-function","298","819082","0.0-298.0","fcdq4u3b","","","","","","","",""
"4431.415000000037","{""judgement"":1}","[0]","survey-likert","299","823514","0.0-299.0","fcdq4u3b","","","","","","","","1"
"2073.1149999999907","{""confidence"":0}","[0]","survey-likert","300","825589","0.0-300.0","fcdq4u3b","","","","","","","",""
"","","","call-function","301","825589","0.0-301.0","fcdq4u3b","","","","","","","",""
"null","","","html-keyboard-response","302","827092","0.0-302.0","fcdq4u3b","","<span style=""color:Black; font-size:50px;"">Agent A","null","","","","",""
"null","","","video-keyboard-response","303","830209","0.0-303.0","fcdq4u3b","","","null","","Agent A","veridical","STIM_SET_1/713593.bmp_pp64_L1_V1.0_veridical_freeview_isoFalse.mp4",""
"null","","","html-keyboard-response","304","831711","0.0-304.0","fcdq4u3b","","<span style=""color:Black; font-size:50px;"">Agent B","null","","","","",""
"null","","","video-keyboard-response","305","834826","0.0-305.0","fcdq4u3b","","","null","","Agent B","scrambled","STIM_SET_1/713593.bmp_pp64_L1_V1.0_scrambled_freeview_isoFalse.mp4",""
"","","","call-function","306","834827","0.0-306.0","fcdq4u3b","","","","","","","",""
"2623.9250000000466","{""judgement"":0}","[0]","survey-likert","307","837452","0.0-307.0","fcdq4u3b","","","","","","","","0"
"4553.7799999999115","{""confidence"":1}","[0]","survey-likert","308","842007","0.0-308.0","fcdq4u3b","","","","","","","",""
"","","","call-function","309","842007","0.0-309.0","fcdq4u3b","","","","","","","",""
"null","","","html-keyboard-response","310","843510","0.0-310.0","fcdq4u3b","","<span style=""color:Black; font-size:50px;"">Agent A","null","","","","",""
"null","","","video-keyboard-response","311","846622","0.0-311.0","fcdq4u3b","","","null","","Agent A","veridical","STIM_SET_1/713089.bmp_pp60_L3_V1.0_veridical_freeview_isoFalse.mp4",""
"null","","","html-keyboard-response","312","848124","0.0-312.0","fcdq4u3b","","<span style=""color:Black; font-size:50px;"">Agent B","null","","","","",""
"null","","","video-keyboard-response","313","851192","0.0-313.0","fcdq4u3b","","","null","","Agent B","scrambled","STIM_SET_1/713089.bmp_pp60_L3_V1.0_scrambled_freeview_isoFalse.mp4",""
"","","","call-function","314","851193","0.0-314.0","fcdq4u3b","","","","","","","",""
"3904.875","{""judgement"":1}","[0]","survey-likert","315","855099","0.0-315.0","fcdq4u3b","","","","","","","","0"
"1413.6799999999348","{""confidence"":0}","[0]","survey-likert","316","856513","0.0-316.0","fcdq4u3b","","","","","","","",""
"","","","call-function","317","856514","0.0-317.0","fcdq4u3b","","","","","","","",""
"null","","","html-keyboard-response","318","858017","0.0-318.0","fcdq4u3b","","<span style=""color:Black; font-size:50px;"">Agent A","null","","","","",""
"null","","","video-keyboard-response","319","861088","0.0-319.0","fcdq4u3b","","","null","","Agent A","veridical","STIM_SET_1/285933.bmp_pp81_L1_V1.0_veridical_freeview_isoFalse.mp4",""
"null","","","html-keyboard-response","320","862590","0.0-320.0","fcdq4u3b","","<span style=""color:Black; font-size:50px;"">Agent B","null","","","","",""
"null","","","video-keyboard-response","321","865666","0.0-321.0","fcdq4u3b","","","null","","Agent B","scrambled","STIM_SET_1/285933.bmp_pp81_L1_V1.0_scrambled_freeview_isoFalse.mp4",""
"","","","call-function","322","865668","0.0-322.0","fcdq4u3b","","","","","","","",""
"1645.7799999999115","{""judgement"":0}","[0]","survey-likert","323","867315","0.0-323.0","fcdq4u3b","","","","","","","","0"
"1413.75","{""confidence"":0}","[0]","survey-likert","324","868730","0.0-324.0","fcdq4u3b","","","","","","","",""
"","","","call-function","325","868731","0.0-325.0","fcdq4u3b","","","","","","","",""
"null","","","html-keyboard-response","326","870235","0.0-326.0","fcdq4u3b","","<span style=""color:Black; font-size:50px;"">Agent A","null","","","","",""
"null","","","video-keyboard-response","327","873315","0.0-327.0","fcdq4u3b","","","null","","Agent A","scrambled","STIM_SET_1/498155.bmp_pp61_L2_V1.0_scrambled_freeview_isoFalse.mp4",""
"null","","","html-keyboard-response","328","874819","0.0-328.0","fcdq4u3b","","<span style=""color:Black; font-size:50px;"">Agent B","null","","","","",""
"null","","","video-keyboard-response","329","877896","0.0-329.0","fcdq4u3b","","","null","","Agent B","veridical","STIM_SET_1/498155.bmp_pp61_L2_V1.0_veridical_freeview_isoFalse.mp4",""
"","","","call-function","330","877897","0.0-330.0","fcdq4u3b","","","","","","","",""
"3959.375","{""judgement"":0}","[0]","survey-likert","331","881857","0.0-331.0","fcdq4u3b","","","","","","","","1"
"3437.6350000000093","{""confidence"":0}","[0]","survey-likert","332","885296","0.0-332.0","fcdq4u3b","","","","","","","",""
"4213.5599999999395","","","instructions","333","889510","0.0-333.0","fcdq4u3b","[{""page_index"":0,""viewing_time"":1839.5200000000186},{""page_index"":1,""viewing_time"":963.75},{""page_index"":2,""viewing_time"":1410.134999999893}]","","","","","","",""
"2307.4199999999255","","","instructions","334","891818","0.0-334.0","fcdq4u3b","[{""page_index"":0,""viewing_time"":726.8199999999488},{""page_index"":1,""viewing_time"":810.5350000000326},{""page_index"":2,""viewing_time"":769.9649999999674}]","","","","","","",""
"","","","call-function","335","891819","0.0-335.0","fcdq4u3b","","","","","","","",""
"null","","","html-keyboard-response","336","893322","0.0-336.0","fcdq4u3b","","<span style=""color:Black; font-size:50px;"">Agent A","null","","","","",""
"null","","","video-keyboard-response","337","896401","0.0-337.0","fcdq4u3b","","","null","","Agent A","scrambled","STIM_SET_1/498253.bmp_pp67_L2_V1.0_scrambled_freeview_isoFalse.mp4",""
"null","","","html-keyboard-response","338","897905","0.0-338.0","fcdq4u3b","","<span style=""color:Black; font-size:50px;"">Agent B","null","","","","",""
"null","","","video-keyboard-response","339","900985","0.0-339.0","fcdq4u3b","","","null","","Agent B","veridical","STIM_SET_1/498253.bmp_pp67_L2_V1.0_veridical_freeview_isoFalse.mp4",""
"","","","call-function","340","900986","0.0-340.0","fcdq4u3b","","","","","","","",""
"4443.225000000093","{""judgement"":1}","[0]","survey-likert","341","905430","0.0-341.0","fcdq4u3b","","","","","","","","1"
"3460.8950000000186","{""confidence"":2}","[0]","survey-likert","342","908892","0.0-342.0","fcdq4u3b","","","","","","","",""
"","","","call-function","343","908893","0.0-343.0","fcdq4u3b","","","","","","","",""
"null","","","html-keyboard-response","344","910395","0.0-344.0","fcdq4u3b","","<span style=""color:Black; font-size:50px;"">Agent A","null","","","","",""
"null","","","video-keyboard-response","345","913482","0.0-345.0","fcdq4u3b","","","null","","Agent A","scrambled","STIM_SET_1/1591994.bmp_pp69_L3_V1.0_scrambled_freeview_isoFalse.mp4",""
"null","","","html-keyboard-response","346","914985","0.0-346.0","fcdq4u3b","","<span style=""color:Black; font-size:50px;"">Agent B","null","","","","",""
"null","","","video-keyboard-response","347","918071","0.0-347.0","fcdq4u3b","","","null","","Agent B","veridical","STIM_SET_1/1591994.bmp_pp69_L3_V1.0_veridical_freeview_isoFalse.mp4",""
"","","","call-function","348","918072","0.0-348.0","fcdq4u3b","","","","","","","",""
"3969.8349999999627","{""judgement"":1}","[0]","survey-likert","349","922043","0.0-349.0","fcdq4u3b","","","","","","","","1"
"2222.0749999999534","{""confidence"":0}","[0]","survey-likert","350","924266","0.0-350.0","fcdq4u3b","","","","","","","",""
"","","","call-function","351","924267","0.0-351.0","fcdq4u3b","","","","","","","",""
"null","","","html-keyboard-response","352","925769","0.0-352.0","fcdq4u3b","","<span style=""color:Black; font-size:50px;"">Agent A","null","","","","",""
"null","","","video-keyboard-response","353","928891","0.0-353.0","fcdq4u3b","","","null","","Agent A","veridical","STIM_SET_1/285905.bmp_pp57_L1_V1.0_veridical_freeview_isoFalse.mp4",""
"null","","","html-keyboard-response","354","930398","0.0-354.0","fcdq4u3b","","<span style=""color:Black; font-size:50px;"">Agent B","null","","","","",""
"null","","","video-keyboard-response","355","933520","0.0-355.0","fcdq4u3b","","","null","","Agent B","scrambled","STIM_SET_1/285905.bmp_pp57_L1_V1.0_scrambled_freeview_isoFalse.mp4",""
"","","","call-function","356","933521","0.0-356.0","fcdq4u3b","","","","","","","",""
"1991.4899999999907","{""judgement"":1}","[0]","survey-likert","357","935513","0.0-357.0","fcdq4u3b","","","","","","","","0"
"2044.844999999972","{""confidence"":0}","[0]","survey-likert","358","937559","0.0-358.0","fcdq4u3b","","","","","","","",""
"","","","call-function","359","937560","0.0-359.0","fcdq4u3b","","","","","","","",""
"null","","","html-keyboard-response","360","939062","0.0-360.0","fcdq4u3b","","<span style=""color:Black; font-size:50px;"">Agent A","null","","","","",""
"null","","","video-keyboard-response","361","942131","0.0-361.0","fcdq4u3b","","","null","","Agent A","veridical","STIM_SET_1/285994.bmp_pp92_L3_V1.0_veridical_freeview_isoFalse.mp4",""
"null","","","html-keyboard-response","362","943635","0.0-362.0","fcdq4u3b","","<span style=""color:Black; font-size:50px;"">Agent B","null","","","","",""
"null","","","video-keyboard-response","363","946702","0.0-363.0","fcdq4u3b","","","null","","Agent B","scrambled","STIM_SET_1/285994.bmp_pp92_L3_V1.0_scrambled_freeview_isoFalse.mp4",""
"","","","call-function","364","946703","0.0-364.0","fcdq4u3b","","","","","","","",""
"2399.5500000000466","{""judgement"":1}","[0]","survey-likert","365","949104","0.0-365.0","fcdq4u3b","","","","","","","","0"
"1564.6149999999907","{""confidence"":1}","[0]","survey-likert","366","950670","0.0-366.0","fcdq4u3b","","","","","","","",""
"","","","call-function","367","950670","0.0-367.0","fcdq4u3b","","","","","","","",""
"null","","","html-keyboard-response","368","952172","0.0-368.0","fcdq4u3b","","<span style=""color:Black; font-size:50px;"">Agent A","null","","","","",""
"null","","","video-keyboard-response","369","955285","0.0-369.0","fcdq4u3b","","","null","","Agent A","scrambled","STIM_SET_1/1592934.bmp_pp63_L1_V1.0_scrambled_freeview_isoFalse.mp4",""
"null","","","html-keyboard-response","370","956787","0.0-370.0","fcdq4u3b","","<span style=""color:Black; font-size:50px;"">Agent B","null","","","","",""
"null","","","video-keyboard-response","371","959859","0.0-371.0","fcdq4u3b","","","null","","Agent B","veridical","STIM_SET_1/1592934.bmp_pp63_L1_V1.0_veridical_freeview_isoFalse.mp4",""
"","","","call-function","372","959860","0.0-372.0","fcdq4u3b","","","","","","","",""
"3266.045000000042","{""judgement"":1}","[0]","survey-likert","373","963127","0.0-373.0","fcdq4u3b","","","","","","","","1"
"2220.215000000084","{""confidence"":0}","[0]","survey-likert","374","965348","0.0-374.0","fcdq4u3b","","","","","","","",""
"","","","call-function","375","965349","0.0-375.0","fcdq4u3b","","","","","","","",""
"null","","","html-keyboard-response","376","966852","0.0-376.0","fcdq4u3b","","<span style=""color:Black; font-size:50px;"">Agent A","null","","","","",""
"null","","","video-keyboard-response","377","969913","0.0-377.0","fcdq4u3b","","","null","","Agent A","veridical","STIM_SET_1/713779.bmp_pp152_L2_V1.0_veridical_freeview_isoFalse.mp4",""
"null","","","html-keyboard-response","378","971417","0.0-378.0","fcdq4u3b","","<span style=""color:Black; font-size:50px;"">Agent B","null","","","","",""
"null","","","video-keyboard-response","379","974503","0.0-379.0","fcdq4u3b","","","null","","Agent B","scrambled","STIM_SET_1/713779.bmp_pp152_L2_V1.0_scrambled_freeview_isoFalse.mp4",""
"","","","call-function","380","974504","0.0-380.0","fcdq4u3b","","","","","","","",""
"2943.414999999921","{""judgement"":1}","[0]","survey-likert","381","977448","0.0-381.0","fcdq4u3b","","","","","","","","0"
"6809.2200000000885","{""confidence"":0}","[0]","survey-likert","382","984259","0.0-382.0","fcdq4u3b","","","","","","","",""
"","","","call-function","383","984259","0.0-383.0","fcdq4u3b","","","","","","","",""
"null","","","html-keyboard-response","384","985760","0.0-384.0","fcdq4u3b","","<span style=""color:Black; font-size:50px;"">Agent A","null","","","","",""
"null","","","video-keyboard-response","385","988873","0.0-385.0","fcdq4u3b","","","null","","Agent A","veridical","STIM_SET_1/1592362.bmp_pp95_L2_V1.0_veridical_freeview_isoFalse.mp4",""
"null","","","html-keyboard-response","386","990381","0.0-386.0","fcdq4u3b","","<span style=""color:Black; font-size:50px;"">Agent B","null","","","","",""
"null","","","video-keyboard-response","387","993454","0.0-387.0","fcdq4u3b","","","null","","Agent B","scrambled","STIM_SET_1/1592362.bmp_pp95_L2_V1.0_scrambled_freeview_isoFalse.mp4",""
"","","","call-function","388","993455","0.0-388.0","fcdq4u3b","","","","","","","",""
"3636.569999999949","{""judgement"":0}","[0]","survey-likert","389","997093","0.0-389.0","fcdq4u3b","","","","","","","","0"
"3551.9000000000233","{""confidence"":1}","[0]","survey-likert","390","1000647","0.0-390.0","fcdq4u3b","","","","","","","",""
"","","","call-function","391","1000648","0.0-391.0","fcdq4u3b","","","","","","","",""
"null","","","html-keyboard-response","392","1002151","0.0-392.0","fcdq4u3b","","<span style=""color:Black; font-size:50px;"">Agent A","null","","","","",""
"null","","","video-keyboard-response","393","1005223","0.0-393.0","fcdq4u3b","","","null","","Agent A","scrambled","STIM_SET_1/1159829.bmp_pp91_L3_V1.0_scrambled_freeview_isoFalse.mp4",""
"null","","","html-keyboard-response","394","1006729","0.0-394.0","fcdq4u3b","","<span style=""color:Black; font-size:50px;"">Agent B","null","","","","",""
"null","","","video-keyboard-response","395","1009804","0.0-395.0","fcdq4u3b","","","null","","Agent B","veridical","STIM_SET_1/1159829.bmp_pp91_L3_V1.0_veridical_freeview_isoFalse.mp4",""
"","","","call-function","396","1009804","0.0-396.0","fcdq4u3b","","","","","","","",""
"2278.765000000014","{""judgement"":1}","[0]","survey-likert","397","1012084","0.0-397.0","fcdq4u3b","","","","","","","","1"
"4322.199999999953","{""confidence"":0}","[0]","survey-likert","398","1016408","0.0-398.0","fcdq4u3b","","","","","","","",""
"","","","call-function","399","1016408","0.0-399.0","fcdq4u3b","","","","","","","",""
"null","","","html-keyboard-response","400","1017915","0.0-400.0","fcdq4u3b","","<span style=""color:Black; font-size:50px;"">Agent A","null","","","","",""
"null","","","video-keyboard-response","401","1020995","0.0-401.0","fcdq4u3b","","","null","","Agent A","veridical","STIM_SET_1/713749.bmp_pp88_L2_V1.0_veridical_freeview_isoFalse.mp4",""
"null","","","html-keyboard-response","402","1022497","0.0-402.0","fcdq4u3b","","<span style=""color:Black; font-size:50px;"">Agent B","null","","","","",""
"null","","","video-keyboard-response","403","1025573","0.0-403.0","fcdq4u3b","","","null","","Agent B","scrambled","STIM_SET_1/713749.bmp_pp88_L2_V1.0_scrambled_freeview_isoFalse.mp4",""
"","","","call-function","404","1025574","0.0-404.0","fcdq4u3b","","","","","","","",""
"1826.9450000000652","{""judgement"":1}","[0]","survey-likert","405","1027401","0.0-405.0","fcdq4u3b","","","","","","","","0"
"1798.0750000000698","{""confidence"":0}","[0]","survey-likert","406","1029201","0.0-406.0","fcdq4u3b","","","","","","","",""
"","","","call-function","407","1029201","0.0-407.0","fcdq4u3b","","","","","","","",""
"null","","","html-keyboard-response","408","1030706","0.0-408.0","fcdq4u3b","","<span style=""color:Black; font-size:50px;"">Agent A","null","","","","",""
"null","","","video-keyboard-response","409","1033813","0.0-409.0","fcdq4u3b","","","null","","Agent A","veridical","STIM_SET_1/498111.bmp_pp88_L2_V1.0_veridical_freeview_isoFalse.mp4",""
"null","","","html-keyboard-response","410","1035315","0.0-410.0","fcdq4u3b","","<span style=""color:Black; font-size:50px;"">Agent B","null","","","","",""
"null","","","video-keyboard-response","411","1038421","0.0-411.0","fcdq4u3b","","","null","","Agent B","scrambled","STIM_SET_1/498111.bmp_pp88_L2_V1.0_scrambled_freeview_isoFalse.mp4",""
"","","","call-function","412","1038422","0.0-412.0","fcdq4u3b","","","","","","","",""
"4285.20000000007","{""judgement"":0}","[0]","survey-likert","413","1042709","0.0-413.0","fcdq4u3b","","","","","","","","0"
"1397.7449999999953","{""confidence"":0}","[0]","survey-likert","414","1044108","0.0-414.0","fcdq4u3b","","","","","","","",""
"124682.77000000014","","","instructions","415","1168792","0.0-415.0","fcdq4u3b","[{""page_index"":0,""viewing_time"":123178.8550000001},{""page_index"":1,""viewing_time"":994.6850000000559},{""page_index"":2,""viewing_time"":509.07499999995343}]","","","","","","",""
"1658.3100000000559","","","instructions","416","1170451","0.0-416.0","fcdq4u3b","[{""page_index"":0,""viewing_time"":453.5100000000093},{""page_index"":1,""viewing_time"":562.8699999998789},{""page_index"":2,""viewing_time"":641.8250000001863}]","","","","","","",""
"","","","call-function","417","1170451","0.0-417.0","fcdq4u3b","","","","","","","",""
"null","","","html-keyboard-response","418","1171952","0.0-418.0","fcdq4u3b","","<span style=""color:Black; font-size:50px;"">Agent A","null","","","","",""
"null","","","video-keyboard-response","419","1175019","0.0-419.0","fcdq4u3b","","","null","","Agent A","veridical","STIM_SET_1/1159446.bmp_pp60_L3_V1.0_veridical_freeview_isoFalse.mp4",""
"null","","","html-keyboard-response","420","1176522","0.0-420.0","fcdq4u3b","","<span style=""color:Black; font-size:50px;"">Agent B","null","","","","",""
"null","","","video-keyboard-response","421","1179591","0.0-421.0","fcdq4u3b","","","null","","Agent B","scrambled","STIM_SET_1/1159446.bmp_pp60_L3_V1.0_scrambled_freeview_isoFalse.mp4",""
"","","","call-function","422","1179592","0.0-422.0","fcdq4u3b","","","","","","","",""
"1879.8649999999907","{""judgement"":1}","[0]","survey-likert","423","1181472","0.0-423.0","fcdq4u3b","","","","","","","","0"
"1538.875","{""confidence"":2}","[0]","survey-likert","424","1183012","0.0-424.0","fcdq4u3b","","","","","","","",""
"","","","call-function","425","1183013","0.0-425.0","fcdq4u3b","","","","","","","",""
"null","","","html-keyboard-response","426","1184515","0.0-426.0","fcdq4u3b","","<span style=""color:Black; font-size:50px;"">Agent A","null","","","","",""
"null","","","video-keyboard-response","427","1187594","0.0-427.0","fcdq4u3b","","","null","","Agent A","scrambled","STIM_SET_1/61537.bmp_pp73_L3_V1.0_scrambled_freeview_isoFalse.mp4",""
"null","","","html-keyboard-response","428","1189097","0.0-428.0","fcdq4u3b","","<span style=""color:Black; font-size:50px;"">Agent B","null","","","","",""
"null","","","video-keyboard-response","429","1192172","0.0-429.0","fcdq4u3b","","","null","","Agent B","veridical","STIM_SET_1/61537.bmp_pp73_L3_V1.0_veridical_freeview_isoFalse.mp4",""
"","","","call-function","430","1192173","0.0-430.0","fcdq4u3b","","","","","","","",""
"3325.094999999972","{""judgement"":1}","[0]","survey-likert","431","1195499","0.0-431.0","fcdq4u3b","","","","","","","","1"
"2451.155000000028","{""confidence"":1}","[0]","survey-likert","432","1197951","0.0-432.0","fcdq4u3b","","","","","","","",""
"","","","call-function","433","1197952","0.0-433.0","fcdq4u3b","","","","","","","",""
"null","","","html-keyboard-response","434","1199455","0.0-434.0","fcdq4u3b","","<span style=""color:Black; font-size:50px;"">Agent A","null","","","","",""
"null","","","video-keyboard-response","435","1202567","0.0-435.0","fcdq4u3b","","","null","","Agent A","scrambled","STIM_SET_1/1592133.bmp_pp75_L1_V1.0_scrambled_freeview_isoFalse.mp4",""
"null","","","html-keyboard-response","436","1204072","0.0-436.0","fcdq4u3b","","<span style=""color:Black; font-size:50px;"">Agent B","null","","","","",""
"null","","","video-keyboard-response","437","1207180","0.0-437.0","fcdq4u3b","","","null","","Agent B","veridical","STIM_SET_1/1592133.bmp_pp75_L1_V1.0_veridical_freeview_isoFalse.mp4",""
"","","","call-function","438","1207180","0.0-438.0","fcdq4u3b","","","","","","","",""
"3290.439999999944","{""judgement"":1}","[0]","survey-likert","439","1210472","0.0-439.0","fcdq4u3b","","","","","","","","1"
"2383.3549999999814","{""confidence"":1}","[0]","survey-likert","440","1212857","0.0-440.0","fcdq4u3b","","","","","","","",""
"","","","call-function","441","1212858","0.0-441.0","fcdq4u3b","","","","","","","",""
"null","","","html-keyboard-response","442","1214363","0.0-442.0","fcdq4u3b","","<span style=""color:Black; font-size:50px;"">Agent A","null","","","","",""
"null","","","video-keyboard-response","443","1217478","0.0-443.0","fcdq4u3b","","","null","","Agent A","veridical","STIM_SET_1/712977.bmp_pp51_L1_V1.0_veridical_freeview_isoFalse.mp4",""
"null","","","html-keyboard-response","444","1218981","0.0-444.0","fcdq4u3b","","<span style=""color:Black; font-size:50px;"">Agent B","null","","","","",""
"null","","","video-keyboard-response","445","1222058","0.0-445.0","fcdq4u3b","","","null","","Agent B","scrambled","STIM_SET_1/712977.bmp_pp51_L1_V1.0_scrambled_freeview_isoFalse.mp4",""
"","","","call-function","446","1222059","0.0-446.0","fcdq4u3b","","","","","","","",""
"2688.094999999972","{""judgement"":1}","[0]","survey-likert","447","1224748","0.0-447.0","fcdq4u3b","","","","","","","","0"
"2313.215000000084","{""confidence"":0}","[0]","survey-likert","448","1227063","0.0-448.0","fcdq4u3b","","","","","","","",""
"","","","call-function","449","1227063","0.0-449.0","fcdq4u3b","","","","","","","",""
"null","","","html-keyboard-response","450","1228566","0.0-450.0","fcdq4u3b","","<span style=""color:Black; font-size:50px;"">Agent A","null","","","","",""
"null","","","video-keyboard-response","451","1231631","0.0-451.0","fcdq4u3b","","","null","","Agent A","veridical","STIM_SET_1/713403.bmp_pp80_L3_V1.0_veridical_freeview_isoFalse.mp4",""
"null","","","html-keyboard-response","452","1233134","0.0-452.0","fcdq4u3b","","<span style=""color:Black; font-size:50px;"">Agent B","null","","","","",""
"null","","","video-keyboard-response","453","1236202","0.0-453.0","fcdq4u3b","","","null","","Agent B","scrambled","STIM_SET_1/713403.bmp_pp80_L3_V1.0_scrambled_freeview_isoFalse.mp4",""
"","","","call-function","454","1236203","0.0-454.0","fcdq4u3b","","","","","","","",""
"2133.9850000001024","{""judgement"":0}","[0]","survey-likert","455","1238338","0.0-455.0","fcdq4u3b","","","","","","","","0"
"3666.9599999999627","{""confidence"":0}","[0]","survey-likert","456","1242006","0.0-456.0","fcdq4u3b","","","","","","","",""
"","","","call-function","457","1242007","0.0-457.0","fcdq4u3b","","","","","","","",""
"null","","","html-keyboard-response","458","1243508","0.0-458.0","fcdq4u3b","","<span style=""color:Black; font-size:50px;"">Agent A","null","","","","",""
"null","","","video-keyboard-response","459","1246589","0.0-459.0","fcdq4u3b","","","null","","Agent A","scrambled","STIM_SET_1/713707.bmp_pp154_L1_V1.0_scrambled_freeview_isoFalse.mp4",""
"null","","","html-keyboard-response","460","1248091","0.0-460.0","fcdq4u3b","","<span style=""color:Black; font-size:50px;"">Agent B","null","","","","",""
"null","","","video-keyboard-response","461","1251174","0.0-461.0","fcdq4u3b","","","null","","Agent B","veridical","STIM_SET_1/713707.bmp_pp154_L1_V1.0_veridical_freeview_isoFalse.mp4",""
"","","","call-function","462","1251175","0.0-462.0","fcdq4u3b","","","","","","","",""
"5623.340000000084","{""judgement"":0}","[0]","survey-likert","463","1256800","0.0-463.0","fcdq4u3b","","","","","","","","1"
"6112.1699999999255","{""confidence"":0}","[0]","survey-likert","464","1262913","0.0-464.0","fcdq4u3b","","","","","","","",""
"","","","call-function","465","1262914","0.0-465.0","fcdq4u3b","","","","","","","",""
"null","","","html-keyboard-response","466","1264415","0.0-466.0","fcdq4u3b","","<span style=""color:Black; font-size:50px;"">Agent A","null","","","","",""
"null","","","video-keyboard-response","467","1267532","0.0-467.0","fcdq4u3b","","","null","","Agent A","scrambled","STIM_SET_1/713211.bmp_pp100_L3_V1.0_scrambled_freeview_isoFalse.mp4",""
"null","","","html-keyboard-response","468","1269035","0.0-468.0","fcdq4u3b","","<span style=""color:Black; font-size:50px;"">Agent B","null","","","","",""
"null","","","video-keyboard-response","469","1272152","0.0-469.0","fcdq4u3b","","","null","","Agent B","veridical","STIM_SET_1/713211.bmp_pp100_L3_V1.0_veridical_freeview_isoFalse.mp4",""
"","","","call-function","470","1272152","0.0-470.0","fcdq4u3b","","","","","","","",""
"3750.804999999935","{""judgement"":1}","[0]","survey-likert","471","1275904","0.0-471.0","fcdq4u3b","","","","","","","","1"
"5365.689999999944","{""confidence"":1}","[0]","survey-likert","472","1281271","0.0-472.0","fcdq4u3b","","","","","","","",""
"","","","call-function","473","1281272","0.0-473.0","fcdq4u3b","","","","","","","",""
"null","","","html-keyboard-response","474","1282775","0.0-474.0","fcdq4u3b","","<span style=""color:Black; font-size:50px;"">Agent A","null","","","","",""
"null","","","video-keyboard-response","475","1285855","0.0-475.0","fcdq4u3b","","","null","","Agent A","scrambled","STIM_SET_1/1593146.bmp_pp93_L1_V1.0_scrambled_freeview_isoFalse.mp4",""
"null","","","html-keyboard-response","476","1287360","0.0-476.0","fcdq4u3b","","<span style=""color:Black; font-size:50px;"">Agent B","null","","","","",""
"null","","","video-keyboard-response","477","1290476","0.0-477.0","fcdq4u3b","","","null","","Agent B","veridical","STIM_SET_1/1593146.bmp_pp93_L1_V1.0_veridical_freeview_isoFalse.mp4",""
"","","","call-function","478","1290477","0.0-478.0","fcdq4u3b","","","","","","","",""
"5118.185000000056","{""judgement"":1}","[0]","survey-likert","479","1295596","0.0-479.0","fcdq4u3b","","","","","","","","1"
"2068.9249999998137","{""confidence"":0}","[0]","survey-likert","480","1297667","0.0-480.0","fcdq4u3b","","","","","","","",""
"","","","call-function","481","1297669","0.0-481.0","fcdq4u3b","","","","","","","",""
"null","","","html-keyboard-response","482","1299171","0.0-482.0","fcdq4u3b","","<span style=""color:Black; font-size:50px;"">Agent A","null","","","","",""
"null","","","video-keyboard-response","483","1302239","0.0-483.0","fcdq4u3b","","","null","","Agent A","veridical","STIM_SET_1/1592619.bmp_pp56_L3_V1.0_veridical_freeview_isoFalse.mp4",""
"null","","","html-keyboard-response","484","1303745","0.0-484.0","fcdq4u3b","","<span style=""color:Black; font-size:50px;"">Agent B","null","","","","",""
"null","","","video-keyboard-response","485","1306814","0.0-485.0","fcdq4u3b","","","null","","Agent B","scrambled","STIM_SET_1/1592619.bmp_pp56_L3_V1.0_scrambled_freeview_isoFalse.mp4",""
"","","","call-function","486","1306814","0.0-486.0","fcdq4u3b","","","","","","","",""
"4432.415000000037","{""judgement"":0}","[0]","survey-likert","487","1311248","0.0-487.0","fcdq4u3b","","","","","","","","0"
"1653.785000000149","{""confidence"":2}","[0]","survey-likert","488","1312903","0.0-488.0","fcdq4u3b","","","","","","","",""
"","","","call-function","489","1312904","0.0-489.0","fcdq4u3b","","","","","","","",""
"null","","","html-keyboard-response","490","1314408","0.0-490.0","fcdq4u3b","","<span style=""color:Black; font-size:50px;"">Agent A","null","","","","",""
"null","","","video-keyboard-response","491","1317477","0.0-491.0","fcdq4u3b","","","null","","Agent A","veridical","STIM_SET_1/1159621.bmp_pp92_L3_V1.0_veridical_freeview_isoFalse.mp4",""
"null","","","html-keyboard-response","492","1318979","0.0-492.0","fcdq4u3b","","<span style=""color:Black; font-size:50px;"">Agent B","null","","","","",""
"null","","","video-keyboard-response","493","1322047","0.0-493.0","fcdq4u3b","","","null","","Agent B","scrambled","STIM_SET_1/1159621.bmp_pp92_L3_V1.0_scrambled_freeview_isoFalse.mp4",""
"","","","call-function","494","1322048","0.0-494.0","fcdq4u3b","","","","","","","",""
"5412.895000000019","{""judgement"":1}","[0]","survey-likert","495","1327462","0.0-495.0","fcdq4u3b","","","","","","","","0"
"2262.465000000084","{""confidence"":1}","[0]","survey-likert","496","1329726","0.0-496.0","fcdq4u3b","","","","","","","",""
"120135","","","instructions","497","1449862","0.0-497.0","fcdq4u3b","[{""page_index"":0,""viewing_time"":4820.97499999986},{""page_index"":1,""viewing_time"":114351.49500000011},{""page_index"":2,""viewing_time"":962.3799999998882}]","","","","","","",""
"5120.98499999987","","","instructions","498","1454984","0.0-498.0","fcdq4u3b","[{""page_index"":0,""viewing_time"":848.714999999851},{""page_index"":1,""viewing_time"":811.2100000001956},{""page_index"":2,""viewing_time"":3460.8499999998603}]","","","","","","",""
"","","","call-function","499","1454984","0.0-499.0","fcdq4u3b","","","","","","","",""
"null","","","html-keyboard-response","500","1456487","0.0-500.0","fcdq4u3b","","<span style=""color:Black; font-size:50px;"">Agent A","null","","","","",""
"null","","","video-keyboard-response","501","1459563","0.0-501.0","fcdq4u3b","","","null","","Agent A","scrambled","STIM_SET_1/1159768.bmp_pp89_L1_V1.0_scrambled_freeview_isoFalse.mp4",""
"null","","","html-keyboard-response","502","1461065","0.0-502.0","fcdq4u3b","","<span style=""color:Black; font-size:50px;"">Agent B","null","","","","",""
"null","","","video-keyboard-response","503","1464134","0.0-503.0","fcdq4u3b","","","null","","Agent B","veridical","STIM_SET_1/1159768.bmp_pp89_L1_V1.0_veridical_freeview_isoFalse.mp4",""
"","","","call-function","504","1464135","0.0-504.0","fcdq4u3b","","","","","","","",""
"2744.2750000001397","{""judgement"":0}","[0]","survey-likert","505","1466880","0.0-505.0","fcdq4u3b","","","","","","","","1"
"2038.5449999999255","{""confidence"":1}","[0]","survey-likert","506","1468920","0.0-506.0","fcdq4u3b","","","","","","","",""
"","","","call-function","507","1468921","0.0-507.0","fcdq4u3b","","","","","","","",""
"null","","","html-keyboard-response","508","1470425","0.0-508.0","fcdq4u3b","","<span style=""color:Black; font-size:50px;"">Agent A","null","","","","",""
"null","","","video-keyboard-response","509","1473491","0.0-509.0","fcdq4u3b","","","null","","Agent A","veridical","STIM_SET_1/498149.bmp_pp99_L2_V1.0_veridical_freeview_isoFalse.mp4",""
"null","","","html-keyboard-response","510","1474997","0.0-510.0","fcdq4u3b","","<span style=""color:Black; font-size:50px;"">Agent B","null","","","","",""
"null","","","video-keyboard-response","511","1478066","0.0-511.0","fcdq4u3b","","","null","","Agent B","scrambled","STIM_SET_1/498149.bmp_pp99_L2_V1.0_scrambled_freeview_isoFalse.mp4",""
"","","","call-function","512","1478067","0.0-512.0","fcdq4u3b","","","","","","","",""
"1478.4749999998603","{""judgement"":0}","[0]","survey-likert","513","1479546","0.0-513.0","fcdq4u3b","","","","","","","","0"
"2600.9150000000373","{""confidence"":2}","[0]","survey-likert","514","1482148","0.0-514.0","fcdq4u3b","","","","","","","",""
"","","","call-function","515","1482149","0.0-515.0","fcdq4u3b","","","","","","","",""
"null","","","html-keyboard-response","516","1483651","0.0-516.0","fcdq4u3b","","<span style=""color:Black; font-size:50px;"">Agent A","null","","","","",""
"null","","","video-keyboard-response","517","1486767","0.0-517.0","fcdq4u3b","","","null","","Agent A","scrambled","STIM_SET_1/1159447.bmp_pp70_L2_V1.0_scrambled_freeview_isoFalse.mp4",""
"null","","","html-keyboard-response","518","1488270","0.0-518.0","fcdq4u3b","","<span style=""color:Black; font-size:50px;"">Agent B","null","","","","",""
"null","","","video-keyboard-response","519","1491378","0.0-519.0","fcdq4u3b","","","null","","Agent B","veridical","STIM_SET_1/1159447.bmp_pp70_L2_V1.0_veridical_freeview_isoFalse.mp4",""
"","","","call-function","520","1491379","0.0-520.0","fcdq4u3b","","","","","","","",""
"2911.844999999972","{""judgement"":0}","[0]","survey-likert","521","1494293","0.0-521.0","fcdq4u3b","","","","","","","","1"
"3206.8300000000745","{""confidence"":2}","[0]","survey-likert","522","1497502","0.0-522.0","fcdq4u3b","","","","","","","",""
"","","","call-function","523","1497503","0.0-523.0","fcdq4u3b","","","","","","","",""
"null","","","html-keyboard-response","524","1499005","0.0-524.0","fcdq4u3b","","<span style=""color:Black; font-size:50px;"">Agent A","null","","","","",""
"null","","","video-keyboard-response","525","1502074","0.0-525.0","fcdq4u3b","","","null","","Agent A","scrambled","STIM_SET_1/1592817.bmp_pp55_L3_V1.0_scrambled_freeview_isoFalse.mp4",""
"null","","","html-keyboard-response","526","1503577","0.0-526.0","fcdq4u3b","","<span style=""color:Black; font-size:50px;"">Agent B","null","","","","",""
"null","","","video-keyboard-response","527","1506643","0.0-527.0","fcdq4u3b","","","null","","Agent B","veridical","STIM_SET_1/1592817.bmp_pp55_L3_V1.0_veridical_freeview_isoFalse.mp4",""
"","","","call-function","528","1506644","0.0-528.0","fcdq4u3b","","","","","","","",""
"2119.1099999998696","{""judgement"":0}","[0]","survey-likert","529","1508764","0.0-529.0","fcdq4u3b","","","","","","","","1"
"6588.4199999999255","{""confidence"":1}","[0]","survey-likert","530","1515354","0.0-530.0","fcdq4u3b","","","","","","","",""
"","","","call-function","531","1515354","0.0-531.0","fcdq4u3b","","","","","","","",""
"null","","","html-keyboard-response","532","1516861","0.0-532.0","fcdq4u3b","","<span style=""color:Black; font-size:50px;"">Agent A","null","","","","",""
"null","","","video-keyboard-response","533","1519938","0.0-533.0","fcdq4u3b","","","null","","Agent A","veridical","STIM_SET_1/1159784.bmp_pp73_L3_V1.0_veridical_freeview_isoFalse.mp4",""
"null","","","html-keyboard-response","534","1521445","0.0-534.0","fcdq4u3b","","<span style=""color:Black; font-size:50px;"">Agent B","null","","","","",""
"null","","","video-keyboard-response","535","1524557","0.0-535.0","fcdq4u3b","","","null","","Agent B","scrambled","STIM_SET_1/1159784.bmp_pp73_L3_V1.0_scrambled_freeview_isoFalse.mp4",""
"","","","call-function","536","1524558","0.0-536.0","fcdq4u3b","","","","","","","",""
"1706.594999999972","{""judgement"":0}","[0]","survey-likert","537","1526266","0.0-537.0","fcdq4u3b","","","","","","","","0"
"1489.6149999999907","{""confidence"":0}","[0]","survey-likert","538","1527756","0.0-538.0","fcdq4u3b","","","","","","","",""
"","","","call-function","539","1527757","0.0-539.0","fcdq4u3b","","","","","","","",""
"null","","","html-keyboard-response","540","1529263","0.0-540.0","fcdq4u3b","","<span style=""color:Black; font-size:50px;"">Agent A","null","","","","",""
"null","","","video-keyboard-response","541","1532343","0.0-541.0","fcdq4u3b","","","null","","Agent A","scrambled","STIM_SET_1/1591961.bmp_pp67_L2_V1.0_scrambled_freeview_isoFalse.mp4",""
"null","","","html-keyboard-response","542","1533844","0.0-542.0","fcdq4u3b","","<span style=""color:Black; font-size:50px;"">Agent B","null","","","","",""
"null","","","video-keyboard-response","543","1536926","0.0-543.0","fcdq4u3b","","","null","","Agent B","veridical","STIM_SET_1/1591961.bmp_pp67_L2_V1.0_veridical_freeview_isoFalse.mp4",""
"","","","call-function","544","1536926","0.0-544.0","fcdq4u3b","","","","","","","",""
"4665.379999999888","{""judgement"":1}","[0]","survey-likert","545","1541592","0.0-545.0","fcdq4u3b","","","","","","","","1"
"5149.074999999953","{""confidence"":0}","[0]","survey-likert","546","1546743","0.0-546.0","fcdq4u3b","","","","","","","",""
"","","","call-function","547","1546743","0.0-547.0","fcdq4u3b","","","","","","","",""
"null","","","html-keyboard-response","548","1548246","0.0-548.0","fcdq4u3b","","<span style=""color:Black; font-size:50px;"">Agent A","null","","","","",""
"null","","","video-keyboard-response","549","1551354","0.0-549.0","fcdq4u3b","","","null","","Agent A","scrambled","STIM_SET_1/1592351.bmp_pp51_L1_V1.0_scrambled_freeview_isoFalse.mp4",""
"null","","","html-keyboard-response","550","1552860","0.0-550.0","fcdq4u3b","","<span style=""color:Black; font-size:50px;"">Agent B","null","","","","",""
"null","","","video-keyboard-response","551","1555923","0.0-551.0","fcdq4u3b","","","null","","Agent B","veridical","STIM_SET_1/1592351.bmp_pp51_L1_V1.0_veridical_freeview_isoFalse.mp4",""
"","","","call-function","552","1555924","0.0-552.0","fcdq4u3b","","","","","","","",""
"2016.7899999998044","{""judgement"":1}","[0]","survey-likert","553","1557942","0.0-553.0","fcdq4u3b","","","","","","","","1"
"1421.1500000001397","{""confidence"":1}","[0]","survey-likert","554","1559365","0.0-554.0","fcdq4u3b","","","","","","","",""
"","","","call-function","555","1559365","0.0-555.0","fcdq4u3b","","","","","","","",""
"null","","","html-keyboard-response","556","1560868","0.0-556.0","fcdq4u3b","","<span style=""color:Black; font-size:50px;"">Agent A","null","","","","",""
"null","","","video-keyboard-response","557","1563965","0.0-557.0","fcdq4u3b","","","null","","Agent A","scrambled","STIM_SET_1/1592727.bmp_pp59_L3_V1.0_scrambled_freeview_isoFalse.mp4",""
"null","","","html-keyboard-response","558","1565471","0.0-558.0","fcdq4u3b","","<span style=""color:Black; font-size:50px;"">Agent B","null","","","","",""
"null","","","video-keyboard-response","559","1568539","0.0-559.0","fcdq4u3b","","","null","","Agent B","veridical","STIM_SET_1/1592727.bmp_pp59_L3_V1.0_veridical_freeview_isoFalse.mp4",""
"","","","call-function","560","1568539","0.0-560.0","fcdq4u3b","","","","","","","",""
"3007.035000000149","{""judgement"":1}","[0]","survey-likert","561","1571547","0.0-561.0","fcdq4u3b","","","","","","","","1"
"2742.405000000028","{""confidence"":1}","[0]","survey-likert","562","1574291","0.0-562.0","fcdq4u3b","","","","","","","",""
"","","","call-function","563","1574292","0.0-563.0","fcdq4u3b","","","","","","","",""
"null","","","html-keyboard-response","564","1575795","0.0-564.0","fcdq4u3b","","<span style=""color:Black; font-size:50px;"">Agent A","null","","","","",""
"null","","","video-keyboard-response","565","1578865","0.0-565.0","fcdq4u3b","","","null","","Agent A","scrambled","STIM_SET_1/713681.bmp_pp86_L2_V1.0_scrambled_freeview_isoFalse.mp4",""
"null","","","html-keyboard-response","566","1580370","0.0-566.0","fcdq4u3b","","<span style=""color:Black; font-size:50px;"">Agent B","null","","","","",""
"null","","","video-keyboard-response","567","1583437","0.0-567.0","fcdq4u3b","","","null","","Agent B","veridical","STIM_SET_1/713681.bmp_pp86_L2_V1.0_veridical_freeview_isoFalse.mp4",""
"","","","call-function","568","1583439","0.0-568.0","fcdq4u3b","","","","","","","",""
"2294.6299999998882","{""judgement"":1}","[0]","survey-likert","569","1585735","0.0-569.0","fcdq4u3b","","","","","","","","1"
"2184.439999999944","{""confidence"":0}","[0]","survey-likert","570","1587921","0.0-570.0","fcdq4u3b","","","","","","","",""
"","","","call-function","571","1587923","0.0-571.0","fcdq4u3b","","","","","","","",""
"null","","","html-keyboard-response","572","1589428","0.0-572.0","fcdq4u3b","","<span style=""color:Black; font-size:50px;"">Agent A","null","","","","",""
"null","","","video-keyboard-response","573","1592501","0.0-573.0","fcdq4u3b","","","null","","Agent A","veridical","STIM_SET_1/713017.bmp_pp152_L2_V1.0_veridical_freeview_isoFalse.mp4",""
"null","","","html-keyboard-response","574","1594005","0.0-574.0","fcdq4u3b","","<span style=""color:Black; font-size:50px;"">Agent B","null","","","","",""
"null","","","video-keyboard-response","575","1597081","0.0-575.0","fcdq4u3b","","","null","","Agent B","scrambled","STIM_SET_1/713017.bmp_pp152_L2_V1.0_scrambled_freeview_isoFalse.mp4",""
"","","","call-function","576","1597082","0.0-576.0","fcdq4u3b","","","","","","","",""
"1761.1899999999441","{""judgement"":0}","[0]","survey-likert","577","1598844","0.0-577.0","fcdq4u3b","","","","","","","","0"
"2465.035000000149","{""confidence"":0}","[0]","survey-likert","578","1601311","0.0-578.0","fcdq4u3b","","","","","","","",""
"2175.7050000000745","","","instructions","579","1603487","0.0-579.0","fcdq4u3b","[{""page_index"":0,""viewing_time"":2175.570000000065}]","","","","","","",""
"3529.274999999907","","","instructions","580","1607017","0.0-580.0","fcdq4u3b","[{""page_index"":0,""viewing_time"":3529.1650000000373}]","","","","","","",""
"19393.01000000001","{""post-1"":2}","[0]","survey-likert","581","1626412","0.0-581.0","fcdq4u3b","","","","","","","",""
"2506.410000000149","{""post-1"":1}","[0]","survey-likert","582","1628920","0.0-582.0","fcdq4u3b","","","","","","","",""
"10762.805000000168","{""post-2"":2}","[0]","survey-likert","583","1639684","0.0-583.0","fcdq4u3b","","","","","","","",""
"2187.1149999999907","{""post-2"":1}","[0]","survey-likert","584","1641873","0.0-584.0","fcdq4u3b","","","","","","","",""
"5845.449999999953","{""post-3"":1}","[0]","survey-likert","585","1647720","0.0-585.0","fcdq4u3b","","","","","","","",""
"2505.649999999907","{""post-3"":1}","[0]","survey-likert","586","1650227","0.0-586.0","fcdq4u3b","","","","","","","",""
"46528.929999999935","{""post-4"":0}","[0]","survey-likert","587","1696757","0.0-587.0","fcdq4u3b","","","","","","","",""
"2274.225000000093","{""post-4"":0}","[0]","survey-likert","588","1699032","0.0-588.0","fcdq4u3b","","","","","","","",""
"5722.739999999991","{""post-5"":2}","[0]","survey-likert","589","1704757","0.0-589.0","fcdq4u3b","","","","","","","",""
"5510.309999999823","{""post-5"":2}","[0]","survey-likert","590","1710269","0.0-590.0","fcdq4u3b","","","","","","","",""
"56307.79000000004","{""Q0"":""I had a lot of trouble picking out which was the real and which was the fake. I don't think I have a good grasp of when people believe when they think its fake.""}","","survey-text","591","1766583","0.0-591.0","fcdq4u3b","","","","","","","",""
"4978.774999999907","{""Q0"":""""}","","survey-text","592","1771565","0.0-592.0","fcdq4u3b","","","","","","","",""
"16122.440000000177","{""Q0"":""picking""}","","survey-text","593","1787691","0.0-593.0","fcdq4u3b","","","","","","","",""
"2497.2050000000745","","","instructions","594","1790189","0.0-594.0","fcdq4u3b","[{""page_index"":0,""viewing_time"":2497.070000000065}]","","","","","","",""
"40492.06500000018","{""Experimenter_end"":[""Printed ID# fcdq4u3b on consent form"",""Given subject SONA credit or payment"",""Given the subject debrief form""]}","[0]","survey-multi-select","595","1830683","0.0-595.0","fcdq4u3b","","","","","","","",""
