"rt","responses","question_order","trial_type","trial_index","time_elapsed","internal_node_id","ID","view_history","stimulus","key_press","value","agent","condition","image","correct_answer"
"7546.235","{""Experimenter"":[""Confirmed subject's identity (ID card)"",""Confirmed normal or corrected-to-normal vision"",""Obtained consent (signature and date)"",""Checked the test room lighting"",""Checked computer screen lighting"",""Checked distance from screen to chin rest (50cm)"",""Cleaned and adjusted chin rest"",""Counterbalanced the order of the tasks"",""Opened the experiment in Firefox"",""Made the experiment full screen"",""Encouraged subject to silence phone, put away distractors, etc.""]}","[0]","survey-multi-select","0","7554","0.0-0.0","g432mzcc","","","","","","","",""
"11666.665","","","instructions","1","19222","0.0-1.0","g432mzcc","[{""page_index"":0,""viewing_time"":11666.11}]","","","","","","",""
"8551.130000000001","","","instructions","2","27775","0.0-2.0","g432mzcc","[{""page_index"":0,""viewing_time"":2890.0650000000023},{""page_index"":1,""viewing_time"":46.11000000000058},{""page_index"":2,""viewing_time"":5614.82}]","","","","","","",""
"2803.800000000003","","","instructions","3","30579","0.0-3.0","g432mzcc","[{""page_index"":0,""viewing_time"":2803.6950000000033}]","","","","","","",""
"null","","","video-keyboard-response","4","33655","0.0-4.0","g432mzcc","","","null","","","","",""
"9930.199999999997","","","instructions","5","43586","0.0-5.0","g432mzcc","[{""page_index"":0,""viewing_time"":3066.824999999997},{""page_index"":1,""viewing_time"":2010.175000000003},{""page_index"":2,""viewing_time"":1654.9749999999985},{""page_index"":3,""viewing_time"":3078.8300000000017},{""page_index"":4,""viewing_time"":119.23500000000058}]","","","","","","",""
"2390.4249999999956","","","instructions","6","45976","0.0-6.0","g432mzcc","[{""page_index"":0,""viewing_time"":2390.2899999999936}]","","","","","","",""
"","","","call-function","7","45977","0.0-7.0","g432mzcc","","","","","","","",""
"null","","","html-keyboard-response","8","47480","0.0-8.0","g432mzcc","","<span style=""color:Black; font-size:50px;"">Agent A","null","","","","",""
"null","","","video-keyboard-response","9","50311","0.0-9.0","g432mzcc","","","null","","Agent A","veridical","FOR_REV_BLOBBY_STIM/1159675.bmp_pp77_L3_V1.0_veridical_freeview_isoFalse_fps144.mp4",""
"null","","","html-keyboard-response","10","51816","0.0-10.0","g432mzcc","","<span style=""color:Black; font-size:50px;"">Agent B","null","","","","",""
"null","","","video-keyboard-response","11","54653","0.0-11.0","g432mzcc","","","null","","Agent B","scrambled","FOR_REV_BLOBBY_STIM/1159675.bmp_pp77_L3_V1.0_veridical_freeview_isoFalse_fps144_reversed_REAL.mp4",""
"","","","call-function","12","54654","0.0-12.0","g432mzcc","","","","","","","",""
"2014","{""judgement"":0}","[0]","survey-likert","13","56669","0.0-13.0","g432mzcc","","","","","","","","0"
"1923.1300000000047","{""confidence"":3}","[0]","survey-likert","14","58593","0.0-14.0","g432mzcc","","","","","","","",""
"","","","call-function","15","58594","0.0-15.0","g432mzcc","","","","","","","",""
"null","","","html-keyboard-response","16","60098","0.0-16.0","g432mzcc","","<span style=""color:Black; font-size:50px;"">Agent A","null","","","","",""
"null","","","video-keyboard-response","17","62850","0.0-17.0","g432mzcc","","","null","","Agent A","veridical","FOR_REV_BLOBBY_STIM/498155.bmp_pp61_L2_V1.0_veridical_freeview_isoFalse_fps144.mp4",""
"null","","","html-keyboard-response","18","64355","0.0-18.0","g432mzcc","","<span style=""color:Black; font-size:50px;"">Agent B","null","","","","",""
"null","","","video-keyboard-response","19","67138","0.0-19.0","g432mzcc","","","null","","Agent B","scrambled","FOR_REV_BLOBBY_STIM/498155.bmp_pp61_L2_V1.0_veridical_freeview_isoFalse_fps144_reversed_REAL.mp4",""
"","","","call-function","20","67139","0.0-20.0","g432mzcc","","","","","","","",""
"4338.264999999999","{""judgement"":0}","[0]","survey-likert","21","71479","0.0-21.0","g432mzcc","","","","","","","","0"
"1621.7850000000035","{""confidence"":1}","[0]","survey-likert","22","73102","0.0-22.0","g432mzcc","","","","","","","",""
"","","","call-function","23","73102","0.0-23.0","g432mzcc","","","","","","","",""
"null","","","html-keyboard-response","24","74606","0.0-24.0","g432mzcc","","<span style=""color:Black; font-size:50px;"">Agent A","null","","","","",""
"null","","","video-keyboard-response","25","77470","0.0-25.0","g432mzcc","","","null","","Agent A","scrambled","FOR_REV_BLOBBY_STIM/1160127.bmp_pp90_L2_V1.0_veridical_freeview_isoFalse_fps144_reversed_REAL.mp4",""
"null","","","html-keyboard-response","26","78973","0.0-26.0","g432mzcc","","<span style=""color:Black; font-size:50px;"">Agent B","null","","","","",""
"null","","","video-keyboard-response","27","81848","0.0-27.0","g432mzcc","","","null","","Agent B","veridical","FOR_REV_BLOBBY_STIM/1160127.bmp_pp90_L2_V1.0_veridical_freeview_isoFalse_fps144.mp4",""
"","","","call-function","28","81848","0.0-28.0","g432mzcc","","","","","","","",""
"1730.3649999999907","{""judgement"":0}","[0]","survey-likert","29","83580","0.0-29.0","g432mzcc","","","","","","","","1"
"1729.395000000004","{""confidence"":3}","[0]","survey-likert","30","85310","0.0-30.0","g432mzcc","","","","","","","",""
"","","","call-function","31","85311","0.0-31.0","g432mzcc","","","","","","","",""
"null","","","html-keyboard-response","32","86813","0.0-32.0","g432mzcc","","<span style=""color:Black; font-size:50px;"">Agent A","null","","","","",""
"null","","","video-keyboard-response","33","89708","0.0-33.0","g432mzcc","","","null","","Agent A","scrambled","FOR_REV_BLOBBY_STIM/1159572.bmp_pp71_L1_V1.0_veridical_freeview_isoFalse_fps144_reversed_REAL.mp4",""
"null","","","html-keyboard-response","34","91213","0.0-34.0","g432mzcc","","<span style=""color:Black; font-size:50px;"">Agent B","null","","","","",""
"null","","","video-keyboard-response","35","94098","0.0-35.0","g432mzcc","","","null","","Agent B","veridical","FOR_REV_BLOBBY_STIM/1159572.bmp_pp71_L1_V1.0_veridical_freeview_isoFalse_fps144.mp4",""
"","","","call-function","36","94099","0.0-36.0","g432mzcc","","","","","","","",""
"5913.425000000003","{""judgement"":1}","[0]","survey-likert","37","100013","0.0-37.0","g432mzcc","","","","","","","","1"
"1362.9800000000105","{""confidence"":0}","[0]","survey-likert","38","101377","0.0-38.0","g432mzcc","","","","","","","",""
"","","","call-function","39","101378","0.0-39.0","g432mzcc","","","","","","","",""
"null","","","html-keyboard-response","40","102883","0.0-40.0","g432mzcc","","<span style=""color:Black; font-size:50px;"">Agent A","null","","","","",""
"null","","","video-keyboard-response","41","105410","0.0-41.0","g432mzcc","","","null","","Agent A","veridical","FOR_REV_BLOBBY_STIM/1159515.bmp_pp84_L3_V1.0_veridical_freeview_isoFalse_fps144.mp4",""
"null","","","html-keyboard-response","42","106914","0.0-42.0","g432mzcc","","<span style=""color:Black; font-size:50px;"">Agent B","null","","","","",""
"null","","","video-keyboard-response","43","109496","0.0-43.0","g432mzcc","","","null","","Agent B","scrambled","FOR_REV_BLOBBY_STIM/1159515.bmp_pp84_L3_V1.0_veridical_freeview_isoFalse_fps144_reversed_REAL.mp4",""
"","","","call-function","44","109496","0.0-44.0","g432mzcc","","","","","","","",""
"1143.4149999999936","{""judgement"":0}","[0]","survey-likert","45","110641","0.0-45.0","g432mzcc","","","","","","","","0"
"1413.4600000000064","{""confidence"":1}","[0]","survey-likert","46","112056","0.0-46.0","g432mzcc","","","","","","","",""
"","","","call-function","47","112056","0.0-47.0","g432mzcc","","","","","","","",""
"null","","","html-keyboard-response","48","113560","0.0-48.0","g432mzcc","","<span style=""color:Black; font-size:50px;"">Agent A","null","","","","",""
"null","","","video-keyboard-response","49","116084","0.0-49.0","g432mzcc","","","null","","Agent A","scrambled","FOR_REV_BLOBBY_STIM/713796.bmp_pp84_L3_V1.0_veridical_freeview_isoFalse_fps144_reversed_REAL.mp4",""
"null","","","html-keyboard-response","50","117588","0.0-50.0","g432mzcc","","<span style=""color:Black; font-size:50px;"">Agent B","null","","","","",""
"null","","","video-keyboard-response","51","120114","0.0-51.0","g432mzcc","","","null","","Agent B","veridical","FOR_REV_BLOBBY_STIM/713796.bmp_pp84_L3_V1.0_veridical_freeview_isoFalse_fps144.mp4",""
"","","","call-function","52","120115","0.0-52.0","g432mzcc","","","","","","","",""
"1455.0050000000047","{""judgement"":1}","[0]","survey-likert","53","121571","0.0-53.0","g432mzcc","","","","","","","","1"
"1389.2649999999994","{""confidence"":3}","[0]","survey-likert","54","122961","0.0-54.0","g432mzcc","","","","","","","",""
"","","","call-function","55","122962","0.0-55.0","g432mzcc","","","","","","","",""
"null","","","html-keyboard-response","56","124464","0.0-56.0","g432mzcc","","<span style=""color:Black; font-size:50px;"">Agent A","null","","","","",""
"null","","","video-keyboard-response","57","127180","0.0-57.0","g432mzcc","","","null","","Agent A","veridical","FOR_REV_BLOBBY_STIM/498170.bmp_pp153_L3_V1.0_veridical_freeview_isoFalse_fps144.mp4",""
"null","","","html-keyboard-response","58","128685","0.0-58.0","g432mzcc","","<span style=""color:Black; font-size:50px;"">Agent B","null","","","","",""
"null","","","video-keyboard-response","59","131431","0.0-59.0","g432mzcc","","","null","","Agent B","scrambled","FOR_REV_BLOBBY_STIM/498170.bmp_pp153_L3_V1.0_veridical_freeview_isoFalse_fps144_reversed_REAL.mp4",""
"","","","call-function","60","131432","0.0-60.0","g432mzcc","","","","","","","",""
"2947.040000000008","{""judgement"":0}","[0]","survey-likert","61","134380","0.0-61.0","g432mzcc","","","","","","","","0"
"1700.695000000007","{""confidence"":2}","[0]","survey-likert","62","136083","0.0-62.0","g432mzcc","","","","","","","",""
"","","","call-function","63","136084","0.0-63.0","g432mzcc","","","","","","","",""
"null","","","html-keyboard-response","64","137591","0.0-64.0","g432mzcc","","<span style=""color:Black; font-size:50px;"">Agent A","null","","","","",""
"null","","","video-keyboard-response","65","140209","0.0-65.0","g432mzcc","","","null","","Agent A","veridical","FOR_REV_BLOBBY_STIM/713779.bmp_pp152_L2_V1.0_veridical_freeview_isoFalse_fps144.mp4",""
"null","","","html-keyboard-response","66","141714","0.0-66.0","g432mzcc","","<span style=""color:Black; font-size:50px;"">Agent B","null","","","","",""
"null","","","video-keyboard-response","67","144333","0.0-67.0","g432mzcc","","","null","","Agent B","scrambled","FOR_REV_BLOBBY_STIM/713779.bmp_pp152_L2_V1.0_veridical_freeview_isoFalse_fps144_reversed_REAL.mp4",""
"","","","call-function","68","144334","0.0-68.0","g432mzcc","","","","","","","",""
"2015.875","{""judgement"":1}","[0]","survey-likert","69","146351","0.0-69.0","g432mzcc","","","","","","","","0"
"1368.9249999999884","{""confidence"":3}","[0]","survey-likert","70","147721","0.0-70.0","g432mzcc","","","","","","","",""
"","","","call-function","71","147722","0.0-71.0","g432mzcc","","","","","","","",""
"null","","","html-keyboard-response","72","149227","0.0-72.0","g432mzcc","","<span style=""color:Black; font-size:50px;"">Agent A","null","","","","",""
"null","","","video-keyboard-response","73","152066","0.0-73.0","g432mzcc","","","null","","Agent A","veridical","FOR_REV_BLOBBY_STIM/713017.bmp_pp152_L2_V1.0_veridical_freeview_isoFalse_fps144.mp4",""
"null","","","html-keyboard-response","74","153572","0.0-74.0","g432mzcc","","<span style=""color:Black; font-size:50px;"">Agent B","null","","","","",""
"null","","","video-keyboard-response","75","156406","0.0-75.0","g432mzcc","","","null","","Agent B","scrambled","FOR_REV_BLOBBY_STIM/713017.bmp_pp152_L2_V1.0_veridical_freeview_isoFalse_fps144_reversed_REAL.mp4",""
"","","","call-function","76","156406","0.0-76.0","g432mzcc","","","","","","","",""
"2224","{""judgement"":0}","[0]","survey-likert","77","158631","0.0-77.0","g432mzcc","","","","","","","","0"
"1303.6300000000047","{""confidence"":3}","[0]","survey-likert","78","159936","0.0-78.0","g432mzcc","","","","","","","",""
"","","","call-function","79","159937","0.0-79.0","g432mzcc","","","","","","","",""
"null","","","html-keyboard-response","80","161438","0.0-80.0","g432mzcc","","<span style=""color:Black; font-size:50px;"">Agent A","null","","","","",""
"null","","","video-keyboard-response","81","164274","0.0-81.0","g432mzcc","","","null","","Agent A","scrambled","FOR_REV_BLOBBY_STIM/1159440.bmp_pp98_L1_V1.0_veridical_freeview_isoFalse_fps144_reversed_REAL.mp4",""
"null","","","html-keyboard-response","82","165779","0.0-82.0","g432mzcc","","<span style=""color:Black; font-size:50px;"">Agent B","null","","","","",""
"null","","","video-keyboard-response","83","168605","0.0-83.0","g432mzcc","","","null","","Agent B","veridical","FOR_REV_BLOBBY_STIM/1159440.bmp_pp98_L1_V1.0_veridical_freeview_isoFalse_fps144.mp4",""
"","","","call-function","84","168606","0.0-84.0","g432mzcc","","","","","","","",""
"11069.129999999976","{""judgement"":0}","[0]","survey-likert","85","179676","0.0-85.0","g432mzcc","","","","","","","","1"
"1740.1750000000175","{""confidence"":0}","[0]","survey-likert","86","181417","0.0-86.0","g432mzcc","","","","","","","",""
"3497.1149999999907","","","instructions","87","184915","0.0-87.0","g432mzcc","[{""page_index"":0,""viewing_time"":1152.5650000000023},{""page_index"":1,""viewing_time"":1161.6900000000023},{""page_index"":2,""viewing_time"":1182.7049999999872}]","","","","","","",""
"3077.859999999986","","","instructions","88","187993","0.0-88.0","g432mzcc","[{""page_index"":0,""viewing_time"":869.3949999999895},{""page_index"":1,""viewing_time"":1375.2699999999895},{""page_index"":2,""viewing_time"":833.070000000007}]","","","","","","",""
"","","","call-function","89","187993","0.0-89.0","g432mzcc","","","","","","","",""
"null","","","html-keyboard-response","90","189499","0.0-90.0","g432mzcc","","<span style=""color:Black; font-size:50px;"">Agent A","null","","","","",""
"null","","","video-keyboard-response","91","192157","0.0-91.0","g432mzcc","","","null","","Agent A","scrambled","FOR_REV_BLOBBY_STIM/713707.bmp_pp154_L1_V1.0_veridical_freeview_isoFalse_fps144_reversed_REAL.mp4",""
"null","","","html-keyboard-response","92","193662","0.0-92.0","g432mzcc","","<span style=""color:Black; font-size:50px;"">Agent B","null","","","","",""
"null","","","video-keyboard-response","93","196320","0.0-93.0","g432mzcc","","","null","","Agent B","veridical","FOR_REV_BLOBBY_STIM/713707.bmp_pp154_L1_V1.0_veridical_freeview_isoFalse_fps144.mp4",""
"","","","call-function","94","196320","0.0-94.0","g432mzcc","","","","","","","",""
"2364.860000000015","{""judgement"":0}","[0]","survey-likert","95","198686","0.0-95.0","g432mzcc","","","","","","","","1"
"1018.8700000000244","{""confidence"":2}","[0]","survey-likert","96","199706","0.0-96.0","g432mzcc","","","","","","","",""
"","","","call-function","97","199706","0.0-97.0","g432mzcc","","","","","","","",""
"null","","","html-keyboard-response","98","201213","0.0-98.0","g432mzcc","","<span style=""color:Black; font-size:50px;"">Agent A","null","","","","",""
"null","","","video-keyboard-response","99","203972","0.0-99.0","g432mzcc","","","null","","Agent A","scrambled","FOR_REV_BLOBBY_STIM/1592804.bmp_pp91_L3_V1.0_veridical_freeview_isoFalse_fps144_reversed_REAL.mp4",""
"null","","","html-keyboard-response","100","205475","0.0-100.0","g432mzcc","","<span style=""color:Black; font-size:50px;"">Agent B","null","","","","",""
"null","","","video-keyboard-response","101","208236","0.0-101.0","g432mzcc","","","null","","Agent B","veridical","FOR_REV_BLOBBY_STIM/1592804.bmp_pp91_L3_V1.0_veridical_freeview_isoFalse_fps144.mp4",""
"","","","call-function","102","208237","0.0-102.0","g432mzcc","","","","","","","",""
"2877.3399999999965","{""judgement"":0}","[0]","survey-likert","103","211115","0.0-103.0","g432mzcc","","","","","","","","1"
"984.875","{""confidence"":1}","[0]","survey-likert","104","212101","0.0-104.0","g432mzcc","","","","","","","",""
"","","","call-function","105","212102","0.0-105.0","g432mzcc","","","","","","","",""
"null","","","html-keyboard-response","106","213607","0.0-106.0","g432mzcc","","<span style=""color:Black; font-size:50px;"">Agent A","null","","","","",""
"null","","","video-keyboard-response","107","216488","0.0-107.0","g432mzcc","","","null","","Agent A","scrambled","FOR_REV_BLOBBY_STIM/1593035.bmp_pp94_L2_V1.0_veridical_freeview_isoFalse_fps144_reversed_REAL.mp4",""
"null","","","html-keyboard-response","108","217993","0.0-108.0","g432mzcc","","<span style=""color:Black; font-size:50px;"">Agent B","null","","","","",""
"null","","","video-keyboard-response","109","220883","0.0-109.0","g432mzcc","","","null","","Agent B","veridical","FOR_REV_BLOBBY_STIM/1593035.bmp_pp94_L2_V1.0_veridical_freeview_isoFalse_fps144.mp4",""
"","","","call-function","110","220884","0.0-110.0","g432mzcc","","","","","","","",""
"1473.3650000000198","{""judgement"":0}","[0]","survey-likert","111","222359","0.0-111.0","g432mzcc","","","","","","","","1"
"1109.359999999986","{""confidence"":3}","[0]","survey-likert","112","223470","0.0-112.0","g432mzcc","","","","","","","",""
"","","","call-function","113","223470","0.0-113.0","g432mzcc","","","","","","","",""
"null","","","html-keyboard-response","114","224972","0.0-114.0","g432mzcc","","<span style=""color:Black; font-size:50px;"">Agent A","null","","","","",""
"null","","","video-keyboard-response","115","227587","0.0-115.0","g432mzcc","","","null","","Agent A","veridical","FOR_REV_BLOBBY_STIM/61537.bmp_pp73_L3_V1.0_veridical_freeview_isoFalse_fps144.mp4",""
"null","","","html-keyboard-response","116","229091","0.0-116.0","g432mzcc","","<span style=""color:Black; font-size:50px;"">Agent B","null","","","","",""
"null","","","video-keyboard-response","117","231704","0.0-117.0","g432mzcc","","","null","","Agent B","scrambled","FOR_REV_BLOBBY_STIM/61537.bmp_pp73_L3_V1.0_veridical_freeview_isoFalse_fps144_reversed_REAL.mp4",""
"","","","call-function","118","231705","0.0-118.0","g432mzcc","","","","","","","",""
"994.9949999999953","{""judgement"":0}","[0]","survey-likert","119","232701","0.0-119.0","g432mzcc","","","","","","","","0"
"1035.515000000014","{""confidence"":3}","[0]","survey-likert","120","233738","0.0-120.0","g432mzcc","","","","","","","",""
"","","","call-function","121","233738","0.0-121.0","g432mzcc","","","","","","","",""
"null","","","html-keyboard-response","122","235240","0.0-122.0","g432mzcc","","<span style=""color:Black; font-size:50px;"">Agent A","null","","","","",""
"null","","","video-keyboard-response","123","238056","0.0-123.0","g432mzcc","","","null","","Agent A","veridical","FOR_REV_BLOBBY_STIM/1591961.bmp_pp67_L2_V1.0_veridical_freeview_isoFalse_fps144.mp4",""
"null","","","html-keyboard-response","124","239560","0.0-124.0","g432mzcc","","<span style=""color:Black; font-size:50px;"">Agent B","null","","","","",""
"null","","","video-keyboard-response","125","242375","0.0-125.0","g432mzcc","","","null","","Agent B","scrambled","FOR_REV_BLOBBY_STIM/1591961.bmp_pp67_L2_V1.0_veridical_freeview_isoFalse_fps144_reversed_REAL.mp4",""
"","","","call-function","126","242376","0.0-126.0","g432mzcc","","","","","","","",""
"1100.7549999999756","{""judgement"":0}","[0]","survey-likert","127","243477","0.0-127.0","g432mzcc","","","","","","","","0"
"1473.9749999999767","{""confidence"":3}","[0]","survey-likert","128","244953","0.0-128.0","g432mzcc","","","","","","","",""
"","","","call-function","129","244953","0.0-129.0","g432mzcc","","","","","","","",""
"null","","","html-keyboard-response","130","246456","0.0-130.0","g432mzcc","","<span style=""color:Black; font-size:50px;"">Agent A","null","","","","",""
"null","","","video-keyboard-response","131","249261","0.0-131.0","g432mzcc","","","null","","Agent A","veridical","FOR_REV_BLOBBY_STIM/1591994.bmp_pp69_L3_V1.0_veridical_freeview_isoFalse_fps144.mp4",""
"null","","","html-keyboard-response","132","250765","0.0-132.0","g432mzcc","","<span style=""color:Black; font-size:50px;"">Agent B","null","","","","",""
"null","","","video-keyboard-response","133","253571","0.0-133.0","g432mzcc","","","null","","Agent B","scrambled","FOR_REV_BLOBBY_STIM/1591994.bmp_pp69_L3_V1.0_veridical_freeview_isoFalse_fps144_reversed_REAL.mp4",""
"","","","call-function","134","253572","0.0-134.0","g432mzcc","","","","","","","",""
"1925.7299999999814","{""judgement"":0}","[0]","survey-likert","135","255499","0.0-135.0","g432mzcc","","","","","","","","0"
"1427.304999999993","{""confidence"":1}","[0]","survey-likert","136","256927","0.0-136.0","g432mzcc","","","","","","","",""
"","","","call-function","137","256928","0.0-137.0","g432mzcc","","","","","","","",""
"null","","","html-keyboard-response","138","258430","0.0-138.0","g432mzcc","","<span style=""color:Black; font-size:50px;"">Agent A","null","","","","",""
"null","","","video-keyboard-response","139","261181","0.0-139.0","g432mzcc","","","null","","Agent A","veridical","FOR_REV_BLOBBY_STIM/498111.bmp_pp88_L2_V1.0_veridical_freeview_isoFalse_fps144.mp4",""
"null","","","html-keyboard-response","140","262687","0.0-140.0","g432mzcc","","<span style=""color:Black; font-size:50px;"">Agent B","null","","","","",""
"null","","","video-keyboard-response","141","265443","0.0-141.0","g432mzcc","","","null","","Agent B","scrambled","FOR_REV_BLOBBY_STIM/498111.bmp_pp88_L2_V1.0_veridical_freeview_isoFalse_fps144_reversed_REAL.mp4",""
"","","","call-function","142","265443","0.0-142.0","g432mzcc","","","","","","","",""
"1287.179999999993","{""judgement"":1}","[0]","survey-likert","143","266731","0.0-143.0","g432mzcc","","","","","","","","0"
"1216.1049999999814","{""confidence"":3}","[0]","survey-likert","144","267949","0.0-144.0","g432mzcc","","","","","","","",""
"","","","call-function","145","267949","0.0-145.0","g432mzcc","","","","","","","",""
"null","","","html-keyboard-response","146","269454","0.0-146.0","g432mzcc","","<span style=""color:Black; font-size:50px;"">Agent A","null","","","","",""
"null","","","video-keyboard-response","147","272280","0.0-147.0","g432mzcc","","","null","","Agent A","veridical","FOR_REV_BLOBBY_STIM/498175.bmp_pp154_L1_V1.0_veridical_freeview_isoFalse_fps144.mp4",""
"null","","","html-keyboard-response","148","273784","0.0-148.0","g432mzcc","","<span style=""color:Black; font-size:50px;"">Agent B","null","","","","",""
"null","","","video-keyboard-response","149","276608","0.0-149.0","g432mzcc","","","null","","Agent B","scrambled","FOR_REV_BLOBBY_STIM/498175.bmp_pp154_L1_V1.0_veridical_freeview_isoFalse_fps144_reversed_REAL.mp4",""
"","","","call-function","150","276608","0.0-150.0","g432mzcc","","","","","","","",""
"1327.8399999999674","{""judgement"":0}","[0]","survey-likert","151","277937","0.0-151.0","g432mzcc","","","","","","","","0"
"1160.8600000000442","{""confidence"":3}","[0]","survey-likert","152","279099","0.0-152.0","g432mzcc","","","","","","","",""
"","","","call-function","153","279100","0.0-153.0","g432mzcc","","","","","","","",""
"null","","","html-keyboard-response","154","280605","0.0-154.0","g432mzcc","","<span style=""color:Black; font-size:50px;"">Agent A","null","","","","",""
"null","","","video-keyboard-response","155","283498","0.0-155.0","g432mzcc","","","null","","Agent A","veridical","FOR_REV_BLOBBY_STIM/285751.bmp_pp55_L3_V1.0_veridical_freeview_isoFalse_fps144.mp4",""
"null","","","html-keyboard-response","156","285005","0.0-156.0","g432mzcc","","<span style=""color:Black; font-size:50px;"">Agent B","null","","","","",""
"null","","","video-keyboard-response","157","287842","0.0-157.0","g432mzcc","","","null","","Agent B","scrambled","FOR_REV_BLOBBY_STIM/285751.bmp_pp55_L3_V1.0_veridical_freeview_isoFalse_fps144_reversed_REAL.mp4",""
"","","","call-function","158","287843","0.0-158.0","g432mzcc","","","","","","","",""
"1145.155000000028","{""judgement"":0}","[0]","survey-likert","159","288989","0.0-159.0","g432mzcc","","","","","","","","0"
"909.2199999999721","{""confidence"":3}","[0]","survey-likert","160","289900","0.0-160.0","g432mzcc","","","","","","","",""
"","","","call-function","161","289900","0.0-161.0","g432mzcc","","","","","","","",""
"null","","","html-keyboard-response","162","291406","0.0-162.0","g432mzcc","","<span style=""color:Black; font-size:50px;"">Agent A","null","","","","",""
"null","","","video-keyboard-response","163","294232","0.0-163.0","g432mzcc","","","null","","Agent A","scrambled","FOR_REV_BLOBBY_STIM/712977.bmp_pp51_L1_V1.0_veridical_freeview_isoFalse_fps144_reversed_REAL.mp4",""
"null","","","html-keyboard-response","164","295738","0.0-164.0","g432mzcc","","<span style=""color:Black; font-size:50px;"">Agent B","null","","","","",""
"null","","","video-keyboard-response","165","298557","0.0-165.0","g432mzcc","","","null","","Agent B","veridical","FOR_REV_BLOBBY_STIM/712977.bmp_pp51_L1_V1.0_veridical_freeview_isoFalse_fps144.mp4",""
"","","","call-function","166","298558","0.0-166.0","g432mzcc","","","","","","","",""
"1293.625","{""judgement"":0}","[0]","survey-likert","167","299852","0.0-167.0","g432mzcc","","","","","","","","1"
"1609.9000000000233","{""confidence"":3}","[0]","survey-likert","168","301463","0.0-168.0","g432mzcc","","","","","","","",""
"2307.7150000000256","","","instructions","169","303772","0.0-169.0","g432mzcc","[{""page_index"":0,""viewing_time"":938.0300000000279},{""page_index"":1,""viewing_time"":782.6699999999837},{""page_index"":2,""viewing_time"":586.859999999986}]","","","","","","",""
"2225.594999999972","","","instructions","170","305998","0.0-170.0","g432mzcc","[{""page_index"":0,""viewing_time"":786.4249999999884},{""page_index"":1,""viewing_time"":752.039999999979},{""page_index"":2,""viewing_time"":687.0250000000233}]","","","","","","",""
"","","","call-function","171","305998","0.0-171.0","g432mzcc","","","","","","","",""
"null","","","html-keyboard-response","172","307500","0.0-172.0","g432mzcc","","<span style=""color:Black; font-size:50px;"">Agent A","null","","","","",""
"null","","","video-keyboard-response","173","310237","0.0-173.0","g432mzcc","","","null","","Agent A","veridical","FOR_REV_BLOBBY_STIM/1592581.bmp_pp100_L3_V1.0_veridical_freeview_isoFalse_fps144.mp4",""
"null","","","html-keyboard-response","174","311744","0.0-174.0","g432mzcc","","<span style=""color:Black; font-size:50px;"">Agent B","null","","","","",""
"null","","","video-keyboard-response","175","314481","0.0-175.0","g432mzcc","","","null","","Agent B","scrambled","FOR_REV_BLOBBY_STIM/1592581.bmp_pp100_L3_V1.0_veridical_freeview_isoFalse_fps144_reversed_REAL.mp4",""
"","","","call-function","176","314481","0.0-176.0","g432mzcc","","","","","","","",""
"1212.5449999999837","{""judgement"":0}","[0]","survey-likert","177","315695","0.0-177.0","g432mzcc","","","","","","","","0"
"1240.9850000000442","{""confidence"":3}","[0]","survey-likert","178","316937","0.0-178.0","g432mzcc","","","","","","","",""
"","","","call-function","179","316938","0.0-179.0","g432mzcc","","","","","","","",""
"null","","","html-keyboard-response","180","318441","0.0-180.0","g432mzcc","","<span style=""color:Black; font-size:50px;"">Agent A","null","","","","",""
"null","","","video-keyboard-response","181","321283","0.0-181.0","g432mzcc","","","null","","Agent A","veridical","FOR_REV_BLOBBY_STIM/713371.bmp_pp68_L1_V1.0_veridical_freeview_isoFalse_fps144.mp4",""
"null","","","html-keyboard-response","182","322788","0.0-182.0","g432mzcc","","<span style=""color:Black; font-size:50px;"">Agent B","null","","","","",""
"null","","","video-keyboard-response","183","325635","0.0-183.0","g432mzcc","","","null","","Agent B","scrambled","FOR_REV_BLOBBY_STIM/713371.bmp_pp68_L1_V1.0_veridical_freeview_isoFalse_fps144_reversed_REAL.mp4",""
"","","","call-function","184","325636","0.0-184.0","g432mzcc","","","","","","","",""
"1648.844999999972","{""judgement"":0}","[0]","survey-likert","185","327286","0.0-185.0","g432mzcc","","","","","","","","0"
"1330.3399999999674","{""confidence"":2}","[0]","survey-likert","186","328618","0.0-186.0","g432mzcc","","","","","","","",""
"","","","call-function","187","328619","0.0-187.0","g432mzcc","","","","","","","",""
"null","","","html-keyboard-response","188","330126","0.0-188.0","g432mzcc","","<span style=""color:Black; font-size:50px;"">Agent A","null","","","","",""
"null","","","video-keyboard-response","189","332947","0.0-189.0","g432mzcc","","","null","","Agent A","veridical","FOR_REV_BLOBBY_STIM/1592657.bmp_pp98_L1_V1.0_veridical_freeview_isoFalse_fps144.mp4",""
"null","","","html-keyboard-response","190","334449","0.0-190.0","g432mzcc","","<span style=""color:Black; font-size:50px;"">Agent B","null","","","","",""
"null","","","video-keyboard-response","191","337284","0.0-191.0","g432mzcc","","","null","","Agent B","scrambled","FOR_REV_BLOBBY_STIM/1592657.bmp_pp98_L1_V1.0_veridical_freeview_isoFalse_fps144_reversed_REAL.mp4",""
"","","","call-function","192","337285","0.0-192.0","g432mzcc","","","","","","","",""
"1758.2700000000186","{""judgement"":0}","[0]","survey-likert","193","339044","0.0-193.0","g432mzcc","","","","","","","","0"
"1270.3700000000536","{""confidence"":3}","[0]","survey-likert","194","340316","0.0-194.0","g432mzcc","","","","","","","",""
"","","","call-function","195","340316","0.0-195.0","g432mzcc","","","","","","","",""
"null","","","html-keyboard-response","196","341821","0.0-196.0","g432mzcc","","<span style=""color:Black; font-size:50px;"">Agent A","null","","","","",""
"null","","","video-keyboard-response","197","344615","0.0-197.0","g432mzcc","","","null","","Agent A","scrambled","FOR_REV_BLOBBY_STIM/1159784.bmp_pp73_L3_V1.0_veridical_freeview_isoFalse_fps144_reversed_REAL.mp4",""
"null","","","html-keyboard-response","198","346121","0.0-198.0","g432mzcc","","<span style=""color:Black; font-size:50px;"">Agent B","null","","","","",""
"null","","","video-keyboard-response","199","348915","0.0-199.0","g432mzcc","","","null","","Agent B","veridical","FOR_REV_BLOBBY_STIM/1159784.bmp_pp73_L3_V1.0_veridical_freeview_isoFalse_fps144.mp4",""
"","","","call-function","200","348915","0.0-200.0","g432mzcc","","","","","","","",""
"2224.2249999999767","{""judgement"":0}","[0]","survey-likert","201","351141","0.0-201.0","g432mzcc","","","","","","","","1"
"1862.774999999965","{""confidence"":3}","[0]","survey-likert","202","353005","0.0-202.0","g432mzcc","","","","","","","",""
"","","","call-function","203","353005","0.0-203.0","g432mzcc","","","","","","","",""
"null","","","html-keyboard-response","204","354508","0.0-204.0","g432mzcc","","<span style=""color:Black; font-size:50px;"">Agent A","null","","","","",""
"null","","","video-keyboard-response","205","357267","0.0-205.0","g432mzcc","","","null","","Agent A","veridical","FOR_REV_BLOBBY_STIM/713749.bmp_pp88_L2_V1.0_veridical_freeview_isoFalse_fps144.mp4",""
"null","","","html-keyboard-response","206","358773","0.0-206.0","g432mzcc","","<span style=""color:Black; font-size:50px;"">Agent B","null","","","","",""
"null","","","video-keyboard-response","207","361529","0.0-207.0","g432mzcc","","","null","","Agent B","scrambled","FOR_REV_BLOBBY_STIM/713749.bmp_pp88_L2_V1.0_veridical_freeview_isoFalse_fps144_reversed_REAL.mp4",""
"","","","call-function","208","361530","0.0-208.0","g432mzcc","","","","","","","",""
"1689.3150000000023","{""judgement"":1}","[0]","survey-likert","209","363220","0.0-209.0","g432mzcc","","","","","","","","0"
"1329.3649999999907","{""confidence"":1}","[0]","survey-likert","210","364550","0.0-210.0","g432mzcc","","","","","","","",""
"","","","call-function","211","364551","0.0-211.0","g432mzcc","","","","","","","",""
"null","","","html-keyboard-response","212","366053","0.0-212.0","g432mzcc","","<span style=""color:Black; font-size:50px;"">Agent A","null","","","","",""
"null","","","video-keyboard-response","213","368917","0.0-213.0","g432mzcc","","","null","","Agent A","veridical","FOR_REV_BLOBBY_STIM/498253.bmp_pp67_L2_V1.0_veridical_freeview_isoFalse_fps144.mp4",""
"null","","","html-keyboard-response","214","370424","0.0-214.0","g432mzcc","","<span style=""color:Black; font-size:50px;"">Agent B","null","","","","",""
"null","","","video-keyboard-response","215","373288","0.0-215.0","g432mzcc","","","null","","Agent B","scrambled","FOR_REV_BLOBBY_STIM/498253.bmp_pp67_L2_V1.0_veridical_freeview_isoFalse_fps144_reversed_REAL.mp4",""
"","","","call-function","216","373288","0.0-216.0","g432mzcc","","","","","","","",""
"2883.1049999999814","{""judgement"":1}","[0]","survey-likert","217","376172","0.0-217.0","g432mzcc","","","","","","","","0"
"1089.015000000014","{""confidence"":0}","[0]","survey-likert","218","377263","0.0-218.0","g432mzcc","","","","","","","",""
"","","","call-function","219","377263","0.0-219.0","g432mzcc","","","","","","","",""
"null","","","html-keyboard-response","220","378765","0.0-220.0","g432mzcc","","<span style=""color:Black; font-size:50px;"">Agent A","null","","","","",""
"null","","","video-keyboard-response","221","381576","0.0-221.0","g432mzcc","","","null","","Agent A","veridical","FOR_REV_BLOBBY_STIM/1591954.bmp_pp62_L2_V1.0_veridical_freeview_isoFalse_fps144.mp4",""
"null","","","html-keyboard-response","222","383082","0.0-222.0","g432mzcc","","<span style=""color:Black; font-size:50px;"">Agent B","null","","","","",""
"null","","","video-keyboard-response","223","385843","0.0-223.0","g432mzcc","","","null","","Agent B","scrambled","FOR_REV_BLOBBY_STIM/1591954.bmp_pp62_L2_V1.0_veridical_freeview_isoFalse_fps144_reversed_REAL.mp4",""
"","","","call-function","224","385844","0.0-224.0","g432mzcc","","","","","","","",""
"1044.7700000000186","{""judgement"":0}","[0]","survey-likert","225","386890","0.0-225.0","g432mzcc","","","","","","","","0"
"3257.460000000021","{""confidence"":3}","[0]","survey-likert","226","390148","0.0-226.0","g432mzcc","","","","","","","",""
"","","","call-function","227","390149","0.0-227.0","g432mzcc","","","","","","","",""
"null","","","html-keyboard-response","228","391651","0.0-228.0","g432mzcc","","<span style=""color:Black; font-size:50px;"">Agent A","null","","","","",""
"null","","","video-keyboard-response","229","394249","0.0-229.0","g432mzcc","","","null","","Agent A","scrambled","FOR_REV_BLOBBY_STIM/1592397.bmp_pp85_L3_V1.0_veridical_freeview_isoFalse_fps144_reversed_REAL.mp4",""
"null","","","html-keyboard-response","230","395752","0.0-230.0","g432mzcc","","<span style=""color:Black; font-size:50px;"">Agent B","null","","","","",""
"null","","","video-keyboard-response","231","398312","0.0-231.0","g432mzcc","","","null","","Agent B","veridical","FOR_REV_BLOBBY_STIM/1592397.bmp_pp85_L3_V1.0_veridical_freeview_isoFalse_fps144.mp4",""
"","","","call-function","232","398313","0.0-232.0","g432mzcc","","","","","","","",""
"1821.7150000000256","{""judgement"":0}","[0]","survey-likert","233","400136","0.0-233.0","g432mzcc","","","","","","","","1"
"1148.8150000000023","{""confidence"":3}","[0]","survey-likert","234","401286","0.0-234.0","g432mzcc","","","","","","","",""
"","","","call-function","235","401286","0.0-235.0","g432mzcc","","","","","","","",""
"null","","","html-keyboard-response","236","402793","0.0-236.0","g432mzcc","","<span style=""color:Black; font-size:50px;"">Agent A","null","","","","",""
"null","","","video-keyboard-response","237","405577","0.0-237.0","g432mzcc","","","null","","Agent A","scrambled","FOR_REV_BLOBBY_STIM/1159829.bmp_pp91_L3_V1.0_veridical_freeview_isoFalse_fps144_reversed_REAL.mp4",""
"null","","","html-keyboard-response","238","407081","0.0-238.0","g432mzcc","","<span style=""color:Black; font-size:50px;"">Agent B","null","","","","",""
"null","","","video-keyboard-response","239","409866","0.0-239.0","g432mzcc","","","null","","Agent B","veridical","FOR_REV_BLOBBY_STIM/1159829.bmp_pp91_L3_V1.0_veridical_freeview_isoFalse_fps144.mp4",""
"","","","call-function","240","409866","0.0-240.0","g432mzcc","","","","","","","",""
"1169.3250000000116","{""judgement"":1}","[0]","survey-likert","241","411037","0.0-241.0","g432mzcc","","","","","","","","1"
"2129.9349999999977","{""confidence"":3}","[0]","survey-likert","242","413168","0.0-242.0","g432mzcc","","","","","","","",""
"","","","call-function","243","413168","0.0-243.0","g432mzcc","","","","","","","",""
"null","","","html-keyboard-response","244","414672","0.0-244.0","g432mzcc","","<span style=""color:Black; font-size:50px;"">Agent A","null","","","","",""
"null","","","video-keyboard-response","245","417405","0.0-245.0","g432mzcc","","","null","","Agent A","scrambled","FOR_REV_BLOBBY_STIM/1592619.bmp_pp56_L3_V1.0_veridical_freeview_isoFalse_fps144_reversed_REAL.mp4",""
"null","","","html-keyboard-response","246","418906","0.0-246.0","g432mzcc","","<span style=""color:Black; font-size:50px;"">Agent B","null","","","","",""
"null","","","video-keyboard-response","247","421679","0.0-247.0","g432mzcc","","","null","","Agent B","veridical","FOR_REV_BLOBBY_STIM/1592619.bmp_pp56_L3_V1.0_veridical_freeview_isoFalse_fps144.mp4",""
"","","","call-function","248","421680","0.0-248.0","g432mzcc","","","","","","","",""
"2146.8250000000116","{""judgement"":1}","[0]","survey-likert","249","423829","0.0-249.0","g432mzcc","","","","","","","","1"
"1352.609999999986","{""confidence"":1}","[0]","survey-likert","250","425183","0.0-250.0","g432mzcc","","","","","","","",""
"2809.6599999999744","","","instructions","251","427995","0.0-251.0","g432mzcc","[{""page_index"":0,""viewing_time"":1401.5349999999744},{""page_index"":1,""viewing_time"":785.9650000000256},{""page_index"":2,""viewing_time"":622}]","","","","","","",""
"3667.7149999999674","","","instructions","252","431663","0.0-252.0","g432mzcc","[{""page_index"":0,""viewing_time"":1424.524999999965},{""page_index"":1,""viewing_time"":1589.9500000000116},{""page_index"":2,""viewing_time"":653.1350000000093}]","","","","","","",""
"","","","call-function","253","431664","0.0-253.0","g432mzcc","","","","","","","",""
"null","","","html-keyboard-response","254","433166","0.0-254.0","g432mzcc","","<span style=""color:Black; font-size:50px;"">Agent A","null","","","","",""
"null","","","video-keyboard-response","255","435944","0.0-255.0","g432mzcc","","","null","","Agent A","veridical","FOR_REV_BLOBBY_STIM/713620.bmp_pp65_L3_V1.0_veridical_freeview_isoFalse_fps144.mp4",""
"null","","","html-keyboard-response","256","437449","0.0-256.0","g432mzcc","","<span style=""color:Black; font-size:50px;"">Agent B","null","","","","",""
"null","","","video-keyboard-response","257","440231","0.0-257.0","g432mzcc","","","null","","Agent B","scrambled","FOR_REV_BLOBBY_STIM/713620.bmp_pp65_L3_V1.0_veridical_freeview_isoFalse_fps144_reversed_REAL.mp4",""
"","","","call-function","258","440232","0.0-258.0","g432mzcc","","","","","","","",""
"1209.140000000014","{""judgement"":0}","[0]","survey-likert","259","441442","0.0-259.0","g432mzcc","","","","","","","","0"
"1402.3699999999953","{""confidence"":1}","[0]","survey-likert","260","442846","0.0-260.0","g432mzcc","","","","","","","",""
"","","","call-function","261","442847","0.0-261.0","g432mzcc","","","","","","","",""
"null","","","html-keyboard-response","262","444350","0.0-262.0","g432mzcc","","<span style=""color:Black; font-size:50px;"">Agent A","null","","","","",""
"null","","","video-keyboard-response","263","447038","0.0-263.0","g432mzcc","","","null","","Agent A","veridical","FOR_REV_BLOBBY_STIM/285994.bmp_pp92_L3_V1.0_veridical_freeview_isoFalse_fps144.mp4",""
"null","","","html-keyboard-response","264","448542","0.0-264.0","g432mzcc","","<span style=""color:Black; font-size:50px;"">Agent B","null","","","","",""
"null","","","video-keyboard-response","265","451223","0.0-265.0","g432mzcc","","","null","","Agent B","scrambled","FOR_REV_BLOBBY_STIM/285994.bmp_pp92_L3_V1.0_veridical_freeview_isoFalse_fps144_reversed_REAL.mp4",""
"","","","call-function","266","451223","0.0-266.0","g432mzcc","","","","","","","",""
"1172.4850000000442","{""judgement"":0}","[0]","survey-likert","267","452397","0.0-267.0","g432mzcc","","","","","","","","0"
"1287.4100000000326","{""confidence"":3}","[0]","survey-likert","268","453686","0.0-268.0","g432mzcc","","","","","","","",""
"","","","call-function","269","453687","0.0-269.0","g432mzcc","","","","","","","",""
"null","","","html-keyboard-response","270","455192","0.0-270.0","g432mzcc","","<span style=""color:Black; font-size:50px;"">Agent A","null","","","","",""
"null","","","video-keyboard-response","271","457918","0.0-271.0","g432mzcc","","","null","","Agent A","scrambled","FOR_REV_BLOBBY_STIM/1592817.bmp_pp55_L3_V1.0_veridical_freeview_isoFalse_fps144_reversed_REAL.mp4",""
"null","","","html-keyboard-response","272","459421","0.0-272.0","g432mzcc","","<span style=""color:Black; font-size:50px;"">Agent B","null","","","","",""
"null","","","video-keyboard-response","273","462152","0.0-273.0","g432mzcc","","","null","","Agent B","veridical","FOR_REV_BLOBBY_STIM/1592817.bmp_pp55_L3_V1.0_veridical_freeview_isoFalse_fps144.mp4",""
"","","","call-function","274","462153","0.0-274.0","g432mzcc","","","","","","","",""
"1555.625","{""judgement"":1}","[0]","survey-likert","275","463710","0.0-275.0","g432mzcc","","","","","","","","1"
"1157.9400000000023","{""confidence"":2}","[0]","survey-likert","276","464869","0.0-276.0","g432mzcc","","","","","","","",""
"","","","call-function","277","464870","0.0-277.0","g432mzcc","","","","","","","",""
"null","","","html-keyboard-response","278","466371","0.0-278.0","g432mzcc","","<span style=""color:Black; font-size:50px;"">Agent A","null","","","","",""
"null","","","video-keyboard-response","279","469234","0.0-279.0","g432mzcc","","","null","","Agent A","veridical","FOR_REV_BLOBBY_STIM/497950.bmp_pp151_L1_V1.0_veridical_freeview_isoFalse_fps144.mp4",""
"null","","","html-keyboard-response","280","470739","0.0-280.0","g432mzcc","","<span style=""color:Black; font-size:50px;"">Agent B","null","","","","",""
"null","","","video-keyboard-response","281","473608","0.0-281.0","g432mzcc","","","null","","Agent B","scrambled","FOR_REV_BLOBBY_STIM/497950.bmp_pp151_L1_V1.0_veridical_freeview_isoFalse_fps144_reversed_REAL.mp4",""
"","","","call-function","282","473608","0.0-282.0","g432mzcc","","","","","","","",""
"4941.929999999993","{""judgement"":1}","[0]","survey-likert","283","478551","0.0-283.0","g432mzcc","","","","","","","","0"
"1159.7700000000186","{""confidence"":2}","[0]","survey-likert","284","479712","0.0-284.0","g432mzcc","","","","","","","",""
"","","","call-function","285","479712","0.0-285.0","g432mzcc","","","","","","","",""
"null","","","html-keyboard-response","286","481219","0.0-286.0","g432mzcc","","<span style=""color:Black; font-size:50px;"">Agent A","null","","","","",""
"null","","","video-keyboard-response","287","484067","0.0-287.0","g432mzcc","","","null","","Agent A","scrambled","FOR_REV_BLOBBY_STIM/1592286.bmp_pp52_L1_V1.0_veridical_freeview_isoFalse_fps144_reversed_REAL.mp4",""
"null","","","html-keyboard-response","288","485571","0.0-288.0","g432mzcc","","<span style=""color:Black; font-size:50px;"">Agent B","null","","","","",""
"null","","","video-keyboard-response","289","488425","0.0-289.0","g432mzcc","","","null","","Agent B","veridical","FOR_REV_BLOBBY_STIM/1592286.bmp_pp52_L1_V1.0_veridical_freeview_isoFalse_fps144.mp4",""
"","","","call-function","290","488425","0.0-290.0","g432mzcc","","","","","","","",""
"2194.0849999999627","{""judgement"":1}","[0]","survey-likert","291","490620","0.0-291.0","g432mzcc","","","","","","","","1"
"2782.094999999972","{""confidence"":1}","[0]","survey-likert","292","493403","0.0-292.0","g432mzcc","","","","","","","",""
"","","","call-function","293","493404","0.0-293.0","g432mzcc","","","","","","","",""
"null","","","html-keyboard-response","294","494910","0.0-294.0","g432mzcc","","<span style=""color:Black; font-size:50px;"">Agent A","null","","","","",""
"null","","","video-keyboard-response","295","497631","0.0-295.0","g432mzcc","","","null","","Agent A","veridical","FOR_REV_BLOBBY_STIM/1592133.bmp_pp75_L1_V1.0_veridical_freeview_isoFalse_fps144.mp4",""
"null","","","html-keyboard-response","296","499134","0.0-296.0","g432mzcc","","<span style=""color:Black; font-size:50px;"">Agent B","null","","","","",""
"null","","","video-keyboard-response","297","501800","0.0-297.0","g432mzcc","","","null","","Agent B","scrambled","FOR_REV_BLOBBY_STIM/1592133.bmp_pp75_L1_V1.0_veridical_freeview_isoFalse_fps144_reversed_REAL.mp4",""
"","","","call-function","298","501800","0.0-298.0","g432mzcc","","","","","","","",""
"3659.8549999999814","{""judgement"":0}","[0]","survey-likert","299","505461","0.0-299.0","g432mzcc","","","","","","","","0"
"1151.8850000000093","{""confidence"":1}","[0]","survey-likert","300","506614","0.0-300.0","g432mzcc","","","","","","","",""
"","","","call-function","301","506614","0.0-301.0","g432mzcc","","","","","","","",""
"null","","","html-keyboard-response","302","508120","0.0-302.0","g432mzcc","","<span style=""color:Black; font-size:50px;"">Agent A","null","","","","",""
"null","","","video-keyboard-response","303","510904","0.0-303.0","g432mzcc","","","null","","Agent A","veridical","FOR_REV_BLOBBY_STIM/713681.bmp_pp86_L2_V1.0_veridical_freeview_isoFalse_fps144.mp4",""
"null","","","html-keyboard-response","304","512409","0.0-304.0","g432mzcc","","<span style=""color:Black; font-size:50px;"">Agent B","null","","","","",""
"null","","","video-keyboard-response","305","515194","0.0-305.0","g432mzcc","","","null","","Agent B","scrambled","FOR_REV_BLOBBY_STIM/713681.bmp_pp86_L2_V1.0_veridical_freeview_isoFalse_fps144_reversed_REAL.mp4",""
"","","","call-function","306","515194","0.0-306.0","g432mzcc","","","","","","","",""
"1609.375","{""judgement"":0}","[0]","survey-likert","307","516805","0.0-307.0","g432mzcc","","","","","","","","0"
"1336.9000000000233","{""confidence"":2}","[0]","survey-likert","308","518143","0.0-308.0","g432mzcc","","","","","","","",""
"","","","call-function","309","518143","0.0-309.0","g432mzcc","","","","","","","",""
"null","","","html-keyboard-response","310","519650","0.0-310.0","g432mzcc","","<span style=""color:Black; font-size:50px;"">Agent A","null","","","","",""
"null","","","video-keyboard-response","311","522451","0.0-311.0","g432mzcc","","","null","","Agent A","scrambled","FOR_REV_BLOBBY_STIM/713666.bmp_pp97_L3_V1.0_veridical_freeview_isoFalse_fps144_reversed_REAL.mp4",""
"null","","","html-keyboard-response","312","523956","0.0-312.0","g432mzcc","","<span style=""color:Black; font-size:50px;"">Agent B","null","","","","",""
"null","","","video-keyboard-response","313","526793","0.0-313.0","g432mzcc","","","null","","Agent B","veridical","FOR_REV_BLOBBY_STIM/713666.bmp_pp97_L3_V1.0_veridical_freeview_isoFalse_fps144.mp4",""
"","","","call-function","314","526794","0.0-314.0","g432mzcc","","","","","","","",""
"2723.2649999998976","{""judgement"":1}","[0]","survey-likert","315","529519","0.0-315.0","g432mzcc","","","","","","","","1"
"1221.3050000000512","{""confidence"":0}","[0]","survey-likert","316","530742","0.0-316.0","g432mzcc","","","","","","","",""
"","","","call-function","317","530742","0.0-317.0","g432mzcc","","","","","","","",""
"null","","","html-keyboard-response","318","532249","0.0-318.0","g432mzcc","","<span style=""color:Black; font-size:50px;"">Agent A","null","","","","",""
"null","","","video-keyboard-response","319","535022","0.0-319.0","g432mzcc","","","null","","Agent A","veridical","FOR_REV_BLOBBY_STIM/1592890.bmp_pp82_L2_V1.0_veridical_freeview_isoFalse_fps144.mp4",""
"null","","","html-keyboard-response","320","536527","0.0-320.0","g432mzcc","","<span style=""color:Black; font-size:50px;"">Agent B","null","","","","",""
"null","","","video-keyboard-response","321","539321","0.0-321.0","g432mzcc","","","null","","Agent B","scrambled","FOR_REV_BLOBBY_STIM/1592890.bmp_pp82_L2_V1.0_veridical_freeview_isoFalse_fps144_reversed_REAL.mp4",""
"","","","call-function","322","539322","0.0-322.0","g432mzcc","","","","","","","",""
"1158.609999999986","{""judgement"":0}","[0]","survey-likert","323","540481","0.0-323.0","g432mzcc","","","","","","","","0"
"1328.7350000001024","{""confidence"":3}","[0]","survey-likert","324","541811","0.0-324.0","g432mzcc","","","","","","","",""
"","","","call-function","325","541812","0.0-325.0","g432mzcc","","","","","","","",""
"null","","","html-keyboard-response","326","543316","0.0-326.0","g432mzcc","","<span style=""color:Black; font-size:50px;"">Agent A","null","","","","",""
"null","","","video-keyboard-response","327","546136","0.0-327.0","g432mzcc","","","null","","Agent A","scrambled","FOR_REV_BLOBBY_STIM/713593.bmp_pp64_L1_V1.0_veridical_freeview_isoFalse_fps144_reversed_REAL.mp4",""
"null","","","html-keyboard-response","328","547641","0.0-328.0","g432mzcc","","<span style=""color:Black; font-size:50px;"">Agent B","null","","","","",""
"null","","","video-keyboard-response","329","550460","0.0-329.0","g432mzcc","","","null","","Agent B","veridical","FOR_REV_BLOBBY_STIM/713593.bmp_pp64_L1_V1.0_veridical_freeview_isoFalse_fps144.mp4",""
"","","","call-function","330","550461","0.0-330.0","g432mzcc","","","","","","","",""
"1135.6199999999953","{""judgement"":1}","[0]","survey-likert","331","551597","0.0-331.0","g432mzcc","","","","","","","","1"
"965.6199999999953","{""confidence"":3}","[0]","survey-likert","332","552564","0.0-332.0","g432mzcc","","","","","","","",""
"38964.73999999999","","","instructions","333","591530","0.0-333.0","g432mzcc","[{""page_index"":0,""viewing_time"":1585.8399999999674},{""page_index"":1,""viewing_time"":35048.01000000001},{""page_index"":2,""viewing_time"":2330.7249999999767}]","","","","","","",""
"5417.6900000000605","","","instructions","334","596948","0.0-334.0","g432mzcc","[{""page_index"":0,""viewing_time"":698.6149999999907},{""page_index"":1,""viewing_time"":4146.8300000000745},{""page_index"":2,""viewing_time"":572.0200000000186}]","","","","","","",""
"","","","call-function","335","596948","0.0-335.0","g432mzcc","","","","","","","",""
"null","","","html-keyboard-response","336","598452","0.0-336.0","g432mzcc","","<span style=""color:Black; font-size:50px;"">Agent A","null","","","","",""
"null","","","video-keyboard-response","337","600035","0.0-337.0","g432mzcc","","","null","","Agent A","scrambled","FOR_REV_BLOBBY_STIM/713684.bmp_pp85_L3_V1.0_veridical_freeview_isoFalse_fps144_reversed_REAL.mp4",""
"null","","","html-keyboard-response","338","601539","0.0-338.0","g432mzcc","","<span style=""color:Black; font-size:50px;"">Agent B","null","","","","",""
"null","","","video-keyboard-response","339","603124","0.0-339.0","g432mzcc","","","null","","Agent B","veridical","FOR_REV_BLOBBY_STIM/713684.bmp_pp85_L3_V1.0_veridical_freeview_isoFalse_fps144.mp4",""
"","","","call-function","340","603124","0.0-340.0","g432mzcc","","","","","","","",""
"2617.954999999958","{""judgement"":0}","[0]","survey-likert","341","605743","0.0-341.0","g432mzcc","","","","","","","","1"
"908.3699999999953","{""confidence"":1}","[0]","survey-likert","342","606652","0.0-342.0","g432mzcc","","","","","","","",""
"","","","call-function","343","606653","0.0-343.0","g432mzcc","","","","","","","",""
"null","","","html-keyboard-response","344","608159","0.0-344.0","g432mzcc","","<span style=""color:Black; font-size:50px;"">Agent A","null","","","","",""
"null","","","video-keyboard-response","345","610699","0.0-345.0","g432mzcc","","","null","","Agent A","veridical","FOR_REV_BLOBBY_STIM/713760.bmp_pp81_L1_V1.0_veridical_freeview_isoFalse_fps144.mp4",""
"null","","","html-keyboard-response","346","612206","0.0-346.0","g432mzcc","","<span style=""color:Black; font-size:50px;"">Agent B","null","","","","",""
"null","","","video-keyboard-response","347","614746","0.0-347.0","g432mzcc","","","null","","Agent B","scrambled","FOR_REV_BLOBBY_STIM/713760.bmp_pp81_L1_V1.0_veridical_freeview_isoFalse_fps144_reversed_REAL.mp4",""
"","","","call-function","348","614747","0.0-348.0","g432mzcc","","","","","","","",""
"2595.655000000028","{""judgement"":1}","[0]","survey-likert","349","617343","0.0-349.0","g432mzcc","","","","","","","","0"
"1628.6300000000047","{""confidence"":2}","[0]","survey-likert","350","618973","0.0-350.0","g432mzcc","","","","","","","",""
"","","","call-function","351","618974","0.0-351.0","g432mzcc","","","","","","","",""
"null","","","html-keyboard-response","352","620479","0.0-352.0","g432mzcc","","<span style=""color:Black; font-size:50px;"">Agent A","null","","","","",""
"null","","","video-keyboard-response","353","623291","0.0-353.0","g432mzcc","","","null","","Agent A","veridical","FOR_REV_BLOBBY_STIM/1159777.bmp_pp77_L3_V1.0_veridical_freeview_isoFalse_fps144.mp4",""
"null","","","html-keyboard-response","354","624793","0.0-354.0","g432mzcc","","<span style=""color:Black; font-size:50px;"">Agent B","null","","","","",""
"null","","","video-keyboard-response","355","627605","0.0-355.0","g432mzcc","","","null","","Agent B","scrambled","FOR_REV_BLOBBY_STIM/1159777.bmp_pp77_L3_V1.0_veridical_freeview_isoFalse_fps144_reversed_REAL.mp4",""
"","","","call-function","356","627605","0.0-356.0","g432mzcc","","","","","","","",""
"1307.655000000028","{""judgement"":0}","[0]","survey-likert","357","628914","0.0-357.0","g432mzcc","","","","","","","","0"
"3034.875","{""confidence"":3}","[0]","survey-likert","358","631950","0.0-358.0","g432mzcc","","","","","","","",""
"","","","call-function","359","631951","0.0-359.0","g432mzcc","","","","","","","",""
"null","","","html-keyboard-response","360","633452","0.0-360.0","g432mzcc","","<span style=""color:Black; font-size:50px;"">Agent A","null","","","","",""
"null","","","video-keyboard-response","361","636248","0.0-361.0","g432mzcc","","","null","","Agent A","scrambled","FOR_REV_BLOBBY_STIM/1592499.bmp_pp96_L2_V1.0_veridical_freeview_isoFalse_fps144_reversed_REAL.mp4",""
"null","","","html-keyboard-response","362","637750","0.0-362.0","g432mzcc","","<span style=""color:Black; font-size:50px;"">Agent B","null","","","","",""
"null","","","video-keyboard-response","363","640539","0.0-363.0","g432mzcc","","","null","","Agent B","veridical","FOR_REV_BLOBBY_STIM/1592499.bmp_pp96_L2_V1.0_veridical_freeview_isoFalse_fps144.mp4",""
"","","","call-function","364","640539","0.0-364.0","g432mzcc","","","","","","","",""
"1700.4450000000652","{""judgement"":1}","[0]","survey-likert","365","642241","0.0-365.0","g432mzcc","","","","","","","","1"
"2247.079999999958","{""confidence"":2}","[0]","survey-likert","366","644489","0.0-366.0","g432mzcc","","","","","","","",""
"","","","call-function","367","644490","0.0-367.0","g432mzcc","","","","","","","",""
"null","","","html-keyboard-response","368","645993","0.0-368.0","g432mzcc","","<span style=""color:Black; font-size:50px;"">Agent A","null","","","","",""
"null","","","video-keyboard-response","369","648841","0.0-369.0","g432mzcc","","","null","","Agent A","veridical","FOR_REV_BLOBBY_STIM/713403.bmp_pp80_L3_V1.0_veridical_freeview_isoFalse_fps144.mp4",""
"null","","","html-keyboard-response","370","650346","0.0-370.0","g432mzcc","","<span style=""color:Black; font-size:50px;"">Agent B","null","","","","",""
"null","","","video-keyboard-response","371","653166","0.0-371.0","g432mzcc","","","null","","Agent B","scrambled","FOR_REV_BLOBBY_STIM/713403.bmp_pp80_L3_V1.0_veridical_freeview_isoFalse_fps144_reversed_REAL.mp4",""
"","","","call-function","372","653167","0.0-372.0","g432mzcc","","","","","","","",""
"1456.5899999999674","{""judgement"":1}","[0]","survey-likert","373","654625","0.0-373.0","g432mzcc","","","","","","","","0"
"1536.7700000000186","{""confidence"":0}","[0]","survey-likert","374","656164","0.0-374.0","g432mzcc","","","","","","","",""
"","","","call-function","375","656165","0.0-375.0","g432mzcc","","","","","","","",""
"null","","","html-keyboard-response","376","657668","0.0-376.0","g432mzcc","","<span style=""color:Black; font-size:50px;"">Agent A","null","","","","",""
"null","","","video-keyboard-response","377","660302","0.0-377.0","g432mzcc","","","null","","Agent A","scrambled","FOR_REV_BLOBBY_STIM/498149.bmp_pp99_L2_V1.0_veridical_freeview_isoFalse_fps144_reversed_REAL.mp4",""
"null","","","html-keyboard-response","378","661806","0.0-378.0","g432mzcc","","<span style=""color:Black; font-size:50px;"">Agent B","null","","","","",""
"null","","","video-keyboard-response","379","664441","0.0-379.0","g432mzcc","","","null","","Agent B","veridical","FOR_REV_BLOBBY_STIM/498149.bmp_pp99_L2_V1.0_veridical_freeview_isoFalse_fps144.mp4",""
"","","","call-function","380","664441","0.0-380.0","g432mzcc","","","","","","","",""
"6769.709999999963","{""judgement"":0}","[0]","survey-likert","381","671212","0.0-381.0","g432mzcc","","","","","","","","1"
"1340.9150000000373","{""confidence"":0}","[0]","survey-likert","382","672555","0.0-382.0","g432mzcc","","","","","","","",""
"","","","call-function","383","672555","0.0-383.0","g432mzcc","","","","","","","",""
"null","","","html-keyboard-response","384","674057","0.0-384.0","g432mzcc","","<span style=""color:Black; font-size:50px;"">Agent A","null","","","","",""
"null","","","video-keyboard-response","385","676595","0.0-385.0","g432mzcc","","","null","","Agent A","veridical","FOR_REV_BLOBBY_STIM/1591876.bmp_pp63_L1_V1.0_veridical_freeview_isoFalse_fps144.mp4",""
"null","","","html-keyboard-response","386","678097","0.0-386.0","g432mzcc","","<span style=""color:Black; font-size:50px;"">Agent B","null","","","","",""
"null","","","video-keyboard-response","387","680626","0.0-387.0","g432mzcc","","","null","","Agent B","scrambled","FOR_REV_BLOBBY_STIM/1591876.bmp_pp63_L1_V1.0_veridical_freeview_isoFalse_fps144_reversed_REAL.mp4",""
"","","","call-function","388","680626","0.0-388.0","g432mzcc","","","","","","","",""
"2948.9150000000373","{""judgement"":0}","[0]","survey-likert","389","683576","0.0-389.0","g432mzcc","","","","","","","","0"
"893.8299999999581","{""confidence"":3}","[0]","survey-likert","390","684471","0.0-390.0","g432mzcc","","","","","","","",""
"","","","call-function","391","684472","0.0-391.0","g432mzcc","","","","","","","",""
"null","","","html-keyboard-response","392","685976","0.0-392.0","g432mzcc","","<span style=""color:Black; font-size:50px;"">Agent A","null","","","","",""
"null","","","video-keyboard-response","393","688692","0.0-393.0","g432mzcc","","","null","","Agent A","veridical","FOR_REV_BLOBBY_STIM/1160168.bmp_pp53_L2_V1.0_veridical_freeview_isoFalse_fps144.mp4",""
"null","","","html-keyboard-response","394","690196","0.0-394.0","g432mzcc","","<span style=""color:Black; font-size:50px;"">Agent B","null","","","","",""
"null","","","video-keyboard-response","395","692931","0.0-395.0","g432mzcc","","","null","","Agent B","scrambled","FOR_REV_BLOBBY_STIM/1160168.bmp_pp53_L2_V1.0_veridical_freeview_isoFalse_fps144_reversed_REAL.mp4",""
"","","","call-function","396","692932","0.0-396.0","g432mzcc","","","","","","","",""
"2310.7900000000373","{""judgement"":0}","[0]","survey-likert","397","695244","0.0-397.0","g432mzcc","","","","","","","","0"
"883.7950000000419","{""confidence"":1}","[0]","survey-likert","398","696129","0.0-398.0","g432mzcc","","","","","","","",""
"","","","call-function","399","696130","0.0-399.0","g432mzcc","","","","","","","",""
"null","","","html-keyboard-response","400","697632","0.0-400.0","g432mzcc","","<span style=""color:Black; font-size:50px;"">Agent A","null","","","","",""
"null","","","video-keyboard-response","401","700485","0.0-401.0","g432mzcc","","","null","","Agent A","scrambled","FOR_REV_BLOBBY_STIM/1592807.bmp_pp68_L1_V1.0_veridical_freeview_isoFalse_fps144_reversed_REAL.mp4",""
"null","","","html-keyboard-response","402","701987","0.0-402.0","g432mzcc","","<span style=""color:Black; font-size:50px;"">Agent B","null","","","","",""
"null","","","video-keyboard-response","403","704842","0.0-403.0","g432mzcc","","","null","","Agent B","veridical","FOR_REV_BLOBBY_STIM/1592807.bmp_pp68_L1_V1.0_veridical_freeview_isoFalse_fps144.mp4",""
"","","","call-function","404","704842","0.0-404.0","g432mzcc","","","","","","","",""
"1989.579999999958","{""judgement"":1}","[0]","survey-likert","405","706833","0.0-405.0","g432mzcc","","","","","","","","1"
"1950.3499999999767","{""confidence"":0}","[0]","survey-likert","406","708785","0.0-406.0","g432mzcc","","","","","","","",""
"","","","call-function","407","708786","0.0-407.0","g432mzcc","","","","","","","",""
"null","","","html-keyboard-response","408","710290","0.0-408.0","g432mzcc","","<span style=""color:Black; font-size:50px;"">Agent A","null","","","","",""
"null","","","video-keyboard-response","409","713176","0.0-409.0","g432mzcc","","","null","","Agent A","veridical","FOR_REV_BLOBBY_STIM/1159447.bmp_pp70_L2_V1.0_veridical_freeview_isoFalse_fps144.mp4",""
"null","","","html-keyboard-response","410","714681","0.0-410.0","g432mzcc","","<span style=""color:Black; font-size:50px;"">Agent B","null","","","","",""
"null","","","video-keyboard-response","411","717572","0.0-411.0","g432mzcc","","","null","","Agent B","scrambled","FOR_REV_BLOBBY_STIM/1159447.bmp_pp70_L2_V1.0_veridical_freeview_isoFalse_fps144_reversed_REAL.mp4",""
"","","","call-function","412","717573","0.0-412.0","g432mzcc","","","","","","","",""
"2184.20000000007","{""judgement"":0}","[0]","survey-likert","413","719760","0.0-413.0","g432mzcc","","","","","","","","0"
"1306.3400000000838","{""confidence"":3}","[0]","survey-likert","414","721068","0.0-414.0","g432mzcc","","","","","","","",""
"54543.05500000005","","","instructions","415","775611","0.0-415.0","g432mzcc","[{""page_index"":0,""viewing_time"":1224.5100000000093},{""page_index"":1,""viewing_time"":52329.09999999998},{""page_index"":2,""viewing_time"":989.2900000000373}]","","","","","","",""
"2322.9899999999907","","","instructions","416","777935","0.0-416.0","g432mzcc","[{""page_index"":0,""viewing_time"":518.8000000000466},{""page_index"":1,""viewing_time"":1149.3699999999953},{""page_index"":2,""viewing_time"":654.7149999999674}]","","","","","","",""
"","","","call-function","417","777936","0.0-417.0","g432mzcc","","","","","","","",""
"null","","","html-keyboard-response","418","779439","0.0-418.0","g432mzcc","","<span style=""color:Black; font-size:50px;"">Agent A","null","","","","",""
"null","","","video-keyboard-response","419","782027","0.0-419.0","g432mzcc","","","null","","Agent A","scrambled","FOR_REV_BLOBBY_STIM/1593146.bmp_pp93_L1_V1.0_veridical_freeview_isoFalse_fps144_reversed_REAL.mp4",""
"null","","","html-keyboard-response","420","783530","0.0-420.0","g432mzcc","","<span style=""color:Black; font-size:50px;"">Agent B","null","","","","",""
"null","","","video-keyboard-response","421","786137","0.0-421.0","g432mzcc","","","null","","Agent B","veridical","FOR_REV_BLOBBY_STIM/1593146.bmp_pp93_L1_V1.0_veridical_freeview_isoFalse_fps144.mp4",""
"","","","call-function","422","786138","0.0-422.0","g432mzcc","","","","","","","",""
"2466.4599999999627","{""judgement"":1}","[0]","survey-likert","423","788606","0.0-423.0","g432mzcc","","","","","","","","1"
"1489.6800000000512","{""confidence"":3}","[0]","survey-likert","424","790097","0.0-424.0","g432mzcc","","","","","","","",""
"","","","call-function","425","790097","0.0-425.0","g432mzcc","","","","","","","",""
"null","","","html-keyboard-response","426","791602","0.0-426.0","g432mzcc","","<span style=""color:Black; font-size:50px;"">Agent A","null","","","","",""
"null","","","video-keyboard-response","427","794382","0.0-427.0","g432mzcc","","","null","","Agent A","scrambled","FOR_REV_BLOBBY_STIM/713135.bmp_pp54_L2_V1.0_veridical_freeview_isoFalse_fps144_reversed_REAL.mp4",""
"null","","","html-keyboard-response","428","795887","0.0-428.0","g432mzcc","","<span style=""color:Black; font-size:50px;"">Agent B","null","","","","",""
"null","","","video-keyboard-response","429","798665","0.0-429.0","g432mzcc","","","null","","Agent B","veridical","FOR_REV_BLOBBY_STIM/713135.bmp_pp54_L2_V1.0_veridical_freeview_isoFalse_fps144.mp4",""
"","","","call-function","430","798666","0.0-430.0","g432mzcc","","","","","","","",""
"1891.6899999999441","{""judgement"":1}","[0]","survey-likert","431","800558","0.0-431.0","g432mzcc","","","","","","","","1"
"1403.265000000014","{""confidence"":2}","[0]","survey-likert","432","801963","0.0-432.0","g432mzcc","","","","","","","",""
"","","","call-function","433","801963","0.0-433.0","g432mzcc","","","","","","","",""
"null","","","html-keyboard-response","434","803470","0.0-434.0","g432mzcc","","<span style=""color:Black; font-size:50px;"">Agent A","null","","","","",""
"null","","","video-keyboard-response","435","806289","0.0-435.0","g432mzcc","","","null","","Agent A","veridical","FOR_REV_BLOBBY_STIM/1592351.bmp_pp51_L1_V1.0_veridical_freeview_isoFalse_fps144.mp4",""
"null","","","html-keyboard-response","436","807794","0.0-436.0","g432mzcc","","<span style=""color:Black; font-size:50px;"">Agent B","null","","","","",""
"null","","","video-keyboard-response","437","810630","0.0-437.0","g432mzcc","","","null","","Agent B","scrambled","FOR_REV_BLOBBY_STIM/1592351.bmp_pp51_L1_V1.0_veridical_freeview_isoFalse_fps144_reversed_REAL.mp4",""
"","","","call-function","438","810630","0.0-438.0","g432mzcc","","","","","","","",""
"1540.3200000000652","{""judgement"":1}","[0]","survey-likert","439","812171","0.0-439.0","g432mzcc","","","","","","","","0"
"2445.170000000042","{""confidence"":1}","[0]","survey-likert","440","814618","0.0-440.0","g432mzcc","","","","","","","",""
"","","","call-function","441","814618","0.0-441.0","g432mzcc","","","","","","","",""
"null","","","html-keyboard-response","442","816120","0.0-442.0","g432mzcc","","<span style=""color:Black; font-size:50px;"">Agent A","null","","","","",""
"null","","","video-keyboard-response","443","818963","0.0-443.0","g432mzcc","","","null","","Agent A","veridical","FOR_REV_BLOBBY_STIM/1159882.bmp_pp61_L2_V1.0_veridical_freeview_isoFalse_fps144.mp4",""
"null","","","html-keyboard-response","444","820469","0.0-444.0","g432mzcc","","<span style=""color:Black; font-size:50px;"">Agent B","null","","","","",""
"null","","","video-keyboard-response","445","823310","0.0-445.0","g432mzcc","","","null","","Agent B","scrambled","FOR_REV_BLOBBY_STIM/1159882.bmp_pp61_L2_V1.0_veridical_freeview_isoFalse_fps144_reversed_REAL.mp4",""
"","","","call-function","446","823311","0.0-446.0","g432mzcc","","","","","","","",""
"3652.5100000000093","{""judgement"":1}","[0]","survey-likert","447","826964","0.0-447.0","g432mzcc","","","","","","","","0"
"1617.8199999999488","{""confidence"":1}","[0]","survey-likert","448","828583","0.0-448.0","g432mzcc","","","","","","","",""
"","","","call-function","449","828584","0.0-449.0","g432mzcc","","","","","","","",""
"null","","","html-keyboard-response","450","830090","0.0-450.0","g432mzcc","","<span style=""color:Black; font-size:50px;"">Agent A","null","","","","",""
"null","","","video-keyboard-response","451","832868","0.0-451.0","g432mzcc","","","null","","Agent A","scrambled","FOR_REV_BLOBBY_STIM/1593041.bmp_pp58_L1_V1.0_veridical_freeview_isoFalse_fps144_reversed_REAL.mp4",""
"null","","","html-keyboard-response","452","834373","0.0-452.0","g432mzcc","","<span style=""color:Black; font-size:50px;"">Agent B","null","","","","",""
"null","","","video-keyboard-response","453","837154","0.0-453.0","g432mzcc","","","null","","Agent B","veridical","FOR_REV_BLOBBY_STIM/1593041.bmp_pp58_L1_V1.0_veridical_freeview_isoFalse_fps144.mp4",""
"","","","call-function","454","837155","0.0-454.0","g432mzcc","","","","","","","",""
"2245.3800000000047","{""judgement"":1}","[0]","survey-likert","455","839401","0.0-455.0","g432mzcc","","","","","","","","1"
"1426.015000000014","{""confidence"":3}","[0]","survey-likert","456","840828","0.0-456.0","g432mzcc","","","","","","","",""
"","","","call-function","457","840829","0.0-457.0","g432mzcc","","","","","","","",""
"null","","","html-keyboard-response","458","842335","0.0-458.0","g432mzcc","","<span style=""color:Black; font-size:50px;"">Agent A","null","","","","",""
"null","","","video-keyboard-response","459","845064","0.0-459.0","g432mzcc","","","null","","Agent A","veridical","FOR_REV_BLOBBY_STIM/285933.bmp_pp81_L1_V1.0_veridical_freeview_isoFalse_fps144.mp4",""
"null","","","html-keyboard-response","460","846567","0.0-460.0","g432mzcc","","<span style=""color:Black; font-size:50px;"">Agent B","null","","","","",""
"null","","","video-keyboard-response","461","849294","0.0-461.0","g432mzcc","","","null","","Agent B","scrambled","FOR_REV_BLOBBY_STIM/285933.bmp_pp81_L1_V1.0_veridical_freeview_isoFalse_fps144_reversed_REAL.mp4",""
"","","","call-function","462","849296","0.0-462.0","g432mzcc","","","","","","","",""
"3157.9799999999814","{""judgement"":1}","[0]","survey-likert","463","852455","0.0-463.0","g432mzcc","","","","","","","","0"
"2062.4250000000466","{""confidence"":3}","[0]","survey-likert","464","854519","0.0-464.0","g432mzcc","","","","","","","",""
"","","","call-function","465","854520","0.0-465.0","g432mzcc","","","","","","","",""
"null","","","html-keyboard-response","466","856023","0.0-466.0","g432mzcc","","<span style=""color:Black; font-size:50px;"">Agent A","null","","","","",""
"null","","","video-keyboard-response","467","858698","0.0-467.0","g432mzcc","","","null","","Agent A","scrambled","FOR_REV_BLOBBY_STIM/1592727.bmp_pp59_L3_V1.0_veridical_freeview_isoFalse_fps144_reversed_REAL.mp4",""
"null","","","html-keyboard-response","468","860202","0.0-468.0","g432mzcc","","<span style=""color:Black; font-size:50px;"">Agent B","null","","","","",""
"null","","","video-keyboard-response","469","862877","0.0-469.0","g432mzcc","","","null","","Agent B","veridical","FOR_REV_BLOBBY_STIM/1592727.bmp_pp59_L3_V1.0_veridical_freeview_isoFalse_fps144.mp4",""
"","","","call-function","470","862877","0.0-470.0","g432mzcc","","","","","","","",""
"1398.4700000000885","{""judgement"":0}","[0]","survey-likert","471","864277","0.0-471.0","g432mzcc","","","","","","","","1"
"908.609999999986","{""confidence"":3}","[0]","survey-likert","472","865187","0.0-472.0","g432mzcc","","","","","","","",""
"","","","call-function","473","865188","0.0-473.0","g432mzcc","","","","","","","",""
"null","","","html-keyboard-response","474","866690","0.0-474.0","g432mzcc","","<span style=""color:Black; font-size:50px;"">Agent A","null","","","","",""
"null","","","video-keyboard-response","475","869456","0.0-475.0","g432mzcc","","","null","","Agent A","scrambled","FOR_REV_BLOBBY_STIM/1159621.bmp_pp92_L3_V1.0_veridical_freeview_isoFalse_fps144_reversed_REAL.mp4",""
"null","","","html-keyboard-response","476","870959","0.0-476.0","g432mzcc","","<span style=""color:Black; font-size:50px;"">Agent B","null","","","","",""
"null","","","video-keyboard-response","477","873724","0.0-477.0","g432mzcc","","","null","","Agent B","veridical","FOR_REV_BLOBBY_STIM/1159621.bmp_pp92_L3_V1.0_veridical_freeview_isoFalse_fps144.mp4",""
"","","","call-function","478","873725","0.0-478.0","g432mzcc","","","","","","","",""
"1291.6500000000233","{""judgement"":0}","[0]","survey-likert","479","875018","0.0-479.0","g432mzcc","","","","","","","","1"
"1317.765000000014","{""confidence"":2}","[0]","survey-likert","480","876337","0.0-480.0","g432mzcc","","","","","","","",""
"","","","call-function","481","876337","0.0-481.0","g432mzcc","","","","","","","",""
"null","","","html-keyboard-response","482","877842","0.0-482.0","g432mzcc","","<span style=""color:Black; font-size:50px;"">Agent A","null","","","","",""
"null","","","video-keyboard-response","483","880621","0.0-483.0","g432mzcc","","","null","","Agent A","veridical","FOR_REV_BLOBBY_STIM/1159446.bmp_pp60_L3_V1.0_veridical_freeview_isoFalse_fps144.mp4",""
"null","","","html-keyboard-response","484","882122","0.0-484.0","g432mzcc","","<span style=""color:Black; font-size:50px;"">Agent B","null","","","","",""
"null","","","video-keyboard-response","485","884864","0.0-485.0","g432mzcc","","","null","","Agent B","scrambled","FOR_REV_BLOBBY_STIM/1159446.bmp_pp60_L3_V1.0_veridical_freeview_isoFalse_fps144_reversed_REAL.mp4",""
"","","","call-function","486","884864","0.0-486.0","g432mzcc","","","","","","","",""
"1080.5899999999674","{""judgement"":0}","[0]","survey-likert","487","885946","0.0-487.0","g432mzcc","","","","","","","","0"
"866.5799999999581","{""confidence"":3}","[0]","survey-likert","488","886814","0.0-488.0","g432mzcc","","","","","","","",""
"","","","call-function","489","886814","0.0-489.0","g432mzcc","","","","","","","",""
"null","","","html-keyboard-response","490","888319","0.0-490.0","g432mzcc","","<span style=""color:Black; font-size:50px;"">Agent A","null","","","","",""
"null","","","video-keyboard-response","491","891140","0.0-491.0","g432mzcc","","","null","","Agent A","scrambled","FOR_REV_BLOBBY_STIM/1159855.bmp_pp99_L2_V1.0_veridical_freeview_isoFalse_fps144_reversed_REAL.mp4",""
"null","","","html-keyboard-response","492","892644","0.0-492.0","g432mzcc","","<span style=""color:Black; font-size:50px;"">Agent B","null","","","","",""
"null","","","video-keyboard-response","493","895444","0.0-493.0","g432mzcc","","","null","","Agent B","veridical","FOR_REV_BLOBBY_STIM/1159855.bmp_pp99_L2_V1.0_veridical_freeview_isoFalse_fps144.mp4",""
"","","","call-function","494","895445","0.0-494.0","g432mzcc","","","","","","","",""
"6149.45000000007","{""judgement"":1}","[0]","survey-likert","495","901596","0.0-495.0","g432mzcc","","","","","","","","1"
"1255.375","{""confidence"":1}","[0]","survey-likert","496","902852","0.0-496.0","g432mzcc","","","","","","","",""
"46855.71499999997","","","instructions","497","949708","0.0-497.0","g432mzcc","[{""page_index"":0,""viewing_time"":45482.45999999996},{""page_index"":1,""viewing_time"":738.234999999986},{""page_index"":2,""viewing_time"":634.8549999999814}]","","","","","","",""
"2295.155000000028","","","instructions","498","952004","0.0-498.0","g432mzcc","[{""page_index"":0,""viewing_time"":514.9799999999814},{""page_index"":1,""viewing_time"":1190.0750000000698},{""page_index"":2,""viewing_time"":589.9899999999907}]","","","","","","",""
"","","","call-function","499","952005","0.0-499.0","g432mzcc","","","","","","","",""
"null","","","html-keyboard-response","500","953506","0.0-500.0","g432mzcc","","<span style=""color:Black; font-size:50px;"">Agent A","null","","","","",""
"null","","","video-keyboard-response","501","956166","0.0-501.0","g432mzcc","","","null","","Agent A","veridical","FOR_REV_BLOBBY_STIM/713211.bmp_pp100_L3_V1.0_veridical_freeview_isoFalse_fps144.mp4",""
"null","","","html-keyboard-response","502","957669","0.0-502.0","g432mzcc","","<span style=""color:Black; font-size:50px;"">Agent B","null","","","","",""
"null","","","video-keyboard-response","503","960330","0.0-503.0","g432mzcc","","","null","","Agent B","scrambled","FOR_REV_BLOBBY_STIM/713211.bmp_pp100_L3_V1.0_veridical_freeview_isoFalse_fps144_reversed_REAL.mp4",""
"","","","call-function","504","960331","0.0-504.0","g432mzcc","","","","","","","",""
"1780.9150000000373","{""judgement"":0}","[0]","survey-likert","505","962113","0.0-505.0","g432mzcc","","","","","","","","0"
"929.8199999999488","{""confidence"":3}","[0]","survey-likert","506","963044","0.0-506.0","g432mzcc","","","","","","","",""
"","","","call-function","507","963044","0.0-507.0","g432mzcc","","","","","","","",""
"null","","","html-keyboard-response","508","964551","0.0-508.0","g432mzcc","","<span style=""color:Black; font-size:50px;"">Agent A","null","","","","",""
"null","","","video-keyboard-response","509","967247","0.0-509.0","g432mzcc","","","null","","Agent A","veridical","FOR_REV_BLOBBY_STIM/1592372.bmp_pp76_L1_V1.0_veridical_freeview_isoFalse_fps144.mp4",""
"null","","","html-keyboard-response","510","968751","0.0-510.0","g432mzcc","","<span style=""color:Black; font-size:50px;"">Agent B","null","","","","",""
"null","","","video-keyboard-response","511","971434","0.0-511.0","g432mzcc","","","null","","Agent B","scrambled","FOR_REV_BLOBBY_STIM/1592372.bmp_pp76_L1_V1.0_veridical_freeview_isoFalse_fps144_reversed_REAL.mp4",""
"","","","call-function","512","971434","0.0-512.0","g432mzcc","","","","","","","",""
"1651.5500000000466","{""judgement"":1}","[0]","survey-likert","513","973087","0.0-513.0","g432mzcc","","","","","","","","0"
"846.4399999999441","{""confidence"":2}","[0]","survey-likert","514","973934","0.0-514.0","g432mzcc","","","","","","","",""
"","","","call-function","515","973935","0.0-515.0","g432mzcc","","","","","","","",""
"null","","","html-keyboard-response","516","975439","0.0-516.0","g432mzcc","","<span style=""color:Black; font-size:50px;"">Agent A","null","","","","",""
"null","","","video-keyboard-response","517","978333","0.0-517.0","g432mzcc","","","null","","Agent A","scrambled","FOR_REV_BLOBBY_STIM/713089.bmp_pp60_L3_V1.0_veridical_freeview_isoFalse_fps144_reversed_REAL.mp4",""
"null","","","html-keyboard-response","518","979838","0.0-518.0","g432mzcc","","<span style=""color:Black; font-size:50px;"">Agent B","null","","","","",""
"null","","","video-keyboard-response","519","982723","0.0-519.0","g432mzcc","","","null","","Agent B","veridical","FOR_REV_BLOBBY_STIM/713089.bmp_pp60_L3_V1.0_veridical_freeview_isoFalse_fps144.mp4",""
"","","","call-function","520","982724","0.0-520.0","g432mzcc","","","","","","","",""
"1531.9550000000745","{""judgement"":1}","[0]","survey-likert","521","984257","0.0-521.0","g432mzcc","","","","","","","","1"
"857.8000000000466","{""confidence"":3}","[0]","survey-likert","522","985116","0.0-522.0","g432mzcc","","","","","","","",""
"","","","call-function","523","985116","0.0-523.0","g432mzcc","","","","","","","",""
"null","","","html-keyboard-response","524","986622","0.0-524.0","g432mzcc","","<span style=""color:Black; font-size:50px;"">Agent A","null","","","","",""
"null","","","video-keyboard-response","525","989450","0.0-525.0","g432mzcc","","","null","","Agent A","veridical","FOR_REV_BLOBBY_STIM/1592362.bmp_pp95_L2_V1.0_veridical_freeview_isoFalse_fps144.mp4",""
"null","","","html-keyboard-response","526","990954","0.0-526.0","g432mzcc","","<span style=""color:Black; font-size:50px;"">Agent B","null","","","","",""
"null","","","video-keyboard-response","527","993780","0.0-527.0","g432mzcc","","","null","","Agent B","scrambled","FOR_REV_BLOBBY_STIM/1592362.bmp_pp95_L2_V1.0_veridical_freeview_isoFalse_fps144_reversed_REAL.mp4",""
"","","","call-function","528","993780","0.0-528.0","g432mzcc","","","","","","","",""
"1508.4649999999674","{""judgement"":0}","[0]","survey-likert","529","995290","0.0-529.0","g432mzcc","","","","","","","","0"
"943.0549999999348","{""confidence"":3}","[0]","survey-likert","530","996234","0.0-530.0","g432mzcc","","","","","","","",""
"","","","call-function","531","996235","0.0-531.0","g432mzcc","","","","","","","",""
"null","","","html-keyboard-response","532","997737","0.0-532.0","g432mzcc","","<span style=""color:Black; font-size:50px;"">Agent A","null","","","","",""
"null","","","video-keyboard-response","533","1000292","0.0-533.0","g432mzcc","","","null","","Agent A","scrambled","FOR_REV_BLOBBY_STIM/1159813.bmp_pp79_L2_V1.0_veridical_freeview_isoFalse_fps144_reversed_REAL.mp4",""
"null","","","html-keyboard-response","534","1001798","0.0-534.0","g432mzcc","","<span style=""color:Black; font-size:50px;"">Agent B","null","","","","",""
"null","","","video-keyboard-response","535","1004351","0.0-535.0","g432mzcc","","","null","","Agent B","veridical","FOR_REV_BLOBBY_STIM/1159813.bmp_pp79_L2_V1.0_veridical_freeview_isoFalse_fps144.mp4",""
"","","","call-function","536","1004352","0.0-536.0","g432mzcc","","","","","","","",""
"2173.5250000000233","{""judgement"":0}","[0]","survey-likert","537","1006527","0.0-537.0","g432mzcc","","","","","","","","1"
"1865.9450000000652","{""confidence"":0}","[0]","survey-likert","538","1008396","0.0-538.0","g432mzcc","","","","","","","",""
"","","","call-function","539","1008397","0.0-539.0","g432mzcc","","","","","","","",""
"null","","","html-keyboard-response","540","1009904","0.0-540.0","g432mzcc","","<span style=""color:Black; font-size:50px;"">Agent A","null","","","","",""
"null","","","video-keyboard-response","541","1012682","0.0-541.0","g432mzcc","","","null","","Agent A","scrambled","FOR_REV_BLOBBY_STIM/1159768.bmp_pp89_L1_V1.0_veridical_freeview_isoFalse_fps144_reversed_REAL.mp4",""
"null","","","html-keyboard-response","542","1014185","0.0-542.0","g432mzcc","","<span style=""color:Black; font-size:50px;"">Agent B","null","","","","",""
"null","","","video-keyboard-response","543","1016956","0.0-543.0","g432mzcc","","","null","","Agent B","veridical","FOR_REV_BLOBBY_STIM/1159768.bmp_pp89_L1_V1.0_veridical_freeview_isoFalse_fps144.mp4",""
"","","","call-function","544","1016957","0.0-544.0","g432mzcc","","","","","","","",""
"1679.3049999999348","{""judgement"":1}","[0]","survey-likert","545","1018638","0.0-545.0","g432mzcc","","","","","","","","1"
"1576.9450000000652","{""confidence"":1}","[0]","survey-likert","546","1020217","0.0-546.0","g432mzcc","","","","","","","",""
"","","","call-function","547","1020218","0.0-547.0","g432mzcc","","","","","","","",""
"null","","","html-keyboard-response","548","1021722","0.0-548.0","g432mzcc","","<span style=""color:Black; font-size:50px;"">Agent A","null","","","","",""
"null","","","video-keyboard-response","549","1024308","0.0-549.0","g432mzcc","","","null","","Agent A","scrambled","FOR_REV_BLOBBY_STIM/286001.bmp_pp54_L2_V1.0_veridical_freeview_isoFalse_fps144_reversed_REAL.mp4",""
"null","","","html-keyboard-response","550","1025813","0.0-550.0","g432mzcc","","<span style=""color:Black; font-size:50px;"">Agent B","null","","","","",""
"null","","","video-keyboard-response","551","1028397","0.0-551.0","g432mzcc","","","null","","Agent B","veridical","FOR_REV_BLOBBY_STIM/286001.bmp_pp54_L2_V1.0_veridical_freeview_isoFalse_fps144.mp4",""
"","","","call-function","552","1028397","0.0-552.0","g432mzcc","","","","","","","",""
"2166.920000000042","{""judgement"":1}","[0]","survey-likert","553","1030565","0.0-553.0","g432mzcc","","","","","","","","1"
"897.1650000000373","{""confidence"":0}","[0]","survey-likert","554","1031464","0.0-554.0","g432mzcc","","","","","","","",""
"","","","call-function","555","1031465","0.0-555.0","g432mzcc","","","","","","","",""
"null","","","html-keyboard-response","556","1032970","0.0-556.0","g432mzcc","","<span style=""color:Black; font-size:50px;"">Agent A","null","","","","",""
"null","","","video-keyboard-response","557","1035503","0.0-557.0","g432mzcc","","","null","","Agent A","scrambled","FOR_REV_BLOBBY_STIM/713513.bmp_pp62_L2_V1.0_veridical_freeview_isoFalse_fps144_reversed_REAL.mp4",""
"null","","","html-keyboard-response","558","1037008","0.0-558.0","g432mzcc","","<span style=""color:Black; font-size:50px;"">Agent B","null","","","","",""
"null","","","video-keyboard-response","559","1039536","0.0-559.0","g432mzcc","","","null","","Agent B","veridical","FOR_REV_BLOBBY_STIM/713513.bmp_pp62_L2_V1.0_veridical_freeview_isoFalse_fps144.mp4",""
"","","","call-function","560","1039537","0.0-560.0","g432mzcc","","","","","","","",""
"2338.125","{""judgement"":1}","[0]","survey-likert","561","1041876","0.0-561.0","g432mzcc","","","","","","","","1"
"1467.8049999999348","{""confidence"":1}","[0]","survey-likert","562","1043345","0.0-562.0","g432mzcc","","","","","","","",""
"","","","call-function","563","1043346","0.0-563.0","g432mzcc","","","","","","","",""
"null","","","html-keyboard-response","564","1044847","0.0-564.0","g432mzcc","","<span style=""color:Black; font-size:50px;"">Agent A","null","","","","",""
"null","","","video-keyboard-response","565","1047576","0.0-565.0","g432mzcc","","","null","","Agent A","scrambled","FOR_REV_BLOBBY_STIM/1592934.bmp_pp63_L1_V1.0_veridical_freeview_isoFalse_fps144_reversed_REAL.mp4",""
"null","","","html-keyboard-response","566","1049082","0.0-566.0","g432mzcc","","<span style=""color:Black; font-size:50px;"">Agent B","null","","","","",""
"null","","","video-keyboard-response","567","1052073","0.0-567.0","g432mzcc","","","null","","Agent B","veridical","FOR_REV_BLOBBY_STIM/1592934.bmp_pp63_L1_V1.0_veridical_freeview_isoFalse_fps144.mp4",""
"","","","call-function","568","1052073","0.0-568.0","g432mzcc","","","","","","","",""
"3516","{""judgement"":1}","[0]","survey-likert","569","1055590","0.0-569.0","g432mzcc","","","","","","","","1"
"2392.2649999998976","{""confidence"":1}","[0]","survey-likert","570","1057984","0.0-570.0","g432mzcc","","","","","","","",""
"","","","call-function","571","1057985","0.0-571.0","g432mzcc","","","","","","","",""
"null","","","html-keyboard-response","572","1059488","0.0-572.0","g432mzcc","","<span style=""color:Black; font-size:50px;"">Agent A","null","","","","",""
"null","","","video-keyboard-response","573","1062393","0.0-573.0","g432mzcc","","","null","","Agent A","veridical","FOR_REV_BLOBBY_STIM/285905.bmp_pp57_L1_V1.0_veridical_freeview_isoFalse_fps144.mp4",""
"null","","","html-keyboard-response","574","1063898","0.0-574.0","g432mzcc","","<span style=""color:Black; font-size:50px;"">Agent B","null","","","","",""
"null","","","video-keyboard-response","575","1066805","0.0-575.0","g432mzcc","","","null","","Agent B","scrambled","FOR_REV_BLOBBY_STIM/285905.bmp_pp57_L1_V1.0_veridical_freeview_isoFalse_fps144_reversed_REAL.mp4",""
"","","","call-function","576","1066805","0.0-576.0","g432mzcc","","","","","","","",""
"4497.564999999944","{""judgement"":0}","[0]","survey-likert","577","1071304","0.0-577.0","g432mzcc","","","","","","","","0"
"2135.8249999999534","{""confidence"":0}","[0]","survey-likert","578","1073441","0.0-578.0","g432mzcc","","","","","","","",""
"1483.2649999998976","","","instructions","579","1074925","0.0-579.0","g432mzcc","[{""page_index"":0,""viewing_time"":1483.0249999999069}]","","","","","","",""
"27943.01000000001","","","instructions","580","1102869","0.0-580.0","g432mzcc","[{""page_index"":0,""viewing_time"":27942.904999999795}]","","","","","","",""
"5688.6699999999255","{""post-1"":2}","[0]","survey-likert","581","1108559","0.0-581.0","g432mzcc","","","","","","","",""
"6444.5","{""post-1"":1}","[0]","survey-likert","582","1115005","0.0-582.0","g432mzcc","","","","","","","",""
"4698.590000000084","{""post-2"":2}","[0]","survey-likert","583","1119706","0.0-583.0","g432mzcc","","","","","","","",""
"4681.689999999944","{""post-2"":1}","[0]","survey-likert","584","1124390","0.0-584.0","g432mzcc","","","","","","","",""
"6638.090000000084","{""post-3"":3}","[0]","survey-likert","585","1131030","0.0-585.0","g432mzcc","","","","","","","",""
"5184.165000000037","{""post-3"":0}","[0]","survey-likert","586","1136216","0.0-586.0","g432mzcc","","","","","","","",""
"4026.369999999879","{""post-4"":3}","[0]","survey-likert","587","1140244","0.0-587.0","g432mzcc","","","","","","","",""
"1894.5449999999255","{""post-4"":0}","[0]","survey-likert","588","1142139","0.0-588.0","g432mzcc","","","","","","","",""
"4003.594999999972","{""post-5"":0}","[0]","survey-likert","589","1146144","0.0-589.0","g432mzcc","","","","","","","",""
"1562.8149999999441","{""post-5"":3}","[0]","survey-likert","590","1147708","0.0-590.0","g432mzcc","","","","","","","",""
"192741.69999999995","{""Q0"":""Much easier to judge this time. There were some bugs when you click buttons though (one click would click a button twice, skipping directions, but this did not impact my ability in the experiment as I had already read those directions before).""}","","survey-text","591","1340457","0.0-591.0","g432mzcc","","","","","","","",""
"80936.35499999998","{""Q0"":""It was easiest when the fake agent didn't look at a subject in particular first. That made that part easy. It was also just easier because there were images which gives so much more context than a black screen, because then you can explain the behavior. ""}","","survey-text","592","1421398","0.0-592.0","g432mzcc","","","","","","","",""
"34936.73999999999","{""Q0"":""Not remembering which agent was which after thinking through/tracing the look pattern""}","","survey-text","593","1456339","0.0-593.0","g432mzcc","","","","","","","",""
"1219.9399999999441","","","instructions","594","1457560","0.0-594.0","g432mzcc","[{""page_index"":0,""viewing_time"":1219.8000000000466}]","","","","","","",""
"164137.41999999993","{""Experimenter_end"":[""Printed ID# g432mzcc on consent form"",""Given subject SONA credit or payment"",""Given the subject debrief form""]}","[0]","survey-multi-select","595","1621700","0.0-595.0","g432mzcc","","","","","","","",""
