"rt","responses","question_order","trial_type","trial_index","time_elapsed","internal_node_id","ID","view_history","stimulus","key_press","value","agent","condition","image","correct_answer"
"54604.645000000004","{""Experimenter"":[""Confirmed subject's identity (ID card)"",""Confirmed normal or corrected-to-normal vision"",""Obtained consent (signature and date)"",""Checked the test room lighting"",""Checked computer screen lighting"",""Checked distance from screen to chin rest (50cm)"",""Cleaned and adjusted chin rest"",""Counterbalanced the order of the tasks"",""Opened the experiment in Firefox"",""Made the experiment full screen"",""Encouraged subject to silence phone, put away distractors, etc.""]}","[0]","survey-multi-select","0","54613","0.0-0.0","ggydg62k","","","","","","","",""
"25757.489999999998","","","instructions","1","80372","0.0-1.0","ggydg62k","[{""page_index"":0,""viewing_time"":25757.340000000004}]","","","","","","",""
"15540.775000000009","","","instructions","2","95913","0.0-2.0","ggydg62k","[{""page_index"":0,""viewing_time"":2579.675000000003},{""page_index"":1,""viewing_time"":7393.945000000007},{""page_index"":2,""viewing_time"":5567.034999999989}]","","","","","","",""
"3790.6600000000035","","","instructions","3","99705","0.0-3.0","ggydg62k","[{""page_index"":0,""viewing_time"":3790.5550000000076}]","","","","","","",""
"null","","","video-keyboard-response","4","102784","0.0-4.0","ggydg62k","","","null","","","","",""
"24741.86","","","instructions","5","127527","0.0-5.0","ggydg62k","[{""page_index"":0,""viewing_time"":3664.8350000000064},{""page_index"":1,""viewing_time"":3879.899999999994},{""page_index"":2,""viewing_time"":2361.0850000000064},{""page_index"":3,""viewing_time"":9490.845000000001},{""page_index"":4,""viewing_time"":5345.064999999988}]","","","","","","",""
"3907.590000000011","","","instructions","6","131435","0.0-6.0","ggydg62k","[{""page_index"":0,""viewing_time"":3907.465000000011}]","","","","","","",""
"","","","call-function","7","131435","0.0-7.0","ggydg62k","","","","","","","",""
"null","","","html-keyboard-response","8","132938","0.0-8.0","ggydg62k","","<span style=""color:Black; font-size:50px;"">Agent A","null","","","","",""
"null","","","video-keyboard-response","9","136013","0.0-9.0","ggydg62k","","","null","","Agent A","veridical","STIM_SET_1/1592581.bmp_pp100_L3_V1.0_veridical_freeview_isoFalse.mp4",""
"null","","","html-keyboard-response","10","137544","0.0-10.0","ggydg62k","","<span style=""color:Black; font-size:50px;"">Agent B","null","","","","",""
"null","","","video-keyboard-response","11","140620","0.0-11.0","ggydg62k","","","null","","Agent B","scrambled","STIM_SET_1/1592581.bmp_pp100_L3_V1.0_scrambled_freeview_isoFalse.mp4",""
"","","","call-function","12","140621","0.0-12.0","ggydg62k","","","","","","","",""
"3477.6050000000105","{""judgement"":0}","[0]","survey-likert","13","144100","0.0-13.0","ggydg62k","","","","","","","","0"
"2944.665000000008","{""confidence"":1}","[0]","survey-likert","14","147046","0.0-14.0","ggydg62k","","","","","","","",""
"","","","call-function","15","147047","0.0-15.0","ggydg62k","","","","","","","",""
"null","","","html-keyboard-response","16","148548","0.0-16.0","ggydg62k","","<span style=""color:Black; font-size:50px;"">Agent A","null","","","","",""
"null","","","video-keyboard-response","17","151615","0.0-17.0","ggydg62k","","","null","","Agent A","veridical","STIM_SET_1/1593035.bmp_pp94_L2_V1.0_veridical_freeview_isoFalse.mp4",""
"null","","","html-keyboard-response","18","153123","0.0-18.0","ggydg62k","","<span style=""color:Black; font-size:50px;"">Agent B","null","","","","",""
"null","","","video-keyboard-response","19","156190","0.0-19.0","ggydg62k","","","null","","Agent B","scrambled","STIM_SET_1/1593035.bmp_pp94_L2_V1.0_scrambled_freeview_isoFalse.mp4",""
"","","","call-function","20","156190","0.0-20.0","ggydg62k","","","","","","","",""
"2112.694999999978","{""judgement"":0}","[0]","survey-likert","21","158304","0.0-21.0","ggydg62k","","","","","","","","0"
"2588.609999999986","{""confidence"":2}","[0]","survey-likert","22","160894","0.0-22.0","ggydg62k","","","","","","","",""
"","","","call-function","23","160895","0.0-23.0","ggydg62k","","","","","","","",""
"null","","","html-keyboard-response","24","162398","0.0-24.0","ggydg62k","","<span style=""color:Black; font-size:50px;"">Agent A","null","","","","",""
"null","","","video-keyboard-response","25","165466","0.0-25.0","ggydg62k","","","null","","Agent A","scrambled","STIM_SET_1/713403.bmp_pp80_L3_V1.0_scrambled_freeview_isoFalse.mp4",""
"null","","","html-keyboard-response","26","166967","0.0-26.0","ggydg62k","","<span style=""color:Black; font-size:50px;"">Agent B","null","","","","",""
"null","","","video-keyboard-response","27","170073","0.0-27.0","ggydg62k","","","null","","Agent B","veridical","STIM_SET_1/713403.bmp_pp80_L3_V1.0_veridical_freeview_isoFalse.mp4",""
"","","","call-function","28","170073","0.0-28.0","ggydg62k","","","","","","","",""
"2801.1449999999895","{""judgement"":1}","[0]","survey-likert","29","172875","0.0-29.0","ggydg62k","","","","","","","","1"
"1768.5749999999825","{""confidence"":3}","[0]","survey-likert","30","174645","0.0-30.0","ggydg62k","","","","","","","",""
"","","","call-function","31","174646","0.0-31.0","ggydg62k","","","","","","","",""
"null","","","html-keyboard-response","32","176150","0.0-32.0","ggydg62k","","<span style=""color:Black; font-size:50px;"">Agent A","null","","","","",""
"null","","","video-keyboard-response","33","179268","0.0-33.0","ggydg62k","","","null","","Agent A","veridical","STIM_SET_1/713749.bmp_pp88_L2_V1.0_veridical_freeview_isoFalse.mp4",""
"null","","","html-keyboard-response","34","180773","0.0-34.0","ggydg62k","","<span style=""color:Black; font-size:50px;"">Agent B","null","","","","",""
"null","","","video-keyboard-response","35","183890","0.0-35.0","ggydg62k","","","null","","Agent B","scrambled","STIM_SET_1/713749.bmp_pp88_L2_V1.0_scrambled_freeview_isoFalse.mp4",""
"","","","call-function","36","183890","0.0-36.0","ggydg62k","","","","","","","",""
"1833.0849999999919","{""judgement"":0}","[0]","survey-likert","37","185724","0.0-37.0","ggydg62k","","","","","","","","0"
"2009.8099999999977","{""confidence"":3}","[0]","survey-likert","38","187735","0.0-38.0","ggydg62k","","","","","","","",""
"","","","call-function","39","187735","0.0-39.0","ggydg62k","","","","","","","",""
"null","","","html-keyboard-response","40","189240","0.0-40.0","ggydg62k","","<span style=""color:Black; font-size:50px;"">Agent A","null","","","","",""
"null","","","video-keyboard-response","41","192357","0.0-41.0","ggydg62k","","","null","","Agent A","veridical","STIM_SET_1/713593.bmp_pp64_L1_V1.0_veridical_freeview_isoFalse.mp4",""
"null","","","html-keyboard-response","42","193862","0.0-42.0","ggydg62k","","<span style=""color:Black; font-size:50px;"">Agent B","null","","","","",""
"null","","","video-keyboard-response","43","196982","0.0-43.0","ggydg62k","","","null","","Agent B","scrambled","STIM_SET_1/713593.bmp_pp64_L1_V1.0_scrambled_freeview_isoFalse.mp4",""
"","","","call-function","44","196983","0.0-44.0","ggydg62k","","","","","","","",""
"1812.5650000000023","{""judgement"":0}","[0]","survey-likert","45","198796","0.0-45.0","ggydg62k","","","","","","","","0"
"2771.75","{""confidence"":3}","[0]","survey-likert","46","201569","0.0-46.0","ggydg62k","","","","","","","",""
"","","","call-function","47","201569","0.0-47.0","ggydg62k","","","","","","","",""
"null","","","html-keyboard-response","48","203071","0.0-48.0","ggydg62k","","<span style=""color:Black; font-size:50px;"">Agent A","null","","","","",""
"null","","","video-keyboard-response","49","206145","0.0-49.0","ggydg62k","","","null","","Agent A","scrambled","STIM_SET_1/285933.bmp_pp81_L1_V1.0_scrambled_freeview_isoFalse.mp4",""
"null","","","html-keyboard-response","50","207648","0.0-50.0","ggydg62k","","<span style=""color:Black; font-size:50px;"">Agent B","null","","","","",""
"null","","","video-keyboard-response","51","210763","0.0-51.0","ggydg62k","","","null","","Agent B","veridical","STIM_SET_1/285933.bmp_pp81_L1_V1.0_veridical_freeview_isoFalse.mp4",""
"","","","call-function","52","210764","0.0-52.0","ggydg62k","","","","","","","",""
"1892.6149999999907","{""judgement"":1}","[0]","survey-likert","53","212657","0.0-53.0","ggydg62k","","","","","","","","1"
"1631.5249999999942","{""confidence"":1}","[0]","survey-likert","54","214290","0.0-54.0","ggydg62k","","","","","","","",""
"","","","call-function","55","214290","0.0-55.0","ggydg62k","","","","","","","",""
"null","","","html-keyboard-response","56","215794","0.0-56.0","ggydg62k","","<span style=""color:Black; font-size:50px;"">Agent A","null","","","","",""
"null","","","video-keyboard-response","57","218861","0.0-57.0","ggydg62k","","","null","","Agent A","veridical","STIM_SET_1/498149.bmp_pp99_L2_V1.0_veridical_freeview_isoFalse.mp4",""
"null","","","html-keyboard-response","58","220363","0.0-58.0","ggydg62k","","<span style=""color:Black; font-size:50px;"">Agent B","null","","","","",""
"null","","","video-keyboard-response","59","223427","0.0-59.0","ggydg62k","","","null","","Agent B","scrambled","STIM_SET_1/498149.bmp_pp99_L2_V1.0_scrambled_freeview_isoFalse.mp4",""
"","","","call-function","60","223428","0.0-60.0","ggydg62k","","","","","","","",""
"2211.5350000000035","{""judgement"":0}","[0]","survey-likert","61","225640","0.0-61.0","ggydg62k","","","","","","","","0"
"1661.7849999999744","{""confidence"":1}","[0]","survey-likert","62","227303","0.0-62.0","ggydg62k","","","","","","","",""
"","","","call-function","63","227304","0.0-63.0","ggydg62k","","","","","","","",""
"null","","","html-keyboard-response","64","228806","0.0-64.0","ggydg62k","","<span style=""color:Black; font-size:50px;"">Agent A","null","","","","",""
"null","","","video-keyboard-response","65","231875","0.0-65.0","ggydg62k","","","null","","Agent A","scrambled","STIM_SET_1/1159882.bmp_pp61_L2_V1.0_scrambled_freeview_isoFalse.mp4",""
"null","","","html-keyboard-response","66","233377","0.0-66.0","ggydg62k","","<span style=""color:Black; font-size:50px;"">Agent B","null","","","","",""
"null","","","video-keyboard-response","67","236446","0.0-67.0","ggydg62k","","","null","","Agent B","veridical","STIM_SET_1/1159882.bmp_pp61_L2_V1.0_veridical_freeview_isoFalse.mp4",""
"","","","call-function","68","236447","0.0-68.0","ggydg62k","","","","","","","",""
"3269.5200000000186","{""judgement"":1}","[0]","survey-likert","69","239718","0.0-69.0","ggydg62k","","","","","","","","1"
"3275.915000000008","{""confidence"":1}","[0]","survey-likert","70","242996","0.0-70.0","ggydg62k","","","","","","","",""
"","","","call-function","71","242997","0.0-71.0","ggydg62k","","","","","","","",""
"null","","","html-keyboard-response","72","244500","0.0-72.0","ggydg62k","","<span style=""color:Black; font-size:50px;"">Agent A","null","","","","",""
"null","","","video-keyboard-response","73","247565","0.0-73.0","ggydg62k","","","null","","Agent A","scrambled","STIM_SET_1/713760.bmp_pp81_L1_V1.0_scrambled_freeview_isoFalse.mp4",""
"null","","","html-keyboard-response","74","249066","0.0-74.0","ggydg62k","","<span style=""color:Black; font-size:50px;"">Agent B","null","","","","",""
"null","","","video-keyboard-response","75","252127","0.0-75.0","ggydg62k","","","null","","Agent B","veridical","STIM_SET_1/713760.bmp_pp81_L1_V1.0_veridical_freeview_isoFalse.mp4",""
"","","","call-function","76","252128","0.0-76.0","ggydg62k","","","","","","","",""
"2125.7000000000116","{""judgement"":1}","[0]","survey-likert","77","254254","0.0-77.0","ggydg62k","","","","","","","","1"
"8478.970000000001","{""confidence"":2}","[0]","survey-likert","78","262734","0.0-78.0","ggydg62k","","","","","","","",""
"","","","call-function","79","262735","0.0-79.0","ggydg62k","","","","","","","",""
"null","","","html-keyboard-response","80","264240","0.0-80.0","ggydg62k","","<span style=""color:Black; font-size:50px;"">Agent A","null","","","","",""
"null","","","video-keyboard-response","81","267321","0.0-81.0","ggydg62k","","","null","","Agent A","veridical","STIM_SET_1/1592372.bmp_pp76_L1_V1.0_veridical_freeview_isoFalse.mp4",""
"null","","","html-keyboard-response","82","268824","0.0-82.0","ggydg62k","","<span style=""color:Black; font-size:50px;"">Agent B","null","","","","",""
"null","","","video-keyboard-response","83","271902","0.0-83.0","ggydg62k","","","null","","Agent B","scrambled","STIM_SET_1/1592372.bmp_pp76_L1_V1.0_scrambled_freeview_isoFalse.mp4",""
"","","","call-function","84","271902","0.0-84.0","ggydg62k","","","","","","","",""
"2824.5950000000303","{""judgement"":0}","[0]","survey-likert","85","274728","0.0-85.0","ggydg62k","","","","","","","","0"
"2575.6350000000093","{""confidence"":2}","[0]","survey-likert","86","277304","0.0-86.0","ggydg62k","","","","","","","",""
"7998.110000000044","","","instructions","87","285303","0.0-87.0","ggydg62k","[{""page_index"":0,""viewing_time"":1646.905000000028},{""page_index"":1,""viewing_time"":5045.440000000002},{""page_index"":2,""viewing_time"":1305.5599999999977}]","","","","","","",""
"5388.315000000002","","","instructions","88","290692","0.0-88.0","ggydg62k","[{""page_index"":0,""viewing_time"":2585.1699999999837},{""page_index"":1,""viewing_time"":2070.9250000000466},{""page_index"":2,""viewing_time"":732.0049999999464}]","","","","","","",""
"","","","call-function","89","290693","0.0-89.0","ggydg62k","","","","","","","",""
"null","","","html-keyboard-response","90","292196","0.0-90.0","ggydg62k","","<span style=""color:Black; font-size:50px;"">Agent A","null","","","","",""
"null","","","video-keyboard-response","91","295303","0.0-91.0","ggydg62k","","","null","","Agent A","veridical","STIM_SET_1/1592133.bmp_pp75_L1_V1.0_veridical_freeview_isoFalse.mp4",""
"null","","","html-keyboard-response","92","296809","0.0-92.0","ggydg62k","","<span style=""color:Black; font-size:50px;"">Agent B","null","","","","",""
"null","","","video-keyboard-response","93","299918","0.0-93.0","ggydg62k","","","null","","Agent B","scrambled","STIM_SET_1/1592133.bmp_pp75_L1_V1.0_scrambled_freeview_isoFalse.mp4",""
"","","","call-function","94","299918","0.0-94.0","ggydg62k","","","","","","","",""
"2752.195000000007","{""judgement"":0}","[0]","survey-likert","95","302671","0.0-95.0","ggydg62k","","","","","","","","0"
"1575.8549999999814","{""confidence"":1}","[0]","survey-likert","96","304248","0.0-96.0","ggydg62k","","","","","","","",""
"","","","call-function","97","304249","0.0-97.0","ggydg62k","","","","","","","",""
"null","","","html-keyboard-response","98","305753","0.0-98.0","ggydg62k","","<span style=""color:Black; font-size:50px;"">Agent A","null","","","","",""
"null","","","video-keyboard-response","99","308856","0.0-99.0","ggydg62k","","","null","","Agent A","veridical","STIM_SET_1/1592817.bmp_pp55_L3_V1.0_veridical_freeview_isoFalse.mp4",""
"null","","","html-keyboard-response","100","310359","0.0-100.0","ggydg62k","","<span style=""color:Black; font-size:50px;"">Agent B","null","","","","",""
"null","","","video-keyboard-response","101","313424","0.0-101.0","ggydg62k","","","null","","Agent B","scrambled","STIM_SET_1/1592817.bmp_pp55_L3_V1.0_scrambled_freeview_isoFalse.mp4",""
"","","","call-function","102","313424","0.0-102.0","ggydg62k","","","","","","","",""
"2613.3850000000093","{""judgement"":0}","[0]","survey-likert","103","316039","0.0-103.0","ggydg62k","","","","","","","","0"
"1477.570000000007","{""confidence"":2}","[0]","survey-likert","104","317517","0.0-104.0","ggydg62k","","","","","","","",""
"","","","call-function","105","317518","0.0-105.0","ggydg62k","","","","","","","",""
"null","","","html-keyboard-response","106","319019","0.0-106.0","ggydg62k","","<span style=""color:Black; font-size:50px;"">Agent A","null","","","","",""
"null","","","video-keyboard-response","107","322090","0.0-107.0","ggydg62k","","","null","","Agent A","veridical","STIM_SET_1/1592934.bmp_pp63_L1_V1.0_veridical_freeview_isoFalse.mp4",""
"null","","","html-keyboard-response","108","323594","0.0-108.0","ggydg62k","","<span style=""color:Black; font-size:50px;"">Agent B","null","","","","",""
"null","","","video-keyboard-response","109","326705","0.0-109.0","ggydg62k","","","null","","Agent B","scrambled","STIM_SET_1/1592934.bmp_pp63_L1_V1.0_scrambled_freeview_isoFalse.mp4",""
"","","","call-function","110","326705","0.0-110.0","ggydg62k","","","","","","","",""
"3373.7150000000256","{""judgement"":0}","[0]","survey-likert","111","330080","0.0-111.0","ggydg62k","","","","","","","","0"
"2256.9949999999953","{""confidence"":0}","[0]","survey-likert","112","332339","0.0-112.0","ggydg62k","","","","","","","",""
"","","","call-function","113","332340","0.0-113.0","ggydg62k","","","","","","","",""
"null","","","html-keyboard-response","114","333842","0.0-114.0","ggydg62k","","<span style=""color:Black; font-size:50px;"">Agent A","null","","","","",""
"null","","","video-keyboard-response","115","336914","0.0-115.0","ggydg62k","","","null","","Agent A","veridical","STIM_SET_1/1591961.bmp_pp67_L2_V1.0_veridical_freeview_isoFalse.mp4",""
"null","","","html-keyboard-response","116","338420","0.0-116.0","ggydg62k","","<span style=""color:Black; font-size:50px;"">Agent B","null","","","","",""
"null","","","video-keyboard-response","117","341494","0.0-117.0","ggydg62k","","","null","","Agent B","scrambled","STIM_SET_1/1591961.bmp_pp67_L2_V1.0_scrambled_freeview_isoFalse.mp4",""
"","","","call-function","118","341495","0.0-118.0","ggydg62k","","","","","","","",""
"1586.0899999999674","{""judgement"":0}","[0]","survey-likert","119","343082","0.0-119.0","ggydg62k","","","","","","","","0"
"1535.8400000000256","{""confidence"":1}","[0]","survey-likert","120","344619","0.0-120.0","ggydg62k","","","","","","","",""
"","","","call-function","121","344619","0.0-121.0","ggydg62k","","","","","","","",""
"null","","","html-keyboard-response","122","346121","0.0-122.0","ggydg62k","","<span style=""color:Black; font-size:50px;"">Agent A","null","","","","",""
"null","","","video-keyboard-response","123","349197","0.0-123.0","ggydg62k","","","null","","Agent A","scrambled","STIM_SET_1/712977.bmp_pp51_L1_V1.0_scrambled_freeview_isoFalse.mp4",""
"null","","","html-keyboard-response","124","350699","0.0-124.0","ggydg62k","","<span style=""color:Black; font-size:50px;"">Agent B","null","","","","",""
"null","","","video-keyboard-response","125","353777","0.0-125.0","ggydg62k","","","null","","Agent B","veridical","STIM_SET_1/712977.bmp_pp51_L1_V1.0_veridical_freeview_isoFalse.mp4",""
"","","","call-function","126","353778","0.0-126.0","ggydg62k","","","","","","","",""
"1713.850000000035","{""judgement"":0}","[0]","survey-likert","127","355493","0.0-127.0","ggydg62k","","","","","","","","1"
"3635.695000000007","{""confidence"":0}","[0]","survey-likert","128","359130","0.0-128.0","ggydg62k","","","","","","","",""
"","","","call-function","129","359131","0.0-129.0","ggydg62k","","","","","","","",""
"null","","","html-keyboard-response","130","360633","0.0-130.0","ggydg62k","","<span style=""color:Black; font-size:50px;"">Agent A","null","","","","",""
"null","","","video-keyboard-response","131","363719","0.0-131.0","ggydg62k","","","null","","Agent A","scrambled","STIM_SET_1/713779.bmp_pp152_L2_V1.0_scrambled_freeview_isoFalse.mp4",""
"null","","","html-keyboard-response","132","365224","0.0-132.0","ggydg62k","","<span style=""color:Black; font-size:50px;"">Agent B","null","","","","",""
"null","","","video-keyboard-response","133","368310","0.0-133.0","ggydg62k","","","null","","Agent B","veridical","STIM_SET_1/713779.bmp_pp152_L2_V1.0_veridical_freeview_isoFalse.mp4",""
"","","","call-function","134","368310","0.0-134.0","ggydg62k","","","","","","","",""
"2454.7600000000093","{""judgement"":1}","[0]","survey-likert","135","370766","0.0-135.0","ggydg62k","","","","","","","","1"
"1402.8949999999604","{""confidence"":0}","[0]","survey-likert","136","372170","0.0-136.0","ggydg62k","","","","","","","",""
"","","","call-function","137","372170","0.0-137.0","ggydg62k","","","","","","","",""
"null","","","html-keyboard-response","138","373675","0.0-138.0","ggydg62k","","<span style=""color:Black; font-size:50px;"">Agent A","null","","","","",""
"null","","","video-keyboard-response","139","376778","0.0-139.0","ggydg62k","","","null","","Agent A","scrambled","STIM_SET_1/286001.bmp_pp54_L2_V1.0_scrambled_freeview_isoFalse.mp4",""
"null","","","html-keyboard-response","140","378284","0.0-140.0","ggydg62k","","<span style=""color:Black; font-size:50px;"">Agent B","null","","","","",""
"null","","","video-keyboard-response","141","381382","0.0-141.0","ggydg62k","","","null","","Agent B","veridical","STIM_SET_1/286001.bmp_pp54_L2_V1.0_veridical_freeview_isoFalse.mp4",""
"","","","call-function","142","381383","0.0-142.0","ggydg62k","","","","","","","",""
"1575.719999999972","{""judgement"":1}","[0]","survey-likert","143","382959","0.0-143.0","ggydg62k","","","","","","","","1"
"1705.070000000007","{""confidence"":1}","[0]","survey-likert","144","384666","0.0-144.0","ggydg62k","","","","","","","",""
"","","","call-function","145","384666","0.0-145.0","ggydg62k","","","","","","","",""
"null","","","html-keyboard-response","146","386171","0.0-146.0","ggydg62k","","<span style=""color:Black; font-size:50px;"">Agent A","null","","","","",""
"null","","","video-keyboard-response","147","389282","0.0-147.0","ggydg62k","","","null","","Agent A","scrambled","STIM_SET_1/713513.bmp_pp62_L2_V1.0_scrambled_freeview_isoFalse.mp4",""
"null","","","html-keyboard-response","148","390785","0.0-148.0","ggydg62k","","<span style=""color:Black; font-size:50px;"">Agent B","null","","","","",""
"null","","","video-keyboard-response","149","393900","0.0-149.0","ggydg62k","","","null","","Agent B","veridical","STIM_SET_1/713513.bmp_pp62_L2_V1.0_veridical_freeview_isoFalse.mp4",""
"","","","call-function","150","393901","0.0-150.0","ggydg62k","","","","","","","",""
"7570.289999999979","{""judgement"":1}","[0]","survey-likert","151","401472","0.0-151.0","ggydg62k","","","","","","","","1"
"4909.25","{""confidence"":1}","[0]","survey-likert","152","406383","0.0-152.0","ggydg62k","","","","","","","",""
"","","","call-function","153","406383","0.0-153.0","ggydg62k","","","","","","","",""
"null","","","html-keyboard-response","154","407885","0.0-154.0","ggydg62k","","<span style=""color:Black; font-size:50px;"">Agent A","null","","","","",""
"null","","","video-keyboard-response","155","410962","0.0-155.0","ggydg62k","","","null","","Agent A","scrambled","STIM_SET_1/285905.bmp_pp57_L1_V1.0_scrambled_freeview_isoFalse.mp4",""
"null","","","html-keyboard-response","156","412465","0.0-156.0","ggydg62k","","<span style=""color:Black; font-size:50px;"">Agent B","null","","","","",""
"null","","","video-keyboard-response","157","415538","0.0-157.0","ggydg62k","","","null","","Agent B","veridical","STIM_SET_1/285905.bmp_pp57_L1_V1.0_veridical_freeview_isoFalse.mp4",""
"","","","call-function","158","415539","0.0-158.0","ggydg62k","","","","","","","",""
"1952.8450000000303","{""judgement"":1}","[0]","survey-likert","159","417493","0.0-159.0","ggydg62k","","","","","","","","1"
"1703.820000000007","{""confidence"":2}","[0]","survey-likert","160","419198","0.0-160.0","ggydg62k","","","","","","","",""
"","","","call-function","161","419198","0.0-161.0","ggydg62k","","","","","","","",""
"null","","","html-keyboard-response","162","420700","0.0-162.0","ggydg62k","","<span style=""color:Black; font-size:50px;"">Agent A","null","","","","",""
"null","","","video-keyboard-response","163","423774","0.0-163.0","ggydg62k","","","null","","Agent A","scrambled","STIM_SET_1/713796.bmp_pp84_L3_V1.0_scrambled_freeview_isoFalse.mp4",""
"null","","","html-keyboard-response","164","425276","0.0-164.0","ggydg62k","","<span style=""color:Black; font-size:50px;"">Agent B","null","","","","",""
"null","","","video-keyboard-response","165","428345","0.0-165.0","ggydg62k","","","null","","Agent B","veridical","STIM_SET_1/713796.bmp_pp84_L3_V1.0_veridical_freeview_isoFalse.mp4",""
"","","","call-function","166","428346","0.0-166.0","ggydg62k","","","","","","","",""
"1780.6300000000047","{""judgement"":0}","[0]","survey-likert","167","430127","0.0-167.0","ggydg62k","","","","","","","","1"
"1464.4400000000023","{""confidence"":0}","[0]","survey-likert","168","431593","0.0-168.0","ggydg62k","","","","","","","",""
"3946.8000000000466","","","instructions","169","435540","0.0-169.0","ggydg62k","[{""page_index"":0,""viewing_time"":1949.6450000000186},{""page_index"":1,""viewing_time"":927.0250000000233},{""page_index"":2,""viewing_time"":1069.929999999993}]","","","","","","",""
"3148.6050000000396","","","instructions","170","438689","0.0-170.0","ggydg62k","[{""page_index"":0,""viewing_time"":1079.5050000000047},{""page_index"":1,""viewing_time"":1321.945000000007},{""page_index"":2,""viewing_time"":747.0449999999837}]","","","","","","",""
"","","","call-function","171","438690","0.0-171.0","ggydg62k","","","","","","","",""
"null","","","html-keyboard-response","172","440193","0.0-172.0","ggydg62k","","<span style=""color:Black; font-size:50px;"">Agent A","null","","","","",""
"null","","","video-keyboard-response","173","443307","0.0-173.0","ggydg62k","","","null","","Agent A","scrambled","STIM_SET_1/1593146.bmp_pp93_L1_V1.0_scrambled_freeview_isoFalse.mp4",""
"null","","","html-keyboard-response","174","444809","0.0-174.0","ggydg62k","","<span style=""color:Black; font-size:50px;"">Agent B","null","","","","",""
"null","","","video-keyboard-response","175","447885","0.0-175.0","ggydg62k","","","null","","Agent B","veridical","STIM_SET_1/1593146.bmp_pp93_L1_V1.0_veridical_freeview_isoFalse.mp4",""
"","","","call-function","176","447886","0.0-176.0","ggydg62k","","","","","","","",""
"2505.2999999999884","{""judgement"":0}","[0]","survey-likert","177","450393","0.0-177.0","ggydg62k","","","","","","","","1"
"3531.4949999999953","{""confidence"":0}","[0]","survey-likert","178","453926","0.0-178.0","ggydg62k","","","","","","","",""
"","","","call-function","179","453927","0.0-179.0","ggydg62k","","","","","","","",""
"null","","","html-keyboard-response","180","455428","0.0-180.0","ggydg62k","","<span style=""color:Black; font-size:50px;"">Agent A","null","","","","",""
"null","","","video-keyboard-response","181","458499","0.0-181.0","ggydg62k","","","null","","Agent A","scrambled","STIM_SET_1/497950.bmp_pp151_L1_V1.0_scrambled_freeview_isoFalse.mp4",""
"null","","","html-keyboard-response","182","460004","0.0-182.0","ggydg62k","","<span style=""color:Black; font-size:50px;"">Agent B","null","","","","",""
"null","","","video-keyboard-response","183","463072","0.0-183.0","ggydg62k","","","null","","Agent B","veridical","STIM_SET_1/497950.bmp_pp151_L1_V1.0_veridical_freeview_isoFalse.mp4",""
"","","","call-function","184","463073","0.0-184.0","ggydg62k","","","","","","","",""
"1944.5349999999744","{""judgement"":1}","[0]","survey-likert","185","465018","0.0-185.0","ggydg62k","","","","","","","","1"
"2783.4199999999837","{""confidence"":1}","[0]","survey-likert","186","467803","0.0-186.0","ggydg62k","","","","","","","",""
"","","","call-function","187","467804","0.0-187.0","ggydg62k","","","","","","","",""
"null","","","html-keyboard-response","188","469309","0.0-188.0","ggydg62k","","<span style=""color:Black; font-size:50px;"">Agent A","null","","","","",""
"null","","","video-keyboard-response","189","472386","0.0-189.0","ggydg62k","","","null","","Agent A","scrambled","STIM_SET_1/1591994.bmp_pp69_L3_V1.0_scrambled_freeview_isoFalse.mp4",""
"null","","","html-keyboard-response","190","473890","0.0-190.0","ggydg62k","","<span style=""color:Black; font-size:50px;"">Agent B","null","","","","",""
"null","","","video-keyboard-response","191","476978","0.0-191.0","ggydg62k","","","null","","Agent B","veridical","STIM_SET_1/1591994.bmp_pp69_L3_V1.0_veridical_freeview_isoFalse.mp4",""
"","","","call-function","192","476978","0.0-192.0","ggydg62k","","","","","","","",""
"5887.755000000005","{""judgement"":1}","[0]","survey-likert","193","482867","0.0-193.0","ggydg62k","","","","","","","","1"
"2234.805000000051","{""confidence"":1}","[0]","survey-likert","194","485103","0.0-194.0","ggydg62k","","","","","","","",""
"","","","call-function","195","485104","0.0-195.0","ggydg62k","","","","","","","",""
"null","","","html-keyboard-response","196","486607","0.0-196.0","ggydg62k","","<span style=""color:Black; font-size:50px;"">Agent A","null","","","","",""
"null","","","video-keyboard-response","197","489702","0.0-197.0","ggydg62k","","","null","","Agent A","veridical","STIM_SET_1/1592727.bmp_pp59_L3_V1.0_veridical_freeview_isoFalse.mp4",""
"null","","","html-keyboard-response","198","491206","0.0-198.0","ggydg62k","","<span style=""color:Black; font-size:50px;"">Agent B","null","","","","",""
"null","","","video-keyboard-response","199","494305","0.0-199.0","ggydg62k","","","null","","Agent B","scrambled","STIM_SET_1/1592727.bmp_pp59_L3_V1.0_scrambled_freeview_isoFalse.mp4",""
"","","","call-function","200","494305","0.0-200.0","ggydg62k","","","","","","","",""
"1701.8399999999674","{""judgement"":0}","[0]","survey-likert","201","496008","0.0-201.0","ggydg62k","","","","","","","","0"
"1238.75","{""confidence"":2}","[0]","survey-likert","202","497248","0.0-202.0","ggydg62k","","","","","","","",""
"","","","call-function","203","497248","0.0-203.0","ggydg62k","","","","","","","",""
"null","","","html-keyboard-response","204","498750","0.0-204.0","ggydg62k","","<span style=""color:Black; font-size:50px;"">Agent A","null","","","","",""
"null","","","video-keyboard-response","205","501869","0.0-205.0","ggydg62k","","","null","","Agent A","scrambled","STIM_SET_1/713666.bmp_pp97_L3_V1.0_scrambled_freeview_isoFalse.mp4",""
"null","","","html-keyboard-response","206","503375","0.0-206.0","ggydg62k","","<span style=""color:Black; font-size:50px;"">Agent B","null","","","","",""
"null","","","video-keyboard-response","207","506496","0.0-207.0","ggydg62k","","","null","","Agent B","veridical","STIM_SET_1/713666.bmp_pp97_L3_V1.0_veridical_freeview_isoFalse.mp4",""
"","","","call-function","208","506496","0.0-208.0","ggydg62k","","","","","","","",""
"1580.015000000014","{""judgement"":1}","[0]","survey-likert","209","508077","0.0-209.0","ggydg62k","","","","","","","","1"
"1679.1449999999604","{""confidence"":0}","[0]","survey-likert","210","509757","0.0-210.0","ggydg62k","","","","","","","",""
"","","","call-function","211","509758","0.0-211.0","ggydg62k","","","","","","","",""
"null","","","html-keyboard-response","212","511262","0.0-212.0","ggydg62k","","<span style=""color:Black; font-size:50px;"">Agent A","null","","","","",""
"null","","","video-keyboard-response","213","514341","0.0-213.0","ggydg62k","","","null","","Agent A","veridical","STIM_SET_1/498175.bmp_pp154_L1_V1.0_veridical_freeview_isoFalse.mp4",""
"null","","","html-keyboard-response","214","515848","0.0-214.0","ggydg62k","","<span style=""color:Black; font-size:50px;"">Agent B","null","","","","",""
"null","","","video-keyboard-response","215","518960","0.0-215.0","ggydg62k","","","null","","Agent B","scrambled","STIM_SET_1/498175.bmp_pp154_L1_V1.0_scrambled_freeview_isoFalse.mp4",""
"","","","call-function","216","518961","0.0-216.0","ggydg62k","","","","","","","",""
"1896.0599999999977","{""judgement"":0}","[0]","survey-likert","217","520858","0.0-217.0","ggydg62k","","","","","","","","0"
"2125.9249999999884","{""confidence"":2}","[0]","survey-likert","218","522985","0.0-218.0","ggydg62k","","","","","","","",""
"","","","call-function","219","522985","0.0-219.0","ggydg62k","","","","","","","",""
"null","","","html-keyboard-response","220","524490","0.0-220.0","ggydg62k","","<span style=""color:Black; font-size:50px;"">Agent A","null","","","","",""
"null","","","video-keyboard-response","221","527568","0.0-221.0","ggydg62k","","","null","","Agent A","scrambled","STIM_SET_1/713620.bmp_pp65_L3_V1.0_scrambled_freeview_isoFalse.mp4",""
"null","","","html-keyboard-response","222","529073","0.0-222.0","ggydg62k","","<span style=""color:Black; font-size:50px;"">Agent B","null","","","","",""
"null","","","video-keyboard-response","223","532151","0.0-223.0","ggydg62k","","","null","","Agent B","veridical","STIM_SET_1/713620.bmp_pp65_L3_V1.0_veridical_freeview_isoFalse.mp4",""
"","","","call-function","224","532151","0.0-224.0","ggydg62k","","","","","","","",""
"1211.9399999999441","{""judgement"":1}","[0]","survey-likert","225","533364","0.0-225.0","ggydg62k","","","","","","","","1"
"1294.8800000000047","{""confidence"":2}","[0]","survey-likert","226","534661","0.0-226.0","ggydg62k","","","","","","","",""
"","","","call-function","227","534661","0.0-227.0","ggydg62k","","","","","","","",""
"null","","","html-keyboard-response","228","536163","0.0-228.0","ggydg62k","","<span style=""color:Black; font-size:50px;"">Agent A","null","","","","",""
"null","","","video-keyboard-response","229","539236","0.0-229.0","ggydg62k","","","null","","Agent A","scrambled","STIM_SET_1/1159813.bmp_pp79_L2_V1.0_scrambled_freeview_isoFalse.mp4",""
"null","","","html-keyboard-response","230","540741","0.0-230.0","ggydg62k","","<span style=""color:Black; font-size:50px;"">Agent B","null","","","","",""
"null","","","video-keyboard-response","231","543811","0.0-231.0","ggydg62k","","","null","","Agent B","veridical","STIM_SET_1/1159813.bmp_pp79_L2_V1.0_veridical_freeview_isoFalse.mp4",""
"","","","call-function","232","543812","0.0-232.0","ggydg62k","","","","","","","",""
"1966.5749999999534","{""judgement"":0}","[0]","survey-likert","233","545779","0.0-233.0","ggydg62k","","","","","","","","1"
"1433.030000000028","{""confidence"":0}","[0]","survey-likert","234","547213","0.0-234.0","ggydg62k","","","","","","","",""
"","","","call-function","235","547214","0.0-235.0","ggydg62k","","","","","","","",""
"null","","","html-keyboard-response","236","548720","0.0-236.0","ggydg62k","","<span style=""color:Black; font-size:50px;"">Agent A","null","","","","",""
"null","","","video-keyboard-response","237","551805","0.0-237.0","ggydg62k","","","null","","Agent A","scrambled","STIM_SET_1/1159675.bmp_pp77_L3_V1.0_scrambled_freeview_isoFalse.mp4",""
"null","","","html-keyboard-response","238","553311","0.0-238.0","ggydg62k","","<span style=""color:Black; font-size:50px;"">Agent B","null","","","","",""
"null","","","video-keyboard-response","239","556391","0.0-239.0","ggydg62k","","","null","","Agent B","veridical","STIM_SET_1/1159675.bmp_pp77_L3_V1.0_veridical_freeview_isoFalse.mp4",""
"","","","call-function","240","556391","0.0-240.0","ggydg62k","","","","","","","",""
"2439.829999999958","{""judgement"":1}","[0]","survey-likert","241","558832","0.0-241.0","ggydg62k","","","","","","","","1"
"1231.4250000000466","{""confidence"":0}","[0]","survey-likert","242","560065","0.0-242.0","ggydg62k","","","","","","","",""
"","","","call-function","243","560065","0.0-243.0","ggydg62k","","","","","","","",""
"null","","","html-keyboard-response","244","561568","0.0-244.0","ggydg62k","","<span style=""color:Black; font-size:50px;"">Agent A","null","","","","",""
"null","","","video-keyboard-response","245","564689","0.0-245.0","ggydg62k","","","null","","Agent A","veridical","STIM_SET_1/1592804.bmp_pp91_L3_V1.0_veridical_freeview_isoFalse.mp4",""
"null","","","html-keyboard-response","246","566193","0.0-246.0","ggydg62k","","<span style=""color:Black; font-size:50px;"">Agent B","null","","","","",""
"null","","","video-keyboard-response","247","569310","0.0-247.0","ggydg62k","","","null","","Agent B","scrambled","STIM_SET_1/1592804.bmp_pp91_L3_V1.0_scrambled_freeview_isoFalse.mp4",""
"","","","call-function","248","569310","0.0-248.0","ggydg62k","","","","","","","",""
"3696.3549999999814","{""judgement"":1}","[0]","survey-likert","249","573007","0.0-249.0","ggydg62k","","","","","","","","0"
"2712.3300000000745","{""confidence"":0}","[0]","survey-likert","250","575721","0.0-250.0","ggydg62k","","","","","","","",""
"9449.515000000014","","","instructions","251","585171","0.0-251.0","ggydg62k","[{""page_index"":0,""viewing_time"":3377.2249999999767},{""page_index"":1,""viewing_time"":1286.0050000000047},{""page_index"":2,""viewing_time"":4786.079999999958}]","","","","","","",""
"2942.469999999972","","","instructions","252","588114","0.0-252.0","ggydg62k","[{""page_index"":0,""viewing_time"":1050.2249999999767},{""page_index"":1,""viewing_time"":1284.0100000000093},{""page_index"":2,""viewing_time"":608.125}]","","","","","","",""
"","","","call-function","253","588114","0.0-253.0","ggydg62k","","","","","","","",""
"null","","","html-keyboard-response","254","589621","0.0-254.0","ggydg62k","","<span style=""color:Black; font-size:50px;"">Agent A","null","","","","",""
"null","","","video-keyboard-response","255","592698","0.0-255.0","ggydg62k","","","null","","Agent A","veridical","STIM_SET_1/713017.bmp_pp152_L2_V1.0_veridical_freeview_isoFalse.mp4",""
"null","","","html-keyboard-response","256","594204","0.0-256.0","ggydg62k","","<span style=""color:Black; font-size:50px;"">Agent B","null","","","","",""
"null","","","video-keyboard-response","257","597281","0.0-257.0","ggydg62k","","","null","","Agent B","scrambled","STIM_SET_1/713017.bmp_pp152_L2_V1.0_scrambled_freeview_isoFalse.mp4",""
"","","","call-function","258","597282","0.0-258.0","ggydg62k","","","","","","","",""
"3086.4000000000233","{""judgement"":0}","[0]","survey-likert","259","600369","0.0-259.0","ggydg62k","","","","","","","","0"
"4629.265000000014","{""confidence"":1}","[0]","survey-likert","260","605000","0.0-260.0","ggydg62k","","","","","","","",""
"","","","call-function","261","605000","0.0-261.0","ggydg62k","","","","","","","",""
"null","","","html-keyboard-response","262","606504","0.0-262.0","ggydg62k","","<span style=""color:Black; font-size:50px;"">Agent A","null","","","","",""
"null","","","video-keyboard-response","263","609583","0.0-263.0","ggydg62k","","","null","","Agent A","scrambled","STIM_SET_1/61537.bmp_pp73_L3_V1.0_scrambled_freeview_isoFalse.mp4",""
"null","","","html-keyboard-response","264","611087","0.0-264.0","ggydg62k","","<span style=""color:Black; font-size:50px;"">Agent B","null","","","","",""
"null","","","video-keyboard-response","265","614167","0.0-265.0","ggydg62k","","","null","","Agent B","veridical","STIM_SET_1/61537.bmp_pp73_L3_V1.0_veridical_freeview_isoFalse.mp4",""
"","","","call-function","266","614168","0.0-266.0","ggydg62k","","","","","","","",""
"2315.2099999999627","{""judgement"":0}","[0]","survey-likert","267","616484","0.0-267.0","ggydg62k","","","","","","","","1"
"2913.969999999972","{""confidence"":2}","[0]","survey-likert","268","619400","0.0-268.0","ggydg62k","","","","","","","",""
"","","","call-function","269","619400","0.0-269.0","ggydg62k","","","","","","","",""
"null","","","html-keyboard-response","270","620901","0.0-270.0","ggydg62k","","<span style=""color:Black; font-size:50px;"">Agent A","null","","","","",""
"null","","","video-keyboard-response","271","624014","0.0-271.0","ggydg62k","","","null","","Agent A","veridical","STIM_SET_1/1160127.bmp_pp90_L2_V1.0_veridical_freeview_isoFalse.mp4",""
"null","","","html-keyboard-response","272","625519","0.0-272.0","ggydg62k","","<span style=""color:Black; font-size:50px;"">Agent B","null","","","","",""
"null","","","video-keyboard-response","273","628630","0.0-273.0","ggydg62k","","","null","","Agent B","scrambled","STIM_SET_1/1160127.bmp_pp90_L2_V1.0_scrambled_freeview_isoFalse.mp4",""
"","","","call-function","274","628630","0.0-274.0","ggydg62k","","","","","","","",""
"1919.1300000000047","{""judgement"":0}","[0]","survey-likert","275","630550","0.0-275.0","ggydg62k","","","","","","","","0"
"5869.2200000000885","{""confidence"":3}","[0]","survey-likert","276","636421","0.0-276.0","ggydg62k","","","","","","","",""
"","","","call-function","277","636421","0.0-277.0","ggydg62k","","","","","","","",""
"null","","","html-keyboard-response","278","637923","0.0-278.0","ggydg62k","","<span style=""color:Black; font-size:50px;"">Agent A","null","","","","",""
"null","","","video-keyboard-response","279","641029","0.0-279.0","ggydg62k","","","null","","Agent A","scrambled","STIM_SET_1/498111.bmp_pp88_L2_V1.0_scrambled_freeview_isoFalse.mp4",""
"null","","","html-keyboard-response","280","642533","0.0-280.0","ggydg62k","","<span style=""color:Black; font-size:50px;"">Agent B","null","","","","",""
"null","","","video-keyboard-response","281","645635","0.0-281.0","ggydg62k","","","null","","Agent B","veridical","STIM_SET_1/498111.bmp_pp88_L2_V1.0_veridical_freeview_isoFalse.mp4",""
"","","","call-function","282","645637","0.0-282.0","ggydg62k","","","","","","","",""
"2315.405000000028","{""judgement"":1}","[0]","survey-likert","283","647954","0.0-283.0","ggydg62k","","","","","","","","1"
"1880.7399999999907","{""confidence"":2}","[0]","survey-likert","284","649836","0.0-284.0","ggydg62k","","","","","","","",""
"","","","call-function","285","649837","0.0-285.0","ggydg62k","","","","","","","",""
"null","","","html-keyboard-response","286","651340","0.0-286.0","ggydg62k","","<span style=""color:Black; font-size:50px;"">Agent A","null","","","","",""
"null","","","video-keyboard-response","287","654414","0.0-287.0","ggydg62k","","","null","","Agent A","veridical","STIM_SET_1/1593041.bmp_pp58_L1_V1.0_veridical_freeview_isoFalse.mp4",""
"null","","","html-keyboard-response","288","655917","0.0-288.0","ggydg62k","","<span style=""color:Black; font-size:50px;"">Agent B","null","","","","",""
"null","","","video-keyboard-response","289","658994","0.0-289.0","ggydg62k","","","null","","Agent B","scrambled","STIM_SET_1/1593041.bmp_pp58_L1_V1.0_scrambled_freeview_isoFalse.mp4",""
"","","","call-function","290","658994","0.0-290.0","ggydg62k","","","","","","","",""
"2545.3800000000047","{""judgement"":0}","[0]","survey-likert","291","661541","0.0-291.0","ggydg62k","","","","","","","","0"
"2092.4100000000326","{""confidence"":2}","[0]","survey-likert","292","663634","0.0-292.0","ggydg62k","","","","","","","",""
"","","","call-function","293","663635","0.0-293.0","ggydg62k","","","","","","","",""
"null","","","html-keyboard-response","294","665137","0.0-294.0","ggydg62k","","<span style=""color:Black; font-size:50px;"">Agent A","null","","","","",""
"null","","","video-keyboard-response","295","668210","0.0-295.0","ggydg62k","","","null","","Agent A","veridical","STIM_SET_1/1592286.bmp_pp52_L1_V1.0_veridical_freeview_isoFalse.mp4",""
"null","","","html-keyboard-response","296","669715","0.0-296.0","ggydg62k","","<span style=""color:Black; font-size:50px;"">Agent B","null","","","","",""
"null","","","video-keyboard-response","297","672790","0.0-297.0","ggydg62k","","","null","","Agent B","scrambled","STIM_SET_1/1592286.bmp_pp52_L1_V1.0_scrambled_freeview_isoFalse.mp4",""
"","","","call-function","298","672791","0.0-298.0","ggydg62k","","","","","","","",""
"1686.7749999999069","{""judgement"":0}","[0]","survey-likert","299","674479","0.0-299.0","ggydg62k","","","","","","","","0"
"2661.7299999999814","{""confidence"":3}","[0]","survey-likert","300","677142","0.0-300.0","ggydg62k","","","","","","","",""
"","","","call-function","301","677142","0.0-301.0","ggydg62k","","","","","","","",""
"null","","","html-keyboard-response","302","678646","0.0-302.0","ggydg62k","","<span style=""color:Black; font-size:50px;"">Agent A","null","","","","",""
"null","","","video-keyboard-response","303","681756","0.0-303.0","ggydg62k","","","null","","Agent A","scrambled","STIM_SET_1/1159572.bmp_pp71_L1_V1.0_scrambled_freeview_isoFalse.mp4",""
"null","","","html-keyboard-response","304","683262","0.0-304.0","ggydg62k","","<span style=""color:Black; font-size:50px;"">Agent B","null","","","","",""
"null","","","video-keyboard-response","305","686373","0.0-305.0","ggydg62k","","","null","","Agent B","veridical","STIM_SET_1/1159572.bmp_pp71_L1_V1.0_veridical_freeview_isoFalse.mp4",""
"","","","call-function","306","686373","0.0-306.0","ggydg62k","","","","","","","",""
"2421.8649999999907","{""judgement"":1}","[0]","survey-likert","307","688796","0.0-307.0","ggydg62k","","","","","","","","1"
"1758.75","{""confidence"":2}","[0]","survey-likert","308","690556","0.0-308.0","ggydg62k","","","","","","","",""
"","","","call-function","309","690557","0.0-309.0","ggydg62k","","","","","","","",""
"null","","","html-keyboard-response","310","692062","0.0-310.0","ggydg62k","","<span style=""color:Black; font-size:50px;"">Agent A","null","","","","",""
"null","","","video-keyboard-response","311","695177","0.0-311.0","ggydg62k","","","null","","Agent A","veridical","STIM_SET_1/498253.bmp_pp67_L2_V1.0_veridical_freeview_isoFalse.mp4",""
"null","","","html-keyboard-response","312","696679","0.0-312.0","ggydg62k","","<span style=""color:Black; font-size:50px;"">Agent B","null","","","","",""
"null","","","video-keyboard-response","313","699794","0.0-313.0","ggydg62k","","","null","","Agent B","scrambled","STIM_SET_1/498253.bmp_pp67_L2_V1.0_scrambled_freeview_isoFalse.mp4",""
"","","","call-function","314","699795","0.0-314.0","ggydg62k","","","","","","","",""
"2267.6900000000605","{""judgement"":0}","[0]","survey-likert","315","702063","0.0-315.0","ggydg62k","","","","","","","","0"
"1359.1650000000373","{""confidence"":2}","[0]","survey-likert","316","703424","0.0-316.0","ggydg62k","","","","","","","",""
"","","","call-function","317","703424","0.0-317.0","ggydg62k","","","","","","","",""
"null","","","html-keyboard-response","318","704928","0.0-318.0","ggydg62k","","<span style=""color:Black; font-size:50px;"">Agent A","null","","","","",""
"null","","","video-keyboard-response","319","708014","0.0-319.0","ggydg62k","","","null","","Agent A","scrambled","STIM_SET_1/713707.bmp_pp154_L1_V1.0_scrambled_freeview_isoFalse.mp4",""
"null","","","html-keyboard-response","320","709519","0.0-320.0","ggydg62k","","<span style=""color:Black; font-size:50px;"">Agent B","null","","","","",""
"null","","","video-keyboard-response","321","712603","0.0-321.0","ggydg62k","","","null","","Agent B","veridical","STIM_SET_1/713707.bmp_pp154_L1_V1.0_veridical_freeview_isoFalse.mp4",""
"","","","call-function","322","712604","0.0-322.0","ggydg62k","","","","","","","",""
"2421.305000000051","{""judgement"":0}","[0]","survey-likert","323","715026","0.0-323.0","ggydg62k","","","","","","","","1"
"2728.305000000051","{""confidence"":0}","[0]","survey-likert","324","717755","0.0-324.0","ggydg62k","","","","","","","",""
"","","","call-function","325","717756","0.0-325.0","ggydg62k","","","","","","","",""
"null","","","html-keyboard-response","326","719257","0.0-326.0","ggydg62k","","<span style=""color:Black; font-size:50px;"">Agent A","null","","","","",""
"null","","","video-keyboard-response","327","722338","0.0-327.0","ggydg62k","","","null","","Agent A","scrambled","STIM_SET_1/1159777.bmp_pp77_L3_V1.0_scrambled_freeview_isoFalse.mp4",""
"null","","","html-keyboard-response","328","723842","0.0-328.0","ggydg62k","","<span style=""color:Black; font-size:50px;"">Agent B","null","","","","",""
"null","","","video-keyboard-response","329","726920","0.0-329.0","ggydg62k","","","null","","Agent B","veridical","STIM_SET_1/1159777.bmp_pp77_L3_V1.0_veridical_freeview_isoFalse.mp4",""
"","","","call-function","330","726921","0.0-330.0","ggydg62k","","","","","","","",""
"2238.704999999958","{""judgement"":1}","[0]","survey-likert","331","729160","0.0-331.0","ggydg62k","","","","","","","","1"
"1778.905000000028","{""confidence"":1}","[0]","survey-likert","332","730940","0.0-332.0","ggydg62k","","","","","","","",""
"9487.154999999912","","","instructions","333","740429","0.0-333.0","ggydg62k","[{""page_index"":0,""viewing_time"":7702.074999999953},{""page_index"":1,""viewing_time"":974.2850000000326},{""page_index"":2,""viewing_time"":810.5899999999674}]","","","","","","",""
"3227.4400000000605","","","instructions","334","743658","0.0-334.0","ggydg62k","[{""page_index"":0,""viewing_time"":985.4400000000605},{""page_index"":1,""viewing_time"":1314.9249999999302},{""page_index"":2,""viewing_time"":926.9699999999721}]","","","","","","",""
"","","","call-function","335","743659","0.0-335.0","ggydg62k","","","","","","","",""
"null","","","html-keyboard-response","336","745161","0.0-336.0","ggydg62k","","<span style=""color:Black; font-size:50px;"">Agent A","null","","","","",""
"null","","","video-keyboard-response","337","748230","0.0-337.0","ggydg62k","","","null","","Agent A","scrambled","STIM_SET_1/713681.bmp_pp86_L2_V1.0_scrambled_freeview_isoFalse.mp4",""
"null","","","html-keyboard-response","338","749732","0.0-338.0","ggydg62k","","<span style=""color:Black; font-size:50px;"">Agent B","null","","","","",""
"null","","","video-keyboard-response","339","752801","0.0-339.0","ggydg62k","","","null","","Agent B","veridical","STIM_SET_1/713681.bmp_pp86_L2_V1.0_veridical_freeview_isoFalse.mp4",""
"","","","call-function","340","752801","0.0-340.0","ggydg62k","","","","","","","",""
"1815.4249999999302","{""judgement"":1}","[0]","survey-likert","341","754618","0.0-341.0","ggydg62k","","","","","","","","1"
"1882.7449999999953","{""confidence"":2}","[0]","survey-likert","342","756502","0.0-342.0","ggydg62k","","","","","","","",""
"","","","call-function","343","756503","0.0-343.0","ggydg62k","","","","","","","",""
"null","","","html-keyboard-response","344","758008","0.0-344.0","ggydg62k","","<span style=""color:Black; font-size:50px;"">Agent A","null","","","","",""
"null","","","video-keyboard-response","345","761076","0.0-345.0","ggydg62k","","","null","","Agent A","veridical","STIM_SET_1/498170.bmp_pp153_L3_V1.0_veridical_freeview_isoFalse.mp4",""
"null","","","html-keyboard-response","346","762579","0.0-346.0","ggydg62k","","<span style=""color:Black; font-size:50px;"">Agent B","null","","","","",""
"null","","","video-keyboard-response","347","765647","0.0-347.0","ggydg62k","","","null","","Agent B","scrambled","STIM_SET_1/498170.bmp_pp153_L3_V1.0_scrambled_freeview_isoFalse.mp4",""
"","","","call-function","348","765648","0.0-348.0","ggydg62k","","","","","","","",""
"2138.984999999986","{""judgement"":0}","[0]","survey-likert","349","767788","0.0-349.0","ggydg62k","","","","","","","","0"
"1338.8649999999907","{""confidence"":0}","[0]","survey-likert","350","769128","0.0-350.0","ggydg62k","","","","","","","",""
"","","","call-function","351","769129","0.0-351.0","ggydg62k","","","","","","","",""
"null","","","html-keyboard-response","352","770634","0.0-352.0","ggydg62k","","<span style=""color:Black; font-size:50px;"">Agent A","null","","","","",""
"null","","","video-keyboard-response","353","773756","0.0-353.0","ggydg62k","","","null","","Agent A","scrambled","STIM_SET_1/1159855.bmp_pp99_L2_V1.0_scrambled_freeview_isoFalse.mp4",""
"null","","","html-keyboard-response","354","775259","0.0-354.0","ggydg62k","","<span style=""color:Black; font-size:50px;"">Agent B","null","","","","",""
"null","","","video-keyboard-response","355","778379","0.0-355.0","ggydg62k","","","null","","Agent B","veridical","STIM_SET_1/1159855.bmp_pp99_L2_V1.0_veridical_freeview_isoFalse.mp4",""
"","","","call-function","356","778380","0.0-356.0","ggydg62k","","","","","","","",""
"1331.8300000000745","{""judgement"":1}","[0]","survey-likert","357","779713","0.0-357.0","ggydg62k","","","","","","","","1"
"1799.1849999999395","{""confidence"":2}","[0]","survey-likert","358","781513","0.0-358.0","ggydg62k","","","","","","","",""
"","","","call-function","359","781513","0.0-359.0","ggydg62k","","","","","","","",""
"null","","","html-keyboard-response","360","783015","0.0-360.0","ggydg62k","","<span style=""color:Black; font-size:50px;"">Agent A","null","","","","",""
"null","","","video-keyboard-response","361","786125","0.0-361.0","ggydg62k","","","null","","Agent A","scrambled","STIM_SET_1/285994.bmp_pp92_L3_V1.0_scrambled_freeview_isoFalse.mp4",""
"null","","","html-keyboard-response","362","787627","0.0-362.0","ggydg62k","","<span style=""color:Black; font-size:50px;"">Agent B","null","","","","",""
"null","","","video-keyboard-response","363","790743","0.0-363.0","ggydg62k","","","null","","Agent B","veridical","STIM_SET_1/285994.bmp_pp92_L3_V1.0_veridical_freeview_isoFalse.mp4",""
"","","","call-function","364","790744","0.0-364.0","ggydg62k","","","","","","","",""
"1702.3399999999674","{""judgement"":1}","[0]","survey-likert","365","792447","0.0-365.0","ggydg62k","","","","","","","","1"
"1649.5649999999441","{""confidence"":2}","[0]","survey-likert","366","794098","0.0-366.0","ggydg62k","","","","","","","",""
"","","","call-function","367","794098","0.0-367.0","ggydg62k","","","","","","","",""
"null","","","html-keyboard-response","368","795600","0.0-368.0","ggydg62k","","<span style=""color:Black; font-size:50px;"">Agent A","null","","","","",""
"null","","","video-keyboard-response","369","798715","0.0-369.0","ggydg62k","","","null","","Agent A","veridical","STIM_SET_1/1159768.bmp_pp89_L1_V1.0_veridical_freeview_isoFalse.mp4",""
"null","","","html-keyboard-response","370","800220","0.0-370.0","ggydg62k","","<span style=""color:Black; font-size:50px;"">Agent B","null","","","","",""
"null","","","video-keyboard-response","371","803333","0.0-371.0","ggydg62k","","","null","","Agent B","scrambled","STIM_SET_1/1159768.bmp_pp89_L1_V1.0_scrambled_freeview_isoFalse.mp4",""
"","","","call-function","372","803334","0.0-372.0","ggydg62k","","","","","","","",""
"2261.515000000014","{""judgement"":0}","[0]","survey-likert","373","805596","0.0-373.0","ggydg62k","","","","","","","","0"
"1835.3649999999907","{""confidence"":1}","[0]","survey-likert","374","807433","0.0-374.0","ggydg62k","","","","","","","",""
"","","","call-function","375","807433","0.0-375.0","ggydg62k","","","","","","","",""
"null","","","html-keyboard-response","376","808937","0.0-376.0","ggydg62k","","<span style=""color:Black; font-size:50px;"">Agent A","null","","","","",""
"null","","","video-keyboard-response","377","812016","0.0-377.0","ggydg62k","","","null","","Agent A","veridical","STIM_SET_1/713211.bmp_pp100_L3_V1.0_veridical_freeview_isoFalse.mp4",""
"null","","","html-keyboard-response","378","813521","0.0-378.0","ggydg62k","","<span style=""color:Black; font-size:50px;"">Agent B","null","","","","",""
"null","","","video-keyboard-response","379","816597","0.0-379.0","ggydg62k","","","null","","Agent B","scrambled","STIM_SET_1/713211.bmp_pp100_L3_V1.0_scrambled_freeview_isoFalse.mp4",""
"","","","call-function","380","816598","0.0-380.0","ggydg62k","","","","","","","",""
"2930.144999999902","{""judgement"":0}","[0]","survey-likert","381","819529","0.0-381.0","ggydg62k","","","","","","","","0"
"1937.8099999999395","{""confidence"":2}","[0]","survey-likert","382","821468","0.0-382.0","ggydg62k","","","","","","","",""
"","","","call-function","383","821468","0.0-383.0","ggydg62k","","","","","","","",""
"null","","","html-keyboard-response","384","822970","0.0-384.0","ggydg62k","","<span style=""color:Black; font-size:50px;"">Agent A","null","","","","",""
"null","","","video-keyboard-response","385","826026","0.0-385.0","ggydg62k","","","null","","Agent A","veridical","STIM_SET_1/713684.bmp_pp85_L3_V1.0_veridical_freeview_isoFalse.mp4",""
"null","","","html-keyboard-response","386","827531","0.0-386.0","ggydg62k","","<span style=""color:Black; font-size:50px;"">Agent B","null","","","","",""
"null","","","video-keyboard-response","387","830590","0.0-387.0","ggydg62k","","","null","","Agent B","scrambled","STIM_SET_1/713684.bmp_pp85_L3_V1.0_scrambled_freeview_isoFalse.mp4",""
"","","","call-function","388","830591","0.0-388.0","ggydg62k","","","","","","","",""
"2714.4100000000326","{""judgement"":0}","[0]","survey-likert","389","833307","0.0-389.0","ggydg62k","","","","","","","","0"
"1236.7999999999302","{""confidence"":0}","[0]","survey-likert","390","834545","0.0-390.0","ggydg62k","","","","","","","",""
"","","","call-function","391","834545","0.0-391.0","ggydg62k","","","","","","","",""
"null","","","html-keyboard-response","392","836048","0.0-392.0","ggydg62k","","<span style=""color:Black; font-size:50px;"">Agent A","null","","","","",""
"null","","","video-keyboard-response","393","839169","0.0-393.0","ggydg62k","","","null","","Agent A","veridical","STIM_SET_1/1159440.bmp_pp98_L1_V1.0_veridical_freeview_isoFalse.mp4",""
"null","","","html-keyboard-response","394","840672","0.0-394.0","ggydg62k","","<span style=""color:Black; font-size:50px;"">Agent B","null","","","","",""
"null","","","video-keyboard-response","395","843796","0.0-395.0","ggydg62k","","","null","","Agent B","scrambled","STIM_SET_1/1159440.bmp_pp98_L1_V1.0_scrambled_freeview_isoFalse.mp4",""
"","","","call-function","396","843797","0.0-396.0","ggydg62k","","","","","","","",""
"1786.1999999999534","{""judgement"":0}","[0]","survey-likert","397","845584","0.0-397.0","ggydg62k","","","","","","","","0"
"1219.5599999999395","{""confidence"":1}","[0]","survey-likert","398","846805","0.0-398.0","ggydg62k","","","","","","","",""
"","","","call-function","399","846805","0.0-399.0","ggydg62k","","","","","","","",""
"null","","","html-keyboard-response","400","848311","0.0-400.0","ggydg62k","","<span style=""color:Black; font-size:50px;"">Agent A","null","","","","",""
"null","","","video-keyboard-response","401","851437","0.0-401.0","ggydg62k","","","null","","Agent A","scrambled","STIM_SET_1/1591954.bmp_pp62_L2_V1.0_scrambled_freeview_isoFalse.mp4",""
"null","","","html-keyboard-response","402","852943","0.0-402.0","ggydg62k","","<span style=""color:Black; font-size:50px;"">Agent B","null","","","","",""
"null","","","video-keyboard-response","403","856032","0.0-403.0","ggydg62k","","","null","","Agent B","veridical","STIM_SET_1/1591954.bmp_pp62_L2_V1.0_veridical_freeview_isoFalse.mp4",""
"","","","call-function","404","856033","0.0-404.0","ggydg62k","","","","","","","",""
"1774.655000000028","{""judgement"":1}","[0]","survey-likert","405","857809","0.0-405.0","ggydg62k","","","","","","","","1"
"1947.4800000000978","{""confidence"":1}","[0]","survey-likert","406","859759","0.0-406.0","ggydg62k","","","","","","","",""
"","","","call-function","407","859760","0.0-407.0","ggydg62k","","","","","","","",""
"null","","","html-keyboard-response","408","861265","0.0-408.0","ggydg62k","","<span style=""color:Black; font-size:50px;"">Agent A","null","","","","",""
"null","","","video-keyboard-response","409","864334","0.0-409.0","ggydg62k","","","null","","Agent A","veridical","STIM_SET_1/713135.bmp_pp54_L2_V1.0_veridical_freeview_isoFalse.mp4",""
"null","","","html-keyboard-response","410","865835","0.0-410.0","ggydg62k","","<span style=""color:Black; font-size:50px;"">Agent B","null","","","","",""
"null","","","video-keyboard-response","411","868905","0.0-411.0","ggydg62k","","","null","","Agent B","scrambled","STIM_SET_1/713135.bmp_pp54_L2_V1.0_scrambled_freeview_isoFalse.mp4",""
"","","","call-function","412","868906","0.0-412.0","ggydg62k","","","","","","","",""
"1738.1449999999022","{""judgement"":0}","[0]","survey-likert","413","870645","0.0-413.0","ggydg62k","","","","","","","","0"
"1348.2399999999907","{""confidence"":2}","[0]","survey-likert","414","871994","0.0-414.0","ggydg62k","","","","","","","",""
"3314.725000000093","","","instructions","415","875310","0.0-415.0","ggydg62k","[{""page_index"":0,""viewing_time"":1587.9700000000885},{""page_index"":1,""viewing_time"":803.4949999999953},{""page_index"":2,""viewing_time"":923.1049999999814}]","","","","","","",""
"2440.0049999998882","","","instructions","416","877751","0.0-416.0","ggydg62k","[{""page_index"":0,""viewing_time"":787.8099999999395},{""page_index"":1,""viewing_time"":770.3399999999674},{""page_index"":2,""viewing_time"":881.75}]","","","","","","",""
"","","","call-function","417","877751","0.0-417.0","ggydg62k","","","","","","","",""
"null","","","html-keyboard-response","418","879252","0.0-418.0","ggydg62k","","<span style=""color:Black; font-size:50px;"">Agent A","null","","","","",""
"null","","","video-keyboard-response","419","882319","0.0-419.0","ggydg62k","","","null","","Agent A","scrambled","STIM_SET_1/1159621.bmp_pp92_L3_V1.0_scrambled_freeview_isoFalse.mp4",""
"null","","","html-keyboard-response","420","883823","0.0-420.0","ggydg62k","","<span style=""color:Black; font-size:50px;"">Agent B","null","","","","",""
"null","","","video-keyboard-response","421","886892","0.0-421.0","ggydg62k","","","null","","Agent B","veridical","STIM_SET_1/1159621.bmp_pp92_L3_V1.0_veridical_freeview_isoFalse.mp4",""
"","","","call-function","422","886892","0.0-422.0","ggydg62k","","","","","","","",""
"1611.3050000000512","{""judgement"":1}","[0]","survey-likert","423","888504","0.0-423.0","ggydg62k","","","","","","","","1"
"1359.5350000000326","{""confidence"":2}","[0]","survey-likert","424","889865","0.0-424.0","ggydg62k","","","","","","","",""
"","","","call-function","425","889866","0.0-425.0","ggydg62k","","","","","","","",""
"null","","","html-keyboard-response","426","891371","0.0-426.0","ggydg62k","","<span style=""color:Black; font-size:50px;"">Agent A","null","","","","",""
"null","","","video-keyboard-response","427","894490","0.0-427.0","ggydg62k","","","null","","Agent A","scrambled","STIM_SET_1/285751.bmp_pp55_L3_V1.0_scrambled_freeview_isoFalse.mp4",""
"null","","","html-keyboard-response","428","895992","0.0-428.0","ggydg62k","","<span style=""color:Black; font-size:50px;"">Agent B","null","","","","",""
"null","","","video-keyboard-response","429","899113","0.0-429.0","ggydg62k","","","null","","Agent B","veridical","STIM_SET_1/285751.bmp_pp55_L3_V1.0_veridical_freeview_isoFalse.mp4",""
"","","","call-function","430","899114","0.0-430.0","ggydg62k","","","","","","","",""
"2528.2900000000373","{""judgement"":1}","[0]","survey-likert","431","901643","0.0-431.0","ggydg62k","","","","","","","","1"
"2329.875","{""confidence"":3}","[0]","survey-likert","432","903974","0.0-432.0","ggydg62k","","","","","","","",""
"","","","call-function","433","903974","0.0-433.0","ggydg62k","","","","","","","",""
"null","","","html-keyboard-response","434","905479","0.0-434.0","ggydg62k","","<span style=""color:Black; font-size:50px;"">Agent A","null","","","","",""
"null","","","video-keyboard-response","435","908555","0.0-435.0","ggydg62k","","","null","","Agent A","scrambled","STIM_SET_1/1592890.bmp_pp82_L2_V1.0_scrambled_freeview_isoFalse.mp4",""
"null","","","html-keyboard-response","436","910061","0.0-436.0","ggydg62k","","<span style=""color:Black; font-size:50px;"">Agent B","null","","","","",""
"null","","","video-keyboard-response","437","913140","0.0-437.0","ggydg62k","","","null","","Agent B","veridical","STIM_SET_1/1592890.bmp_pp82_L2_V1.0_veridical_freeview_isoFalse.mp4",""
"","","","call-function","438","913141","0.0-438.0","ggydg62k","","","","","","","",""
"1992.3699999999953","{""judgement"":1}","[0]","survey-likert","439","915134","0.0-439.0","ggydg62k","","","","","","","","1"
"1527.984999999986","{""confidence"":1}","[0]","survey-likert","440","916663","0.0-440.0","ggydg62k","","","","","","","",""
"","","","call-function","441","916664","0.0-441.0","ggydg62k","","","","","","","",""
"null","","","html-keyboard-response","442","918166","0.0-442.0","ggydg62k","","<span style=""color:Black; font-size:50px;"">Agent A","null","","","","",""
"null","","","video-keyboard-response","443","921291","0.0-443.0","ggydg62k","","","null","","Agent A","veridical","STIM_SET_1/1160168.bmp_pp53_L2_V1.0_veridical_freeview_isoFalse.mp4",""
"null","","","html-keyboard-response","444","922793","0.0-444.0","ggydg62k","","<span style=""color:Black; font-size:50px;"">Agent B","null","","","","",""
"null","","","video-keyboard-response","445","925917","0.0-445.0","ggydg62k","","","null","","Agent B","scrambled","STIM_SET_1/1160168.bmp_pp53_L2_V1.0_scrambled_freeview_isoFalse.mp4",""
"","","","call-function","446","925918","0.0-446.0","ggydg62k","","","","","","","",""
"1657.0200000000186","{""judgement"":0}","[0]","survey-likert","447","927576","0.0-447.0","ggydg62k","","","","","","","","0"
"1639.0700000000652","{""confidence"":0}","[0]","survey-likert","448","929216","0.0-448.0","ggydg62k","","","","","","","",""
"","","","call-function","449","929217","0.0-449.0","ggydg62k","","","","","","","",""
"null","","","html-keyboard-response","450","930720","0.0-450.0","ggydg62k","","<span style=""color:Black; font-size:50px;"">Agent A","null","","","","",""
"null","","","video-keyboard-response","451","933789","0.0-451.0","ggydg62k","","","null","","Agent A","scrambled","STIM_SET_1/1592619.bmp_pp56_L3_V1.0_scrambled_freeview_isoFalse.mp4",""
"null","","","html-keyboard-response","452","935292","0.0-452.0","ggydg62k","","<span style=""color:Black; font-size:50px;"">Agent B","null","","","","",""
"null","","","video-keyboard-response","453","938359","0.0-453.0","ggydg62k","","","null","","Agent B","veridical","STIM_SET_1/1592619.bmp_pp56_L3_V1.0_veridical_freeview_isoFalse.mp4",""
"","","","call-function","454","938360","0.0-454.0","ggydg62k","","","","","","","",""
"1548.0749999999534","{""judgement"":1}","[0]","survey-likert","455","939909","0.0-455.0","ggydg62k","","","","","","","","1"
"1232.1949999999488","{""confidence"":3}","[0]","survey-likert","456","941144","0.0-456.0","ggydg62k","","","","","","","",""
"","","","call-function","457","941145","0.0-457.0","ggydg62k","","","","","","","",""
"null","","","html-keyboard-response","458","942645","0.0-458.0","ggydg62k","","<span style=""color:Black; font-size:50px;"">Agent A","null","","","","",""
"null","","","video-keyboard-response","459","945719","0.0-459.0","ggydg62k","","","null","","Agent A","veridical","STIM_SET_1/1159515.bmp_pp84_L3_V1.0_veridical_freeview_isoFalse.mp4",""
"null","","","html-keyboard-response","460","947222","0.0-460.0","ggydg62k","","<span style=""color:Black; font-size:50px;"">Agent B","null","","","","",""
"null","","","video-keyboard-response","461","950293","0.0-461.0","ggydg62k","","","null","","Agent B","scrambled","STIM_SET_1/1159515.bmp_pp84_L3_V1.0_scrambled_freeview_isoFalse.mp4",""
"","","","call-function","462","950293","0.0-462.0","ggydg62k","","","","","","","",""
"1416.0100000000093","{""judgement"":0}","[0]","survey-likert","463","951710","0.0-463.0","ggydg62k","","","","","","","","0"
"1837.7749999999069","{""confidence"":2}","[0]","survey-likert","464","953549","0.0-464.0","ggydg62k","","","","","","","",""
"","","","call-function","465","953550","0.0-465.0","ggydg62k","","","","","","","",""
"null","","","html-keyboard-response","466","955053","0.0-466.0","ggydg62k","","<span style=""color:Black; font-size:50px;"">Agent A","null","","","","",""
"null","","","video-keyboard-response","467","958121","0.0-467.0","ggydg62k","","","null","","Agent A","scrambled","STIM_SET_1/713089.bmp_pp60_L3_V1.0_scrambled_freeview_isoFalse.mp4",""
"null","","","html-keyboard-response","468","959624","0.0-468.0","ggydg62k","","<span style=""color:Black; font-size:50px;"">Agent B","null","","","","",""
"null","","","video-keyboard-response","469","962693","0.0-469.0","ggydg62k","","","null","","Agent B","veridical","STIM_SET_1/713089.bmp_pp60_L3_V1.0_veridical_freeview_isoFalse.mp4",""
"","","","call-function","470","962694","0.0-470.0","ggydg62k","","","","","","","",""
"1852.6300000000047","{""judgement"":1}","[0]","survey-likert","471","964547","0.0-471.0","ggydg62k","","","","","","","","1"
"1625.8800000000047","{""confidence"":0}","[0]","survey-likert","472","966174","0.0-472.0","ggydg62k","","","","","","","",""
"","","","call-function","473","966175","0.0-473.0","ggydg62k","","","","","","","",""
"null","","","html-keyboard-response","474","967677","0.0-474.0","ggydg62k","","<span style=""color:Black; font-size:50px;"">Agent A","null","","","","",""
"null","","","video-keyboard-response","475","970789","0.0-475.0","ggydg62k","","","null","","Agent A","scrambled","STIM_SET_1/1159447.bmp_pp70_L2_V1.0_scrambled_freeview_isoFalse.mp4",""
"null","","","html-keyboard-response","476","972296","0.0-476.0","ggydg62k","","<span style=""color:Black; font-size:50px;"">Agent B","null","","","","",""
"null","","","video-keyboard-response","477","975408","0.0-477.0","ggydg62k","","","null","","Agent B","veridical","STIM_SET_1/1159447.bmp_pp70_L2_V1.0_veridical_freeview_isoFalse.mp4",""
"","","","call-function","478","975408","0.0-478.0","ggydg62k","","","","","","","",""
"1549.7249999999767","{""judgement"":1}","[0]","survey-likert","479","976959","0.0-479.0","ggydg62k","","","","","","","","1"
"1362.3100000000559","{""confidence"":2}","[0]","survey-likert","480","978322","0.0-480.0","ggydg62k","","","","","","","",""
"","","","call-function","481","978323","0.0-481.0","ggydg62k","","","","","","","",""
"null","","","html-keyboard-response","482","979825","0.0-482.0","ggydg62k","","<span style=""color:Black; font-size:50px;"">Agent A","null","","","","",""
"null","","","video-keyboard-response","483","982897","0.0-483.0","ggydg62k","","","null","","Agent A","scrambled","STIM_SET_1/1592499.bmp_pp96_L2_V1.0_scrambled_freeview_isoFalse.mp4",""
"null","","","html-keyboard-response","484","984399","0.0-484.0","ggydg62k","","<span style=""color:Black; font-size:50px;"">Agent B","null","","","","",""
"null","","","video-keyboard-response","485","987514","0.0-485.0","ggydg62k","","","null","","Agent B","veridical","STIM_SET_1/1592499.bmp_pp96_L2_V1.0_veridical_freeview_isoFalse.mp4",""
"","","","call-function","486","987515","0.0-486.0","ggydg62k","","","","","","","",""
"1553.5749999999534","{""judgement"":1}","[0]","survey-likert","487","989069","0.0-487.0","ggydg62k","","","","","","","","1"
"1456.3800000000047","{""confidence"":3}","[0]","survey-likert","488","990527","0.0-488.0","ggydg62k","","","","","","","",""
"","","","call-function","489","990527","0.0-489.0","ggydg62k","","","","","","","",""
"null","","","html-keyboard-response","490","992028","0.0-490.0","ggydg62k","","<span style=""color:Black; font-size:50px;"">Agent A","null","","","","",""
"null","","","video-keyboard-response","491","995150","0.0-491.0","ggydg62k","","","null","","Agent A","scrambled","STIM_SET_1/1592807.bmp_pp68_L1_V1.0_scrambled_freeview_isoFalse.mp4",""
"null","","","html-keyboard-response","492","996655","0.0-492.0","ggydg62k","","<span style=""color:Black; font-size:50px;"">Agent B","null","","","","",""
"null","","","video-keyboard-response","493","999774","0.0-493.0","ggydg62k","","","null","","Agent B","veridical","STIM_SET_1/1592807.bmp_pp68_L1_V1.0_veridical_freeview_isoFalse.mp4",""
"","","","call-function","494","999774","0.0-494.0","ggydg62k","","","","","","","",""
"3682.070000000065","{""judgement"":1}","[0]","survey-likert","495","1003458","0.0-495.0","ggydg62k","","","","","","","","1"
"1979.4100000000326","{""confidence"":1}","[0]","survey-likert","496","1005438","0.0-496.0","ggydg62k","","","","","","","",""
"2913.439999999944","","","instructions","497","1008353","0.0-497.0","ggydg62k","[{""page_index"":0,""viewing_time"":1121.2850000000326},{""page_index"":1,""viewing_time"":917.9449999999488},{""page_index"":2,""viewing_time"":873.9649999999674}]","","","","","","",""
"2337.3800000000047","","","instructions","498","1010691","0.0-498.0","ggydg62k","[{""page_index"":0,""viewing_time"":602.2700000000186},{""page_index"":1,""viewing_time"":776.1800000000512},{""page_index"":2,""viewing_time"":958.8199999999488}]","","","","","","",""
"","","","call-function","499","1010692","0.0-499.0","ggydg62k","","","","","","","",""
"null","","","html-keyboard-response","500","1012193","0.0-500.0","ggydg62k","","<span style=""color:Black; font-size:50px;"">Agent A","null","","","","",""
"null","","","video-keyboard-response","501","1015274","0.0-501.0","ggydg62k","","","null","","Agent A","scrambled","STIM_SET_1/1592657.bmp_pp98_L1_V1.0_scrambled_freeview_isoFalse.mp4",""
"null","","","html-keyboard-response","502","1016776","0.0-502.0","ggydg62k","","<span style=""color:Black; font-size:50px;"">Agent B","null","","","","",""
"null","","","video-keyboard-response","503","1019854","0.0-503.0","ggydg62k","","","null","","Agent B","veridical","STIM_SET_1/1592657.bmp_pp98_L1_V1.0_veridical_freeview_isoFalse.mp4",""
"","","","call-function","504","1019855","0.0-504.0","ggydg62k","","","","","","","",""
"3856.655000000028","{""judgement"":1}","[0]","survey-likert","505","1023712","0.0-505.0","ggydg62k","","","","","","","","1"
"1951.75","{""confidence"":2}","[0]","survey-likert","506","1025665","0.0-506.0","ggydg62k","","","","","","","",""
"","","","call-function","507","1025666","0.0-507.0","ggydg62k","","","","","","","",""
"null","","","html-keyboard-response","508","1027168","0.0-508.0","ggydg62k","","<span style=""color:Black; font-size:50px;"">Agent A","null","","","","",""
"null","","","video-keyboard-response","509","1030246","0.0-509.0","ggydg62k","","","null","","Agent A","scrambled","STIM_SET_1/1159784.bmp_pp73_L3_V1.0_scrambled_freeview_isoFalse.mp4",""
"null","","","html-keyboard-response","510","1031749","0.0-510.0","ggydg62k","","<span style=""color:Black; font-size:50px;"">Agent B","null","","","","",""
"null","","","video-keyboard-response","511","1034824","0.0-511.0","ggydg62k","","","null","","Agent B","veridical","STIM_SET_1/1159784.bmp_pp73_L3_V1.0_veridical_freeview_isoFalse.mp4",""
"","","","call-function","512","1034824","0.0-512.0","ggydg62k","","","","","","","",""
"2597.890000000014","{""judgement"":1}","[0]","survey-likert","513","1037424","0.0-513.0","ggydg62k","","","","","","","","1"
"1517.530000000028","{""confidence"":2}","[0]","survey-likert","514","1038943","0.0-514.0","ggydg62k","","","","","","","",""
"","","","call-function","515","1038945","0.0-515.0","ggydg62k","","","","","","","",""
"null","","","html-keyboard-response","516","1040446","0.0-516.0","ggydg62k","","<span style=""color:Black; font-size:50px;"">Agent A","null","","","","",""
"null","","","video-keyboard-response","517","1043526","0.0-517.0","ggydg62k","","","null","","Agent A","veridical","STIM_SET_1/498155.bmp_pp61_L2_V1.0_veridical_freeview_isoFalse.mp4",""
"null","","","html-keyboard-response","518","1045029","0.0-518.0","ggydg62k","","<span style=""color:Black; font-size:50px;"">Agent B","null","","","","",""
"null","","","video-keyboard-response","519","1048109","0.0-519.0","ggydg62k","","","null","","Agent B","scrambled","STIM_SET_1/498155.bmp_pp61_L2_V1.0_scrambled_freeview_isoFalse.mp4",""
"","","","call-function","520","1048110","0.0-520.0","ggydg62k","","","","","","","",""
"1594.4899999998743","{""judgement"":0}","[0]","survey-likert","521","1049706","0.0-521.0","ggydg62k","","","","","","","","0"
"5874.645000000019","{""confidence"":3}","[0]","survey-likert","522","1055582","0.0-522.0","ggydg62k","","","","","","","",""
"","","","call-function","523","1055583","0.0-523.0","ggydg62k","","","","","","","",""
"null","","","html-keyboard-response","524","1057085","0.0-524.0","ggydg62k","","<span style=""color:Black; font-size:50px;"">Agent A","null","","","","",""
"null","","","video-keyboard-response","525","1060158","0.0-525.0","ggydg62k","","","null","","Agent A","scrambled","STIM_SET_1/1159829.bmp_pp91_L3_V1.0_scrambled_freeview_isoFalse.mp4",""
"null","","","html-keyboard-response","526","1061661","0.0-526.0","ggydg62k","","<span style=""color:Black; font-size:50px;"">Agent B","null","","","","",""
"null","","","video-keyboard-response","527","1064732","0.0-527.0","ggydg62k","","","null","","Agent B","veridical","STIM_SET_1/1159829.bmp_pp91_L3_V1.0_veridical_freeview_isoFalse.mp4",""
"","","","call-function","528","1064733","0.0-528.0","ggydg62k","","","","","","","",""
"12409.440000000177","{""judgement"":1}","[0]","survey-likert","529","1077143","0.0-529.0","ggydg62k","","","","","","","","1"
"1464.1500000001397","{""confidence"":0}","[0]","survey-likert","530","1078609","0.0-530.0","ggydg62k","","","","","","","",""
"","","","call-function","531","1078609","0.0-531.0","ggydg62k","","","","","","","",""
"null","","","html-keyboard-response","532","1080111","0.0-532.0","ggydg62k","","<span style=""color:Black; font-size:50px;"">Agent A","null","","","","",""
"null","","","video-keyboard-response","533","1083226","0.0-533.0","ggydg62k","","","null","","Agent A","veridical","STIM_SET_1/1592397.bmp_pp85_L3_V1.0_veridical_freeview_isoFalse.mp4",""
"null","","","html-keyboard-response","534","1084729","0.0-534.0","ggydg62k","","<span style=""color:Black; font-size:50px;"">Agent B","null","","","","",""
"null","","","video-keyboard-response","535","1087843","0.0-535.0","ggydg62k","","","null","","Agent B","scrambled","STIM_SET_1/1592397.bmp_pp85_L3_V1.0_scrambled_freeview_isoFalse.mp4",""
"","","","call-function","536","1087843","0.0-536.0","ggydg62k","","","","","","","",""
"2474.149999999907","{""judgement"":0}","[0]","survey-likert","537","1090318","0.0-537.0","ggydg62k","","","","","","","","0"
"1576.1350000000093","{""confidence"":0}","[0]","survey-likert","538","1091896","0.0-538.0","ggydg62k","","","","","","","",""
"","","","call-function","539","1091896","0.0-539.0","ggydg62k","","","","","","","",""
"null","","","html-keyboard-response","540","1093400","0.0-540.0","ggydg62k","","<span style=""color:Black; font-size:50px;"">Agent A","null","","","","",""
"null","","","video-keyboard-response","541","1096512","0.0-541.0","ggydg62k","","","null","","Agent A","veridical","STIM_SET_1/1592362.bmp_pp95_L2_V1.0_veridical_freeview_isoFalse.mp4",""
"null","","","html-keyboard-response","542","1098019","0.0-542.0","ggydg62k","","<span style=""color:Black; font-size:50px;"">Agent B","null","","","","",""
"null","","","video-keyboard-response","543","1101128","0.0-543.0","ggydg62k","","","null","","Agent B","scrambled","STIM_SET_1/1592362.bmp_pp95_L2_V1.0_scrambled_freeview_isoFalse.mp4",""
"","","","call-function","544","1101128","0.0-544.0","ggydg62k","","","","","","","",""
"2036.3050000001676","{""judgement"":0}","[0]","survey-likert","545","1103165","0.0-545.0","ggydg62k","","","","","","","","0"
"2228.975000000093","{""confidence"":2}","[0]","survey-likert","546","1105396","0.0-546.0","ggydg62k","","","","","","","",""
"","","","call-function","547","1105397","0.0-547.0","ggydg62k","","","","","","","",""
"null","","","html-keyboard-response","548","1106899","0.0-548.0","ggydg62k","","<span style=""color:Black; font-size:50px;"">Agent A","null","","","","",""
"null","","","video-keyboard-response","549","1109978","0.0-549.0","ggydg62k","","","null","","Agent A","scrambled","STIM_SET_1/1591876.bmp_pp63_L1_V1.0_scrambled_freeview_isoFalse.mp4",""
"null","","","html-keyboard-response","550","1111483","0.0-550.0","ggydg62k","","<span style=""color:Black; font-size:50px;"">Agent B","null","","","","",""
"null","","","video-keyboard-response","551","1114565","0.0-551.0","ggydg62k","","","null","","Agent B","veridical","STIM_SET_1/1591876.bmp_pp63_L1_V1.0_veridical_freeview_isoFalse.mp4",""
"","","","call-function","552","1114567","0.0-552.0","ggydg62k","","","","","","","",""
"1607.3350000001956","{""judgement"":1}","[0]","survey-likert","553","1116175","0.0-553.0","ggydg62k","","","","","","","","1"
"2432","{""confidence"":3}","[0]","survey-likert","554","1118609","0.0-554.0","ggydg62k","","","","","","","",""
"","","","call-function","555","1118609","0.0-555.0","ggydg62k","","","","","","","",""
"null","","","html-keyboard-response","556","1120111","0.0-556.0","ggydg62k","","<span style=""color:Black; font-size:50px;"">Agent A","null","","","","",""
"null","","","video-keyboard-response","557","1123216","0.0-557.0","ggydg62k","","","null","","Agent A","scrambled","STIM_SET_1/1159446.bmp_pp60_L3_V1.0_scrambled_freeview_isoFalse.mp4",""
"null","","","html-keyboard-response","558","1124720","0.0-558.0","ggydg62k","","<span style=""color:Black; font-size:50px;"">Agent B","null","","","","",""
"null","","","video-keyboard-response","559","1127813","0.0-559.0","ggydg62k","","","null","","Agent B","veridical","STIM_SET_1/1159446.bmp_pp60_L3_V1.0_veridical_freeview_isoFalse.mp4",""
"","","","call-function","560","1127814","0.0-560.0","ggydg62k","","","","","","","",""
"3224.850000000093","{""judgement"":0}","[0]","survey-likert","561","1131040","0.0-561.0","ggydg62k","","","","","","","","1"
"1690.9550000000745","{""confidence"":2}","[0]","survey-likert","562","1132732","0.0-562.0","ggydg62k","","","","","","","",""
"","","","call-function","563","1132733","0.0-563.0","ggydg62k","","","","","","","",""
"null","","","html-keyboard-response","564","1134239","0.0-564.0","ggydg62k","","<span style=""color:Black; font-size:50px;"">Agent A","null","","","","",""
"null","","","video-keyboard-response","565","1137321","0.0-565.0","ggydg62k","","","null","","Agent A","veridical","STIM_SET_1/713371.bmp_pp68_L1_V1.0_veridical_freeview_isoFalse.mp4",""
"null","","","html-keyboard-response","566","1138824","0.0-566.0","ggydg62k","","<span style=""color:Black; font-size:50px;"">Agent B","null","","","","",""
"null","","","video-keyboard-response","567","1141903","0.0-567.0","ggydg62k","","","null","","Agent B","scrambled","STIM_SET_1/713371.bmp_pp68_L1_V1.0_scrambled_freeview_isoFalse.mp4",""
"","","","call-function","568","1141903","0.0-568.0","ggydg62k","","","","","","","",""
"3035.465000000084","{""judgement"":1}","[0]","survey-likert","569","1144940","0.0-569.0","ggydg62k","","","","","","","","0"
"1558.5699999998324","{""confidence"":1}","[0]","survey-likert","570","1146500","0.0-570.0","ggydg62k","","","","","","","",""
"","","","call-function","571","1146501","0.0-571.0","ggydg62k","","","","","","","",""
"null","","","html-keyboard-response","572","1148002","0.0-572.0","ggydg62k","","<span style=""color:Black; font-size:50px;"">Agent A","null","","","","",""
"null","","","video-keyboard-response","573","1151072","0.0-573.0","ggydg62k","","","null","","Agent A","veridical","STIM_SET_1/1592351.bmp_pp51_L1_V1.0_veridical_freeview_isoFalse.mp4",""
"null","","","html-keyboard-response","574","1152577","0.0-574.0","ggydg62k","","<span style=""color:Black; font-size:50px;"">Agent B","null","","","","",""
"null","","","video-keyboard-response","575","1155679","0.0-575.0","ggydg62k","","","null","","Agent B","scrambled","STIM_SET_1/1592351.bmp_pp51_L1_V1.0_scrambled_freeview_isoFalse.mp4",""
"","","","call-function","576","1155680","0.0-576.0","ggydg62k","","","","","","","",""
"1578.0550000001676","{""judgement"":0}","[0]","survey-likert","577","1157259","0.0-577.0","ggydg62k","","","","","","","","0"
"1866.8900000001304","{""confidence"":0}","[0]","survey-likert","578","1159127","0.0-578.0","ggydg62k","","","","","","","",""
"1478.6099999998696","","","instructions","579","1160606","0.0-579.0","ggydg62k","[{""page_index"":0,""viewing_time"":1478.344999999972}]","","","","","","",""
"3072.6450000000186","","","instructions","580","1163679","0.0-580.0","ggydg62k","[{""page_index"":0,""viewing_time"":3072.535000000149}]","","","","","","",""
"11600.065000000177","{""post-1"":2}","[0]","survey-likert","581","1175281","0.0-581.0","ggydg62k","","","","","","","",""
"8003.530000000028","{""post-1"":0}","[0]","survey-likert","582","1183286","0.0-582.0","ggydg62k","","","","","","","",""
"13147.020000000019","{""post-2"":1}","[0]","survey-likert","583","1196434","0.0-583.0","ggydg62k","","","","","","","",""
"8664.825000000186","{""post-2"":0}","[0]","survey-likert","584","1205100","0.0-584.0","ggydg62k","","","","","","","",""
"9448.13500000001","{""post-3"":2}","[0]","survey-likert","585","1214549","0.0-585.0","ggydg62k","","","","","","","",""
"5300.4550000000745","{""post-3"":1}","[0]","survey-likert","586","1219851","0.0-586.0","ggydg62k","","","","","","","",""
"8595.219999999972","{""post-4"":0}","[0]","survey-likert","587","1228448","0.0-587.0","ggydg62k","","","","","","","",""
"6406.23499999987","{""post-4"":0}","[0]","survey-likert","588","1234856","0.0-588.0","ggydg62k","","","","","","","",""
"5420.6699999999255","{""post-5"":2}","[0]","survey-likert","589","1240279","0.0-589.0","ggydg62k","","","","","","","",""
"4343.739999999991","{""post-5"":3}","[0]","survey-likert","590","1244625","0.0-590.0","ggydg62k","","","","","","","",""
"137432.42500000005","{""Q0"":""When judging the image attention sequences I tried so see if where the attention focus points were were points that I too would focus on in that sequence (like faces and words) but besides that it was rather difficult to determine if it was a human or fake sequence. Also, there were some sequences that felt like a human was looking at them but personally I found that there were more sequences that felt randomized and mechanical, which were the ones I more confidently deemed to be fake.""}","","survey-text","591","1382064","0.0-591.0","ggydg62k","","","","","","","",""
"76980.36499999999","{""Q0"":""I mentioned this in the last question but by seeing if the sequence played match how I would look at the image (versus the sequence being all over the place with random hot spots dashing across the screen)and there by determined if I thought it was a human sequence or not.""}","","survey-text","592","1459048","0.0-592.0","ggydg62k","","","","","","","",""
"28460.040000000037","{""Q0"":""Some of the sequences were very similar and focused in virtually the same places making it very difficult to differentiate.""}","","survey-text","593","1487512","0.0-593.0","ggydg62k","","","","","","","",""
"6361.26500000013","","","instructions","594","1493875","0.0-594.0","ggydg62k","[{""page_index"":0,""viewing_time"":6361.130000000121}]","","","","","","",""
"40815.10000000009","{""Experimenter_end"":[""Printed ID# ggydg62k on consent form"",""Given subject SONA credit or payment"",""Given the subject debrief form""]}","[0]","survey-multi-select","595","1534693","0.0-595.0","ggydg62k","","","","","","","",""
