"rt","responses","question_order","trial_type","trial_index","time_elapsed","internal_node_id","ID","view_history","stimulus","key_press","value","agent","condition","image","correct_answer"
"22249.695000000003","{""Experimenter"":[""Confirmed subject's identity"",""Confirmed normal or corrected-to-normal vision"",""Obtained consent (signature and date)"",""Checked the test room lighting"",""Checked computer screen lighting"",""Checked distance from screen to chin rest (50cm)"",""Cleaned and adjusted chin rest"",""Counterbalanced the order of the tasks"",""Opened the experiment in Firefox"",""Made the experiment full screen"",""Encouraged subject to silence phone, put away distractors, etc.""]}","[0]","survey-multi-select","0","22257","0.0-0.0","guk1mo2t","","","","","","","",""
"15600.674999999996","","","instructions","1","37859","0.0-1.0","guk1mo2t","[{""page_index"":0,""viewing_time"":15600.529999999999}]","","","","","","",""
"27863.754999999997","{""Age"":4,""Sex"":1,""Gender"":1}","[0,1,2]","survey-likert","2","65725","0.0-2.0","guk1mo2t","","","","","","","",""
"9877.240000000005","","","instructions","3","75603","0.0-3.0","guk1mo2t","[{""page_index"":0,""viewing_time"":4063.915000000008},{""page_index"":1,""viewing_time"":1269.2400000000052},{""page_index"":2,""viewing_time"":4543.9649999999965}]","","","","","","",""
"1812.2250000000058","","","instructions","4","77416","0.0-4.0","guk1mo2t","[{""page_index"":0,""viewing_time"":1812.1150000000052}]","","","","","","",""
"null","","","video-keyboard-response","5","80492","0.0-5.0","guk1mo2t","","","null","","","","",""
"8743.195000000007","","","instructions","6","89236","0.0-6.0","guk1mo2t","[{""page_index"":0,""viewing_time"":1365.0149999999994},{""page_index"":1,""viewing_time"":2087.37000000001},{""page_index"":2,""viewing_time"":5290.684999999998}]","","","","","","",""
"2760.6199999999953","","","instructions","7","91997","0.0-7.0","guk1mo2t","[{""page_index"":0,""viewing_time"":2760.5199999999895}]","","","","","","",""
"1234.645000000004","","","instructions","8","93232","0.0-8.0","guk1mo2t","[{""page_index"":0,""viewing_time"":1234.429999999993}]","","","","","","",""
"null","","","video-keyboard-response","9","96316","0.0-9.0","guk1mo2t","","","null","","","","",""
"10083.820000000007","","","instructions","10","106401","0.0-10.0","guk1mo2t","[{""page_index"":0,""viewing_time"":1710.675000000003},{""page_index"":1,""viewing_time"":2966.824999999997},{""page_index"":2,""viewing_time"":5405.684999999998}]","","","","","","",""
"3729.9900000000052","","","instructions","11","110132","0.0-11.0","guk1mo2t","[{""page_index"":0,""viewing_time"":3729.8800000000047}]","","","","","","",""
"","","","call-function","12","110133","0.0-12.0","guk1mo2t","","","","","","","",""
"null","","","html-keyboard-response","13","111637","0.0-13.0","guk1mo2t","","<span style=""color:Black; font-size:50px;"">Agent A","null","","","","",""
"null","","","video-keyboard-response","14","114387","0.0-14.0","guk1mo2t","","","null","","Agent A","veridical","FOR_REV_MAP_BLOBBY_STIM/1159819.bmp_pp151_L1_V1.0_veridical_freeview_isoTrue_fps144.mp4",""
"null","","","html-keyboard-response","15","115891","0.0-15.0","guk1mo2t","","<span style=""color:Black; font-size:50px;"">Agent B","null","","","","",""
"null","","","video-keyboard-response","16","118627","0.0-16.0","guk1mo2t","","","null","","Agent B","scrambled","FOR_REV_MAP_BLOBBY_STIM/1159819.bmp_pp151_L1_V1.0_veridical_freeview_isoTrue_fps144_reversed_REAL.mp4",""
"","","","call-function","17","118627","0.0-17.0","guk1mo2t","","","","","","","",""
"1871.784999999989","{""judgement"":0}","[0]","survey-likert","18","120500","0.0-18.0","guk1mo2t","","","","","","","","0"
"3154.529999999999","{""confidence"":1}","[0]","survey-likert","19","123656","0.0-19.0","guk1mo2t","","","","","","","",""
"","","","call-function","20","123657","0.0-20.0","guk1mo2t","","","","","","","",""
"null","","","html-keyboard-response","21","125161","0.0-21.0","guk1mo2t","","<span style=""color:Black; font-size:50px;"">Agent A","null","","","","",""
"null","","","video-keyboard-response","22","127057","0.0-22.0","guk1mo2t","","","null","","Agent A","veridical","FOR_REV_MAP_BLOBBY_STIM/285946.bmp_pp79_L2_V1.0_veridical_freeview_isoTrue_fps144.mp4",""
"null","","","html-keyboard-response","23","128560","0.0-23.0","guk1mo2t","","<span style=""color:Black; font-size:50px;"">Agent B","null","","","","",""
"null","","","video-keyboard-response","24","130443","0.0-24.0","guk1mo2t","","","null","","Agent B","scrambled","FOR_REV_MAP_BLOBBY_STIM/285946.bmp_pp79_L2_V1.0_veridical_freeview_isoTrue_fps144_reversed_REAL.mp4",""
"","","","call-function","25","130443","0.0-25.0","guk1mo2t","","","","","","","",""
"1602.5750000000116","{""judgement"":0}","[0]","survey-likert","26","132046","0.0-26.0","guk1mo2t","","","","","","","","0"
"1658.5199999999895","{""confidence"":1}","[0]","survey-likert","27","133706","0.0-27.0","guk1mo2t","","","","","","","",""
"","","","call-function","28","133706","0.0-28.0","guk1mo2t","","","","","","","",""
"null","","","html-keyboard-response","29","135209","0.0-29.0","guk1mo2t","","<span style=""color:Black; font-size:50px;"">Agent A","null","","","","",""
"null","","","video-keyboard-response","30","137961","0.0-30.0","guk1mo2t","","","null","","Agent A","scrambled","FOR_REV_MAP_BLOBBY_STIM/1591975.bmp_pp88_L2_V1.0_veridical_freeview_isoTrue_fps144_reversed_REAL.mp4",""
"null","","","html-keyboard-response","31","139466","0.0-31.0","guk1mo2t","","<span style=""color:Black; font-size:50px;"">Agent B","null","","","","",""
"null","","","video-keyboard-response","32","142220","0.0-32.0","guk1mo2t","","","null","","Agent B","veridical","FOR_REV_MAP_BLOBBY_STIM/1591975.bmp_pp88_L2_V1.0_veridical_freeview_isoTrue_fps144.mp4",""
"","","","call-function","33","142220","0.0-33.0","guk1mo2t","","","","","","","",""
"1416.125","{""judgement"":1}","[0]","survey-likert","34","143637","0.0-34.0","guk1mo2t","","","","","","","","1"
"1229.3550000000105","{""confidence"":0}","[0]","survey-likert","35","144868","0.0-35.0","guk1mo2t","","","","","","","",""
"","","","call-function","36","144868","0.0-36.0","guk1mo2t","","","","","","","",""
"null","","","html-keyboard-response","37","146372","0.0-37.0","guk1mo2t","","<span style=""color:Black; font-size:50px;"">Agent A","null","","","","",""
"null","","","video-keyboard-response","38","149196","0.0-38.0","guk1mo2t","","","null","","Agent A","veridical","FOR_REV_MAP_BLOBBY_STIM/713689.bmp_pp153_L3_V1.0_veridical_freeview_isoTrue_fps144.mp4",""
"null","","","html-keyboard-response","39","150697","0.0-39.0","guk1mo2t","","<span style=""color:Black; font-size:50px;"">Agent B","null","","","","",""
"null","","","video-keyboard-response","40","153509","0.0-40.0","guk1mo2t","","","null","","Agent B","scrambled","FOR_REV_MAP_BLOBBY_STIM/713689.bmp_pp153_L3_V1.0_veridical_freeview_isoTrue_fps144_reversed_REAL.mp4",""
"","","","call-function","41","153510","0.0-41.0","guk1mo2t","","","","","","","",""
"1896.085000000021","{""judgement"":1}","[0]","survey-likert","42","155407","0.0-42.0","guk1mo2t","","","","","","","","0"
"3864.1050000000105","{""confidence"":0}","[0]","survey-likert","43","159272","0.0-43.0","guk1mo2t","","","","","","","",""
"","","","call-function","44","159272","0.0-44.0","guk1mo2t","","","","","","","",""
"null","","","html-keyboard-response","45","160773","0.0-45.0","guk1mo2t","","<span style=""color:Black; font-size:50px;"">Agent A","null","","","","",""
"null","","","video-keyboard-response","46","163497","0.0-46.0","guk1mo2t","","","null","","Agent A","scrambled","FOR_REV_MAP_BLOBBY_STIM/1159427.bmp_pp98_L1_V1.0_veridical_freeview_isoTrue_fps144_reversed_REAL.mp4",""
"null","","","html-keyboard-response","47","165000","0.0-47.0","guk1mo2t","","<span style=""color:Black; font-size:50px;"">Agent B","null","","","","",""
"null","","","video-keyboard-response","48","167726","0.0-48.0","guk1mo2t","","","null","","Agent B","veridical","FOR_REV_MAP_BLOBBY_STIM/1159427.bmp_pp98_L1_V1.0_veridical_freeview_isoTrue_fps144.mp4",""
"","","","call-function","49","167726","0.0-49.0","guk1mo2t","","","","","","","",""
"3654.2999999999884","{""judgement"":0}","[0]","survey-likert","50","171381","0.0-50.0","guk1mo2t","","","","","","","","1"
"987.1000000000058","{""confidence"":1}","[0]","survey-likert","51","172369","0.0-51.0","guk1mo2t","","","","","","","",""
"","","","call-function","52","172370","0.0-52.0","guk1mo2t","","","","","","","",""
"null","","","html-keyboard-response","53","173876","0.0-53.0","guk1mo2t","","<span style=""color:Black; font-size:50px;"">Agent A","null","","","","",""
"null","","","video-keyboard-response","54","176501","0.0-54.0","guk1mo2t","","","null","","Agent A","scrambled","FOR_REV_MAP_BLOBBY_STIM/1159874.bmp_pp96_L2_V1.0_veridical_freeview_isoTrue_fps144_reversed_REAL.mp4",""
"null","","","html-keyboard-response","55","178003","0.0-55.0","guk1mo2t","","<span style=""color:Black; font-size:50px;"">Agent B","null","","","","",""
"null","","","video-keyboard-response","56","180607","0.0-56.0","guk1mo2t","","","null","","Agent B","veridical","FOR_REV_MAP_BLOBBY_STIM/1159874.bmp_pp96_L2_V1.0_veridical_freeview_isoTrue_fps144.mp4",""
"","","","call-function","57","180607","0.0-57.0","guk1mo2t","","","","","","","",""
"1313.4199999999837","{""judgement"":0}","[0]","survey-likert","58","181921","0.0-58.0","guk1mo2t","","","","","","","","1"
"2359.069999999978","{""confidence"":0}","[0]","survey-likert","59","184282","0.0-59.0","guk1mo2t","","","","","","","",""
"","","","call-function","60","184282","0.0-60.0","guk1mo2t","","","","","","","",""
"null","","","html-keyboard-response","61","185783","0.0-61.0","guk1mo2t","","<span style=""color:Black; font-size:50px;"">Agent A","null","","","","",""
"null","","","video-keyboard-response","62","188625","0.0-62.0","guk1mo2t","","","null","","Agent A","scrambled","FOR_REV_MAP_BLOBBY_STIM/498326.bmp_pp57_L1_V1.0_veridical_freeview_isoTrue_fps144_reversed_REAL.mp4",""
"null","","","html-keyboard-response","63","190126","0.0-63.0","guk1mo2t","","<span style=""color:Black; font-size:50px;"">Agent B","null","","","","",""
"null","","","video-keyboard-response","64","192967","0.0-64.0","guk1mo2t","","","null","","Agent B","veridical","FOR_REV_MAP_BLOBBY_STIM/498326.bmp_pp57_L1_V1.0_veridical_freeview_isoTrue_fps144.mp4",""
"","","","call-function","65","192968","0.0-65.0","guk1mo2t","","","","","","","",""
"2676.7149999999965","{""judgement"":1}","[0]","survey-likert","66","195646","0.0-66.0","guk1mo2t","","","","","","","","1"
"1092.0400000000081","{""confidence"":0}","[0]","survey-likert","67","196740","0.0-67.0","guk1mo2t","","","","","","","",""
"","","","call-function","68","196741","0.0-68.0","guk1mo2t","","","","","","","",""
"null","","","html-keyboard-response","69","198243","0.0-69.0","guk1mo2t","","<span style=""color:Black; font-size:50px;"">Agent A","null","","","","",""
"null","","","video-keyboard-response","70","201021","0.0-70.0","guk1mo2t","","","null","","Agent A","scrambled","FOR_REV_MAP_BLOBBY_STIM/1159329.bmp_pp61_L2_V1.0_veridical_freeview_isoTrue_fps144_reversed_REAL.mp4",""
"null","","","html-keyboard-response","71","202526","0.0-71.0","guk1mo2t","","<span style=""color:Black; font-size:50px;"">Agent B","null","","","","",""
"null","","","video-keyboard-response","72","205297","0.0-72.0","guk1mo2t","","","null","","Agent B","veridical","FOR_REV_MAP_BLOBBY_STIM/1159329.bmp_pp61_L2_V1.0_veridical_freeview_isoTrue_fps144.mp4",""
"","","","call-function","73","205297","0.0-73.0","guk1mo2t","","","","","","","",""
"1317.3099999999977","{""judgement"":0}","[0]","survey-likert","74","206615","0.0-74.0","guk1mo2t","","","","","","","","1"
"1838.1350000000093","{""confidence"":0}","[0]","survey-likert","75","208455","0.0-75.0","guk1mo2t","","","","","","","",""
"","","","call-function","76","208455","0.0-76.0","guk1mo2t","","","","","","","",""
"null","","","html-keyboard-response","77","209957","0.0-77.0","guk1mo2t","","<span style=""color:Black; font-size:50px;"">Agent A","null","","","","",""
"null","","","video-keyboard-response","78","212687","0.0-78.0","guk1mo2t","","","null","","Agent A","scrambled","FOR_REV_MAP_BLOBBY_STIM/1159956.bmp_pp59_L3_V1.0_veridical_freeview_isoTrue_fps144_reversed_REAL.mp4",""
"null","","","html-keyboard-response","79","214189","0.0-79.0","guk1mo2t","","<span style=""color:Black; font-size:50px;"">Agent B","null","","","","",""
"null","","","video-keyboard-response","80","216930","0.0-80.0","guk1mo2t","","","null","","Agent B","veridical","FOR_REV_MAP_BLOBBY_STIM/1159956.bmp_pp59_L3_V1.0_veridical_freeview_isoTrue_fps144.mp4",""
"","","","call-function","81","216931","0.0-81.0","guk1mo2t","","","","","","","",""
"3384.8699999999953","{""judgement"":0}","[0]","survey-likert","82","220316","0.0-82.0","guk1mo2t","","","","","","","","1"
"1244.0950000000012","{""confidence"":0}","[0]","survey-likert","83","221562","0.0-83.0","guk1mo2t","","","","","","","",""
"","","","call-function","84","221562","0.0-84.0","guk1mo2t","","","","","","","",""
"null","","","html-keyboard-response","85","223064","0.0-85.0","guk1mo2t","","<span style=""color:Black; font-size:50px;"">Agent A","null","","","","",""
"null","","","video-keyboard-response","86","226023","0.0-86.0","guk1mo2t","","","null","","Agent A","scrambled","FOR_REV_MAP_BLOBBY_STIM/498025.bmp_pp81_L1_V1.0_veridical_freeview_isoTrue_fps144_reversed_REAL.mp4",""
"null","","","html-keyboard-response","87","227527","0.0-87.0","guk1mo2t","","<span style=""color:Black; font-size:50px;"">Agent B","null","","","","",""
"null","","","video-keyboard-response","88","230507","0.0-88.0","guk1mo2t","","","null","","Agent B","veridical","FOR_REV_MAP_BLOBBY_STIM/498025.bmp_pp81_L1_V1.0_veridical_freeview_isoTrue_fps144.mp4",""
"","","","call-function","89","230507","0.0-89.0","guk1mo2t","","","","","","","",""
"1632.5249999999942","{""judgement"":0}","[0]","survey-likert","90","232141","0.0-90.0","guk1mo2t","","","","","","","","1"
"1809.4100000000035","{""confidence"":0}","[0]","survey-likert","91","233951","0.0-91.0","guk1mo2t","","","","","","","",""
"83248.185","","","instructions","92","317200","0.0-92.0","guk1mo2t","[{""page_index"":0,""viewing_time"":1198.8949999999895},{""page_index"":1,""viewing_time"":81443.16},{""page_index"":2,""viewing_time"":605.929999999993}]","","","","","","",""
"2074.4749999999767","","","instructions","93","319275","0.0-93.0","guk1mo2t","[{""page_index"":0,""viewing_time"":622.8099999999977},{""page_index"":1,""viewing_time"":768.7749999999651},{""page_index"":2,""viewing_time"":682.7850000000326}]","","","","","","",""
"","","","call-function","94","319275","0.0-94.0","guk1mo2t","","","","","","","",""
"null","","","html-keyboard-response","95","320777","0.0-95.0","guk1mo2t","","<span style=""color:Black; font-size:50px;"">Agent A","null","","","","",""
"null","","","video-keyboard-response","96","323646","0.0-96.0","guk1mo2t","","","null","","Agent A","scrambled","FOR_REV_MAP_BLOBBY_STIM/1592314.bmp_pp100_L3_V1.0_veridical_freeview_isoTrue_fps144_reversed_REAL.mp4",""
"null","","","html-keyboard-response","97","325148","0.0-97.0","guk1mo2t","","<span style=""color:Black; font-size:50px;"">Agent B","null","","","","",""
"null","","","video-keyboard-response","98","327958","0.0-98.0","guk1mo2t","","","null","","Agent B","veridical","FOR_REV_MAP_BLOBBY_STIM/1592314.bmp_pp100_L3_V1.0_veridical_freeview_isoTrue_fps144.mp4",""
"","","","call-function","99","327959","0.0-99.0","guk1mo2t","","","","","","","",""
"1673.960000000021","{""judgement"":0}","[0]","survey-likert","100","329634","0.0-100.0","guk1mo2t","","","","","","","","1"
"1346.0849999999627","{""confidence"":1}","[0]","survey-likert","101","330981","0.0-101.0","guk1mo2t","","","","","","","",""
"","","","call-function","102","330981","0.0-102.0","guk1mo2t","","","","","","","",""
"null","","","html-keyboard-response","103","332483","0.0-103.0","guk1mo2t","","<span style=""color:Black; font-size:50px;"">Agent A","null","","","","",""
"null","","","video-keyboard-response","104","335207","0.0-104.0","guk1mo2t","","","null","","Agent A","veridical","FOR_REV_MAP_BLOBBY_STIM/285715.bmp_pp67_L2_V1.0_veridical_freeview_isoTrue_fps144.mp4",""
"null","","","html-keyboard-response","105","336710","0.0-105.0","guk1mo2t","","<span style=""color:Black; font-size:50px;"">Agent B","null","","","","",""
"null","","","video-keyboard-response","106","339433","0.0-106.0","guk1mo2t","","","null","","Agent B","scrambled","FOR_REV_MAP_BLOBBY_STIM/285715.bmp_pp67_L2_V1.0_veridical_freeview_isoTrue_fps144_reversed_REAL.mp4",""
"","","","call-function","107","339434","0.0-107.0","guk1mo2t","","","","","","","",""
"1133.1749999999884","{""judgement"":0}","[0]","survey-likert","108","340568","0.0-108.0","guk1mo2t","","","","","","","","0"
"2778.804999999993","{""confidence"":0}","[0]","survey-likert","109","343348","0.0-109.0","guk1mo2t","","","","","","","",""
"","","","call-function","110","343348","0.0-110.0","guk1mo2t","","","","","","","",""
"null","","","html-keyboard-response","111","344852","0.0-111.0","guk1mo2t","","<span style=""color:Black; font-size:50px;"">Agent A","null","","","","",""
"null","","","video-keyboard-response","112","347666","0.0-112.0","guk1mo2t","","","null","","Agent A","veridical","FOR_REV_MAP_BLOBBY_STIM/713790.bmp_pp100_L3_V1.0_veridical_freeview_isoTrue_fps144.mp4",""
"null","","","html-keyboard-response","113","349167","0.0-113.0","guk1mo2t","","<span style=""color:Black; font-size:50px;"">Agent B","null","","","","",""
"null","","","video-keyboard-response","114","351978","0.0-114.0","guk1mo2t","","","null","","Agent B","scrambled","FOR_REV_MAP_BLOBBY_STIM/713790.bmp_pp100_L3_V1.0_veridical_freeview_isoTrue_fps144_reversed_REAL.mp4",""
"","","","call-function","115","351978","0.0-115.0","guk1mo2t","","","","","","","",""
"1971.820000000007","{""judgement"":0}","[0]","survey-likert","116","353951","0.0-116.0","guk1mo2t","","","","","","","","0"
"2241.445000000007","{""confidence"":0}","[0]","survey-likert","117","356193","0.0-117.0","guk1mo2t","","","","","","","",""
"","","","call-function","118","356194","0.0-118.0","guk1mo2t","","","","","","","",""
"null","","","html-keyboard-response","119","357697","0.0-119.0","guk1mo2t","","<span style=""color:Black; font-size:50px;"">Agent A","null","","","","",""
"null","","","video-keyboard-response","120","360555","0.0-120.0","guk1mo2t","","","null","","Agent A","veridical","FOR_REV_MAP_BLOBBY_STIM/498396.bmp_pp99_L2_V1.0_veridical_freeview_isoTrue_fps144.mp4",""
"null","","","html-keyboard-response","121","362062","0.0-121.0","guk1mo2t","","<span style=""color:Black; font-size:50px;"">Agent B","null","","","","",""
"null","","","video-keyboard-response","122","364916","0.0-122.0","guk1mo2t","","","null","","Agent B","scrambled","FOR_REV_MAP_BLOBBY_STIM/498396.bmp_pp99_L2_V1.0_veridical_freeview_isoTrue_fps144_reversed_REAL.mp4",""
"","","","call-function","123","364917","0.0-123.0","guk1mo2t","","","","","","","",""
"2096.585000000021","{""judgement"":1}","[0]","survey-likert","124","367015","0.0-124.0","guk1mo2t","","","","","","","","0"
"1935.859999999986","{""confidence"":0}","[0]","survey-likert","125","368953","0.0-125.0","guk1mo2t","","","","","","","",""
"","","","call-function","126","368955","0.0-126.0","guk1mo2t","","","","","","","",""
"null","","","html-keyboard-response","127","370456","0.0-127.0","guk1mo2t","","<span style=""color:Black; font-size:50px;"">Agent A","null","","","","",""
"null","","","video-keyboard-response","128","373285","0.0-128.0","guk1mo2t","","","null","","Agent A","scrambled","FOR_REV_MAP_BLOBBY_STIM/713742.bmp_pp91_L3_V1.0_veridical_freeview_isoTrue_fps144_reversed_REAL.mp4",""
"null","","","html-keyboard-response","129","374790","0.0-129.0","guk1mo2t","","<span style=""color:Black; font-size:50px;"">Agent B","null","","","","",""
"null","","","video-keyboard-response","130","377617","0.0-130.0","guk1mo2t","","","null","","Agent B","veridical","FOR_REV_MAP_BLOBBY_STIM/713742.bmp_pp91_L3_V1.0_veridical_freeview_isoTrue_fps144.mp4",""
"","","","call-function","131","377618","0.0-131.0","guk1mo2t","","","","","","","",""
"1202.3249999999534","{""judgement"":1}","[0]","survey-likert","132","378821","0.0-132.0","guk1mo2t","","","","","","","","1"
"1423.460000000021","{""confidence"":0}","[0]","survey-likert","133","380246","0.0-133.0","guk1mo2t","","","","","","","",""
"","","","call-function","134","380246","0.0-134.0","guk1mo2t","","","","","","","",""
"null","","","html-keyboard-response","135","381749","0.0-135.0","guk1mo2t","","<span style=""color:Black; font-size:50px;"">Agent A","null","","","","",""
"null","","","video-keyboard-response","136","384547","0.0-136.0","guk1mo2t","","","null","","Agent A","veridical","FOR_REV_MAP_BLOBBY_STIM/1592567.bmp_pp70_L2_V1.0_veridical_freeview_isoTrue_fps144.mp4",""
"null","","","html-keyboard-response","137","386050","0.0-137.0","guk1mo2t","","<span style=""color:Black; font-size:50px;"">Agent B","null","","","","",""
"null","","","video-keyboard-response","138","388828","0.0-138.0","guk1mo2t","","","null","","Agent B","scrambled","FOR_REV_MAP_BLOBBY_STIM/1592567.bmp_pp70_L2_V1.0_veridical_freeview_isoTrue_fps144_reversed_REAL.mp4",""
"","","","call-function","139","388829","0.0-139.0","guk1mo2t","","","","","","","",""
"1649.2099999999627","{""judgement"":0}","[0]","survey-likert","140","390479","0.0-140.0","guk1mo2t","","","","","","","","0"
"1132.9749999999767","{""confidence"":0}","[0]","survey-likert","141","391613","0.0-141.0","guk1mo2t","","","","","","","",""
"","","","call-function","142","391613","0.0-142.0","guk1mo2t","","","","","","","",""
"null","","","html-keyboard-response","143","393116","0.0-143.0","guk1mo2t","","<span style=""color:Black; font-size:50px;"">Agent A","null","","","","",""
"null","","","video-keyboard-response","144","395962","0.0-144.0","guk1mo2t","","","null","","Agent A","scrambled","FOR_REV_MAP_BLOBBY_STIM/1159508.bmp_pp151_L1_V1.0_veridical_freeview_isoTrue_fps144_reversed_REAL.mp4",""
"null","","","html-keyboard-response","145","397464","0.0-145.0","guk1mo2t","","<span style=""color:Black; font-size:50px;"">Agent B","null","","","","",""
"null","","","video-keyboard-response","146","400298","0.0-146.0","guk1mo2t","","","null","","Agent B","veridical","FOR_REV_MAP_BLOBBY_STIM/1159508.bmp_pp151_L1_V1.0_veridical_freeview_isoTrue_fps144.mp4",""
"","","","call-function","147","400298","0.0-147.0","guk1mo2t","","","","","","","",""
"1296.1199999999953","{""judgement"":1}","[0]","survey-likert","148","401595","0.0-148.0","guk1mo2t","","","","","","","","1"
"1092.304999999993","{""confidence"":0}","[0]","survey-likert","149","402689","0.0-149.0","guk1mo2t","","","","","","","",""
"","","","call-function","150","402690","0.0-150.0","guk1mo2t","","","","","","","",""
"null","","","html-keyboard-response","151","404191","0.0-151.0","guk1mo2t","","<span style=""color:Black; font-size:50px;"">Agent A","null","","","","",""
"null","","","video-keyboard-response","152","406897","0.0-152.0","guk1mo2t","","","null","","Agent A","veridical","FOR_REV_MAP_BLOBBY_STIM/1592038.bmp_pp79_L2_V1.0_veridical_freeview_isoTrue_fps144.mp4",""
"null","","","html-keyboard-response","153","408400","0.0-153.0","guk1mo2t","","<span style=""color:Black; font-size:50px;"">Agent B","null","","","","",""
"null","","","video-keyboard-response","154","411101","0.0-154.0","guk1mo2t","","","null","","Agent B","scrambled","FOR_REV_MAP_BLOBBY_STIM/1592038.bmp_pp79_L2_V1.0_veridical_freeview_isoTrue_fps144_reversed_REAL.mp4",""
"","","","call-function","155","411101","0.0-155.0","guk1mo2t","","","","","","","",""
"1582.7550000000047","{""judgement"":0}","[0]","survey-likert","156","412685","0.0-156.0","guk1mo2t","","","","","","","","0"
"2251.8150000000023","{""confidence"":1}","[0]","survey-likert","157","414938","0.0-157.0","guk1mo2t","","","","","","","",""
"","","","call-function","158","414938","0.0-158.0","guk1mo2t","","","","","","","",""
"null","","","html-keyboard-response","159","416441","0.0-159.0","guk1mo2t","","<span style=""color:Black; font-size:50px;"">Agent A","null","","","","",""
"null","","","video-keyboard-response","160","419227","0.0-160.0","guk1mo2t","","","null","","Agent A","scrambled","FOR_REV_MAP_BLOBBY_STIM/285684.bmp_pp80_L3_V1.0_veridical_freeview_isoTrue_fps144_reversed_REAL.mp4",""
"null","","","html-keyboard-response","161","420729","0.0-161.0","guk1mo2t","","<span style=""color:Black; font-size:50px;"">Agent B","null","","","","",""
"null","","","video-keyboard-response","162","423520","0.0-162.0","guk1mo2t","","","null","","Agent B","veridical","FOR_REV_MAP_BLOBBY_STIM/285684.bmp_pp80_L3_V1.0_veridical_freeview_isoTrue_fps144.mp4",""
"","","","call-function","163","423520","0.0-163.0","guk1mo2t","","","","","","","",""
"1376.5299999999697","{""judgement"":1}","[0]","survey-likert","164","424897","0.0-164.0","guk1mo2t","","","","","","","","1"
"1562.1900000000023","{""confidence"":1}","[0]","survey-likert","165","426461","0.0-165.0","guk1mo2t","","","","","","","",""
"","","","call-function","166","426461","0.0-166.0","guk1mo2t","","","","","","","",""
"null","","","html-keyboard-response","167","427967","0.0-167.0","guk1mo2t","","<span style=""color:Black; font-size:50px;"">Agent A","null","","","","",""
"null","","","video-keyboard-response","168","430790","0.0-168.0","guk1mo2t","","","null","","Agent A","veridical","FOR_REV_MAP_BLOBBY_STIM/107909.bmp_pp95_L2_V1.0_veridical_freeview_isoTrue_fps144.mp4",""
"null","","","html-keyboard-response","169","432295","0.0-169.0","guk1mo2t","","<span style=""color:Black; font-size:50px;"">Agent B","null","","","","",""
"null","","","video-keyboard-response","170","435098","0.0-170.0","guk1mo2t","","","null","","Agent B","scrambled","FOR_REV_MAP_BLOBBY_STIM/107909.bmp_pp95_L2_V1.0_veridical_freeview_isoTrue_fps144_reversed_REAL.mp4",""
"","","","call-function","171","435098","0.0-171.0","guk1mo2t","","","","","","","",""
"1985.804999999993","{""judgement"":1}","[0]","survey-likert","172","437085","0.0-172.0","guk1mo2t","","","","","","","","0"
"1875.7550000000047","{""confidence"":1}","[0]","survey-likert","173","438962","0.0-173.0","guk1mo2t","","","","","","","",""
"2889.8000000000466","","","instructions","174","441852","0.0-174.0","guk1mo2t","[{""page_index"":0,""viewing_time"":1427.850000000035},{""page_index"":1,""viewing_time"":520.7799999999697},{""page_index"":2,""viewing_time"":940.9700000000303}]","","","","","","",""
"29604.994999999995","","","instructions","175","471458","0.0-175.0","guk1mo2t","[{""page_index"":0,""viewing_time"":27724.369999999995},{""page_index"":1,""viewing_time"":1208.0650000000023},{""page_index"":2,""viewing_time"":672.359999999986}]","","","","","","",""
"","","","call-function","176","471460","0.0-176.0","guk1mo2t","","","","","","","",""
"null","","","html-keyboard-response","177","472966","0.0-177.0","guk1mo2t","","<span style=""color:Black; font-size:50px;"">Agent A","null","","","","",""
"null","","","video-keyboard-response","178","475755","0.0-178.0","guk1mo2t","","","null","","Agent A","veridical","FOR_REV_MAP_BLOBBY_STIM/713274.bmp_pp73_L3_V1.0_veridical_freeview_isoTrue_fps144.mp4",""
"null","","","html-keyboard-response","179","477259","0.0-179.0","guk1mo2t","","<span style=""color:Black; font-size:50px;"">Agent B","null","","","","",""
"null","","","video-keyboard-response","180","480048","0.0-180.0","guk1mo2t","","","null","","Agent B","scrambled","FOR_REV_MAP_BLOBBY_STIM/713274.bmp_pp73_L3_V1.0_veridical_freeview_isoTrue_fps144_reversed_REAL.mp4",""
"","","","call-function","181","480048","0.0-181.0","guk1mo2t","","","","","","","",""
"1769.024999999965","{""judgement"":1}","[0]","survey-likert","182","481818","0.0-182.0","guk1mo2t","","","","","","","","0"
"2412.984999999986","{""confidence"":2}","[0]","survey-likert","183","484233","0.0-183.0","guk1mo2t","","","","","","","",""
"","","","call-function","184","484233","0.0-184.0","guk1mo2t","","","","","","","",""
"null","","","html-keyboard-response","185","485736","0.0-185.0","guk1mo2t","","<span style=""color:Black; font-size:50px;"">Agent A","null","","","","",""
"null","","","video-keyboard-response","186","488521","0.0-186.0","guk1mo2t","","","null","","Agent A","scrambled","FOR_REV_MAP_BLOBBY_STIM/1592044.bmp_pp94_L2_V1.0_veridical_freeview_isoTrue_fps144_reversed_REAL.mp4",""
"null","","","html-keyboard-response","187","490027","0.0-187.0","guk1mo2t","","<span style=""color:Black; font-size:50px;"">Agent B","null","","","","",""
"null","","","video-keyboard-response","188","492792","0.0-188.0","guk1mo2t","","","null","","Agent B","veridical","FOR_REV_MAP_BLOBBY_STIM/1592044.bmp_pp94_L2_V1.0_veridical_freeview_isoTrue_fps144.mp4",""
"","","","call-function","189","492792","0.0-189.0","guk1mo2t","","","","","","","",""
"1537.829999999958","{""judgement"":1}","[0]","survey-likert","190","494331","0.0-190.0","guk1mo2t","","","","","","","","1"
"1403.25","{""confidence"":1}","[0]","survey-likert","191","495736","0.0-191.0","guk1mo2t","","","","","","","",""
"","","","call-function","192","495736","0.0-192.0","guk1mo2t","","","","","","","",""
"null","","","html-keyboard-response","193","497238","0.0-193.0","guk1mo2t","","<span style=""color:Black; font-size:50px;"">Agent A","null","","","","",""
"null","","","video-keyboard-response","194","500024","0.0-194.0","guk1mo2t","","","null","","Agent A","veridical","FOR_REV_MAP_BLOBBY_STIM/1160247.bmp_pp54_L2_V1.0_veridical_freeview_isoTrue_fps144.mp4",""
"null","","","html-keyboard-response","195","501527","0.0-195.0","guk1mo2t","","<span style=""color:Black; font-size:50px;"">Agent B","null","","","","",""
"null","","","video-keyboard-response","196","504290","0.0-196.0","guk1mo2t","","","null","","Agent B","scrambled","FOR_REV_MAP_BLOBBY_STIM/1160247.bmp_pp54_L2_V1.0_veridical_freeview_isoTrue_fps144_reversed_REAL.mp4",""
"","","","call-function","197","504291","0.0-197.0","guk1mo2t","","","","","","","",""
"1655.655000000028","{""judgement"":1}","[0]","survey-likert","198","505947","0.0-198.0","guk1mo2t","","","","","","","","0"
"1228.0250000000233","{""confidence"":1}","[0]","survey-likert","199","507176","0.0-199.0","guk1mo2t","","","","","","","",""
"","","","call-function","200","507177","0.0-200.0","guk1mo2t","","","","","","","",""
"null","","","html-keyboard-response","201","508679","0.0-201.0","guk1mo2t","","<span style=""color:Black; font-size:50px;"">Agent A","null","","","","",""
"null","","","video-keyboard-response","202","511462","0.0-202.0","guk1mo2t","","","null","","Agent A","scrambled","FOR_REV_MAP_BLOBBY_STIM/1592298.bmp_pp56_L3_V1.0_veridical_freeview_isoTrue_fps144_reversed_REAL.mp4",""
"null","","","html-keyboard-response","203","512964","0.0-203.0","guk1mo2t","","<span style=""color:Black; font-size:50px;"">Agent B","null","","","","",""
"null","","","video-keyboard-response","204","515734","0.0-204.0","guk1mo2t","","","null","","Agent B","veridical","FOR_REV_MAP_BLOBBY_STIM/1592298.bmp_pp56_L3_V1.0_veridical_freeview_isoTrue_fps144.mp4",""
"","","","call-function","205","515735","0.0-205.0","guk1mo2t","","","","","","","",""
"3715.265000000014","{""judgement"":1}","[0]","survey-likert","206","519451","0.0-206.0","guk1mo2t","","","","","","","","1"
"1547.4650000000256","{""confidence"":1}","[0]","survey-likert","207","521000","0.0-207.0","guk1mo2t","","","","","","","",""
"","","","call-function","208","521000","0.0-208.0","guk1mo2t","","","","","","","",""
"null","","","html-keyboard-response","209","522504","0.0-209.0","guk1mo2t","","<span style=""color:Black; font-size:50px;"">Agent A","null","","","","",""
"null","","","video-keyboard-response","210","525288","0.0-210.0","guk1mo2t","","","null","","Agent A","scrambled","FOR_REV_MAP_BLOBBY_STIM/285932.bmp_pp64_L1_V1.0_veridical_freeview_isoTrue_fps144_reversed_REAL.mp4",""
"null","","","html-keyboard-response","211","526794","0.0-211.0","guk1mo2t","","<span style=""color:Black; font-size:50px;"">Agent B","null","","","","",""
"null","","","video-keyboard-response","212","529581","0.0-212.0","guk1mo2t","","","null","","Agent B","veridical","FOR_REV_MAP_BLOBBY_STIM/285932.bmp_pp64_L1_V1.0_veridical_freeview_isoTrue_fps144.mp4",""
"","","","call-function","213","529581","0.0-213.0","guk1mo2t","","","","","","","",""
"1873.9949999999953","{""judgement"":1}","[0]","survey-likert","214","531456","0.0-214.0","guk1mo2t","","","","","","","","1"
"967.5700000000652","{""confidence"":1}","[0]","survey-likert","215","532425","0.0-215.0","guk1mo2t","","","","","","","",""
"","","","call-function","216","532425","0.0-216.0","guk1mo2t","","","","","","","",""
"null","","","html-keyboard-response","217","533928","0.0-217.0","guk1mo2t","","<span style=""color:Black; font-size:50px;"">Agent A","null","","","","",""
"null","","","video-keyboard-response","218","536781","0.0-218.0","guk1mo2t","","","null","","Agent A","veridical","FOR_REV_MAP_BLOBBY_STIM/498258.bmp_pp51_L1_V1.0_veridical_freeview_isoTrue_fps144.mp4",""
"null","","","html-keyboard-response","219","538282","0.0-219.0","guk1mo2t","","<span style=""color:Black; font-size:50px;"">Agent B","null","","","","",""
"null","","","video-keyboard-response","220","541080","0.0-220.0","guk1mo2t","","","null","","Agent B","scrambled","FOR_REV_MAP_BLOBBY_STIM/498258.bmp_pp51_L1_V1.0_veridical_freeview_isoTrue_fps144_reversed_REAL.mp4",""
"","","","call-function","221","541081","0.0-221.0","guk1mo2t","","","","","","","",""
"1916.7550000000047","{""judgement"":0}","[0]","survey-likert","222","542998","0.0-222.0","guk1mo2t","","","","","","","","0"
"3417.524999999907","{""confidence"":0}","[0]","survey-likert","223","546417","0.0-223.0","guk1mo2t","","","","","","","",""
"","","","call-function","224","546418","0.0-224.0","guk1mo2t","","","","","","","",""
"null","","","html-keyboard-response","225","547921","0.0-225.0","guk1mo2t","","<span style=""color:Black; font-size:50px;"">Agent A","null","","","","",""
"null","","","video-keyboard-response","226","550531","0.0-226.0","guk1mo2t","","","null","","Agent A","veridical","FOR_REV_MAP_BLOBBY_STIM/713633.bmp_pp58_L1_V1.0_veridical_freeview_isoTrue_fps144.mp4",""
"null","","","html-keyboard-response","227","552037","0.0-227.0","guk1mo2t","","<span style=""color:Black; font-size:50px;"">Agent B","null","","","","",""
"null","","","video-keyboard-response","228","554630","0.0-228.0","guk1mo2t","","","null","","Agent B","scrambled","FOR_REV_MAP_BLOBBY_STIM/713633.bmp_pp58_L1_V1.0_veridical_freeview_isoTrue_fps144_reversed_REAL.mp4",""
"","","","call-function","229","554632","0.0-229.0","guk1mo2t","","","","","","","",""
"1471.1350000000093","{""judgement"":0}","[0]","survey-likert","230","556105","0.0-230.0","guk1mo2t","","","","","","","","0"
"2213.704999999958","{""confidence"":2}","[0]","survey-likert","231","558320","0.0-231.0","guk1mo2t","","","","","","","",""
"","","","call-function","232","558320","0.0-232.0","guk1mo2t","","","","","","","",""
"null","","","html-keyboard-response","233","559834","0.0-233.0","guk1mo2t","","<span style=""color:Black; font-size:50px;"">Agent A","null","","","","",""
"null","","","video-keyboard-response","234","562420","0.0-234.0","guk1mo2t","","","null","","Agent A","scrambled","FOR_REV_MAP_BLOBBY_STIM/498398.bmp_pp81_L1_V1.0_veridical_freeview_isoTrue_fps144_reversed_REAL.mp4",""
"null","","","html-keyboard-response","235","563925","0.0-235.0","guk1mo2t","","<span style=""color:Black; font-size:50px;"">Agent B","null","","","","",""
"null","","","video-keyboard-response","236","566504","0.0-236.0","guk1mo2t","","","null","","Agent B","veridical","FOR_REV_MAP_BLOBBY_STIM/498398.bmp_pp81_L1_V1.0_veridical_freeview_isoTrue_fps144.mp4",""
"","","","call-function","237","566505","0.0-237.0","guk1mo2t","","","","","","","",""
"1979.5699999999488","{""judgement"":1}","[0]","survey-likert","238","568486","0.0-238.0","guk1mo2t","","","","","","","","1"
"1834.625","{""confidence"":1}","[0]","survey-likert","239","570321","0.0-239.0","guk1mo2t","","","","","","","",""
"","","","call-function","240","570322","0.0-240.0","guk1mo2t","","","","","","","",""
"null","","","html-keyboard-response","241","571826","0.0-241.0","guk1mo2t","","<span style=""color:Black; font-size:50px;"">Agent A","null","","","","",""
"null","","","video-keyboard-response","242","574633","0.0-242.0","guk1mo2t","","","null","","Agent A","scrambled","FOR_REV_MAP_BLOBBY_STIM/1159392.bmp_pp96_L2_V1.0_veridical_freeview_isoTrue_fps144_reversed_REAL.mp4",""
"null","","","html-keyboard-response","243","576139","0.0-243.0","guk1mo2t","","<span style=""color:Black; font-size:50px;"">Agent B","null","","","","",""
"null","","","video-keyboard-response","244","578937","0.0-244.0","guk1mo2t","","","null","","Agent B","veridical","FOR_REV_MAP_BLOBBY_STIM/1159392.bmp_pp96_L2_V1.0_veridical_freeview_isoTrue_fps144.mp4",""
"","","","call-function","245","578938","0.0-245.0","guk1mo2t","","","","","","","",""
"1794.1000000000931","{""judgement"":1}","[0]","survey-likert","246","580733","0.0-246.0","guk1mo2t","","","","","","","","1"
"1498.094999999972","{""confidence"":1}","[0]","survey-likert","247","582232","0.0-247.0","guk1mo2t","","","","","","","",""
"","","","call-function","248","582233","0.0-248.0","guk1mo2t","","","","","","","",""
"null","","","html-keyboard-response","249","583734","0.0-249.0","guk1mo2t","","<span style=""color:Black; font-size:50px;"">Agent A","null","","","","",""
"null","","","video-keyboard-response","250","586445","0.0-250.0","guk1mo2t","","","null","","Agent A","veridical","FOR_REV_MAP_BLOBBY_STIM/713788.bmp_pp52_L1_V1.0_veridical_freeview_isoTrue_fps144.mp4",""
"null","","","html-keyboard-response","251","587946","0.0-251.0","guk1mo2t","","<span style=""color:Black; font-size:50px;"">Agent B","null","","","","",""
"null","","","video-keyboard-response","252","590633","0.0-252.0","guk1mo2t","","","null","","Agent B","scrambled","FOR_REV_MAP_BLOBBY_STIM/713788.bmp_pp52_L1_V1.0_veridical_freeview_isoTrue_fps144_reversed_REAL.mp4",""
"","","","call-function","253","590634","0.0-253.0","guk1mo2t","","","","","","","",""
"2416.194999999949","{""judgement"":1}","[0]","survey-likert","254","593052","0.0-254.0","guk1mo2t","","","","","","","","0"
"2103.75","{""confidence"":0}","[0]","survey-likert","255","595157","0.0-255.0","guk1mo2t","","","","","","","",""
"55267.25","","","instructions","256","650425","0.0-256.0","guk1mo2t","[{""page_index"":0,""viewing_time"":1211.015000000014},{""page_index"":1,""viewing_time"":1214.9749999999767},{""page_index"":2,""viewing_time"":52840.935000000056}]","","","","","","",""
"2324.3349999999627","","","instructions","257","652750","0.0-257.0","guk1mo2t","[{""page_index"":0,""viewing_time"":746.2600000000093},{""page_index"":1,""viewing_time"":964.1449999999022},{""page_index"":2,""viewing_time"":613.8200000000652}]","","","","","","",""
"","","","call-function","258","652750","0.0-258.0","guk1mo2t","","","","","","","",""
"null","","","html-keyboard-response","259","654251","0.0-259.0","guk1mo2t","","<span style=""color:Black; font-size:50px;"">Agent A","null","","","","",""
"null","","","video-keyboard-response","260","657212","0.0-260.0","guk1mo2t","","","null","","Agent A","veridical","FOR_REV_MAP_BLOBBY_STIM/1592568.bmp_pp71_L1_V1.0_veridical_freeview_isoTrue_fps144.mp4",""
"null","","","html-keyboard-response","261","658714","0.0-261.0","guk1mo2t","","<span style=""color:Black; font-size:50px;"">Agent B","null","","","","",""
"null","","","video-keyboard-response","262","661685","0.0-262.0","guk1mo2t","","","null","","Agent B","scrambled","FOR_REV_MAP_BLOBBY_STIM/1592568.bmp_pp71_L1_V1.0_veridical_freeview_isoTrue_fps144_reversed_REAL.mp4",""
"","","","call-function","263","661685","0.0-263.0","guk1mo2t","","","","","","","",""
"1449.9449999999488","{""judgement"":0}","[0]","survey-likert","264","663137","0.0-264.0","guk1mo2t","","","","","","","","0"
"1038.844999999972","{""confidence"":2}","[0]","survey-likert","265","664177","0.0-265.0","guk1mo2t","","","","","","","",""
"","","","call-function","266","664177","0.0-266.0","guk1mo2t","","","","","","","",""
"null","","","html-keyboard-response","267","665679","0.0-267.0","guk1mo2t","","<span style=""color:Black; font-size:50px;"">Agent A","null","","","","",""
"null","","","video-keyboard-response","268","668532","0.0-268.0","guk1mo2t","","","null","","Agent A","scrambled","FOR_REV_MAP_BLOBBY_STIM/498261.bmp_pp84_L3_V1.0_veridical_freeview_isoTrue_fps144_reversed_REAL.mp4",""
"null","","","html-keyboard-response","269","670039","0.0-269.0","guk1mo2t","","<span style=""color:Black; font-size:50px;"">Agent B","null","","","","",""
"null","","","video-keyboard-response","270","672893","0.0-270.0","guk1mo2t","","","null","","Agent B","veridical","FOR_REV_MAP_BLOBBY_STIM/498261.bmp_pp84_L3_V1.0_veridical_freeview_isoTrue_fps144.mp4",""
"","","","call-function","271","672893","0.0-271.0","guk1mo2t","","","","","","","",""
"1264.844999999972","{""judgement"":1}","[0]","survey-likert","272","674159","0.0-272.0","guk1mo2t","","","","","","","","1"
"2858.765000000014","{""confidence"":1}","[0]","survey-likert","273","677019","0.0-273.0","guk1mo2t","","","","","","","",""
"","","","call-function","274","677019","0.0-274.0","guk1mo2t","","","","","","","",""
"null","","","html-keyboard-response","275","678525","0.0-275.0","guk1mo2t","","<span style=""color:Black; font-size:50px;"">Agent A","null","","","","",""
"null","","","video-keyboard-response","276","681315","0.0-276.0","guk1mo2t","","","null","","Agent A","scrambled","FOR_REV_MAP_BLOBBY_STIM/1592047.bmp_pp51_L1_V1.0_veridical_freeview_isoTrue_fps144_reversed_REAL.mp4",""
"null","","","html-keyboard-response","277","682819","0.0-277.0","guk1mo2t","","<span style=""color:Black; font-size:50px;"">Agent B","null","","","","",""
"null","","","video-keyboard-response","278","685593","0.0-278.0","guk1mo2t","","","null","","Agent B","veridical","FOR_REV_MAP_BLOBBY_STIM/1592047.bmp_pp51_L1_V1.0_veridical_freeview_isoTrue_fps144.mp4",""
"","","","call-function","279","685594","0.0-279.0","guk1mo2t","","","","","","","",""
"1403.4799999999814","{""judgement"":1}","[0]","survey-likert","280","686999","0.0-280.0","guk1mo2t","","","","","","","","1"
"1242.8199999999488","{""confidence"":0}","[0]","survey-likert","281","688244","0.0-281.0","guk1mo2t","","","","","","","",""
"","","","call-function","282","688245","0.0-282.0","guk1mo2t","","","","","","","",""
"null","","","html-keyboard-response","283","689747","0.0-283.0","guk1mo2t","","<span style=""color:Black; font-size:50px;"">Agent A","null","","","","",""
"null","","","video-keyboard-response","284","692184","0.0-284.0","guk1mo2t","","","null","","Agent A","veridical","FOR_REV_MAP_BLOBBY_STIM/1592951.bmp_pp80_L3_V1.0_veridical_freeview_isoTrue_fps144.mp4",""
"null","","","html-keyboard-response","285","693687","0.0-285.0","guk1mo2t","","<span style=""color:Black; font-size:50px;"">Agent B","null","","","","",""
"null","","","video-keyboard-response","286","696101","0.0-286.0","guk1mo2t","","","null","","Agent B","scrambled","FOR_REV_MAP_BLOBBY_STIM/1592951.bmp_pp80_L3_V1.0_veridical_freeview_isoTrue_fps144_reversed_REAL.mp4",""
"","","","call-function","287","696102","0.0-287.0","guk1mo2t","","","","","","","",""
"1820.2900000000373","{""judgement"":1}","[0]","survey-likert","288","697923","0.0-288.0","guk1mo2t","","","","","","","","0"
"1021.6199999999953","{""confidence"":1}","[0]","survey-likert","289","698946","0.0-289.0","guk1mo2t","","","","","","","",""
"","","","call-function","290","698947","0.0-290.0","guk1mo2t","","","","","","","",""
"null","","","html-keyboard-response","291","700453","0.0-291.0","guk1mo2t","","<span style=""color:Black; font-size:50px;"">Agent A","null","","","","",""
"null","","","video-keyboard-response","292","703293","0.0-292.0","guk1mo2t","","","null","","Agent A","veridical","FOR_REV_MAP_BLOBBY_STIM/1592921.bmp_pp69_L3_V1.0_veridical_freeview_isoTrue_fps144.mp4",""
"null","","","html-keyboard-response","293","704795","0.0-293.0","guk1mo2t","","<span style=""color:Black; font-size:50px;"">Agent B","null","","","","",""
"null","","","video-keyboard-response","294","707594","0.0-294.0","guk1mo2t","","","null","","Agent B","scrambled","FOR_REV_MAP_BLOBBY_STIM/1592921.bmp_pp69_L3_V1.0_veridical_freeview_isoTrue_fps144_reversed_REAL.mp4",""
"","","","call-function","295","707595","0.0-295.0","guk1mo2t","","","","","","","",""
"1806.7099999999627","{""judgement"":0}","[0]","survey-likert","296","709402","0.0-296.0","guk1mo2t","","","","","","","","0"
"1513.2700000000186","{""confidence"":1}","[0]","survey-likert","297","710917","0.0-297.0","guk1mo2t","","","","","","","",""
"","","","call-function","298","710917","0.0-298.0","guk1mo2t","","","","","","","",""
"null","","","html-keyboard-response","299","712419","0.0-299.0","guk1mo2t","","<span style=""color:Black; font-size:50px;"">Agent A","null","","","","",""
"null","","","video-keyboard-response","300","715224","0.0-300.0","guk1mo2t","","","null","","Agent A","scrambled","FOR_REV_MAP_BLOBBY_STIM/713328.bmp_pp86_L2_V1.0_veridical_freeview_isoTrue_fps144_reversed_REAL.mp4",""
"null","","","html-keyboard-response","301","716729","0.0-301.0","guk1mo2t","","<span style=""color:Black; font-size:50px;"">Agent B","null","","","","",""
"null","","","video-keyboard-response","302","719500","0.0-302.0","guk1mo2t","","","null","","Agent B","veridical","FOR_REV_MAP_BLOBBY_STIM/713328.bmp_pp86_L2_V1.0_veridical_freeview_isoTrue_fps144.mp4",""
"","","","call-function","303","719501","0.0-303.0","guk1mo2t","","","","","","","",""
"1819.9100000000326","{""judgement"":1}","[0]","survey-likert","304","721321","0.0-304.0","guk1mo2t","","","","","","","","1"
"1904.7850000000326","{""confidence"":1}","[0]","survey-likert","305","723227","0.0-305.0","guk1mo2t","","","","","","","",""
"","","","call-function","306","723228","0.0-306.0","guk1mo2t","","","","","","","",""
"null","","","html-keyboard-response","307","724729","0.0-307.0","guk1mo2t","","<span style=""color:Black; font-size:50px;"">Agent A","null","","","","",""
"null","","","video-keyboard-response","308","727618","0.0-308.0","guk1mo2t","","","null","","Agent A","veridical","FOR_REV_MAP_BLOBBY_STIM/1592201.bmp_pp97_L3_V1.0_veridical_freeview_isoTrue_fps144.mp4",""
"null","","","html-keyboard-response","309","729120","0.0-309.0","guk1mo2t","","<span style=""color:Black; font-size:50px;"">Agent B","null","","","","",""
"null","","","video-keyboard-response","310","731988","0.0-310.0","guk1mo2t","","","null","","Agent B","scrambled","FOR_REV_MAP_BLOBBY_STIM/1592201.bmp_pp97_L3_V1.0_veridical_freeview_isoTrue_fps144_reversed_REAL.mp4",""
"","","","call-function","311","731989","0.0-311.0","guk1mo2t","","","","","","","",""
"1219.844999999972","{""judgement"":1}","[0]","survey-likert","312","733209","0.0-312.0","guk1mo2t","","","","","","","","0"
"2042.0850000000792","{""confidence"":0}","[0]","survey-likert","313","735252","0.0-313.0","guk1mo2t","","","","","","","",""
"","","","call-function","314","735253","0.0-314.0","guk1mo2t","","","","","","","",""
"null","","","html-keyboard-response","315","736758","0.0-315.0","guk1mo2t","","<span style=""color:Black; font-size:50px;"">Agent A","null","","","","",""
"null","","","video-keyboard-response","316","739545","0.0-316.0","guk1mo2t","","","null","","Agent A","scrambled","FOR_REV_MAP_BLOBBY_STIM/150277.bmp_pp65_L3_V1.0_veridical_freeview_isoTrue_fps144_reversed_REAL.mp4",""
"null","","","html-keyboard-response","317","741050","0.0-317.0","guk1mo2t","","<span style=""color:Black; font-size:50px;"">Agent B","null","","","","",""
"null","","","video-keyboard-response","318","743827","0.0-318.0","guk1mo2t","","","null","","Agent B","veridical","FOR_REV_MAP_BLOBBY_STIM/150277.bmp_pp65_L3_V1.0_veridical_freeview_isoTrue_fps144.mp4",""
"","","","call-function","319","743827","0.0-319.0","guk1mo2t","","","","","","","",""
"1374.9450000000652","{""judgement"":0}","[0]","survey-likert","320","745203","0.0-320.0","guk1mo2t","","","","","","","","1"
"2002.8450000000885","{""confidence"":1}","[0]","survey-likert","321","747207","0.0-321.0","guk1mo2t","","","","","","","",""
"","","","call-function","322","747208","0.0-322.0","guk1mo2t","","","","","","","",""
"null","","","html-keyboard-response","323","748713","0.0-323.0","guk1mo2t","","<span style=""color:Black; font-size:50px;"">Agent A","null","","","","",""
"null","","","video-keyboard-response","324","751577","0.0-324.0","guk1mo2t","","","null","","Agent A","veridical","FOR_REV_MAP_BLOBBY_STIM/713829.bmp_pp60_L3_V1.0_veridical_freeview_isoTrue_fps144.mp4",""
"null","","","html-keyboard-response","325","753081","0.0-325.0","guk1mo2t","","<span style=""color:Black; font-size:50px;"">Agent B","null","","","","",""
"null","","","video-keyboard-response","326","755907","0.0-326.0","guk1mo2t","","","null","","Agent B","scrambled","FOR_REV_MAP_BLOBBY_STIM/713829.bmp_pp60_L3_V1.0_veridical_freeview_isoTrue_fps144_reversed_REAL.mp4",""
"","","","call-function","327","755907","0.0-327.0","guk1mo2t","","","","","","","",""
"1748.4599999999627","{""judgement"":0}","[0]","survey-likert","328","757656","0.0-328.0","guk1mo2t","","","","","","","","0"
"1419.859999999986","{""confidence"":2}","[0]","survey-likert","329","759077","0.0-329.0","guk1mo2t","","","","","","","",""
"","","","call-function","330","759078","0.0-330.0","guk1mo2t","","","","","","","",""
"null","","","html-keyboard-response","331","760579","0.0-331.0","guk1mo2t","","<span style=""color:Black; font-size:50px;"">Agent A","null","","","","",""
"null","","","video-keyboard-response","332","763443","0.0-332.0","guk1mo2t","","","null","","Agent A","veridical","FOR_REV_MAP_BLOBBY_STIM/1160189.bmp_pp64_L1_V1.0_veridical_freeview_isoTrue_fps144.mp4",""
"null","","","html-keyboard-response","333","764945","0.0-333.0","guk1mo2t","","<span style=""color:Black; font-size:50px;"">Agent B","null","","","","",""
"null","","","video-keyboard-response","334","767799","0.0-334.0","guk1mo2t","","","null","","Agent B","scrambled","FOR_REV_MAP_BLOBBY_STIM/1160189.bmp_pp64_L1_V1.0_veridical_freeview_isoTrue_fps144_reversed_REAL.mp4",""
"","","","call-function","335","767800","0.0-335.0","guk1mo2t","","","","","","","",""
"1734.9899999999907","{""judgement"":0}","[0]","survey-likert","336","769537","0.0-336.0","guk1mo2t","","","","","","","","0"
"2586.8699999999953","{""confidence"":1}","[0]","survey-likert","337","772125","0.0-337.0","guk1mo2t","","","","","","","",""
"57983.43499999994","","","instructions","338","830109","0.0-338.0","guk1mo2t","[{""page_index"":0,""viewing_time"":1173.2700000000186},{""page_index"":1,""viewing_time"":2554.189999999944},{""page_index"":2,""viewing_time"":54255.77500000002}]","","","","","","",""
"5748.005000000005","","","instructions","339","835858","0.0-339.0","guk1mo2t","[{""page_index"":0,""viewing_time"":1115.875},{""page_index"":1,""viewing_time"":3906.4199999999255},{""page_index"":2,""viewing_time"":725.5350000000326}]","","","","","","",""
"","","","call-function","340","835858","0.0-340.0","guk1mo2t","","","","","","","",""
"null","","","html-keyboard-response","341","837364","0.0-341.0","guk1mo2t","","<span style=""color:Black; font-size:50px;"">Agent A","null","","","","",""
"null","","","video-keyboard-response","342","840136","0.0-342.0","guk1mo2t","","","null","","Agent A","veridical","FOR_REV_MAP_BLOBBY_STIM/150463.bmp_pp55_L3_V1.0_veridical_freeview_isoTrue_fps144.mp4",""
"null","","","html-keyboard-response","343","841638","0.0-343.0","guk1mo2t","","<span style=""color:Black; font-size:50px;"">Agent B","null","","","","",""
"null","","","video-keyboard-response","344","844412","0.0-344.0","guk1mo2t","","","null","","Agent B","scrambled","FOR_REV_MAP_BLOBBY_STIM/150463.bmp_pp55_L3_V1.0_veridical_freeview_isoTrue_fps144_reversed_REAL.mp4",""
"","","","call-function","345","844413","0.0-345.0","guk1mo2t","","","","","","","",""
"1484.1649999999208","{""judgement"":0}","[0]","survey-likert","346","845898","0.0-346.0","guk1mo2t","","","","","","","","0"
"2189.8349999999627","{""confidence"":1}","[0]","survey-likert","347","848089","0.0-347.0","guk1mo2t","","","","","","","",""
"","","","call-function","348","848089","0.0-348.0","guk1mo2t","","","","","","","",""
"null","","","html-keyboard-response","349","849592","0.0-349.0","guk1mo2t","","<span style=""color:Black; font-size:50px;"">Agent A","null","","","","",""
"null","","","video-keyboard-response","350","852419","0.0-350.0","guk1mo2t","","","null","","Agent A","veridical","FOR_REV_MAP_BLOBBY_STIM/713770.bmp_pp89_L1_V1.0_veridical_freeview_isoTrue_fps144.mp4",""
"null","","","html-keyboard-response","351","853925","0.0-351.0","guk1mo2t","","<span style=""color:Black; font-size:50px;"">Agent B","null","","","","",""
"null","","","video-keyboard-response","352","856731","0.0-352.0","guk1mo2t","","","null","","Agent B","scrambled","FOR_REV_MAP_BLOBBY_STIM/713770.bmp_pp89_L1_V1.0_veridical_freeview_isoTrue_fps144_reversed_REAL.mp4",""
"","","","call-function","353","856732","0.0-353.0","guk1mo2t","","","","","","","",""
"1292.4250000000466","{""judgement"":0}","[0]","survey-likert","354","858025","0.0-354.0","guk1mo2t","","","","","","","","0"
"1150.420000000042","{""confidence"":1}","[0]","survey-likert","355","859177","0.0-355.0","guk1mo2t","","","","","","","",""
"","","","call-function","356","859177","0.0-356.0","guk1mo2t","","","","","","","",""
"null","","","html-keyboard-response","357","860682","0.0-357.0","guk1mo2t","","<span style=""color:Black; font-size:50px;"">Agent A","null","","","","",""
"null","","","video-keyboard-response","358","863515","0.0-358.0","guk1mo2t","","","null","","Agent A","veridical","FOR_REV_MAP_BLOBBY_STIM/1592530.bmp_pp75_L1_V1.0_veridical_freeview_isoTrue_fps144.mp4",""
"null","","","html-keyboard-response","359","865020","0.0-359.0","guk1mo2t","","<span style=""color:Black; font-size:50px;"">Agent B","null","","","","",""
"null","","","video-keyboard-response","360","867830","0.0-360.0","guk1mo2t","","","null","","Agent B","scrambled","FOR_REV_MAP_BLOBBY_STIM/1592530.bmp_pp75_L1_V1.0_veridical_freeview_isoTrue_fps144_reversed_REAL.mp4",""
"","","","call-function","361","867831","0.0-361.0","guk1mo2t","","","","","","","",""
"1652.7600000000093","{""judgement"":0}","[0]","survey-likert","362","869484","0.0-362.0","guk1mo2t","","","","","","","","0"
"1515.6950000000652","{""confidence"":1}","[0]","survey-likert","363","871001","0.0-363.0","guk1mo2t","","","","","","","",""
"","","","call-function","364","871002","0.0-364.0","guk1mo2t","","","","","","","",""
"null","","","html-keyboard-response","365","872506","0.0-365.0","guk1mo2t","","<span style=""color:Black; font-size:50px;"">Agent A","null","","","","",""
"null","","","video-keyboard-response","366","875285","0.0-366.0","guk1mo2t","","","null","","Agent A","scrambled","FOR_REV_MAP_BLOBBY_STIM/1592129.bmp_pp153_L3_V1.0_veridical_freeview_isoTrue_fps144_reversed_REAL.mp4",""
"null","","","html-keyboard-response","367","876787","0.0-367.0","guk1mo2t","","<span style=""color:Black; font-size:50px;"">Agent B","null","","","","",""
"null","","","video-keyboard-response","368","879638","0.0-368.0","guk1mo2t","","","null","","Agent B","veridical","FOR_REV_MAP_BLOBBY_STIM/1592129.bmp_pp153_L3_V1.0_veridical_freeview_isoTrue_fps144.mp4",""
"","","","call-function","369","879639","0.0-369.0","guk1mo2t","","","","","","","",""
"2952.045000000042","{""judgement"":0}","[0]","survey-likert","370","882592","0.0-370.0","guk1mo2t","","","","","","","","1"
"1048.030000000028","{""confidence"":1}","[0]","survey-likert","371","883641","0.0-371.0","guk1mo2t","","","","","","","",""
"","","","call-function","372","883641","0.0-372.0","guk1mo2t","","","","","","","",""
"null","","","html-keyboard-response","373","885143","0.0-373.0","guk1mo2t","","<span style=""color:Black; font-size:50px;"">Agent A","null","","","","",""
"null","","","video-keyboard-response","374","887986","0.0-374.0","guk1mo2t","","","null","","Agent A","scrambled","FOR_REV_MAP_BLOBBY_STIM/1160204.bmp_pp54_L2_V1.0_veridical_freeview_isoTrue_fps144_reversed_REAL.mp4",""
"null","","","html-keyboard-response","375","889492","0.0-375.0","guk1mo2t","","<span style=""color:Black; font-size:50px;"">Agent B","null","","","","",""
"null","","","video-keyboard-response","376","892334","0.0-376.0","guk1mo2t","","","null","","Agent B","veridical","FOR_REV_MAP_BLOBBY_STIM/1160204.bmp_pp54_L2_V1.0_veridical_freeview_isoTrue_fps144.mp4",""
"","","","call-function","377","892335","0.0-377.0","guk1mo2t","","","","","","","",""
"1818.4949999999953","{""judgement"":1}","[0]","survey-likert","378","894154","0.0-378.0","guk1mo2t","","","","","","","","1"
"1219.75","{""confidence"":1}","[0]","survey-likert","379","895375","0.0-379.0","guk1mo2t","","","","","","","",""
"","","","call-function","380","895376","0.0-380.0","guk1mo2t","","","","","","","",""
"null","","","html-keyboard-response","381","896879","0.0-381.0","guk1mo2t","","<span style=""color:Black; font-size:50px;"">Agent A","null","","","","",""
"null","","","video-keyboard-response","382","899709","0.0-382.0","guk1mo2t","","","null","","Agent A","scrambled","FOR_REV_MAP_BLOBBY_STIM/1591920.bmp_pp97_L3_V1.0_veridical_freeview_isoTrue_fps144_reversed_REAL.mp4",""
"null","","","html-keyboard-response","383","901214","0.0-383.0","guk1mo2t","","<span style=""color:Black; font-size:50px;"">Agent B","null","","","","",""
"null","","","video-keyboard-response","384","904026","0.0-384.0","guk1mo2t","","","null","","Agent B","veridical","FOR_REV_MAP_BLOBBY_STIM/1591920.bmp_pp97_L3_V1.0_veridical_freeview_isoTrue_fps144.mp4",""
"","","","call-function","385","904027","0.0-385.0","guk1mo2t","","","","","","","",""
"1534.984999999986","{""judgement"":0}","[0]","survey-likert","386","905564","0.0-386.0","guk1mo2t","","","","","","","","1"
"1092.5500000000466","{""confidence"":1}","[0]","survey-likert","387","906658","0.0-387.0","guk1mo2t","","","","","","","",""
"","","","call-function","388","906659","0.0-388.0","guk1mo2t","","","","","","","",""
"null","","","html-keyboard-response","389","908165","0.0-389.0","guk1mo2t","","<span style=""color:Black; font-size:50px;"">Agent A","null","","","","",""
"null","","","video-keyboard-response","390","910928","0.0-390.0","guk1mo2t","","","null","","Agent A","veridical","FOR_REV_MAP_BLOBBY_STIM/1592168.bmp_pp71_L1_V1.0_veridical_freeview_isoTrue_fps144.mp4",""
"null","","","html-keyboard-response","391","912430","0.0-391.0","guk1mo2t","","<span style=""color:Black; font-size:50px;"">Agent B","null","","","","",""
"null","","","video-keyboard-response","392","915181","0.0-392.0","guk1mo2t","","","null","","Agent B","scrambled","FOR_REV_MAP_BLOBBY_STIM/1592168.bmp_pp71_L1_V1.0_veridical_freeview_isoTrue_fps144_reversed_REAL.mp4",""
"","","","call-function","393","915181","0.0-393.0","guk1mo2t","","","","","","","",""
"2499.939999999944","{""judgement"":0}","[0]","survey-likert","394","917682","0.0-394.0","guk1mo2t","","","","","","","","0"
"1327.0200000000186","{""confidence"":1}","[0]","survey-likert","395","919011","0.0-395.0","guk1mo2t","","","","","","","",""
"","","","call-function","396","919011","0.0-396.0","guk1mo2t","","","","","","","",""
"null","","","html-keyboard-response","397","920515","0.0-397.0","guk1mo2t","","<span style=""color:Black; font-size:50px;"">Agent A","null","","","","",""
"null","","","video-keyboard-response","398","923349","0.0-398.0","guk1mo2t","","","null","","Agent A","scrambled","FOR_REV_MAP_BLOBBY_STIM/713381.bmp_pp82_L2_V1.0_veridical_freeview_isoTrue_fps144_reversed_REAL.mp4",""
"null","","","html-keyboard-response","399","924852","0.0-399.0","guk1mo2t","","<span style=""color:Black; font-size:50px;"">Agent B","null","","","","",""
"null","","","video-keyboard-response","400","927691","0.0-400.0","guk1mo2t","","","null","","Agent B","veridical","FOR_REV_MAP_BLOBBY_STIM/713381.bmp_pp82_L2_V1.0_veridical_freeview_isoTrue_fps144.mp4",""
"","","","call-function","401","927691","0.0-401.0","guk1mo2t","","","","","","","",""
"1854.655000000028","{""judgement"":0}","[0]","survey-likert","402","929547","0.0-402.0","guk1mo2t","","","","","","","","1"
"1164.454999999958","{""confidence"":1}","[0]","survey-likert","403","930713","0.0-403.0","guk1mo2t","","","","","","","",""
"","","","call-function","404","930713","0.0-404.0","guk1mo2t","","","","","","","",""
"null","","","html-keyboard-response","405","932215","0.0-405.0","guk1mo2t","","<span style=""color:Black; font-size:50px;"">Agent A","null","","","","",""
"null","","","video-keyboard-response","406","934947","0.0-406.0","guk1mo2t","","","null","","Agent A","veridical","FOR_REV_MAP_BLOBBY_STIM/713858.bmp_pp57_L1_V1.0_veridical_freeview_isoTrue_fps144.mp4",""
"null","","","html-keyboard-response","407","936448","0.0-407.0","guk1mo2t","","<span style=""color:Black; font-size:50px;"">Agent B","null","","","","",""
"null","","","video-keyboard-response","408","939148","0.0-408.0","guk1mo2t","","","null","","Agent B","scrambled","FOR_REV_MAP_BLOBBY_STIM/713858.bmp_pp57_L1_V1.0_veridical_freeview_isoTrue_fps144_reversed_REAL.mp4",""
"","","","call-function","409","939148","0.0-409.0","guk1mo2t","","","","","","","",""
"1660.4350000000559","{""judgement"":1}","[0]","survey-likert","410","940810","0.0-410.0","guk1mo2t","","","","","","","","0"
"1501.7450000001118","{""confidence"":1}","[0]","survey-likert","411","942313","0.0-411.0","guk1mo2t","","","","","","","",""
"","","","call-function","412","942313","0.0-412.0","guk1mo2t","","","","","","","",""
"null","","","html-keyboard-response","413","943815","0.0-413.0","guk1mo2t","","<span style=""color:Black; font-size:50px;"">Agent A","null","","","","",""
"null","","","video-keyboard-response","414","946666","0.0-414.0","guk1mo2t","","","null","","Agent A","scrambled","FOR_REV_MAP_BLOBBY_STIM/1592857.bmp_pp52_L1_V1.0_veridical_freeview_isoTrue_fps144_reversed_REAL.mp4",""
"null","","","html-keyboard-response","415","948170","0.0-415.0","guk1mo2t","","<span style=""color:Black; font-size:50px;"">Agent B","null","","","","",""
"null","","","video-keyboard-response","416","951016","0.0-416.0","guk1mo2t","","","null","","Agent B","veridical","FOR_REV_MAP_BLOBBY_STIM/1592857.bmp_pp52_L1_V1.0_veridical_freeview_isoTrue_fps144.mp4",""
"","","","call-function","417","951016","0.0-417.0","guk1mo2t","","","","","","","",""
"1544.5550000000512","{""judgement"":1}","[0]","survey-likert","418","952562","0.0-418.0","guk1mo2t","","","","","","","","1"
"980.0650000000605","{""confidence"":1}","[0]","survey-likert","419","953543","0.0-419.0","guk1mo2t","","","","","","","",""
"94166.92499999993","","","instructions","420","1047710","0.0-420.0","guk1mo2t","[{""page_index"":0,""viewing_time"":1261.704999999958},{""page_index"":1,""viewing_time"":89047.06000000006},{""page_index"":2,""viewing_time"":3857.9599999999627}]","","","","","","",""
"3137.7800000001444","","","instructions","421","1050849","0.0-421.0","guk1mo2t","[{""page_index"":0,""viewing_time"":981.265000000014},{""page_index"":1,""viewing_time"":1539.3049999999348},{""page_index"":2,""viewing_time"":617.0950000002049}]","","","","","","",""
"","","","call-function","422","1050849","0.0-422.0","guk1mo2t","","","","","","","",""
"null","","","html-keyboard-response","423","1052352","0.0-423.0","guk1mo2t","","<span style=""color:Black; font-size:50px;"">Agent A","null","","","","",""
"null","","","video-keyboard-response","424","1055144","0.0-424.0","guk1mo2t","","","null","","Agent A","veridical","FOR_REV_MAP_BLOBBY_STIM/1592150.bmp_pp77_L3_V1.0_veridical_freeview_isoTrue_fps144.mp4",""
"null","","","html-keyboard-response","425","1056647","0.0-425.0","guk1mo2t","","<span style=""color:Black; font-size:50px;"">Agent B","null","","","","",""
"null","","","video-keyboard-response","426","1059439","0.0-426.0","guk1mo2t","","","null","","Agent B","scrambled","FOR_REV_MAP_BLOBBY_STIM/1592150.bmp_pp77_L3_V1.0_veridical_freeview_isoTrue_fps144_reversed_REAL.mp4",""
"","","","call-function","427","1059440","0.0-427.0","guk1mo2t","","","","","","","",""
"1139.1350000000093","{""judgement"":0}","[0]","survey-likert","428","1060580","0.0-428.0","guk1mo2t","","","","","","","","0"
"867.9899999999907","{""confidence"":1}","[0]","survey-likert","429","1061449","0.0-429.0","guk1mo2t","","","","","","","",""
"","","","call-function","430","1061450","0.0-430.0","guk1mo2t","","","","","","","",""
"null","","","html-keyboard-response","431","1062953","0.0-431.0","guk1mo2t","","<span style=""color:Black; font-size:50px;"">Agent A","null","","","","",""
"null","","","video-keyboard-response","432","1065047","0.0-432.0","guk1mo2t","","","null","","Agent A","scrambled","FOR_REV_MAP_BLOBBY_STIM/1159973.bmp_pp98_L1_V1.0_veridical_freeview_isoTrue_fps144_reversed_REAL.mp4",""
"null","","","html-keyboard-response","433","1066550","0.0-433.0","guk1mo2t","","<span style=""color:Black; font-size:50px;"">Agent B","null","","","","",""
"null","","","video-keyboard-response","434","1068640","0.0-434.0","guk1mo2t","","","null","","Agent B","veridical","FOR_REV_MAP_BLOBBY_STIM/1159973.bmp_pp98_L1_V1.0_veridical_freeview_isoTrue_fps144.mp4",""
"","","","call-function","435","1068641","0.0-435.0","guk1mo2t","","","","","","","",""
"1853.4399999999441","{""judgement"":0}","[0]","survey-likert","436","1070495","0.0-436.0","guk1mo2t","","","","","","","","1"
"861.4250000000466","{""confidence"":1}","[0]","survey-likert","437","1071358","0.0-437.0","guk1mo2t","","","","","","","",""
"","","","call-function","438","1071358","0.0-438.0","guk1mo2t","","","","","","","",""
"null","","","html-keyboard-response","439","1072864","0.0-439.0","guk1mo2t","","<span style=""color:Black; font-size:50px;"">Agent A","null","","","","",""
"null","","","video-keyboard-response","440","1075672","0.0-440.0","guk1mo2t","","","null","","Agent A","veridical","FOR_REV_MAP_BLOBBY_STIM/498372.bmp_pp95_L2_V1.0_veridical_freeview_isoTrue_fps144.mp4",""
"null","","","html-keyboard-response","441","1077178","0.0-441.0","guk1mo2t","","<span style=""color:Black; font-size:50px;"">Agent B","null","","","","",""
"null","","","video-keyboard-response","442","1079952","0.0-442.0","guk1mo2t","","","null","","Agent B","scrambled","FOR_REV_MAP_BLOBBY_STIM/498372.bmp_pp95_L2_V1.0_veridical_freeview_isoTrue_fps144_reversed_REAL.mp4",""
"","","","call-function","443","1079952","0.0-443.0","guk1mo2t","","","","","","","",""
"2031.780000000028","{""judgement"":1}","[0]","survey-likert","444","1081986","0.0-444.0","guk1mo2t","","","","","","","","0"
"2296.9250000000466","{""confidence"":1}","[0]","survey-likert","445","1084285","0.0-445.0","guk1mo2t","","","","","","","",""
"","","","call-function","446","1084286","0.0-446.0","guk1mo2t","","","","","","","",""
"null","","","html-keyboard-response","447","1085789","0.0-447.0","guk1mo2t","","<span style=""color:Black; font-size:50px;"">Agent A","null","","","","",""
"null","","","video-keyboard-response","448","1088559","0.0-448.0","guk1mo2t","","","null","","Agent A","scrambled","FOR_REV_MAP_BLOBBY_STIM/1592017.bmp_pp154_L1_V1.0_veridical_freeview_isoTrue_fps144_reversed_REAL.mp4",""
"null","","","html-keyboard-response","449","1090065","0.0-449.0","guk1mo2t","","<span style=""color:Black; font-size:50px;"">Agent B","null","","","","",""
"null","","","video-keyboard-response","450","1092833","0.0-450.0","guk1mo2t","","","null","","Agent B","veridical","FOR_REV_MAP_BLOBBY_STIM/1592017.bmp_pp154_L1_V1.0_veridical_freeview_isoTrue_fps144.mp4",""
"","","","call-function","451","1092833","0.0-451.0","guk1mo2t","","","","","","","",""
"1380","{""judgement"":1}","[0]","survey-likert","452","1094215","0.0-452.0","guk1mo2t","","","","","","","","1"
"1390.5450000001583","{""confidence"":1}","[0]","survey-likert","453","1095606","0.0-453.0","guk1mo2t","","","","","","","",""
"","","","call-function","454","1095607","0.0-454.0","guk1mo2t","","","","","","","",""
"null","","","html-keyboard-response","455","1097109","0.0-455.0","guk1mo2t","","<span style=""color:Black; font-size:50px;"">Agent A","null","","","","",""
"null","","","video-keyboard-response","456","1099896","0.0-456.0","guk1mo2t","","","null","","Agent A","veridical","FOR_REV_MAP_BLOBBY_STIM/1160049.bmp_pp53_L2_V1.0_veridical_freeview_isoTrue_fps144.mp4",""
"null","","","html-keyboard-response","457","1101399","0.0-457.0","guk1mo2t","","<span style=""color:Black; font-size:50px;"">Agent B","null","","","","",""
"null","","","video-keyboard-response","458","1104170","0.0-458.0","guk1mo2t","","","null","","Agent B","scrambled","FOR_REV_MAP_BLOBBY_STIM/1160049.bmp_pp53_L2_V1.0_veridical_freeview_isoTrue_fps144_reversed_REAL.mp4",""
"","","","call-function","459","1104171","0.0-459.0","guk1mo2t","","","","","","","",""
"1191.5549999999348","{""judgement"":0}","[0]","survey-likert","460","1105363","0.0-460.0","guk1mo2t","","","","","","","","0"
"1323.0249999999069","{""confidence"":1}","[0]","survey-likert","461","1106687","0.0-461.0","guk1mo2t","","","","","","","",""
"","","","call-function","462","1106688","0.0-462.0","guk1mo2t","","","","","","","",""
"null","","","html-keyboard-response","463","1108190","0.0-463.0","guk1mo2t","","<span style=""color:Black; font-size:50px;"">Agent A","null","","","","",""
"null","","","video-keyboard-response","464","1110956","0.0-464.0","guk1mo2t","","","null","","Agent A","scrambled","FOR_REV_MAP_BLOBBY_STIM/285959.bmp_pp93_L1_V1.0_veridical_freeview_isoTrue_fps144_reversed_REAL.mp4",""
"null","","","html-keyboard-response","465","1112459","0.0-465.0","guk1mo2t","","<span style=""color:Black; font-size:50px;"">Agent B","null","","","","",""
"null","","","video-keyboard-response","466","1115201","0.0-466.0","guk1mo2t","","","null","","Agent B","veridical","FOR_REV_MAP_BLOBBY_STIM/285959.bmp_pp93_L1_V1.0_veridical_freeview_isoTrue_fps144.mp4",""
"","","","call-function","467","1115201","0.0-467.0","guk1mo2t","","","","","","","",""
"1289.0800000000745","{""judgement"":0}","[0]","survey-likert","468","1116491","0.0-468.0","guk1mo2t","","","","","","","","1"
"1292.7649999998976","{""confidence"":1}","[0]","survey-likert","469","1117785","0.0-469.0","guk1mo2t","","","","","","","",""
"","","","call-function","470","1117785","0.0-470.0","guk1mo2t","","","","","","","",""
"null","","","html-keyboard-response","471","1119290","0.0-471.0","guk1mo2t","","<span style=""color:Black; font-size:50px;"">Agent A","null","","","","",""
"null","","","video-keyboard-response","472","1122066","0.0-472.0","guk1mo2t","","","null","","Agent A","veridical","FOR_REV_MAP_BLOBBY_STIM/1159325.bmp_pp67_L2_V1.0_veridical_freeview_isoTrue_fps144.mp4",""
"null","","","html-keyboard-response","473","1123567","0.0-473.0","guk1mo2t","","<span style=""color:Black; font-size:50px;"">Agent B","null","","","","",""
"null","","","video-keyboard-response","474","1126332","0.0-474.0","guk1mo2t","","","null","","Agent B","scrambled","FOR_REV_MAP_BLOBBY_STIM/1159325.bmp_pp67_L2_V1.0_veridical_freeview_isoTrue_fps144_reversed_REAL.mp4",""
"","","","call-function","475","1126333","0.0-475.0","guk1mo2t","","","","","","","",""
"1499.3649999999907","{""judgement"":0}","[0]","survey-likert","476","1127833","0.0-476.0","guk1mo2t","","","","","","","","0"
"1944.5799999998417","{""confidence"":1}","[0]","survey-likert","477","1129779","0.0-477.0","guk1mo2t","","","","","","","",""
"","","","call-function","478","1129779","0.0-478.0","guk1mo2t","","","","","","","",""
"null","","","html-keyboard-response","479","1131282","0.0-479.0","guk1mo2t","","<span style=""color:Black; font-size:50px;"">Agent A","null","","","","",""
"null","","","video-keyboard-response","480","1134078","0.0-480.0","guk1mo2t","","","null","","Agent A","veridical","FOR_REV_MAP_BLOBBY_STIM/1159860.bmp_pp152_L2_V1.0_veridical_freeview_isoTrue_fps144.mp4",""
"null","","","html-keyboard-response","481","1135579","0.0-481.0","guk1mo2t","","<span style=""color:Black; font-size:50px;"">Agent B","null","","","","",""
"null","","","video-keyboard-response","482","1138369","0.0-482.0","guk1mo2t","","","null","","Agent B","scrambled","FOR_REV_MAP_BLOBBY_STIM/1159860.bmp_pp152_L2_V1.0_veridical_freeview_isoTrue_fps144_reversed_REAL.mp4",""
"","","","call-function","483","1138370","0.0-483.0","guk1mo2t","","","","","","","",""
"1224.2450000001118","{""judgement"":1}","[0]","survey-likert","484","1139595","0.0-484.0","guk1mo2t","","","","","","","","0"
"1693.7549999998882","{""confidence"":1}","[0]","survey-likert","485","1141290","0.0-485.0","guk1mo2t","","","","","","","",""
"","","","call-function","486","1141291","0.0-486.0","guk1mo2t","","","","","","","",""
"null","","","html-keyboard-response","487","1142793","0.0-487.0","guk1mo2t","","<span style=""color:Black; font-size:50px;"">Agent A","null","","","","",""
"null","","","video-keyboard-response","488","1145626","0.0-488.0","guk1mo2t","","","null","","Agent A","scrambled","FOR_REV_MAP_BLOBBY_STIM/107955.bmp_pp90_L2_V1.0_veridical_freeview_isoTrue_fps144_reversed_REAL.mp4",""
"null","","","html-keyboard-response","489","1147131","0.0-489.0","guk1mo2t","","<span style=""color:Black; font-size:50px;"">Agent B","null","","","","",""
"null","","","video-keyboard-response","490","1149963","0.0-490.0","guk1mo2t","","","null","","Agent B","veridical","FOR_REV_MAP_BLOBBY_STIM/107955.bmp_pp90_L2_V1.0_veridical_freeview_isoTrue_fps144.mp4",""
"","","","call-function","491","1149964","0.0-491.0","guk1mo2t","","","","","","","",""
"5278.360000000102","{""judgement"":1}","[0]","survey-likert","492","1155243","0.0-492.0","guk1mo2t","","","","","","","","1"
"1542.910000000149","{""confidence"":0}","[0]","survey-likert","493","1156788","0.0-493.0","guk1mo2t","","","","","","","",""
"","","","call-function","494","1156788","0.0-494.0","guk1mo2t","","","","","","","",""
"null","","","html-keyboard-response","495","1158289","0.0-495.0","guk1mo2t","","<span style=""color:Black; font-size:50px;"">Agent A","null","","","","",""
"null","","","video-keyboard-response","496","1161026","0.0-496.0","guk1mo2t","","","null","","Agent A","scrambled","FOR_REV_MAP_BLOBBY_STIM/1159592.bmp_pp91_L3_V1.0_veridical_freeview_isoTrue_fps144_reversed_REAL.mp4",""
"null","","","html-keyboard-response","497","1162529","0.0-497.0","guk1mo2t","","<span style=""color:Black; font-size:50px;"">Agent B","null","","","","",""
"null","","","video-keyboard-response","498","1165251","0.0-498.0","guk1mo2t","","","null","","Agent B","veridical","FOR_REV_MAP_BLOBBY_STIM/1159592.bmp_pp91_L3_V1.0_veridical_freeview_isoTrue_fps144.mp4",""
"","","","call-function","499","1165251","0.0-499.0","guk1mo2t","","","","","","","",""
"1144.5400000000373","{""judgement"":1}","[0]","survey-likert","500","1166397","0.0-500.0","guk1mo2t","","","","","","","","1"
"1057.7299999999814","{""confidence"":0}","[0]","survey-likert","501","1167456","0.0-501.0","guk1mo2t","","","","","","","",""
"95696.83499999996","","","instructions","502","1263154","0.0-502.0","guk1mo2t","[{""page_index"":0,""viewing_time"":1198.4550000000745},{""page_index"":1,""viewing_time"":1986.0849999999627},{""page_index"":2,""viewing_time"":92512.09499999997}]","","","","","","",""
"2269.3000000000466","","","instructions","503","1265424","0.0-503.0","guk1mo2t","[{""page_index"":0,""viewing_time"":756.2399999999907},{""page_index"":1,""viewing_time"":934.9450000000652},{""page_index"":2,""viewing_time"":578.0049999998882}]","","","","","","",""
"","","","call-function","504","1265424","0.0-504.0","guk1mo2t","","","","","","","",""
"null","","","html-keyboard-response","505","1266926","0.0-505.0","guk1mo2t","","<span style=""color:Black; font-size:50px;"">Agent A","null","","","","",""
"null","","","video-keyboard-response","506","1269690","0.0-506.0","guk1mo2t","","","null","","Agent A","scrambled","FOR_REV_MAP_BLOBBY_STIM/61513.bmp_pp75_L1_V1.0_veridical_freeview_isoTrue_fps144_reversed_REAL.mp4",""
"null","","","html-keyboard-response","507","1271196","0.0-507.0","guk1mo2t","","<span style=""color:Black; font-size:50px;"">Agent B","null","","","","",""
"null","","","video-keyboard-response","508","1273865","0.0-508.0","guk1mo2t","","","null","","Agent B","veridical","FOR_REV_MAP_BLOBBY_STIM/61513.bmp_pp75_L1_V1.0_veridical_freeview_isoTrue_fps144.mp4",""
"","","","call-function","509","1273865","0.0-509.0","guk1mo2t","","","","","","","",""
"1425.2349999998696","{""judgement"":1}","[0]","survey-likert","510","1275291","0.0-510.0","guk1mo2t","","","","","","","","1"
"2888.869999999879","{""confidence"":1}","[0]","survey-likert","511","1278181","0.0-511.0","guk1mo2t","","","","","","","",""
"","","","call-function","512","1278182","0.0-512.0","guk1mo2t","","","","","","","",""
"null","","","html-keyboard-response","513","1279688","0.0-513.0","guk1mo2t","","<span style=""color:Black; font-size:50px;"">Agent A","null","","","","",""
"null","","","video-keyboard-response","514","1282515","0.0-514.0","guk1mo2t","","","null","","Agent A","veridical","FOR_REV_MAP_BLOBBY_STIM/713920.bmp_pp76_L1_V1.0_veridical_freeview_isoTrue_fps144.mp4",""
"null","","","html-keyboard-response","515","1284018","0.0-515.0","guk1mo2t","","<span style=""color:Black; font-size:50px;"">Agent B","null","","","","",""
"null","","","video-keyboard-response","516","1286832","0.0-516.0","guk1mo2t","","","null","","Agent B","scrambled","FOR_REV_MAP_BLOBBY_STIM/713920.bmp_pp76_L1_V1.0_veridical_freeview_isoTrue_fps144_reversed_REAL.mp4",""
"","","","call-function","517","1286833","0.0-517.0","guk1mo2t","","","","","","","",""
"1344.405000000028","{""judgement"":0}","[0]","survey-likert","518","1288178","0.0-518.0","guk1mo2t","","","","","","","","0"
"2565.8199999998324","{""confidence"":2}","[0]","survey-likert","519","1290745","0.0-519.0","guk1mo2t","","","","","","","",""
"","","","call-function","520","1290745","0.0-520.0","guk1mo2t","","","","","","","",""
"null","","","html-keyboard-response","521","1292251","0.0-521.0","guk1mo2t","","<span style=""color:Black; font-size:50px;"">Agent A","null","","","","",""
"null","","","video-keyboard-response","522","1295085","0.0-522.0","guk1mo2t","","","null","","Agent A","veridical","FOR_REV_MAP_BLOBBY_STIM/1592305.bmp_pp65_L3_V1.0_veridical_freeview_isoTrue_fps144.mp4",""
"null","","","html-keyboard-response","523","1296591","0.0-523.0","guk1mo2t","","<span style=""color:Black; font-size:50px;"">Agent B","null","","","","",""
"null","","","video-keyboard-response","524","1299397","0.0-524.0","guk1mo2t","","","null","","Agent B","scrambled","FOR_REV_MAP_BLOBBY_STIM/1592305.bmp_pp65_L3_V1.0_veridical_freeview_isoTrue_fps144_reversed_REAL.mp4",""
"","","","call-function","525","1299397","0.0-525.0","guk1mo2t","","","","","","","",""
"1227.7900000000373","{""judgement"":0}","[0]","survey-likert","526","1300626","0.0-526.0","guk1mo2t","","","","","","","","0"
"3179.6699999999255","{""confidence"":1}","[0]","survey-likert","527","1303807","0.0-527.0","guk1mo2t","","","","","","","",""
"","","","call-function","528","1303808","0.0-528.0","guk1mo2t","","","","","","","",""
"null","","","html-keyboard-response","529","1305311","0.0-529.0","guk1mo2t","","<span style=""color:Black; font-size:50px;"">Agent A","null","","","","",""
"null","","","video-keyboard-response","530","1308146","0.0-530.0","guk1mo2t","","","null","","Agent A","scrambled","FOR_REV_MAP_BLOBBY_STIM/1592025.bmp_pp68_L1_V1.0_veridical_freeview_isoTrue_fps144_reversed_REAL.mp4",""
"null","","","html-keyboard-response","531","1309651","0.0-531.0","guk1mo2t","","<span style=""color:Black; font-size:50px;"">Agent B","null","","","","",""
"null","","","video-keyboard-response","532","1312471","0.0-532.0","guk1mo2t","","","null","","Agent B","veridical","FOR_REV_MAP_BLOBBY_STIM/1592025.bmp_pp68_L1_V1.0_veridical_freeview_isoTrue_fps144.mp4",""
"","","","call-function","533","1312472","0.0-533.0","guk1mo2t","","","","","","","",""
"1754.9950000001118","{""judgement"":1}","[0]","survey-likert","534","1314229","0.0-534.0","guk1mo2t","","","","","","","","1"
"2055.0149999998976","{""confidence"":1}","[0]","survey-likert","535","1316286","0.0-535.0","guk1mo2t","","","","","","","",""
"","","","call-function","536","1316287","0.0-536.0","guk1mo2t","","","","","","","",""
"null","","","html-keyboard-response","537","1317790","0.0-537.0","guk1mo2t","","<span style=""color:Black; font-size:50px;"">Agent A","null","","","","",""
"null","","","video-keyboard-response","538","1320478","0.0-538.0","guk1mo2t","","","null","","Agent A","scrambled","FOR_REV_MAP_BLOBBY_STIM/1592350.bmp_pp55_L3_V1.0_veridical_freeview_isoTrue_fps144_reversed_REAL.mp4",""
"null","","","html-keyboard-response","539","1321983","0.0-539.0","guk1mo2t","","<span style=""color:Black; font-size:50px;"">Agent B","null","","","","",""
"null","","","video-keyboard-response","540","1324692","0.0-540.0","guk1mo2t","","","null","","Agent B","veridical","FOR_REV_MAP_BLOBBY_STIM/1592350.bmp_pp55_L3_V1.0_veridical_freeview_isoTrue_fps144.mp4",""
"","","","call-function","541","1324693","0.0-541.0","guk1mo2t","","","","","","","",""
"1929.1049999999814","{""judgement"":1}","[0]","survey-likert","542","1326623","0.0-542.0","guk1mo2t","","","","","","","","1"
"1504.3499999998603","{""confidence"":1}","[0]","survey-likert","543","1328129","0.0-543.0","guk1mo2t","","","","","","","",""
"","","","call-function","544","1328130","0.0-544.0","guk1mo2t","","","","","","","",""
"null","","","html-keyboard-response","545","1329634","0.0-545.0","guk1mo2t","","<span style=""color:Black; font-size:50px;"">Agent A","null","","","","",""
"null","","","video-keyboard-response","546","1332422","0.0-546.0","guk1mo2t","","","null","","Agent A","veridical","FOR_REV_MAP_BLOBBY_STIM/286034.bmp_pp69_L3_V1.0_veridical_freeview_isoTrue_fps144.mp4",""
"null","","","html-keyboard-response","547","1333928","0.0-547.0","guk1mo2t","","<span style=""color:Black; font-size:50px;"">Agent B","null","","","","",""
"null","","","video-keyboard-response","548","1336713","0.0-548.0","guk1mo2t","","","null","","Agent B","scrambled","FOR_REV_MAP_BLOBBY_STIM/286034.bmp_pp69_L3_V1.0_veridical_freeview_isoTrue_fps144_reversed_REAL.mp4",""
"","","","call-function","549","1336713","0.0-549.0","guk1mo2t","","","","","","","",""
"1693.0549999999348","{""judgement"":0}","[0]","survey-likert","550","1338407","0.0-550.0","guk1mo2t","","","","","","","","0"
"2243.0849999999627","{""confidence"":2}","[0]","survey-likert","551","1340652","0.0-551.0","guk1mo2t","","","","","","","",""
"","","","call-function","552","1340652","0.0-552.0","guk1mo2t","","","","","","","",""
"null","","","html-keyboard-response","553","1342154","0.0-553.0","guk1mo2t","","<span style=""color:Black; font-size:50px;"">Agent A","null","","","","",""
"null","","","video-keyboard-response","554","1344947","0.0-554.0","guk1mo2t","","","null","","Agent A","scrambled","FOR_REV_MAP_BLOBBY_STIM/1592747.bmp_pp53_L2_V1.0_veridical_freeview_isoTrue_fps144_reversed_REAL.mp4",""
"null","","","html-keyboard-response","555","1346450","0.0-555.0","guk1mo2t","","<span style=""color:Black; font-size:50px;"">Agent B","null","","","","",""
"null","","","video-keyboard-response","556","1349220","0.0-556.0","guk1mo2t","","","null","","Agent B","veridical","FOR_REV_MAP_BLOBBY_STIM/1592747.bmp_pp53_L2_V1.0_veridical_freeview_isoTrue_fps144.mp4",""
"","","","call-function","557","1349220","0.0-557.0","guk1mo2t","","","","","","","",""
"1132.9950000001118","{""judgement"":0}","[0]","survey-likert","558","1350354","0.0-558.0","guk1mo2t","","","","","","","","1"
"2127.2399999999907","{""confidence"":2}","[0]","survey-likert","559","1352482","0.0-559.0","guk1mo2t","","","","","","","",""
"","","","call-function","560","1352483","0.0-560.0","guk1mo2t","","","","","","","",""
"null","","","html-keyboard-response","561","1353987","0.0-561.0","guk1mo2t","","<span style=""color:Black; font-size:50px;"">Agent A","null","","","","",""
"null","","","video-keyboard-response","562","1356804","0.0-562.0","guk1mo2t","","","null","","Agent A","veridical","FOR_REV_MAP_BLOBBY_STIM/1591781.bmp_pp63_L1_V1.0_veridical_freeview_isoTrue_fps144.mp4",""
"null","","","html-keyboard-response","563","1358306","0.0-563.0","guk1mo2t","","<span style=""color:Black; font-size:50px;"">Agent B","null","","","","",""
"null","","","video-keyboard-response","564","1361135","0.0-564.0","guk1mo2t","","","null","","Agent B","scrambled","FOR_REV_MAP_BLOBBY_STIM/1591781.bmp_pp63_L1_V1.0_veridical_freeview_isoTrue_fps144_reversed_REAL.mp4",""
"","","","call-function","565","1361135","0.0-565.0","guk1mo2t","","","","","","","",""
"1762.030000000028","{""judgement"":0}","[0]","survey-likert","566","1362898","0.0-566.0","guk1mo2t","","","","","","","","0"
"1359.0649999999441","{""confidence"":1}","[0]","survey-likert","567","1364258","0.0-567.0","guk1mo2t","","","","","","","",""
"","","","call-function","568","1364259","0.0-568.0","guk1mo2t","","","","","","","",""
"null","","","html-keyboard-response","569","1365763","0.0-569.0","guk1mo2t","","<span style=""color:Black; font-size:50px;"">Agent A","null","","","","",""
"null","","","video-keyboard-response","570","1368597","0.0-570.0","guk1mo2t","","","null","","Agent A","veridical","FOR_REV_MAP_BLOBBY_STIM/713652.bmp_pp89_L1_V1.0_veridical_freeview_isoTrue_fps144.mp4",""
"null","","","html-keyboard-response","571","1370101","0.0-571.0","guk1mo2t","","<span style=""color:Black; font-size:50px;"">Agent B","null","","","","",""
"null","","","video-keyboard-response","572","1372915","0.0-572.0","guk1mo2t","","","null","","Agent B","scrambled","FOR_REV_MAP_BLOBBY_STIM/713652.bmp_pp89_L1_V1.0_veridical_freeview_isoTrue_fps144_reversed_REAL.mp4",""
"","","","call-function","573","1372916","0.0-573.0","guk1mo2t","","","","","","","",""
"2583.5800000000745","{""judgement"":0}","[0]","survey-likert","574","1375500","0.0-574.0","guk1mo2t","","","","","","","","0"
"1502.5549999999348","{""confidence"":1}","[0]","survey-likert","575","1377004","0.0-575.0","guk1mo2t","","","","","","","",""
"","","","call-function","576","1377005","0.0-576.0","guk1mo2t","","","","","","","",""
"null","","","html-keyboard-response","577","1378506","0.0-577.0","guk1mo2t","","<span style=""color:Black; font-size:50px;"">Agent A","null","","","","",""
"null","","","video-keyboard-response","578","1381310","0.0-578.0","guk1mo2t","","","null","","Agent A","veridical","FOR_REV_MAP_BLOBBY_STIM/1592289.bmp_pp92_L3_V1.0_veridical_freeview_isoTrue_fps144.mp4",""
"null","","","html-keyboard-response","579","1382814","0.0-579.0","guk1mo2t","","<span style=""color:Black; font-size:50px;"">Agent B","null","","","","",""
"null","","","video-keyboard-response","580","1385591","0.0-580.0","guk1mo2t","","","null","","Agent B","scrambled","FOR_REV_MAP_BLOBBY_STIM/1592289.bmp_pp92_L3_V1.0_veridical_freeview_isoTrue_fps144_reversed_REAL.mp4",""
"","","","call-function","581","1385592","0.0-581.0","guk1mo2t","","","","","","","",""
"1545.4499999999534","{""judgement"":0}","[0]","survey-likert","582","1387139","0.0-582.0","guk1mo2t","","","","","","","","0"
"1403.3900000001304","{""confidence"":1}","[0]","survey-likert","583","1388544","0.0-583.0","guk1mo2t","","","","","","","",""
"1188.7749999999069","","","instructions","584","1389734","0.0-584.0","guk1mo2t","[{""page_index"":0,""viewing_time"":1188.6450000000186}]","","","","","","",""
"1463.2250000000931","","","instructions","585","1391198","0.0-585.0","guk1mo2t","[{""page_index"":0,""viewing_time"":1463.125}]","","","","","","",""
"8262.23999999999","{""post-1"":0}","[0]","survey-likert","586","1399462","0.0-586.0","guk1mo2t","","","","","","","",""
"2068.4499999999534","{""post-1"":0}","[0]","survey-likert","587","1401533","0.0-587.0","guk1mo2t","","","","","","","",""
"7494.1699999999255","{""post-2"":0}","[0]","survey-likert","588","1409029","0.0-588.0","guk1mo2t","","","","","","","",""
"3240.435000000056","{""post-2"":1}","[0]","survey-likert","589","1412270","0.0-589.0","guk1mo2t","","","","","","","",""
"6389.040000000037","{""post-3"":2}","[0]","survey-likert","590","1418661","0.0-590.0","guk1mo2t","","","","","","","",""
"4850.555000000168","{""post-3"":0}","[0]","survey-likert","591","1423512","0.0-591.0","guk1mo2t","","","","","","","",""
"5065.729999999981","{""post-4"":1}","[0]","survey-likert","592","1428580","0.0-592.0","guk1mo2t","","","","","","","",""
"2757.309999999823","{""post-4"":0}","[0]","survey-likert","593","1431338","0.0-593.0","guk1mo2t","","","","","","","",""
"3308.1149999999907","{""post-5"":0}","[0]","survey-likert","594","1434647","0.0-594.0","guk1mo2t","","","","","","","",""
"1899.6350000000093","{""post-5"":1}","[0]","survey-likert","595","1436548","0.0-595.0","guk1mo2t","","","","","","","",""
"54682.875","{""Q0"":""That was much more difficult to make judgements on that the experiment with actual images. I'm not really sure what I was basing my decisions off of, and I don't believe it is anything conscious.""}","","survey-text","596","1491237","0.0-596.0","guk1mo2t","","","","","","","",""
"104704.27000000002","{""Q0"":""I think I was looking for focuses that started more centrally and then ended on the edges of the frame. But also since there was no image, I think a lot of my judgements were based off of vibe. Sometimes one agents path of focus would seem much more natural to follow than the other's.""}","","survey-text","597","1595946","0.0-597.0","guk1mo2t","","","","","","","",""
"86963.13500000001","{""Q0"":""Because there was no image, I think it made this much more difficult to decide with much certainty. Also because I didn't know what either agent was looking at, sometimes both agents focus pattern just seemed weird or unnatural. That made it quite difficult to make a judgement.""}","","survey-text","598","1682912","0.0-598.0","guk1mo2t","","","","","","","",""
"988.0300000000279","","","instructions","599","1683902","0.0-599.0","guk1mo2t","[{""page_index"":0,""viewing_time"":987.8999999999069}]","","","","","","",""
"61795.17500000005","{""Experimenter_end"":[""Printed ID# guk1mo2t on consent form"",""Given subject SONA credit or payment"",""Given the subject debrief form""]}","[0]","survey-multi-select","600","1745700","0.0-600.0","guk1mo2t","","","","","","","",""
