"rt","responses","question_order","trial_type","trial_index","time_elapsed","internal_node_id","ID","view_history","stimulus","key_press","value","agent","condition","image","correct_answer"
"64078.04","{""Experimenter"":[""Confirmed subject's identity"",""Confirmed normal or corrected-to-normal vision"",""Obtained consent (signature and date)"",""Checked the test room lighting"",""Checked computer screen lighting"",""Checked distance from screen to chin rest (50cm)"",""Cleaned and adjusted chin rest"",""Counterbalanced the order of the tasks"",""Opened the experiment in Firefox"",""Made the experiment full screen"",""Encouraged subject to silence phone, put away distractors, etc.""]}","[0]","survey-multi-select","0","64087","0.0-0.0","gzw0vx7n","","","","","","","",""
"36122.48499999999","","","instructions","1","100211","0.0-1.0","gzw0vx7n","[{""page_index"":0,""viewing_time"":36122.32}]","","","","","","",""
"18656.770000000004","","","instructions","2","118869","0.0-2.0","gzw0vx7n","[{""page_index"":0,""viewing_time"":11754.61},{""page_index"":1,""viewing_time"":871.9850000000006},{""page_index"":2,""viewing_time"":6029.985000000001}]","","","","","","",""
"3043.7899999999936","","","instructions","3","121913","0.0-3.0","gzw0vx7n","[{""page_index"":0,""viewing_time"":3043.679999999993}]","","","","","","",""
"null","","","video-keyboard-response","4","124984","0.0-4.0","gzw0vx7n","","","null","","","","",""
"14175.14","","","instructions","5","139160","0.0-5.0","gzw0vx7n","[{""page_index"":0,""viewing_time"":4474.774999999994},{""page_index"":1,""viewing_time"":3576.159999999989},{""page_index"":2,""viewing_time"":6124.100000000006}]","","","","","","",""
"4459.279999999999","","","instructions","6","143620","0.0-6.0","gzw0vx7n","[{""page_index"":0,""viewing_time"":4459.174999999988}]","","","","","","",""
"1039.7050000000163","","","instructions","7","144660","0.0-7.0","gzw0vx7n","[{""page_index"":0,""viewing_time"":1039.4850000000151}]","","","","","","",""
"null","","","video-keyboard-response","8","147736","0.0-8.0","gzw0vx7n","","","null","","","","",""
"12827.459999999992","","","instructions","9","160564","0.0-9.0","gzw0vx7n","[{""page_index"":0,""viewing_time"":1064.414999999979},{""page_index"":1,""viewing_time"":6594.880000000005},{""page_index"":2,""viewing_time"":5168.029999999999}]","","","","","","",""
"8509.525000000023","","","instructions","10","169074","0.0-10.0","gzw0vx7n","[{""page_index"":0,""viewing_time"":8509.410000000003}]","","","","","","",""
"","","","call-function","11","169075","0.0-11.0","gzw0vx7n","","","","","","","",""
"null","","","html-keyboard-response","12","170577","0.0-12.0","gzw0vx7n","","<span style=""color:Black; font-size:50px;"">Agent A","null","","","","",""
"null","","","video-keyboard-response","13","173651","0.0-13.0","gzw0vx7n","","","null","","Agent A","veridical","STIM_SET_2/1159427.bmp_pp98_L1_V1.0_veridical_freeview_isoTrue.mp4",""
"null","","","html-keyboard-response","14","175158","0.0-14.0","gzw0vx7n","","<span style=""color:Black; font-size:50px;"">Agent B","null","","","","",""
"null","","","video-keyboard-response","15","178227","0.0-15.0","gzw0vx7n","","","null","","Agent B","scrambled","STIM_SET_2/1159427.bmp_pp98_L1_V1.0_scrambled_freeview_isoTrue.mp4",""
"","","","call-function","16","178228","0.0-16.0","gzw0vx7n","","","","","","","",""
"3190.600000000006","{""judgement"":0}","[0]","survey-likert","17","181420","0.0-17.0","gzw0vx7n","","","","","","","","0"
"2819.654999999999","{""confidence"":1}","[0]","survey-likert","18","184241","0.0-18.0","gzw0vx7n","","","","","","","",""
"","","","call-function","19","184241","0.0-19.0","gzw0vx7n","","","","","","","",""
"null","","","html-keyboard-response","20","185747","0.0-20.0","gzw0vx7n","","<span style=""color:Black; font-size:50px;"">Agent A","null","","","","",""
"null","","","video-keyboard-response","21","188825","0.0-21.0","gzw0vx7n","","","null","","Agent A","veridical","STIM_SET_2/713742.bmp_pp91_L3_V1.0_veridical_freeview_isoTrue.mp4",""
"null","","","html-keyboard-response","22","190330","0.0-22.0","gzw0vx7n","","<span style=""color:Black; font-size:50px;"">Agent B","null","","","","",""
"null","","","video-keyboard-response","23","193439","0.0-23.0","gzw0vx7n","","","null","","Agent B","scrambled","STIM_SET_2/713742.bmp_pp91_L3_V1.0_scrambled_freeview_isoTrue.mp4",""
"","","","call-function","24","193440","0.0-24.0","gzw0vx7n","","","","","","","",""
"3233.475000000006","{""judgement"":0}","[0]","survey-likert","25","196674","0.0-25.0","gzw0vx7n","","","","","","","","0"
"1510.2950000000128","{""confidence"":1}","[0]","survey-likert","26","198186","0.0-26.0","gzw0vx7n","","","","","","","",""
"","","","call-function","27","198186","0.0-27.0","gzw0vx7n","","","","","","","",""
"null","","","html-keyboard-response","28","199692","0.0-28.0","gzw0vx7n","","<span style=""color:Black; font-size:50px;"">Agent A","null","","","","",""
"null","","","video-keyboard-response","29","202753","0.0-29.0","gzw0vx7n","","","null","","Agent A","veridical","STIM_SET_2/61513.bmp_pp75_L1_V1.0_veridical_freeview_isoTrue.mp4",""
"null","","","html-keyboard-response","30","204260","0.0-30.0","gzw0vx7n","","<span style=""color:Black; font-size:50px;"">Agent B","null","","","","",""
"null","","","video-keyboard-response","31","207323","0.0-31.0","gzw0vx7n","","","null","","Agent B","scrambled","STIM_SET_2/61513.bmp_pp75_L1_V1.0_scrambled_freeview_isoTrue.mp4",""
"","","","call-function","32","207324","0.0-32.0","gzw0vx7n","","","","","","","",""
"3034.7000000000116","{""judgement"":0}","[0]","survey-likert","33","210360","0.0-33.0","gzw0vx7n","","","","","","","","0"
"1268.6300000000047","{""confidence"":0}","[0]","survey-likert","34","211630","0.0-34.0","gzw0vx7n","","","","","","","",""
"","","","call-function","35","211631","0.0-35.0","gzw0vx7n","","","","","","","",""
"null","","","html-keyboard-response","36","213155","0.0-36.0","gzw0vx7n","","<span style=""color:Black; font-size:50px;"">Agent A","null","","","","",""
"null","","","video-keyboard-response","37","216226","0.0-37.0","gzw0vx7n","","","null","","Agent A","scrambled","STIM_SET_2/498396.bmp_pp99_L2_V1.0_scrambled_freeview_isoTrue.mp4",""
"null","","","html-keyboard-response","38","217733","0.0-38.0","gzw0vx7n","","<span style=""color:Black; font-size:50px;"">Agent B","null","","","","",""
"null","","","video-keyboard-response","39","220807","0.0-39.0","gzw0vx7n","","","null","","Agent B","veridical","STIM_SET_2/498396.bmp_pp99_L2_V1.0_veridical_freeview_isoTrue.mp4",""
"","","","call-function","40","220808","0.0-40.0","gzw0vx7n","","","","","","","",""
"1572.7149999999965","{""judgement"":1}","[0]","survey-likert","41","222382","0.0-41.0","gzw0vx7n","","","","","","","","1"
"1449.3000000000175","{""confidence"":1}","[0]","survey-likert","42","223833","0.0-42.0","gzw0vx7n","","","","","","","",""
"","","","call-function","43","223834","0.0-43.0","gzw0vx7n","","","","","","","",""
"null","","","html-keyboard-response","44","225336","0.0-44.0","gzw0vx7n","","<span style=""color:Black; font-size:50px;"">Agent A","null","","","","",""
"null","","","video-keyboard-response","45","228407","0.0-45.0","gzw0vx7n","","","null","","Agent A","scrambled","STIM_SET_2/713328.bmp_pp86_L2_V1.0_scrambled_freeview_isoTrue.mp4",""
"null","","","html-keyboard-response","46","229912","0.0-46.0","gzw0vx7n","","<span style=""color:Black; font-size:50px;"">Agent B","null","","","","",""
"null","","","video-keyboard-response","47","232981","0.0-47.0","gzw0vx7n","","","null","","Agent B","veridical","STIM_SET_2/713328.bmp_pp86_L2_V1.0_veridical_freeview_isoTrue.mp4",""
"","","","call-function","48","232982","0.0-48.0","gzw0vx7n","","","","","","","",""
"1302.7149999999965","{""judgement"":1}","[0]","survey-likert","49","234286","0.0-49.0","gzw0vx7n","","","","","","","","1"
"1005.1350000000093","{""confidence"":1}","[0]","survey-likert","50","235292","0.0-50.0","gzw0vx7n","","","","","","","",""
"","","","call-function","51","235293","0.0-51.0","gzw0vx7n","","","","","","","",""
"null","","","html-keyboard-response","52","236794","0.0-52.0","gzw0vx7n","","<span style=""color:Black; font-size:50px;"">Agent A","null","","","","",""
"null","","","video-keyboard-response","53","239891","0.0-53.0","gzw0vx7n","","","null","","Agent A","scrambled","STIM_SET_2/1591920.bmp_pp97_L3_V1_scrambled_freeview_isoTrue.mp4",""
"null","","","html-keyboard-response","54","241396","0.0-54.0","gzw0vx7n","","<span style=""color:Black; font-size:50px;"">Agent B","null","","","","",""
"null","","","video-keyboard-response","55","244489","0.0-55.0","gzw0vx7n","","","null","","Agent B","veridical","STIM_SET_2/1591920.bmp_pp97_L3_V1_veridical_freeview_isoTrue.mp4",""
"","","","call-function","56","244490","0.0-56.0","gzw0vx7n","","","","","","","",""
"2260.2449999999953","{""judgement"":1}","[0]","survey-likert","57","246751","0.0-57.0","gzw0vx7n","","","","","","","","1"
"1107.1300000000047","{""confidence"":0}","[0]","survey-likert","58","247859","0.0-58.0","gzw0vx7n","","","","","","","",""
"","","","call-function","59","247859","0.0-59.0","gzw0vx7n","","","","","","","",""
"null","","","html-keyboard-response","60","249361","0.0-60.0","gzw0vx7n","","<span style=""color:Black; font-size:50px;"">Agent A","null","","","","",""
"null","","","video-keyboard-response","61","252465","0.0-61.0","gzw0vx7n","","","null","","Agent A","veridical","STIM_SET_2/1159592.bmp_pp91_L3_V1.0_veridical_freeview_isoTrue.mp4",""
"null","","","html-keyboard-response","62","253967","0.0-62.0","gzw0vx7n","","<span style=""color:Black; font-size:50px;"">Agent B","null","","","","",""
"null","","","video-keyboard-response","63","257070","0.0-63.0","gzw0vx7n","","","null","","Agent B","scrambled","STIM_SET_2/1159592.bmp_pp91_L3_V1.0_scrambled_freeview_isoTrue.mp4",""
"","","","call-function","64","257071","0.0-64.0","gzw0vx7n","","","","","","","",""
"1543.9500000000116","{""judgement"":0}","[0]","survey-likert","65","258616","0.0-65.0","gzw0vx7n","","","","","","","","0"
"2456.195000000007","{""confidence"":1}","[0]","survey-likert","66","261073","0.0-66.0","gzw0vx7n","","","","","","","",""
"","","","call-function","67","261073","0.0-67.0","gzw0vx7n","","","","","","","",""
"null","","","html-keyboard-response","68","262576","0.0-68.0","gzw0vx7n","","<span style=""color:Black; font-size:50px;"">Agent A","null","","","","",""
"null","","","video-keyboard-response","69","265669","0.0-69.0","gzw0vx7n","","","null","","Agent A","veridical","STIM_SET_2/1592038.bmp_pp79_L2_V1.0_veridical_freeview_isoTrue.mp4",""
"null","","","html-keyboard-response","70","267175","0.0-70.0","gzw0vx7n","","<span style=""color:Black; font-size:50px;"">Agent B","null","","","","",""
"null","","","video-keyboard-response","71","270268","0.0-71.0","gzw0vx7n","","","null","","Agent B","scrambled","STIM_SET_2/1592038.bmp_pp79_L2_V1.0_scrambled_freeview_isoTrue.mp4",""
"","","","call-function","72","270269","0.0-72.0","gzw0vx7n","","","","","","","",""
"2544.2550000000047","{""judgement"":0}","[0]","survey-likert","73","272814","0.0-73.0","gzw0vx7n","","","","","","","","0"
"1609.7750000000233","{""confidence"":0}","[0]","survey-likert","74","274425","0.0-74.0","gzw0vx7n","","","","","","","",""
"","","","call-function","75","274425","0.0-75.0","gzw0vx7n","","","","","","","",""
"null","","","html-keyboard-response","76","275930","0.0-76.0","gzw0vx7n","","<span style=""color:Black; font-size:50px;"">Agent A","null","","","","",""
"null","","","video-keyboard-response","77","279034","0.0-77.0","gzw0vx7n","","","null","","Agent A","scrambled","STIM_SET_2/713770.bmp_pp89_L1_V1.0_scrambled_freeview_isoTrue.mp4",""
"null","","","html-keyboard-response","78","280539","0.0-78.0","gzw0vx7n","","<span style=""color:Black; font-size:50px;"">Agent B","null","","","","",""
"null","","","video-keyboard-response","79","283615","0.0-79.0","gzw0vx7n","","","null","","Agent B","veridical","STIM_SET_2/713770.bmp_pp89_L1_V1.0_veridical_freeview_isoTrue.mp4",""
"","","","call-function","80","283616","0.0-80.0","gzw0vx7n","","","","","","","",""
"2749.1300000000047","{""judgement"":0}","[0]","survey-likert","81","286366","0.0-81.0","gzw0vx7n","","","","","","","","1"
"1179.75","{""confidence"":1}","[0]","survey-likert","82","287547","0.0-82.0","gzw0vx7n","","","","","","","",""
"","","","call-function","83","287547","0.0-83.0","gzw0vx7n","","","","","","","",""
"null","","","html-keyboard-response","84","289048","0.0-84.0","gzw0vx7n","","<span style=""color:Black; font-size:50px;"">Agent A","null","","","","",""
"null","","","video-keyboard-response","85","292124","0.0-85.0","gzw0vx7n","","","null","","Agent A","veridical","STIM_SET_2/1159973.bmp_pp98_L1_V1.0_veridical_freeview_isoTrue.mp4",""
"null","","","html-keyboard-response","86","293631","0.0-86.0","gzw0vx7n","","<span style=""color:Black; font-size:50px;"">Agent B","null","","","","",""
"null","","","video-keyboard-response","87","296701","0.0-87.0","gzw0vx7n","","","null","","Agent B","scrambled","STIM_SET_2/1159973.bmp_pp98_L1_V1.0_scrambled_freeview_isoTrue.mp4",""
"","","","call-function","88","296701","0.0-88.0","gzw0vx7n","","","","","","","",""
"1907.6049999999814","{""judgement"":1}","[0]","survey-likert","89","298610","0.0-89.0","gzw0vx7n","","","","","","","","0"
"1291.4000000000233","{""confidence"":1}","[0]","survey-likert","90","299902","0.0-90.0","gzw0vx7n","","","","","","","",""
"14466.359999999986","","","instructions","91","314369","0.0-91.0","gzw0vx7n","[{""page_index"":0,""viewing_time"":1299.3899999999558},{""page_index"":1,""viewing_time"":8153.865000000049},{""page_index"":2,""viewing_time"":5012.899999999965}]","","","","","","",""
"10842.48999999999","","","instructions","92","325212","0.0-92.0","gzw0vx7n","[{""page_index"":0,""viewing_time"":1548.3799999999464},{""page_index"":1,""viewing_time"":8661.195000000007},{""page_index"":2,""viewing_time"":632.804999999993}]","","","","","","",""
"","","","call-function","93","325213","0.0-93.0","gzw0vx7n","","","","","","","",""
"null","","","html-keyboard-response","94","326717","0.0-94.0","gzw0vx7n","","<span style=""color:Black; font-size:50px;"">Agent A","null","","","","",""
"null","","","video-keyboard-response","95","329787","0.0-95.0","gzw0vx7n","","","null","","Agent A","scrambled","STIM_SET_2/1160049.bmp_pp53_L2_V1.0_scrambled_freeview_isoTrue.mp4",""
"null","","","html-keyboard-response","96","331294","0.0-96.0","gzw0vx7n","","<span style=""color:Black; font-size:50px;"">Agent B","null","","","","",""
"null","","","video-keyboard-response","97","334389","0.0-97.0","gzw0vx7n","","","null","","Agent B","veridical","STIM_SET_2/1160049.bmp_pp53_L2_V1.0_veridical_freeview_isoTrue.mp4",""
"","","","call-function","98","334389","0.0-98.0","gzw0vx7n","","","","","","","",""
"1686.8499999999767","{""judgement"":0}","[0]","survey-likert","99","336077","0.0-99.0","gzw0vx7n","","","","","","","","1"
"1908.0599999999977","{""confidence"":1}","[0]","survey-likert","100","337986","0.0-100.0","gzw0vx7n","","","","","","","",""
"","","","call-function","101","337987","0.0-101.0","gzw0vx7n","","","","","","","",""
"null","","","html-keyboard-response","102","339491","0.0-102.0","gzw0vx7n","","<span style=""color:Black; font-size:50px;"">Agent A","null","","","","",""
"null","","","video-keyboard-response","103","342597","0.0-103.0","gzw0vx7n","","","null","","Agent A","veridical","STIM_SET_2/1591781.bmp_pp63_L1_V1.0_veridical_freeview_isoTrue.mp4",""
"null","","","html-keyboard-response","104","344099","0.0-104.0","gzw0vx7n","","<span style=""color:Black; font-size:50px;"">Agent B","null","","","","",""
"null","","","video-keyboard-response","105","347176","0.0-105.0","gzw0vx7n","","","null","","Agent B","scrambled","STIM_SET_2/1591781.bmp_pp63_L1_V1.0_scrambled_freeview_isoTrue.mp4",""
"","","","call-function","106","347177","0.0-106.0","gzw0vx7n","","","","","","","",""
"2591.969999999972","{""judgement"":0}","[0]","survey-likert","107","349770","0.0-107.0","gzw0vx7n","","","","","","","","0"
"1179.8899999999558","{""confidence"":1}","[0]","survey-likert","108","350951","0.0-108.0","gzw0vx7n","","","","","","","",""
"","","","call-function","109","350952","0.0-109.0","gzw0vx7n","","","","","","","",""
"null","","","html-keyboard-response","110","352456","0.0-110.0","gzw0vx7n","","<span style=""color:Black; font-size:50px;"">Agent A","null","","","","",""
"null","","","video-keyboard-response","111","355533","0.0-111.0","gzw0vx7n","","","null","","Agent A","scrambled","STIM_SET_2/713381.bmp_pp82_L2_V1.0_scrambled_freeview_isoTrue.mp4",""
"null","","","html-keyboard-response","112","357038","0.0-112.0","gzw0vx7n","","<span style=""color:Black; font-size:50px;"">Agent B","null","","","","",""
"null","","","video-keyboard-response","113","360121","0.0-113.0","gzw0vx7n","","","null","","Agent B","veridical","STIM_SET_2/713381.bmp_pp82_L2_V1.0_veridical_freeview_isoTrue.mp4",""
"","","","call-function","114","360122","0.0-114.0","gzw0vx7n","","","","","","","",""
"1614.655000000028","{""judgement"":0}","[0]","survey-likert","115","361738","0.0-115.0","gzw0vx7n","","","","","","","","1"
"1644.0800000000163","{""confidence"":1}","[0]","survey-likert","116","363384","0.0-116.0","gzw0vx7n","","","","","","","",""
"","","","call-function","117","363385","0.0-117.0","gzw0vx7n","","","","","","","",""
"null","","","html-keyboard-response","118","364889","0.0-118.0","gzw0vx7n","","<span style=""color:Black; font-size:50px;"">Agent A","null","","","","",""
"null","","","video-keyboard-response","119","367956","0.0-119.0","gzw0vx7n","","","null","","Agent A","scrambled","STIM_SET_2/1592047.bmp_pp51_L1_V1.0_scrambled_freeview_isoTrue.mp4",""
"null","","","html-keyboard-response","120","369458","0.0-120.0","gzw0vx7n","","<span style=""color:Black; font-size:50px;"">Agent B","null","","","","",""
"null","","","video-keyboard-response","121","372528","0.0-121.0","gzw0vx7n","","","null","","Agent B","veridical","STIM_SET_2/1592047.bmp_pp51_L1_V1.0_veridical_freeview_isoTrue.mp4",""
"","","","call-function","122","372529","0.0-122.0","gzw0vx7n","","","","","","","",""
"3864.5050000000047","{""judgement"":1}","[0]","survey-likert","123","376394","0.0-123.0","gzw0vx7n","","","","","","","","1"
"1290.070000000007","{""confidence"":1}","[0]","survey-likert","124","377686","0.0-124.0","gzw0vx7n","","","","","","","",""
"","","","call-function","125","377686","0.0-125.0","gzw0vx7n","","","","","","","",""
"null","","","html-keyboard-response","126","379190","0.0-126.0","gzw0vx7n","","<span style=""color:Black; font-size:50px;"">Agent A","null","","","","",""
"null","","","video-keyboard-response","127","382257","0.0-127.0","gzw0vx7n","","","null","","Agent A","scrambled","STIM_SET_2/713829.bmp_pp60_L3_V1.0_scrambled_freeview_isoTrue.mp4",""
"null","","","html-keyboard-response","128","383759","0.0-128.0","gzw0vx7n","","<span style=""color:Black; font-size:50px;"">Agent B","null","","","","",""
"null","","","video-keyboard-response","129","386826","0.0-129.0","gzw0vx7n","","","null","","Agent B","veridical","STIM_SET_2/713829.bmp_pp60_L3_V1.0_veridical_freeview_isoTrue.mp4",""
"","","","call-function","130","386827","0.0-130.0","gzw0vx7n","","","","","","","",""
"2832.9599999999627","{""judgement"":1}","[0]","survey-likert","131","389660","0.0-131.0","gzw0vx7n","","","","","","","","1"
"1765.3549999999814","{""confidence"":1}","[0]","survey-likert","132","391427","0.0-132.0","gzw0vx7n","","","","","","","",""
"","","","call-function","133","391428","0.0-133.0","gzw0vx7n","","","","","","","",""
"null","","","html-keyboard-response","134","392930","0.0-134.0","gzw0vx7n","","<span style=""color:Black; font-size:50px;"">Agent A","null","","","","",""
"null","","","video-keyboard-response","135","396026","0.0-135.0","gzw0vx7n","","","null","","Agent A","veridical","STIM_SET_2/498258.bmp_pp51_L1_V1.0_veridical_freeview_isoTrue.mp4",""
"null","","","html-keyboard-response","136","397529","0.0-136.0","gzw0vx7n","","<span style=""color:Black; font-size:50px;"">Agent B","null","","","","",""
"null","","","video-keyboard-response","137","400625","0.0-137.0","gzw0vx7n","","","null","","Agent B","scrambled","STIM_SET_2/498258.bmp_pp51_L1_V1.0_scrambled_freeview_isoTrue.mp4",""
"","","","call-function","138","400625","0.0-138.0","gzw0vx7n","","","","","","","",""
"1647.1350000000093","{""judgement"":0}","[0]","survey-likert","139","402273","0.0-139.0","gzw0vx7n","","","","","","","","0"
"6291.684999999998","{""confidence"":1}","[0]","survey-likert","140","408566","0.0-140.0","gzw0vx7n","","","","","","","",""
"","","","call-function","141","408566","0.0-141.0","gzw0vx7n","","","","","","","",""
"null","","","html-keyboard-response","142","410070","0.0-142.0","gzw0vx7n","","<span style=""color:Black; font-size:50px;"">Agent A","null","","","","",""
"null","","","video-keyboard-response","143","413167","0.0-143.0","gzw0vx7n","","","null","","Agent A","scrambled","STIM_SET_2/1592921.bmp_pp69_L3_V1.0_scrambled_freeview_isoTrue.mp4",""
"null","","","html-keyboard-response","144","414672","0.0-144.0","gzw0vx7n","","<span style=""color:Black; font-size:50px;"">Agent B","null","","","","",""
"null","","","video-keyboard-response","145","417771","0.0-145.0","gzw0vx7n","","","null","","Agent B","veridical","STIM_SET_2/1592921.bmp_pp69_L3_V1.0_veridical_freeview_isoTrue.mp4",""
"","","","call-function","146","417771","0.0-146.0","gzw0vx7n","","","","","","","",""
"2716.0100000000093","{""judgement"":1}","[0]","survey-likert","147","420488","0.0-147.0","gzw0vx7n","","","","","","","","1"
"1316.6500000000233","{""confidence"":1}","[0]","survey-likert","148","421806","0.0-148.0","gzw0vx7n","","","","","","","",""
"","","","call-function","149","421806","0.0-149.0","gzw0vx7n","","","","","","","",""
"null","","","html-keyboard-response","150","423312","0.0-150.0","gzw0vx7n","","<span style=""color:Black; font-size:50px;"">Agent A","null","","","","",""
"null","","","video-keyboard-response","151","426413","0.0-151.0","gzw0vx7n","","","null","","Agent A","scrambled","STIM_SET_2/713633.bmp_pp58_L1_V1.0_scrambled_freeview_isoTrue.mp4",""
"null","","","html-keyboard-response","152","427917","0.0-152.0","gzw0vx7n","","<span style=""color:Black; font-size:50px;"">Agent B","null","","","","",""
"null","","","video-keyboard-response","153","431019","0.0-153.0","gzw0vx7n","","","null","","Agent B","veridical","STIM_SET_2/713633.bmp_pp58_L1_V1.0_veridical_freeview_isoTrue.mp4",""
"","","","call-function","154","431020","0.0-154.0","gzw0vx7n","","","","","","","",""
"1751.2000000000116","{""judgement"":1}","[0]","survey-likert","155","432772","0.0-155.0","gzw0vx7n","","","","","","","","1"
"1266.975000000035","{""confidence"":1}","[0]","survey-likert","156","434040","0.0-156.0","gzw0vx7n","","","","","","","",""
"","","","call-function","157","434041","0.0-157.0","gzw0vx7n","","","","","","","",""
"null","","","html-keyboard-response","158","435543","0.0-158.0","gzw0vx7n","","<span style=""color:Black; font-size:50px;"">Agent A","null","","","","",""
"null","","","video-keyboard-response","159","438611","0.0-159.0","gzw0vx7n","","","null","","Agent A","scrambled","STIM_SET_2/1159392.bmp_pp96_L2_V1.0_scrambled_freeview_isoTrue.mp4",""
"null","","","html-keyboard-response","160","440118","0.0-160.0","gzw0vx7n","","<span style=""color:Black; font-size:50px;"">Agent B","null","","","","",""
"null","","","video-keyboard-response","161","443186","0.0-161.0","gzw0vx7n","","","null","","Agent B","veridical","STIM_SET_2/1159392.bmp_pp96_L2_V1.0_veridical_freeview_isoTrue.mp4",""
"","","","call-function","162","443186","0.0-162.0","gzw0vx7n","","","","","","","",""
"6675.010000000009","{""judgement"":1}","[0]","survey-likert","163","449862","0.0-163.0","gzw0vx7n","","","","","","","","1"
"2008.945000000007","{""confidence"":0}","[0]","survey-likert","164","451872","0.0-164.0","gzw0vx7n","","","","","","","",""
"","","","call-function","165","451873","0.0-165.0","gzw0vx7n","","","","","","","",""
"null","","","html-keyboard-response","166","453375","0.0-166.0","gzw0vx7n","","<span style=""color:Black; font-size:50px;"">Agent A","null","","","","",""
"null","","","video-keyboard-response","167","456456","0.0-167.0","gzw0vx7n","","","null","","Agent A","scrambled","STIM_SET_2/1159874.bmp_pp96_L2_V1.0_scrambled_freeview_isoTrue.mp4",""
"null","","","html-keyboard-response","168","457963","0.0-168.0","gzw0vx7n","","<span style=""color:Black; font-size:50px;"">Agent B","null","","","","",""
"null","","","video-keyboard-response","169","461044","0.0-169.0","gzw0vx7n","","","null","","Agent B","veridical","STIM_SET_2/1159874.bmp_pp96_L2_V1.0_veridical_freeview_isoTrue.mp4",""
"","","","call-function","170","461045","0.0-170.0","gzw0vx7n","","","","","","","",""
"1729.3199999999488","{""judgement"":1}","[0]","survey-likert","171","462775","0.0-171.0","gzw0vx7n","","","","","","","","1"
"1113.865000000049","{""confidence"":1}","[0]","survey-likert","172","463891","0.0-172.0","gzw0vx7n","","","","","","","",""
"3773.859999999986","","","instructions","173","467665","0.0-173.0","gzw0vx7n","[{""page_index"":0,""viewing_time"":1733.7000000000116},{""page_index"":1,""viewing_time"":1018.8649999999907},{""page_index"":2,""viewing_time"":1021.0949999999721}]","","","","","","",""
"2613.585000000021","","","instructions","174","470279","0.0-174.0","gzw0vx7n","[{""page_index"":0,""viewing_time"":805.2550000000047},{""page_index"":1,""viewing_time"":1153.3649999999907},{""page_index"":2,""viewing_time"":654.7550000000047}]","","","","","","",""
"","","","call-function","175","470281","0.0-175.0","gzw0vx7n","","","","","","","",""
"null","","","html-keyboard-response","176","471783","0.0-176.0","gzw0vx7n","","<span style=""color:Black; font-size:50px;"">Agent A","null","","","","",""
"null","","","video-keyboard-response","177","474851","0.0-177.0","gzw0vx7n","","","null","","Agent A","veridical","STIM_SET_2/713689.bmp_pp153_L3_V1.0_veridical_freeview_isoTrue.mp4",""
"null","","","html-keyboard-response","178","476354","0.0-178.0","gzw0vx7n","","<span style=""color:Black; font-size:50px;"">Agent B","null","","","","",""
"null","","","video-keyboard-response","179","479423","0.0-179.0","gzw0vx7n","","","null","","Agent B","scrambled","STIM_SET_2/713689.bmp_pp153_L3_V1.0_scrambled_freeview_isoTrue.mp4",""
"","","","call-function","180","479424","0.0-180.0","gzw0vx7n","","","","","","","",""
"1569.734999999986","{""judgement"":0}","[0]","survey-likert","181","480995","0.0-181.0","gzw0vx7n","","","","","","","","0"
"1330.9749999999767","{""confidence"":1}","[0]","survey-likert","182","482327","0.0-182.0","gzw0vx7n","","","","","","","",""
"","","","call-function","183","482328","0.0-183.0","gzw0vx7n","","","","","","","",""
"null","","","html-keyboard-response","184","483830","0.0-184.0","gzw0vx7n","","<span style=""color:Black; font-size:50px;"">Agent A","null","","","","",""
"null","","","video-keyboard-response","185","486898","0.0-185.0","gzw0vx7n","","","null","","Agent A","scrambled","STIM_SET_2/1592567.bmp_pp70_L2_V1.0_scrambled_freeview_isoTrue.mp4",""
"null","","","html-keyboard-response","186","488405","0.0-186.0","gzw0vx7n","","<span style=""color:Black; font-size:50px;"">Agent B","null","","","","",""
"null","","","video-keyboard-response","187","491472","0.0-187.0","gzw0vx7n","","","null","","Agent B","veridical","STIM_SET_2/1592567.bmp_pp70_L2_V1.0_veridical_freeview_isoTrue.mp4",""
"","","","call-function","188","491472","0.0-188.0","gzw0vx7n","","","","","","","",""
"6787.229999999981","{""judgement"":0}","[0]","survey-likert","189","498260","0.0-189.0","gzw0vx7n","","","","","","","","1"
"2298.4049999999697","{""confidence"":0}","[0]","survey-likert","190","500560","0.0-190.0","gzw0vx7n","","","","","","","",""
"","","","call-function","191","500561","0.0-191.0","gzw0vx7n","","","","","","","",""
"null","","","html-keyboard-response","192","502065","0.0-192.0","gzw0vx7n","","<span style=""color:Black; font-size:50px;"">Agent A","null","","","","",""
"null","","","video-keyboard-response","193","505130","0.0-193.0","gzw0vx7n","","","null","","Agent A","scrambled","STIM_SET_2/1159860.bmp_pp152_L2_V1.0_scrambled_freeview_isoTrue.mp4",""
"null","","","html-keyboard-response","194","506633","0.0-194.0","gzw0vx7n","","<span style=""color:Black; font-size:50px;"">Agent B","null","","","","",""
"null","","","video-keyboard-response","195","509690","0.0-195.0","gzw0vx7n","","","null","","Agent B","veridical","STIM_SET_2/1159860.bmp_pp152_L2_V1.0_veridical_freeview_isoTrue.mp4",""
"","","","call-function","196","509690","0.0-196.0","gzw0vx7n","","","","","","","",""
"1771.5350000000326","{""judgement"":1}","[0]","survey-likert","197","511463","0.0-197.0","gzw0vx7n","","","","","","","","1"
"1136.149999999965","{""confidence"":1}","[0]","survey-likert","198","512601","0.0-198.0","gzw0vx7n","","","","","","","",""
"","","","call-function","199","512601","0.0-199.0","gzw0vx7n","","","","","","","",""
"null","","","html-keyboard-response","200","514103","0.0-200.0","gzw0vx7n","","<span style=""color:Black; font-size:50px;"">Agent A","null","","","","",""
"null","","","video-keyboard-response","201","517206","0.0-201.0","gzw0vx7n","","","null","","Agent A","scrambled","STIM_SET_2/713788.bmp_pp52_L1_V1.0_scrambled_freeview_isoTrue.mp4",""
"null","","","html-keyboard-response","202","518711","0.0-202.0","gzw0vx7n","","<span style=""color:Black; font-size:50px;"">Agent B","null","","","","",""
"null","","","video-keyboard-response","203","521813","0.0-203.0","gzw0vx7n","","","null","","Agent B","veridical","STIM_SET_2/713788.bmp_pp52_L1_V1.0_veridical_freeview_isoTrue.mp4",""
"","","","call-function","204","521814","0.0-204.0","gzw0vx7n","","","","","","","",""
"1593.789999999979","{""judgement"":1}","[0]","survey-likert","205","523409","0.0-205.0","gzw0vx7n","","","","","","","","1"
"1226.929999999993","{""confidence"":0}","[0]","survey-likert","206","524637","0.0-206.0","gzw0vx7n","","","","","","","",""
"","","","call-function","207","524637","0.0-207.0","gzw0vx7n","","","","","","","",""
"null","","","html-keyboard-response","208","526140","0.0-208.0","gzw0vx7n","","<span style=""color:Black; font-size:50px;"">Agent A","null","","","","",""
"null","","","video-keyboard-response","209","529242","0.0-209.0","gzw0vx7n","","","null","","Agent A","scrambled","STIM_SET_2/713858.bmp_pp57_L1_V1.0_scrambled_freeview_isoTrue.mp4",""
"null","","","html-keyboard-response","210","530745","0.0-210.0","gzw0vx7n","","<span style=""color:Black; font-size:50px;"">Agent B","null","","","","",""
"null","","","video-keyboard-response","211","533844","0.0-211.0","gzw0vx7n","","","null","","Agent B","veridical","STIM_SET_2/713858.bmp_pp57_L1_V1.0_veridical_freeview_isoTrue.mp4",""
"","","","call-function","212","533844","0.0-212.0","gzw0vx7n","","","","","","","",""
"2941.5899999999674","{""judgement"":1}","[0]","survey-likert","213","536786","0.0-213.0","gzw0vx7n","","","","","","","","1"
"1525.9250000000466","{""confidence"":1}","[0]","survey-likert","214","538314","0.0-214.0","gzw0vx7n","","","","","","","",""
"","","","call-function","215","538314","0.0-215.0","gzw0vx7n","","","","","","","",""
"null","","","html-keyboard-response","216","539816","0.0-216.0","gzw0vx7n","","<span style=""color:Black; font-size:50px;"">Agent A","null","","","","",""
"null","","","video-keyboard-response","217","542886","0.0-217.0","gzw0vx7n","","","null","","Agent A","veridical","STIM_SET_2/1160204.bmp_pp54_L2_V1.0_veridical_freeview_isoTrue.mp4",""
"null","","","html-keyboard-response","218","544388","0.0-218.0","gzw0vx7n","","<span style=""color:Black; font-size:50px;"">Agent B","null","","","","",""
"null","","","video-keyboard-response","219","547459","0.0-219.0","gzw0vx7n","","","null","","Agent B","scrambled","STIM_SET_2/1160204.bmp_pp54_L2_V1.0_scrambled_freeview_isoTrue.mp4",""
"","","","call-function","220","547460","0.0-220.0","gzw0vx7n","","","","","","","",""
"2458.304999999935","{""judgement"":0}","[0]","survey-likert","221","549919","0.0-221.0","gzw0vx7n","","","","","","","","0"
"1699.6599999999162","{""confidence"":0}","[0]","survey-likert","222","551620","0.0-222.0","gzw0vx7n","","","","","","","",""
"","","","call-function","223","551620","0.0-223.0","gzw0vx7n","","","","","","","",""
"null","","","html-keyboard-response","224","553123","0.0-224.0","gzw0vx7n","","<span style=""color:Black; font-size:50px;"">Agent A","null","","","","",""
"null","","","video-keyboard-response","225","556188","0.0-225.0","gzw0vx7n","","","null","","Agent A","scrambled","STIM_SET_2/1592951.bmp_pp80_L3_V1.0_scrambled_freeview_isoTrue.mp4",""
"null","","","html-keyboard-response","226","557691","0.0-226.0","gzw0vx7n","","<span style=""color:Black; font-size:50px;"">Agent B","null","","","","",""
"null","","","video-keyboard-response","227","560755","0.0-227.0","gzw0vx7n","","","null","","Agent B","veridical","STIM_SET_2/1592951.bmp_pp80_L3_V1.0_veridical_freeview_isoTrue.mp4",""
"","","","call-function","228","560756","0.0-228.0","gzw0vx7n","","","","","","","",""
"1371.4149999999208","{""judgement"":1}","[0]","survey-likert","229","562128","0.0-229.0","gzw0vx7n","","","","","","","","1"
"2145.9649999999674","{""confidence"":1}","[0]","survey-likert","230","564275","0.0-230.0","gzw0vx7n","","","","","","","",""
"","","","call-function","231","564276","0.0-231.0","gzw0vx7n","","","","","","","",""
"null","","","html-keyboard-response","232","565778","0.0-232.0","gzw0vx7n","","<span style=""color:Black; font-size:50px;"">Agent A","null","","","","",""
"null","","","video-keyboard-response","233","568869","0.0-233.0","gzw0vx7n","","","null","","Agent A","veridical","STIM_SET_2/286034.bmp_pp69_L3_V1.0_veridical_freeview_isoTrue.mp4",""
"null","","","html-keyboard-response","234","570375","0.0-234.0","gzw0vx7n","","<span style=""color:Black; font-size:50px;"">Agent B","null","","","","",""
"null","","","video-keyboard-response","235","573469","0.0-235.0","gzw0vx7n","","","null","","Agent B","scrambled","STIM_SET_2/286034.bmp_pp69_L3_V1.0_scrambled_freeview_isoTrue.mp4",""
"","","","call-function","236","573470","0.0-236.0","gzw0vx7n","","","","","","","",""
"1541.5700000000652","{""judgement"":0}","[0]","survey-likert","237","575013","0.0-237.0","gzw0vx7n","","","","","","","","0"
"1146.6950000000652","{""confidence"":1}","[0]","survey-likert","238","576161","0.0-238.0","gzw0vx7n","","","","","","","",""
"","","","call-function","239","576161","0.0-239.0","gzw0vx7n","","","","","","","",""
"null","","","html-keyboard-response","240","577666","0.0-240.0","gzw0vx7n","","<span style=""color:Black; font-size:50px;"">Agent A","null","","","","",""
"null","","","video-keyboard-response","241","580771","0.0-241.0","gzw0vx7n","","","null","","Agent A","scrambled","STIM_SET_2/1592747.bmp_pp53_L2_V1.0_scrambled_freeview_isoTrue.mp4",""
"null","","","html-keyboard-response","242","582278","0.0-242.0","gzw0vx7n","","<span style=""color:Black; font-size:50px;"">Agent B","null","","","","",""
"null","","","video-keyboard-response","243","585384","0.0-243.0","gzw0vx7n","","","null","","Agent B","veridical","STIM_SET_2/1592747.bmp_pp53_L2_V1.0_veridical_freeview_isoTrue.mp4",""
"","","","call-function","244","585385","0.0-244.0","gzw0vx7n","","","","","","","",""
"1446.295000000042","{""judgement"":1}","[0]","survey-likert","245","586833","0.0-245.0","gzw0vx7n","","","","","","","","1"
"1201.6849999999395","{""confidence"":1}","[0]","survey-likert","246","588037","0.0-246.0","gzw0vx7n","","","","","","","",""
"","","","call-function","247","588038","0.0-247.0","gzw0vx7n","","","","","","","",""
"null","","","html-keyboard-response","248","589541","0.0-248.0","gzw0vx7n","","<span style=""color:Black; font-size:50px;"">Agent A","null","","","","",""
"null","","","video-keyboard-response","249","592619","0.0-249.0","gzw0vx7n","","","null","","Agent A","scrambled","STIM_SET_2/1592568.bmp_pp71_L1_V1.0_scrambled_freeview_isoTrue.mp4",""
"null","","","html-keyboard-response","250","594124","0.0-250.0","gzw0vx7n","","<span style=""color:Black; font-size:50px;"">Agent B","null","","","","",""
"null","","","video-keyboard-response","251","597205","0.0-251.0","gzw0vx7n","","","null","","Agent B","veridical","STIM_SET_2/1592568.bmp_pp71_L1_V1.0_veridical_freeview_isoTrue.mp4",""
"","","","call-function","252","597205","0.0-252.0","gzw0vx7n","","","","","","","",""
"1246.795000000042","{""judgement"":1}","[0]","survey-likert","253","598453","0.0-253.0","gzw0vx7n","","","","","","","","1"
"1018.5649999999441","{""confidence"":1}","[0]","survey-likert","254","599473","0.0-254.0","gzw0vx7n","","","","","","","",""
"3379.6149999999907","","","instructions","255","602853","0.0-255.0","gzw0vx7n","[{""page_index"":0,""viewing_time"":1745.4949999999953},{""page_index"":1,""viewing_time"":943.9050000000279},{""page_index"":2,""viewing_time"":690.0649999999441}]","","","","","","",""
"2481.2850000000326","","","instructions","256","605335","0.0-256.0","gzw0vx7n","[{""page_index"":0,""viewing_time"":757.25},{""page_index"":1,""viewing_time"":1008.125},{""page_index"":2,""viewing_time"":715.8000000000466}]","","","","","","",""
"","","","call-function","257","605336","0.0-257.0","gzw0vx7n","","","","","","","",""
"null","","","html-keyboard-response","258","606839","0.0-258.0","gzw0vx7n","","<span style=""color:Black; font-size:50px;"">Agent A","null","","","","",""
"null","","","video-keyboard-response","259","609912","0.0-259.0","gzw0vx7n","","","null","","Agent A","scrambled","STIM_SET_2/1592298.bmp_pp56_L3_V1.0_scrambled_freeview_isoTrue.mp4",""
"null","","","html-keyboard-response","260","611415","0.0-260.0","gzw0vx7n","","<span style=""color:Black; font-size:50px;"">Agent B","null","","","","",""
"null","","","video-keyboard-response","261","614487","0.0-261.0","gzw0vx7n","","","null","","Agent B","veridical","STIM_SET_2/1592298.bmp_pp56_L3_V1.0_veridical_freeview_isoTrue.mp4",""
"","","","call-function","262","614488","0.0-262.0","gzw0vx7n","","","","","","","",""
"1796.3349999999627","{""judgement"":0}","[0]","survey-likert","263","616285","0.0-263.0","gzw0vx7n","","","","","","","","1"
"1258.5899999999674","{""confidence"":0}","[0]","survey-likert","264","617545","0.0-264.0","gzw0vx7n","","","","","","","",""
"","","","call-function","265","617546","0.0-265.0","gzw0vx7n","","","","","","","",""
"null","","","html-keyboard-response","266","619051","0.0-266.0","gzw0vx7n","","<span style=""color:Black; font-size:50px;"">Agent A","null","","","","",""
"null","","","video-keyboard-response","267","622156","0.0-267.0","gzw0vx7n","","","null","","Agent A","scrambled","STIM_SET_2/498261.bmp_pp84_L3_V1.0_scrambled_freeview_isoTrue.mp4",""
"null","","","html-keyboard-response","268","623659","0.0-268.0","gzw0vx7n","","<span style=""color:Black; font-size:50px;"">Agent B","null","","","","",""
"null","","","video-keyboard-response","269","626764","0.0-269.0","gzw0vx7n","","","null","","Agent B","veridical","STIM_SET_2/498261.bmp_pp84_L3_V1.0_veridical_freeview_isoTrue.mp4",""
"","","","call-function","270","626765","0.0-270.0","gzw0vx7n","","","","","","","",""
"3655.4949999999953","{""judgement"":1}","[0]","survey-likert","271","630421","0.0-271.0","gzw0vx7n","","","","","","","","1"
"2161.9850000001024","{""confidence"":0}","[0]","survey-likert","272","632585","0.0-272.0","gzw0vx7n","","","","","","","",""
"","","","call-function","273","632585","0.0-273.0","gzw0vx7n","","","","","","","",""
"null","","","html-keyboard-response","274","634090","0.0-274.0","gzw0vx7n","","<span style=""color:Black; font-size:50px;"">Agent A","null","","","","",""
"null","","","video-keyboard-response","275","637176","0.0-275.0","gzw0vx7n","","","null","","Agent A","scrambled","STIM_SET_2/285946.bmp_pp79_L2_V1.0_scrambled_freeview_isoTrue.mp4",""
"null","","","html-keyboard-response","276","638681","0.0-276.0","gzw0vx7n","","<span style=""color:Black; font-size:50px;"">Agent B","null","","","","",""
"null","","","video-keyboard-response","277","641770","0.0-277.0","gzw0vx7n","","","null","","Agent B","veridical","STIM_SET_2/285946.bmp_pp79_L2_V1.0_veridical_freeview_isoTrue.mp4",""
"","","","call-function","278","641770","0.0-278.0","gzw0vx7n","","","","","","","",""
"1129.015000000014","{""judgement"":0}","[0]","survey-likert","279","642900","0.0-279.0","gzw0vx7n","","","","","","","","1"
"1474.7899999999208","{""confidence"":1}","[0]","survey-likert","280","644376","0.0-280.0","gzw0vx7n","","","","","","","",""
"","","","call-function","281","644377","0.0-281.0","gzw0vx7n","","","","","","","",""
"null","","","html-keyboard-response","282","645878","0.0-282.0","gzw0vx7n","","<span style=""color:Black; font-size:50px;"">Agent A","null","","","","",""
"null","","","video-keyboard-response","283","648972","0.0-283.0","gzw0vx7n","","","null","","Agent A","veridical","STIM_SET_2/713652.bmp_pp89_L1_V1_veridical_freeview_isoTrue.mp4",""
"null","","","html-keyboard-response","284","650475","0.0-284.0","gzw0vx7n","","<span style=""color:Black; font-size:50px;"">Agent B","null","","","","",""
"null","","","video-keyboard-response","285","653568","0.0-285.0","gzw0vx7n","","","null","","Agent B","scrambled","STIM_SET_2/713652.bmp_pp89_L1_V1_scrambled_freeview_isoTrue.mp4",""
"","","","call-function","286","653569","0.0-286.0","gzw0vx7n","","","","","","","",""
"1599.6199999999953","{""judgement"":0}","[0]","survey-likert","287","655169","0.0-287.0","gzw0vx7n","","","","","","","","0"
"4360.29999999993","{""confidence"":1}","[0]","survey-likert","288","659531","0.0-288.0","gzw0vx7n","","","","","","","",""
"","","","call-function","289","659531","0.0-289.0","gzw0vx7n","","","","","","","",""
"null","","","html-keyboard-response","290","661033","0.0-290.0","gzw0vx7n","","<span style=""color:Black; font-size:50px;"">Agent A","null","","","","",""
"null","","","video-keyboard-response","291","664092","0.0-291.0","gzw0vx7n","","","null","","Agent A","veridical","STIM_SET_2/1159325.bmp_pp67_L2_V1.0_veridical_freeview_isoTrue.mp4",""
"null","","","html-keyboard-response","292","665598","0.0-292.0","gzw0vx7n","","<span style=""color:Black; font-size:50px;"">Agent B","null","","","","",""
"null","","","video-keyboard-response","293","668657","0.0-293.0","gzw0vx7n","","","null","","Agent B","scrambled","STIM_SET_2/1159325.bmp_pp67_L2_V1.0_scrambled_freeview_isoTrue.mp4",""
"","","","call-function","294","668657","0.0-294.0","gzw0vx7n","","","","","","","",""
"1278.1899999999441","{""judgement"":0}","[0]","survey-likert","295","669936","0.0-295.0","gzw0vx7n","","","","","","","","0"
"1767.734999999986","{""confidence"":1}","[0]","survey-likert","296","671705","0.0-296.0","gzw0vx7n","","","","","","","",""
"","","","call-function","297","671706","0.0-297.0","gzw0vx7n","","","","","","","",""
"null","","","html-keyboard-response","298","673209","0.0-298.0","gzw0vx7n","","<span style=""color:Black; font-size:50px;"">Agent A","null","","","","",""
"null","","","video-keyboard-response","299","676278","0.0-299.0","gzw0vx7n","","","null","","Agent A","veridical","STIM_SET_2/1591975.bmp_pp88_L2_V1.0_veridical_freeview_isoTrue.mp4",""
"null","","","html-keyboard-response","300","677781","0.0-300.0","gzw0vx7n","","<span style=""color:Black; font-size:50px;"">Agent B","null","","","","",""
"null","","","video-keyboard-response","301","680851","0.0-301.0","gzw0vx7n","","","null","","Agent B","scrambled","STIM_SET_2/1591975.bmp_pp88_L2_V1.0_scrambled_freeview_isoTrue.mp4",""
"","","","call-function","302","680852","0.0-302.0","gzw0vx7n","","","","","","","",""
"2043.7750000000233","{""judgement"":0}","[0]","survey-likert","303","682896","0.0-303.0","gzw0vx7n","","","","","","","","0"
"1702.234999999986","{""confidence"":1}","[0]","survey-likert","304","684600","0.0-304.0","gzw0vx7n","","","","","","","",""
"","","","call-function","305","684600","0.0-305.0","gzw0vx7n","","","","","","","",""
"null","","","html-keyboard-response","306","686105","0.0-306.0","gzw0vx7n","","<span style=""color:Black; font-size:50px;"">Agent A","null","","","","",""
"null","","","video-keyboard-response","307","689181","0.0-307.0","gzw0vx7n","","","null","","Agent A","scrambled","STIM_SET_2/498398.bmp_pp81_L1_V1.0_scrambled_freeview_isoTrue.mp4",""
"null","","","html-keyboard-response","308","690688","0.0-308.0","gzw0vx7n","","<span style=""color:Black; font-size:50px;"">Agent B","null","","","","",""
"null","","","video-keyboard-response","309","693766","0.0-309.0","gzw0vx7n","","","null","","Agent B","veridical","STIM_SET_2/498398.bmp_pp81_L1_V1.0_veridical_freeview_isoTrue.mp4",""
"","","","call-function","310","693767","0.0-310.0","gzw0vx7n","","","","","","","",""
"1857.625","{""judgement"":0}","[0]","survey-likert","311","695625","0.0-311.0","gzw0vx7n","","","","","","","","1"
"1217.9250000000466","{""confidence"":1}","[0]","survey-likert","312","696844","0.0-312.0","gzw0vx7n","","","","","","","",""
"","","","call-function","313","696845","0.0-313.0","gzw0vx7n","","","","","","","",""
"null","","","html-keyboard-response","314","698348","0.0-314.0","gzw0vx7n","","<span style=""color:Black; font-size:50px;"">Agent A","null","","","","",""
"null","","","video-keyboard-response","315","701451","0.0-315.0","gzw0vx7n","","","null","","Agent A","veridical","STIM_SET_2/1160247.bmp_pp54_L2_V1.0_veridical_freeview_isoTrue.mp4",""
"null","","","html-keyboard-response","316","702958","0.0-316.0","gzw0vx7n","","<span style=""color:Black; font-size:50px;"">Agent B","null","","","","",""
"null","","","video-keyboard-response","317","706060","0.0-317.0","gzw0vx7n","","","null","","Agent B","scrambled","STIM_SET_2/1160247.bmp_pp54_L2_V1.0_scrambled_freeview_isoTrue.mp4",""
"","","","call-function","318","706061","0.0-318.0","gzw0vx7n","","","","","","","",""
"1421.1899999999441","{""judgement"":0}","[0]","survey-likert","319","707483","0.0-319.0","gzw0vx7n","","","","","","","","0"
"1190.579999999958","{""confidence"":2}","[0]","survey-likert","320","708676","0.0-320.0","gzw0vx7n","","","","","","","",""
"","","","call-function","321","708677","0.0-321.0","gzw0vx7n","","","","","","","",""
"null","","","html-keyboard-response","322","710179","0.0-322.0","gzw0vx7n","","<span style=""color:Black; font-size:50px;"">Agent A","null","","","","",""
"null","","","video-keyboard-response","323","713250","0.0-323.0","gzw0vx7n","","","null","","Agent A","veridical","STIM_SET_2/1160189.bmp_pp64_L1_V1.0_veridical_freeview_isoTrue.mp4",""
"null","","","html-keyboard-response","324","714756","0.0-324.0","gzw0vx7n","","<span style=""color:Black; font-size:50px;"">Agent B","null","","","","",""
"null","","","video-keyboard-response","325","717828","0.0-325.0","gzw0vx7n","","","null","","Agent B","scrambled","STIM_SET_2/1160189.bmp_pp64_L1_V1.0_scrambled_freeview_isoTrue.mp4",""
"","","","call-function","326","717828","0.0-326.0","gzw0vx7n","","","","","","","",""
"1686.6650000000373","{""judgement"":0}","[0]","survey-likert","327","719516","0.0-327.0","gzw0vx7n","","","","","","","","0"
"1248.3099999999395","{""confidence"":1}","[0]","survey-likert","328","720766","0.0-328.0","gzw0vx7n","","","","","","","",""
"","","","call-function","329","720767","0.0-329.0","gzw0vx7n","","","","","","","",""
"null","","","html-keyboard-response","330","722270","0.0-330.0","gzw0vx7n","","<span style=""color:Black; font-size:50px;"">Agent A","null","","","","",""
"null","","","video-keyboard-response","331","725341","0.0-331.0","gzw0vx7n","","","null","","Agent A","scrambled","STIM_SET_2/498326.bmp_pp57_L1_V1.0_scrambled_freeview_isoTrue.mp4",""
"null","","","html-keyboard-response","332","726842","0.0-332.0","gzw0vx7n","","<span style=""color:Black; font-size:50px;"">Agent B","null","","","","",""
"null","","","video-keyboard-response","333","729914","0.0-333.0","gzw0vx7n","","","null","","Agent B","veridical","STIM_SET_2/498326.bmp_pp57_L1_V1.0_veridical_freeview_isoTrue.mp4",""
"","","","call-function","334","729915","0.0-334.0","gzw0vx7n","","","","","","","",""
"5982.170000000042","{""judgement"":0}","[0]","survey-likert","335","735898","0.0-335.0","gzw0vx7n","","","","","","","","1"
"1754.594999999972","{""confidence"":0}","[0]","survey-likert","336","737653","0.0-336.0","gzw0vx7n","","","","","","","",""
"10004.734999999986","","","instructions","337","747659","0.0-337.0","gzw0vx7n","[{""page_index"":0,""viewing_time"":8483.714999999967},{""page_index"":1,""viewing_time"":908.9299999999348},{""page_index"":2,""viewing_time"":611.9350000000559}]","","","","","","",""
"2759.6049999999814","","","instructions","338","750419","0.0-338.0","gzw0vx7n","[{""page_index"":0,""viewing_time"":665.3649999999907},{""page_index"":1,""viewing_time"":1462.9599999999627},{""page_index"":2,""viewing_time"":631.0650000000605}]","","","","","","",""
"","","","call-function","339","750419","0.0-339.0","gzw0vx7n","","","","","","","",""
"null","","","html-keyboard-response","340","751921","0.0-340.0","gzw0vx7n","","<span style=""color:Black; font-size:50px;"">Agent A","null","","","","",""
"null","","","video-keyboard-response","341","755025","0.0-341.0","gzw0vx7n","","","null","","Agent A","veridical","STIM_SET_2/1592350.bmp_pp55_L3_V1.0_veridical_freeview_isoTrue.mp4",""
"null","","","html-keyboard-response","342","756528","0.0-342.0","gzw0vx7n","","<span style=""color:Black; font-size:50px;"">Agent B","null","","","","",""
"null","","","video-keyboard-response","343","759629","0.0-343.0","gzw0vx7n","","","null","","Agent B","scrambled","STIM_SET_2/1592350.bmp_pp55_L3_V1.0_scrambled_freeview_isoTrue.mp4",""
"","","","call-function","344","759630","0.0-344.0","gzw0vx7n","","","","","","","",""
"2376.9100000000326","{""judgement"":0}","[0]","survey-likert","345","762007","0.0-345.0","gzw0vx7n","","","","","","","","0"
"1410.8049999999348","{""confidence"":1}","[0]","survey-likert","346","763419","0.0-346.0","gzw0vx7n","","","","","","","",""
"","","","call-function","347","763420","0.0-347.0","gzw0vx7n","","","","","","","",""
"null","","","html-keyboard-response","348","764925","0.0-348.0","gzw0vx7n","","<span style=""color:Black; font-size:50px;"">Agent A","null","","","","",""
"null","","","video-keyboard-response","349","768018","0.0-349.0","gzw0vx7n","","","null","","Agent A","veridical","STIM_SET_2/285684.bmp_pp80_L3_V1.0_veridical_freeview_isoTrue.mp4",""
"null","","","html-keyboard-response","350","769521","0.0-350.0","gzw0vx7n","","<span style=""color:Black; font-size:50px;"">Agent B","null","","","","",""
"null","","","video-keyboard-response","351","772613","0.0-351.0","gzw0vx7n","","","null","","Agent B","scrambled","STIM_SET_2/285684.bmp_pp80_L3_V1.0_scrambled_freeview_isoTrue.mp4",""
"","","","call-function","352","772613","0.0-352.0","gzw0vx7n","","","","","","","",""
"1620.625","{""judgement"":0}","[0]","survey-likert","353","774235","0.0-353.0","gzw0vx7n","","","","","","","","0"
"1012.9150000000373","{""confidence"":1}","[0]","survey-likert","354","775249","0.0-354.0","gzw0vx7n","","","","","","","",""
"","","","call-function","355","775249","0.0-355.0","gzw0vx7n","","","","","","","",""
"null","","","html-keyboard-response","356","776751","0.0-356.0","gzw0vx7n","","<span style=""color:Black; font-size:50px;"">Agent A","null","","","","",""
"null","","","video-keyboard-response","357","779812","0.0-357.0","gzw0vx7n","","","null","","Agent A","scrambled","STIM_SET_2/285715.bmp_pp67_L2_V1.0_scrambled_freeview_isoTrue.mp4",""
"null","","","html-keyboard-response","358","781315","0.0-358.0","gzw0vx7n","","<span style=""color:Black; font-size:50px;"">Agent B","null","","","","",""
"null","","","video-keyboard-response","359","784379","0.0-359.0","gzw0vx7n","","","null","","Agent B","veridical","STIM_SET_2/285715.bmp_pp67_L2_V1.0_veridical_freeview_isoTrue.mp4",""
"","","","call-function","360","784380","0.0-360.0","gzw0vx7n","","","","","","","",""
"3053.094999999972","{""judgement"":0}","[0]","survey-likert","361","787434","0.0-361.0","gzw0vx7n","","","","","","","","1"
"1648.9000000000233","{""confidence"":0}","[0]","survey-likert","362","789084","0.0-362.0","gzw0vx7n","","","","","","","",""
"","","","call-function","363","789084","0.0-363.0","gzw0vx7n","","","","","","","",""
"null","","","html-keyboard-response","364","790586","0.0-364.0","gzw0vx7n","","<span style=""color:Black; font-size:50px;"">Agent A","null","","","","",""
"null","","","video-keyboard-response","365","793657","0.0-365.0","gzw0vx7n","","","null","","Agent A","scrambled","STIM_SET_2/1592201.bmp_pp97_L3_V1.0_scrambled_freeview_isoTrue.mp4",""
"null","","","html-keyboard-response","366","795161","0.0-366.0","gzw0vx7n","","<span style=""color:Black; font-size:50px;"">Agent B","null","","","","",""
"null","","","video-keyboard-response","367","798232","0.0-367.0","gzw0vx7n","","","null","","Agent B","veridical","STIM_SET_2/1592201.bmp_pp97_L3_V1.0_veridical_freeview_isoTrue.mp4",""
"","","","call-function","368","798233","0.0-368.0","gzw0vx7n","","","","","","","",""
"1128.7100000000792","{""judgement"":1}","[0]","survey-likert","369","799362","0.0-369.0","gzw0vx7n","","","","","","","","1"
"1039.875","{""confidence"":1}","[0]","survey-likert","370","800403","0.0-370.0","gzw0vx7n","","","","","","","",""
"","","","call-function","371","800404","0.0-371.0","gzw0vx7n","","","","","","","",""
"null","","","html-keyboard-response","372","801905","0.0-372.0","gzw0vx7n","","<span style=""color:Black; font-size:50px;"">Agent A","null","","","","",""
"null","","","video-keyboard-response","373","805010","0.0-373.0","gzw0vx7n","","","null","","Agent A","scrambled","STIM_SET_2/107909.bmp_pp95_L2_V1.0_scrambled_freeview_isoTrue.mp4",""
"null","","","html-keyboard-response","374","806512","0.0-374.0","gzw0vx7n","","<span style=""color:Black; font-size:50px;"">Agent B","null","","","","",""
"null","","","video-keyboard-response","375","809615","0.0-375.0","gzw0vx7n","","","null","","Agent B","veridical","STIM_SET_2/107909.bmp_pp95_L2_V1.0_veridical_freeview_isoTrue.mp4",""
"","","","call-function","376","809617","0.0-376.0","gzw0vx7n","","","","","","","",""
"2684.5350000000326","{""judgement"":0}","[0]","survey-likert","377","812303","0.0-377.0","gzw0vx7n","","","","","","","","1"
"1402.2600000000093","{""confidence"":0}","[0]","survey-likert","378","813707","0.0-378.0","gzw0vx7n","","","","","","","",""
"","","","call-function","379","813708","0.0-379.0","gzw0vx7n","","","","","","","",""
"null","","","html-keyboard-response","380","815210","0.0-380.0","gzw0vx7n","","<span style=""color:Black; font-size:50px;"">Agent A","null","","","","",""
"null","","","video-keyboard-response","381","818276","0.0-381.0","gzw0vx7n","","","null","","Agent A","veridical","STIM_SET_2/1592314.bmp_pp100_L3_V1.0_veridical_freeview_isoTrue.mp4",""
"null","","","html-keyboard-response","382","819779","0.0-382.0","gzw0vx7n","","<span style=""color:Black; font-size:50px;"">Agent B","null","","","","",""
"null","","","video-keyboard-response","383","822848","0.0-383.0","gzw0vx7n","","","null","","Agent B","scrambled","STIM_SET_2/1592314.bmp_pp100_L3_V1.0_scrambled_freeview_isoTrue.mp4",""
"","","","call-function","384","822848","0.0-384.0","gzw0vx7n","","","","","","","",""
"4374.979999999981","{""judgement"":0}","[0]","survey-likert","385","827224","0.0-385.0","gzw0vx7n","","","","","","","","0"
"1437.079999999958","{""confidence"":0}","[0]","survey-likert","386","828663","0.0-386.0","gzw0vx7n","","","","","","","",""
"","","","call-function","387","828663","0.0-387.0","gzw0vx7n","","","","","","","",""
"null","","","html-keyboard-response","388","830168","0.0-388.0","gzw0vx7n","","<span style=""color:Black; font-size:50px;"">Agent A","null","","","","",""
"null","","","video-keyboard-response","389","833241","0.0-389.0","gzw0vx7n","","","null","","Agent A","veridical","STIM_SET_2/150463.bmp_pp55_L3_V1.0_veridical_freeview_isoTrue.mp4",""
"null","","","html-keyboard-response","390","834748","0.0-390.0","gzw0vx7n","","<span style=""color:Black; font-size:50px;"">Agent B","null","","","","",""
"null","","","video-keyboard-response","391","837824","0.0-391.0","gzw0vx7n","","","null","","Agent B","scrambled","STIM_SET_2/150463.bmp_pp55_L3_V1.0_scrambled_freeview_isoTrue.mp4",""
"","","","call-function","392","837825","0.0-392.0","gzw0vx7n","","","","","","","",""
"6826.289999999921","{""judgement"":1}","[0]","survey-likert","393","844652","0.0-393.0","gzw0vx7n","","","","","","","","0"
"1032.3649999999907","{""confidence"":1}","[0]","survey-likert","394","845686","0.0-394.0","gzw0vx7n","","","","","","","",""
"","","","call-function","395","845686","0.0-395.0","gzw0vx7n","","","","","","","",""
"null","","","html-keyboard-response","396","847193","0.0-396.0","gzw0vx7n","","<span style=""color:Black; font-size:50px;"">Agent A","null","","","","",""
"null","","","video-keyboard-response","397","850295","0.0-397.0","gzw0vx7n","","","null","","Agent A","scrambled","STIM_SET_2/1592530.bmp_pp75_L1_V1.0_scrambled_freeview_isoTrue.mp4",""
"null","","","html-keyboard-response","398","851799","0.0-398.0","gzw0vx7n","","<span style=""color:Black; font-size:50px;"">Agent B","null","","","","",""
"null","","","video-keyboard-response","399","854902","0.0-399.0","gzw0vx7n","","","null","","Agent B","veridical","STIM_SET_2/1592530.bmp_pp75_L1_V1.0_veridical_freeview_isoTrue.mp4",""
"","","","call-function","400","854903","0.0-400.0","gzw0vx7n","","","","","","","",""
"2120.545000000042","{""judgement"":1}","[0]","survey-likert","401","857024","0.0-401.0","gzw0vx7n","","","","","","","","1"
"996.6350000000093","{""confidence"":0}","[0]","survey-likert","402","858022","0.0-402.0","gzw0vx7n","","","","","","","",""
"","","","call-function","403","858022","0.0-403.0","gzw0vx7n","","","","","","","",""
"null","","","html-keyboard-response","404","859527","0.0-404.0","gzw0vx7n","","<span style=""color:Black; font-size:50px;"">Agent A","null","","","","",""
"null","","","video-keyboard-response","405","862632","0.0-405.0","gzw0vx7n","","","null","","Agent A","scrambled","STIM_SET_2/150277.bmp_pp65_L3_V1.0_scrambled_freeview_isoTrue.mp4",""
"null","","","html-keyboard-response","406","864138","0.0-406.0","gzw0vx7n","","<span style=""color:Black; font-size:50px;"">Agent B","null","","","","",""
"null","","","video-keyboard-response","407","867241","0.0-407.0","gzw0vx7n","","","null","","Agent B","veridical","STIM_SET_2/150277.bmp_pp65_L3_V1.0_veridical_freeview_isoTrue.mp4",""
"","","","call-function","408","867242","0.0-408.0","gzw0vx7n","","","","","","","",""
"1423","{""judgement"":1}","[0]","survey-likert","409","868666","0.0-409.0","gzw0vx7n","","","","","","","","1"
"3592.8249999999534","{""confidence"":2}","[0]","survey-likert","410","872260","0.0-410.0","gzw0vx7n","","","","","","","",""
"","","","call-function","411","872260","0.0-411.0","gzw0vx7n","","","","","","","",""
"null","","","html-keyboard-response","412","873763","0.0-412.0","gzw0vx7n","","<span style=""color:Black; font-size:50px;"">Agent A","null","","","","",""
"null","","","video-keyboard-response","413","876865","0.0-413.0","gzw0vx7n","","","null","","Agent A","veridical","STIM_SET_2/498372.bmp_pp95_L2_V1_veridical_freeview_isoTrue.mp4",""
"null","","","html-keyboard-response","414","878370","0.0-414.0","gzw0vx7n","","<span style=""color:Black; font-size:50px;"">Agent B","null","","","","",""
"null","","","video-keyboard-response","415","881448","0.0-415.0","gzw0vx7n","","","null","","Agent B","scrambled","STIM_SET_2/498372.bmp_pp95_L2_V1_scrambled_freeview_isoTrue.mp4",""
"","","","call-function","416","881449","0.0-416.0","gzw0vx7n","","","","","","","",""
"2225.6450000000186","{""judgement"":0}","[0]","survey-likert","417","883677","0.0-417.0","gzw0vx7n","","","","","","","","0"
"1110.25","{""confidence"":1}","[0]","survey-likert","418","884788","0.0-418.0","gzw0vx7n","","","","","","","",""
"2206.814999999944","","","instructions","419","886995","0.0-419.0","gzw0vx7n","[{""page_index"":0,""viewing_time"":912.9899999999907},{""page_index"":1,""viewing_time"":673.6300000000047},{""page_index"":2,""viewing_time"":619.9599999999627}]","","","","","","",""
"1940.3499999999767","","","instructions","420","888936","0.0-420.0","gzw0vx7n","[{""page_index"":0,""viewing_time"":454.55999999993946},{""page_index"":1,""viewing_time"":856.7950000000419},{""page_index"":2,""viewing_time"":628.8850000000093}]","","","","","","",""
"","","","call-function","421","888937","0.0-421.0","gzw0vx7n","","","","","","","",""
"null","","","html-keyboard-response","422","890444","0.0-422.0","gzw0vx7n","","<span style=""color:Black; font-size:50px;"">Agent A","null","","","","",""
"null","","","video-keyboard-response","423","893522","0.0-423.0","gzw0vx7n","","","null","","Agent A","scrambled","STIM_SET_2/285959.bmp_pp93_L1_V1.0_scrambled_freeview_isoTrue.mp4",""
"null","","","html-keyboard-response","424","895024","0.0-424.0","gzw0vx7n","","<span style=""color:Black; font-size:50px;"">Agent B","null","","","","",""
"null","","","video-keyboard-response","425","898101","0.0-425.0","gzw0vx7n","","","null","","Agent B","veridical","STIM_SET_2/285959.bmp_pp93_L1_V1.0_veridical_freeview_isoTrue.mp4",""
"","","","call-function","426","898102","0.0-426.0","gzw0vx7n","","","","","","","",""
"2445.1350000000093","{""judgement"":0}","[0]","survey-likert","427","900548","0.0-427.0","gzw0vx7n","","","","","","","","1"
"1099.8699999999953","{""confidence"":0}","[0]","survey-likert","428","901649","0.0-428.0","gzw0vx7n","","","","","","","",""
"","","","call-function","429","901650","0.0-429.0","gzw0vx7n","","","","","","","",""
"null","","","html-keyboard-response","430","903152","0.0-430.0","gzw0vx7n","","<span style=""color:Black; font-size:50px;"">Agent A","null","","","","",""
"null","","","video-keyboard-response","431","906221","0.0-431.0","gzw0vx7n","","","null","","Agent A","veridical","STIM_SET_2/1592129.bmp_pp153_L3_V1.0_veridical_freeview_isoTrue.mp4",""
"null","","","html-keyboard-response","432","907725","0.0-432.0","gzw0vx7n","","<span style=""color:Black; font-size:50px;"">Agent B","null","","","","",""
"null","","","video-keyboard-response","433","910783","0.0-433.0","gzw0vx7n","","","null","","Agent B","scrambled","STIM_SET_2/1592129.bmp_pp153_L3_V1.0_scrambled_freeview_isoTrue.mp4",""
"","","","call-function","434","910783","0.0-434.0","gzw0vx7n","","","","","","","",""
"1434.9799999999814","{""judgement"":0}","[0]","survey-likert","435","912219","0.0-435.0","gzw0vx7n","","","","","","","","0"
"1407.8850000000093","{""confidence"":1}","[0]","survey-likert","436","913628","0.0-436.0","gzw0vx7n","","","","","","","",""
"","","","call-function","437","913629","0.0-437.0","gzw0vx7n","","","","","","","",""
"null","","","html-keyboard-response","438","915133","0.0-438.0","gzw0vx7n","","<span style=""color:Black; font-size:50px;"">Agent A","null","","","","",""
"null","","","video-keyboard-response","439","918238","0.0-439.0","gzw0vx7n","","","null","","Agent A","veridical","STIM_SET_2/1592305.bmp_pp65_L3_V1.0_veridical_freeview_isoTrue.mp4",""
"null","","","html-keyboard-response","440","919740","0.0-440.0","gzw0vx7n","","<span style=""color:Black; font-size:50px;"">Agent B","null","","","","",""
"null","","","video-keyboard-response","441","922840","0.0-441.0","gzw0vx7n","","","null","","Agent B","scrambled","STIM_SET_2/1592305.bmp_pp65_L3_V1.0_scrambled_freeview_isoTrue.mp4",""
"","","","call-function","442","922841","0.0-442.0","gzw0vx7n","","","","","","","",""
"3425.189999999944","{""judgement"":0}","[0]","survey-likert","443","926268","0.0-443.0","gzw0vx7n","","","","","","","","0"
"1340.030000000028","{""confidence"":0}","[0]","survey-likert","444","927609","0.0-444.0","gzw0vx7n","","","","","","","",""
"","","","call-function","445","927610","0.0-445.0","gzw0vx7n","","","","","","","",""
"null","","","html-keyboard-response","446","929111","0.0-446.0","gzw0vx7n","","<span style=""color:Black; font-size:50px;"">Agent A","null","","","","",""
"null","","","video-keyboard-response","447","932188","0.0-447.0","gzw0vx7n","","","null","","Agent A","scrambled","STIM_SET_2/1159819.bmp_pp151_L1_V1.0_scrambled_freeview_isoTrue.mp4",""
"null","","","html-keyboard-response","448","933691","0.0-448.0","gzw0vx7n","","<span style=""color:Black; font-size:50px;"">Agent B","null","","","","",""
"null","","","video-keyboard-response","449","936764","0.0-449.0","gzw0vx7n","","","null","","Agent B","veridical","STIM_SET_2/1159819.bmp_pp151_L1_V1.0_veridical_freeview_isoTrue.mp4",""
"","","","call-function","450","936765","0.0-450.0","gzw0vx7n","","","","","","","",""
"1575.7399999999907","{""judgement"":1}","[0]","survey-likert","451","938341","0.0-451.0","gzw0vx7n","","","","","","","","1"
"1243.3499999999767","{""confidence"":1}","[0]","survey-likert","452","939586","0.0-452.0","gzw0vx7n","","","","","","","",""
"","","","call-function","453","939587","0.0-453.0","gzw0vx7n","","","","","","","",""
"null","","","html-keyboard-response","454","941093","0.0-454.0","gzw0vx7n","","<span style=""color:Black; font-size:50px;"">Agent A","null","","","","",""
"null","","","video-keyboard-response","455","944161","0.0-455.0","gzw0vx7n","","","null","","Agent A","scrambled","STIM_SET_2/1592017.bmp_pp154_L1_V1.0_scrambled_freeview_isoTrue.mp4",""
"null","","","html-keyboard-response","456","945668","0.0-456.0","gzw0vx7n","","<span style=""color:Black; font-size:50px;"">Agent B","null","","","","",""
"null","","","video-keyboard-response","457","948736","0.0-457.0","gzw0vx7n","","","null","","Agent B","veridical","STIM_SET_2/1592017.bmp_pp154_L1_V1.0_veridical_freeview_isoTrue.mp4",""
"","","","call-function","458","948736","0.0-458.0","gzw0vx7n","","","","","","","",""
"1879.045000000042","{""judgement"":1}","[0]","survey-likert","459","950616","0.0-459.0","gzw0vx7n","","","","","","","","1"
"1207.2250000000931","{""confidence"":1}","[0]","survey-likert","460","951825","0.0-460.0","gzw0vx7n","","","","","","","",""
"","","","call-function","461","951825","0.0-461.0","gzw0vx7n","","","","","","","",""
"null","","","html-keyboard-response","462","953328","0.0-462.0","gzw0vx7n","","<span style=""color:Black; font-size:50px;"">Agent A","null","","","","",""
"null","","","video-keyboard-response","463","956425","0.0-463.0","gzw0vx7n","","","null","","Agent A","scrambled","STIM_SET_2/1159956.bmp_pp59_L3_V1.0_scrambled_freeview_isoTrue.mp4",""
"null","","","html-keyboard-response","464","957927","0.0-464.0","gzw0vx7n","","<span style=""color:Black; font-size:50px;"">Agent B","null","","","","",""
"null","","","video-keyboard-response","465","961021","0.0-465.0","gzw0vx7n","","","null","","Agent B","veridical","STIM_SET_2/1159956.bmp_pp59_L3_V1.0_veridical_freeview_isoTrue.mp4",""
"","","","call-function","466","961022","0.0-466.0","gzw0vx7n","","","","","","","",""
"1374.0749999999534","{""judgement"":1}","[0]","survey-likert","467","962397","0.0-467.0","gzw0vx7n","","","","","","","","1"
"979.0699999999488","{""confidence"":1}","[0]","survey-likert","468","963377","0.0-468.0","gzw0vx7n","","","","","","","",""
"","","","call-function","469","963378","0.0-469.0","gzw0vx7n","","","","","","","",""
"null","","","html-keyboard-response","470","964883","0.0-470.0","gzw0vx7n","","<span style=""color:Black; font-size:50px;"">Agent A","null","","","","",""
"null","","","video-keyboard-response","471","967984","0.0-471.0","gzw0vx7n","","","null","","Agent A","veridical","STIM_SET_2/1159329.bmp_pp61_L2_V1.0_veridical_freeview_isoTrue.mp4",""
"null","","","html-keyboard-response","472","969486","0.0-472.0","gzw0vx7n","","<span style=""color:Black; font-size:50px;"">Agent B","null","","","","",""
"null","","","video-keyboard-response","473","972583","0.0-473.0","gzw0vx7n","","","null","","Agent B","scrambled","STIM_SET_2/1159329.bmp_pp61_L2_V1.0_scrambled_freeview_isoTrue.mp4",""
"","","","call-function","474","972584","0.0-474.0","gzw0vx7n","","","","","","","",""
"3156.819999999949","{""judgement"":1}","[0]","survey-likert","475","975742","0.0-475.0","gzw0vx7n","","","","","","","","0"
"1528.4799999999814","{""confidence"":0}","[0]","survey-likert","476","977271","0.0-476.0","gzw0vx7n","","","","","","","",""
"","","","call-function","477","977272","0.0-477.0","gzw0vx7n","","","","","","","",""
"null","","","html-keyboard-response","478","978775","0.0-478.0","gzw0vx7n","","<span style=""color:Black; font-size:50px;"">Agent A","null","","","","",""
"null","","","video-keyboard-response","479","981875","0.0-479.0","gzw0vx7n","","","null","","Agent A","veridical","STIM_SET_2/1592025.bmp_pp68_L1_V1.0_veridical_freeview_isoTrue.mp4",""
"null","","","html-keyboard-response","480","983379","0.0-480.0","gzw0vx7n","","<span style=""color:Black; font-size:50px;"">Agent B","null","","","","",""
"null","","","video-keyboard-response","481","986479","0.0-481.0","gzw0vx7n","","","null","","Agent B","scrambled","STIM_SET_2/1592025.bmp_pp68_L1_V1.0_scrambled_freeview_isoTrue.mp4",""
"","","","call-function","482","986479","0.0-482.0","gzw0vx7n","","","","","","","",""
"1060.0050000000047","{""judgement"":0}","[0]","survey-likert","483","987540","0.0-483.0","gzw0vx7n","","","","","","","","0"
"1161.579999999958","{""confidence"":1}","[0]","survey-likert","484","988703","0.0-484.0","gzw0vx7n","","","","","","","",""
"","","","call-function","485","988704","0.0-485.0","gzw0vx7n","","","","","","","",""
"null","","","html-keyboard-response","486","990207","0.0-486.0","gzw0vx7n","","<span style=""color:Black; font-size:50px;"">Agent A","null","","","","",""
"null","","","video-keyboard-response","487","993314","0.0-487.0","gzw0vx7n","","","null","","Agent A","scrambled","STIM_SET_2/713790.bmp_pp100_L3_V1_scrambled_freeview_isoTrue.mp4",""
"null","","","html-keyboard-response","488","994818","0.0-488.0","gzw0vx7n","","<span style=""color:Black; font-size:50px;"">Agent B","null","","","","",""
"null","","","video-keyboard-response","489","997895","0.0-489.0","gzw0vx7n","","","null","","Agent B","veridical","STIM_SET_2/713790.bmp_pp100_L3_V1_veridical_freeview_isoTrue.mp4",""
"","","","call-function","490","997895","0.0-490.0","gzw0vx7n","","","","","","","",""
"4681.140000000014","{""judgement"":0}","[0]","survey-likert","491","1002577","0.0-491.0","gzw0vx7n","","","","","","","","1"
"2649.0100000000093","{""confidence"":0}","[0]","survey-likert","492","1005228","0.0-492.0","gzw0vx7n","","","","","","","",""
"","","","call-function","493","1005228","0.0-493.0","gzw0vx7n","","","","","","","",""
"null","","","html-keyboard-response","494","1006734","0.0-494.0","gzw0vx7n","","<span style=""color:Black; font-size:50px;"">Agent A","null","","","","",""
"null","","","video-keyboard-response","495","1009801","0.0-495.0","gzw0vx7n","","","null","","Agent A","veridical","STIM_SET_2/1592044.bmp_pp94_L2_V1.0_veridical_freeview_isoTrue.mp4",""
"null","","","html-keyboard-response","496","1011307","0.0-496.0","gzw0vx7n","","<span style=""color:Black; font-size:50px;"">Agent B","null","","","","",""
"null","","","video-keyboard-response","497","1014373","0.0-497.0","gzw0vx7n","","","null","","Agent B","scrambled","STIM_SET_2/1592044.bmp_pp94_L2_V1.0_scrambled_freeview_isoTrue.mp4",""
"","","","call-function","498","1014374","0.0-498.0","gzw0vx7n","","","","","","","",""
"1267.3399999999674","{""judgement"":0}","[0]","survey-likert","499","1015642","0.0-499.0","gzw0vx7n","","","","","","","","0"
"1642.8800000000047","{""confidence"":1}","[0]","survey-likert","500","1017286","0.0-500.0","gzw0vx7n","","","","","","","",""
"2380.944999999949","","","instructions","501","1019668","0.0-501.0","gzw0vx7n","[{""page_index"":0,""viewing_time"":1162.9049999999115},{""page_index"":1,""viewing_time"":667.7100000000792},{""page_index"":2,""viewing_time"":550.1749999999302}]","","","","","","",""
"2050.579999999958","","","instructions","502","1021719","0.0-502.0","gzw0vx7n","[{""page_index"":0,""viewing_time"":501.3399999999674},{""page_index"":1,""viewing_time"":952.0550000000512},{""page_index"":2,""viewing_time"":597.0699999999488}]","","","","","","",""
"","","","call-function","503","1021719","0.0-503.0","gzw0vx7n","","","","","","","",""
"null","","","html-keyboard-response","504","1023222","0.0-504.0","gzw0vx7n","","<span style=""color:Black; font-size:50px;"">Agent A","null","","","","",""
"null","","","video-keyboard-response","505","1026289","0.0-505.0","gzw0vx7n","","","null","","Agent A","scrambled","STIM_SET_2/285932.bmp_pp64_L1_V1.0_scrambled_freeview_isoTrue.mp4",""
"null","","","html-keyboard-response","506","1027795","0.0-506.0","gzw0vx7n","","<span style=""color:Black; font-size:50px;"">Agent B","null","","","","",""
"null","","","video-keyboard-response","507","1030890","0.0-507.0","gzw0vx7n","","","null","","Agent B","veridical","STIM_SET_2/285932.bmp_pp64_L1_V1.0_veridical_freeview_isoTrue.mp4",""
"","","","call-function","508","1030890","0.0-508.0","gzw0vx7n","","","","","","","",""
"1562.4150000000373","{""judgement"":1}","[0]","survey-likert","509","1032454","0.0-509.0","gzw0vx7n","","","","","","","","1"
"1466.0100000000093","{""confidence"":0}","[0]","survey-likert","510","1033921","0.0-510.0","gzw0vx7n","","","","","","","",""
"","","","call-function","511","1033921","0.0-511.0","gzw0vx7n","","","","","","","",""
"null","","","html-keyboard-response","512","1035436","0.0-512.0","gzw0vx7n","","<span style=""color:Black; font-size:50px;"">Agent A","null","","","","",""
"null","","","video-keyboard-response","513","1038546","0.0-513.0","gzw0vx7n","","","null","","Agent A","veridical","STIM_SET_2/1592168.bmp_pp71_L1_V1.0_veridical_freeview_isoTrue.mp4",""
"null","","","html-keyboard-response","514","1040048","0.0-514.0","gzw0vx7n","","<span style=""color:Black; font-size:50px;"">Agent B","null","","","","",""
"null","","","video-keyboard-response","515","1043125","0.0-515.0","gzw0vx7n","","","null","","Agent B","scrambled","STIM_SET_2/1592168.bmp_pp71_L1_V1.0_scrambled_freeview_isoTrue.mp4",""
"","","","call-function","516","1043127","0.0-516.0","gzw0vx7n","","","","","","","",""
"1580.1600000000326","{""judgement"":0}","[0]","survey-likert","517","1044709","0.0-517.0","gzw0vx7n","","","","","","","","0"
"1269.640000000014","{""confidence"":1}","[0]","survey-likert","518","1045980","0.0-518.0","gzw0vx7n","","","","","","","",""
"","","","call-function","519","1045980","0.0-519.0","gzw0vx7n","","","","","","","",""
"null","","","html-keyboard-response","520","1047483","0.0-520.0","gzw0vx7n","","<span style=""color:Black; font-size:50px;"">Agent A","null","","","","",""
"null","","","video-keyboard-response","521","1050558","0.0-521.0","gzw0vx7n","","","null","","Agent A","veridical","STIM_SET_2/1159508.bmp_pp151_L1_V1.0_veridical_freeview_isoTrue.mp4",""
"null","","","html-keyboard-response","522","1052062","0.0-522.0","gzw0vx7n","","<span style=""color:Black; font-size:50px;"">Agent B","null","","","","",""
"null","","","video-keyboard-response","523","1055132","0.0-523.0","gzw0vx7n","","","null","","Agent B","scrambled","STIM_SET_2/1159508.bmp_pp151_L1_V1.0_scrambled_freeview_isoTrue.mp4",""
"","","","call-function","524","1055133","0.0-524.0","gzw0vx7n","","","","","","","",""
"1690.530000000028","{""judgement"":0}","[0]","survey-likert","525","1056825","0.0-525.0","gzw0vx7n","","","","","","","","0"
"1547.6200000001118","{""confidence"":1}","[0]","survey-likert","526","1058374","0.0-526.0","gzw0vx7n","","","","","","","",""
"","","","call-function","527","1058375","0.0-527.0","gzw0vx7n","","","","","","","",""
"null","","","html-keyboard-response","528","1059879","0.0-528.0","gzw0vx7n","","<span style=""color:Black; font-size:50px;"">Agent A","null","","","","",""
"null","","","video-keyboard-response","529","1062948","0.0-529.0","gzw0vx7n","","","null","","Agent A","scrambled","STIM_SET_2/107955.bmp_pp90_L2_V1.0_scrambled_freeview_isoTrue.mp4",""
"null","","","html-keyboard-response","530","1064449","0.0-530.0","gzw0vx7n","","<span style=""color:Black; font-size:50px;"">Agent B","null","","","","",""
"null","","","video-keyboard-response","531","1067548","0.0-531.0","gzw0vx7n","","","null","","Agent B","veridical","STIM_SET_2/107955.bmp_pp90_L2_V1.0_veridical_freeview_isoTrue.mp4",""
"","","","call-function","532","1067549","0.0-532.0","gzw0vx7n","","","","","","","",""
"1557.655000000028","{""judgement"":1}","[0]","survey-likert","533","1069107","0.0-533.0","gzw0vx7n","","","","","","","","1"
"1312.5800000000745","{""confidence"":1}","[0]","survey-likert","534","1070421","0.0-534.0","gzw0vx7n","","","","","","","",""
"","","","call-function","535","1070421","0.0-535.0","gzw0vx7n","","","","","","","",""
"null","","","html-keyboard-response","536","1071927","0.0-536.0","gzw0vx7n","","<span style=""color:Black; font-size:50px;"">Agent A","null","","","","",""
"null","","","video-keyboard-response","537","1074981","0.0-537.0","gzw0vx7n","","","null","","Agent A","veridical","STIM_SET_2/1592857.bmp_pp52_L1_V1_veridical_freeview_isoTrue.mp4",""
"null","","","html-keyboard-response","538","1076485","0.0-538.0","gzw0vx7n","","<span style=""color:Black; font-size:50px;"">Agent B","null","","","","",""
"null","","","video-keyboard-response","539","1079580","0.0-539.0","gzw0vx7n","","","null","","Agent B","scrambled","STIM_SET_2/1592857.bmp_pp52_L1_V1_scrambled_freeview_isoTrue.mp4",""
"","","","call-function","540","1079581","0.0-540.0","gzw0vx7n","","","","","","","",""
"1783.7399999999907","{""judgement"":0}","[0]","survey-likert","541","1081366","0.0-541.0","gzw0vx7n","","","","","","","","0"
"2343.9799999999814","{""confidence"":2}","[0]","survey-likert","542","1083711","0.0-542.0","gzw0vx7n","","","","","","","",""
"","","","call-function","543","1083711","0.0-543.0","gzw0vx7n","","","","","","","",""
"null","","","html-keyboard-response","544","1085216","0.0-544.0","gzw0vx7n","","<span style=""color:Black; font-size:50px;"">Agent A","null","","","","",""
"null","","","video-keyboard-response","545","1088303","0.0-545.0","gzw0vx7n","","","null","","Agent A","veridical","STIM_SET_2/498025.bmp_pp81_L1_V1.0_veridical_freeview_isoTrue.mp4",""
"null","","","html-keyboard-response","546","1089806","0.0-546.0","gzw0vx7n","","<span style=""color:Black; font-size:50px;"">Agent B","null","","","","",""
"null","","","video-keyboard-response","547","1092894","0.0-547.0","gzw0vx7n","","","null","","Agent B","scrambled","STIM_SET_2/498025.bmp_pp81_L1_V1.0_scrambled_freeview_isoTrue.mp4",""
"","","","call-function","548","1092895","0.0-548.0","gzw0vx7n","","","","","","","",""
"1374.3349999999627","{""judgement"":0}","[0]","survey-likert","549","1094270","0.0-549.0","gzw0vx7n","","","","","","","","0"
"1671.3649999999907","{""confidence"":2}","[0]","survey-likert","550","1095942","0.0-550.0","gzw0vx7n","","","","","","","",""
"","","","call-function","551","1095943","0.0-551.0","gzw0vx7n","","","","","","","",""
"null","","","html-keyboard-response","552","1097448","0.0-552.0","gzw0vx7n","","<span style=""color:Black; font-size:50px;"">Agent A","null","","","","",""
"null","","","video-keyboard-response","553","1100544","0.0-553.0","gzw0vx7n","","","null","","Agent A","scrambled","STIM_SET_2/1592150.bmp_pp77_L3_V1.0_scrambled_freeview_isoTrue.mp4",""
"null","","","html-keyboard-response","554","1102048","0.0-554.0","gzw0vx7n","","<span style=""color:Black; font-size:50px;"">Agent B","null","","","","",""
"null","","","video-keyboard-response","555","1105145","0.0-555.0","gzw0vx7n","","","null","","Agent B","veridical","STIM_SET_2/1592150.bmp_pp77_L3_V1.0_veridical_freeview_isoTrue.mp4",""
"","","","call-function","556","1105146","0.0-556.0","gzw0vx7n","","","","","","","",""
"3953.720000000205","{""judgement"":1}","[0]","survey-likert","557","1109101","0.0-557.0","gzw0vx7n","","","","","","","","1"
"1394.1599999999162","{""confidence"":0}","[0]","survey-likert","558","1110497","0.0-558.0","gzw0vx7n","","","","","","","",""
"","","","call-function","559","1110497","0.0-559.0","gzw0vx7n","","","","","","","",""
"null","","","html-keyboard-response","560","1112001","0.0-560.0","gzw0vx7n","","<span style=""color:Black; font-size:50px;"">Agent A","null","","","","",""
"null","","","video-keyboard-response","561","1115077","0.0-561.0","gzw0vx7n","","","null","","Agent A","scrambled","STIM_SET_2/713274.bmp_pp73_L3_V1.0_scrambled_freeview_isoTrue.mp4",""
"null","","","html-keyboard-response","562","1116581","0.0-562.0","gzw0vx7n","","<span style=""color:Black; font-size:50px;"">Agent B","null","","","","",""
"null","","","video-keyboard-response","563","1119654","0.0-563.0","gzw0vx7n","","","null","","Agent B","veridical","STIM_SET_2/713274.bmp_pp73_L3_V1.0_veridical_freeview_isoTrue.mp4",""
"","","","call-function","564","1119655","0.0-564.0","gzw0vx7n","","","","","","","",""
"1530.2350000001024","{""judgement"":1}","[0]","survey-likert","565","1121186","0.0-565.0","gzw0vx7n","","","","","","","","1"
"1361.7949999999255","{""confidence"":0}","[0]","survey-likert","566","1122549","0.0-566.0","gzw0vx7n","","","","","","","",""
"","","","call-function","567","1122549","0.0-567.0","gzw0vx7n","","","","","","","",""
"null","","","html-keyboard-response","568","1124050","0.0-568.0","gzw0vx7n","","<span style=""color:Black; font-size:50px;"">Agent A","null","","","","",""
"null","","","video-keyboard-response","569","1127125","0.0-569.0","gzw0vx7n","","","null","","Agent A","veridical","STIM_SET_2/1592289.bmp_pp92_L3_V1.0_veridical_freeview_isoTrue.mp4",""
"null","","","html-keyboard-response","570","1128630","0.0-570.0","gzw0vx7n","","<span style=""color:Black; font-size:50px;"">Agent B","null","","","","",""
"null","","","video-keyboard-response","571","1131703","0.0-571.0","gzw0vx7n","","","null","","Agent B","scrambled","STIM_SET_2/1592289.bmp_pp92_L3_V1.0_scrambled_freeview_isoTrue.mp4",""
"","","","call-function","572","1131704","0.0-572.0","gzw0vx7n","","","","","","","",""
"1114.0799999998417","{""judgement"":0}","[0]","survey-likert","573","1132819","0.0-573.0","gzw0vx7n","","","","","","","","0"
"1436.5","{""confidence"":0}","[0]","survey-likert","574","1134257","0.0-574.0","gzw0vx7n","","","","","","","",""
"","","","call-function","575","1134257","0.0-575.0","gzw0vx7n","","","","","","","",""
"null","","","html-keyboard-response","576","1135764","0.0-576.0","gzw0vx7n","","<span style=""color:Black; font-size:50px;"">Agent A","null","","","","",""
"null","","","video-keyboard-response","577","1138866","0.0-577.0","gzw0vx7n","","","null","","Agent A","scrambled","STIM_SET_2/713920.bmp_pp76_L1_V1.0_scrambled_freeview_isoTrue.mp4",""
"null","","","html-keyboard-response","578","1140371","0.0-578.0","gzw0vx7n","","<span style=""color:Black; font-size:50px;"">Agent B","null","","","","",""
"null","","","video-keyboard-response","579","1143471","0.0-579.0","gzw0vx7n","","","null","","Agent B","veridical","STIM_SET_2/713920.bmp_pp76_L1_V1.0_veridical_freeview_isoTrue.mp4",""
"","","","call-function","580","1143472","0.0-580.0","gzw0vx7n","","","","","","","",""
"1749.655000000028","{""judgement"":1}","[0]","survey-likert","581","1145223","0.0-581.0","gzw0vx7n","","","","","","","","1"
"2917.380000000121","{""confidence"":0}","[0]","survey-likert","582","1148142","0.0-582.0","gzw0vx7n","","","","","","","",""
"3226.564999999944","","","instructions","583","1151371","0.0-583.0","gzw0vx7n","[{""page_index"":0,""viewing_time"":3226.429999999935}]","","","","","","",""
"4715.579999999842","","","instructions","584","1156087","0.0-584.0","gzw0vx7n","[{""page_index"":0,""viewing_time"":4715.469999999972}]","","","","","","",""
"7241.889999999898","{""post-1"":1}","[0]","survey-likert","585","1163331","0.0-585.0","gzw0vx7n","","","","","","","",""
"8051.945000000065","{""post-1"":1}","[0]","survey-likert","586","1171384","0.0-586.0","gzw0vx7n","","","","","","","",""
"14252.310000000056","{""post-2"":2}","[0]","survey-likert","587","1185638","0.0-587.0","gzw0vx7n","","","","","","","",""
"6279.770000000019","{""post-2"":3}","[0]","survey-likert","588","1191919","0.0-588.0","gzw0vx7n","","","","","","","",""
"6867.970000000205","{""post-3"":2}","[0]","survey-likert","589","1198788","0.0-589.0","gzw0vx7n","","","","","","","",""
"8358.469999999972","{""post-3"":1}","[0]","survey-likert","590","1207148","0.0-590.0","gzw0vx7n","","","","","","","",""
"9993.520000000019","{""post-4"":1}","[0]","survey-likert","591","1217143","0.0-591.0","gzw0vx7n","","","","","","","",""
"2797.6399999998976","{""post-4"":0}","[0]","survey-likert","592","1219942","0.0-592.0","gzw0vx7n","","","","","","","",""
"7409.784999999916","{""post-5"":1}","[0]","survey-likert","593","1227354","0.0-593.0","gzw0vx7n","","","","","","","",""
"1865.2399999999907","{""post-5"":2}","[0]","survey-likert","594","1229221","0.0-594.0","gzw0vx7n","","","","","","","",""
"86132.02000000002","{""Q0"":""It might be helpful to include the option to rewatch the videos in case someone missed it or spaced out. I do understand that it makes the decision making part less automatic though. ""}","","survey-text","595","1315360","0.0-595.0","gzw0vx7n","","","","","","","",""
"129135.63500000001","{""Q0"":""It definitely got easier to remember patterns of attention spots after many trials. In the end, I just thought the nonhuman one was more quick/sharp with changing the spot (moving back and forth across a long distance quickly). I also thought it was more human to not draw shapes or repeatedly go back to the same focus spots in quick repetition. It also seemed more human to have more varied/random changing in attention spots and to spend more time in one area (or gradually look around that area before moving on). ""}","","survey-text","596","1444500","0.0-596.0","gzw0vx7n","","","","","","","",""
"47686.63000000012","{""Q0"":""Some clips seemed very similar to me (similar paths, but timing or some hot spots might be different). Sometimes I just forget what I saw, but I hope I got better at it by the end.""}","","survey-text","597","1492191","0.0-597.0","gzw0vx7n","","","","","","","",""
"2177.189999999944","","","instructions","598","1494369","0.0-598.0","gzw0vx7n","[{""page_index"":0,""viewing_time"":2177.0500000000466}]","","","","","","",""
"57108.88000000012","{""Experimenter_end"":[""Printed ID# gzw0vx7n on consent form"",""Given subject SONA credit or payment"",""Given the subject debrief form""]}","[0]","survey-multi-select","599","1551481","0.0-599.0","gzw0vx7n","","","","","","","",""
