"rt","responses","question_order","trial_type","trial_index","time_elapsed","internal_node_id","ID","view_history","stimulus","key_press","value","agent","condition","image","correct_answer"
"14730.539999999999","{""Experimenter"":[""Confirmed subject's identity (ID card)"",""Confirmed normal or corrected-to-normal vision"",""Obtained consent (signature and date)"",""Checked the test room lighting"",""Checked computer screen lighting"",""Checked distance from screen to chin rest (50cm)"",""Cleaned and adjusted chin rest"",""Counterbalanced the order of the tasks"",""Opened the experiment in Firefox"",""Made the experiment full screen"",""Encouraged subject to silence phone, put away distractors, etc.""]}","[0]","survey-multi-select","0","14737","0.0-0.0","h4aexfks","","","","","","","",""
"25306.059999999998","","","instructions","1","40045","0.0-1.0","h4aexfks","[{""page_index"":0,""viewing_time"":25305.515}]","","","","","","",""
"7403.264999999999","","","instructions","2","47449","0.0-2.0","h4aexfks","[{""page_index"":0,""viewing_time"":1214.875},{""page_index"":1,""viewing_time"":3791.050000000003},{""page_index"":2,""viewing_time"":2397.095000000001}]","","","","","","",""
"1504.7350000000006","","","instructions","3","48955","0.0-3.0","h4aexfks","[{""page_index"":0,""viewing_time"":1504.6299999999974}]","","","","","","",""
"null","","","video-keyboard-response","4","52028","0.0-4.0","h4aexfks","","","null","","","","",""
"12378.309999999998","","","instructions","5","64407","0.0-5.0","h4aexfks","[{""page_index"":0,""viewing_time"":2737.215000000004},{""page_index"":1,""viewing_time"":1786.0199999999968},{""page_index"":2,""viewing_time"":861.9800000000032},{""page_index"":3,""viewing_time"":3750.0399999999936},{""page_index"":4,""viewing_time"":3242.9300000000003}]","","","","","","",""
"3225.8499999999913","","","instructions","6","67633","0.0-6.0","h4aexfks","[{""page_index"":0,""viewing_time"":3225.7249999999913}]","","","","","","",""
"","","","call-function","7","67634","0.0-7.0","h4aexfks","","","","","","","",""
"null","","","html-keyboard-response","8","69136","0.0-8.0","h4aexfks","","<span style=""color:Black; font-size:50px;"">Agent A","null","","","","",""
"null","","","video-keyboard-response","9","72212","0.0-9.0","h4aexfks","","","null","","Agent A","veridical","STIM_SET_1/1591961.bmp_pp67_L2_V1.0_veridical_freeview_isoFalse.mp4",""
"null","","","html-keyboard-response","10","73715","0.0-10.0","h4aexfks","","<span style=""color:Black; font-size:50px;"">Agent B","null","","","","",""
"null","","","video-keyboard-response","11","76788","0.0-11.0","h4aexfks","","","null","","Agent B","scrambled","STIM_SET_1/1591961.bmp_pp67_L2_V1.0_scrambled_freeview_isoFalse.mp4",""
"","","","call-function","12","76789","0.0-12.0","h4aexfks","","","","","","","",""
"2436.7850000000035","{""judgement"":0}","[0]","survey-likert","13","79226","0.0-13.0","h4aexfks","","","","","","","","0"
"2818.8350000000064","{""confidence"":2}","[0]","survey-likert","14","82046","0.0-14.0","h4aexfks","","","","","","","",""
"","","","call-function","15","82047","0.0-15.0","h4aexfks","","","","","","","",""
"null","","","html-keyboard-response","16","83549","0.0-16.0","h4aexfks","","<span style=""color:Black; font-size:50px;"">Agent A","null","","","","",""
"null","","","video-keyboard-response","17","86626","0.0-17.0","h4aexfks","","","null","","Agent A","scrambled","STIM_SET_1/498155.bmp_pp61_L2_V1.0_scrambled_freeview_isoFalse.mp4",""
"null","","","html-keyboard-response","18","88131","0.0-18.0","h4aexfks","","<span style=""color:Black; font-size:50px;"">Agent B","null","","","","",""
"null","","","video-keyboard-response","19","91255","0.0-19.0","h4aexfks","","","null","","Agent B","veridical","STIM_SET_1/498155.bmp_pp61_L2_V1.0_veridical_freeview_isoFalse.mp4",""
"","","","call-function","20","91255","0.0-20.0","h4aexfks","","","","","","","",""
"2661.814999999988","{""judgement"":0}","[0]","survey-likert","21","93919","0.0-21.0","h4aexfks","","","","","","","","1"
"2306.029999999999","{""confidence"":1}","[0]","survey-likert","22","96226","0.0-22.0","h4aexfks","","","","","","","",""
"","","","call-function","23","96227","0.0-23.0","h4aexfks","","","","","","","",""
"null","","","html-keyboard-response","24","97733","0.0-24.0","h4aexfks","","<span style=""color:Black; font-size:50px;"">Agent A","null","","","","",""
"null","","","video-keyboard-response","25","100850","0.0-25.0","h4aexfks","","","null","","Agent A","scrambled","STIM_SET_1/713620.bmp_pp65_L3_V1.0_scrambled_freeview_isoFalse.mp4",""
"null","","","html-keyboard-response","26","102352","0.0-26.0","h4aexfks","","<span style=""color:Black; font-size:50px;"">Agent B","null","","","","",""
"null","","","video-keyboard-response","27","105470","0.0-27.0","h4aexfks","","","null","","Agent B","veridical","STIM_SET_1/713620.bmp_pp65_L3_V1.0_veridical_freeview_isoFalse.mp4",""
"","","","call-function","28","105470","0.0-28.0","h4aexfks","","","","","","","",""
"2111.4349999999977","{""judgement"":1}","[0]","survey-likert","29","107582","0.0-29.0","h4aexfks","","","","","","","","1"
"1226.99500000001","{""confidence"":2}","[0]","survey-likert","30","108810","0.0-30.0","h4aexfks","","","","","","","",""
"","","","call-function","31","108811","0.0-31.0","h4aexfks","","","","","","","",""
"null","","","html-keyboard-response","32","110312","0.0-32.0","h4aexfks","","<span style=""color:Black; font-size:50px;"">Agent A","null","","","","",""
"null","","","video-keyboard-response","33","113413","0.0-33.0","h4aexfks","","","null","","Agent A","veridical","STIM_SET_1/1159446.bmp_pp60_L3_V1.0_veridical_freeview_isoFalse.mp4",""
"null","","","html-keyboard-response","34","114915","0.0-34.0","h4aexfks","","<span style=""color:Black; font-size:50px;"">Agent B","null","","","","",""
"null","","","video-keyboard-response","35","117979","0.0-35.0","h4aexfks","","","null","","Agent B","scrambled","STIM_SET_1/1159446.bmp_pp60_L3_V1.0_scrambled_freeview_isoFalse.mp4",""
"","","","call-function","36","117979","0.0-36.0","h4aexfks","","","","","","","",""
"5273.085000000006","{""judgement"":0}","[0]","survey-likert","37","123253","0.0-37.0","h4aexfks","","","","","","","","0"
"1913.8199999999924","{""confidence"":0}","[0]","survey-likert","38","125168","0.0-38.0","h4aexfks","","","","","","","",""
"","","","call-function","39","125169","0.0-39.0","h4aexfks","","","","","","","",""
"null","","","html-keyboard-response","40","126670","0.0-40.0","h4aexfks","","<span style=""color:Black; font-size:50px;"">Agent A","null","","","","",""
"null","","","video-keyboard-response","41","129784","0.0-41.0","h4aexfks","","","null","","Agent A","scrambled","STIM_SET_1/1593146.bmp_pp93_L1_V1.0_scrambled_freeview_isoFalse.mp4",""
"null","","","html-keyboard-response","42","131288","0.0-42.0","h4aexfks","","<span style=""color:Black; font-size:50px;"">Agent B","null","","","","",""
"null","","","video-keyboard-response","43","134399","0.0-43.0","h4aexfks","","","null","","Agent B","veridical","STIM_SET_1/1593146.bmp_pp93_L1_V1.0_veridical_freeview_isoFalse.mp4",""
"","","","call-function","44","134399","0.0-44.0","h4aexfks","","","","","","","",""
"4031.220000000001","{""judgement"":0}","[0]","survey-likert","45","138431","0.0-45.0","h4aexfks","","","","","","","","1"
"2390.904999999999","{""confidence"":0}","[0]","survey-likert","46","140823","0.0-46.0","h4aexfks","","","","","","","",""
"","","","call-function","47","140824","0.0-47.0","h4aexfks","","","","","","","",""
"null","","","html-keyboard-response","48","142326","0.0-48.0","h4aexfks","","<span style=""color:Black; font-size:50px;"">Agent A","null","","","","",""
"null","","","video-keyboard-response","49","145396","0.0-49.0","h4aexfks","","","null","","Agent A","scrambled","STIM_SET_1/713796.bmp_pp84_L3_V1.0_scrambled_freeview_isoFalse.mp4",""
"null","","","html-keyboard-response","50","146899","0.0-50.0","h4aexfks","","<span style=""color:Black; font-size:50px;"">Agent B","null","","","","",""
"null","","","video-keyboard-response","51","149972","0.0-51.0","h4aexfks","","","null","","Agent B","veridical","STIM_SET_1/713796.bmp_pp84_L3_V1.0_veridical_freeview_isoFalse.mp4",""
"","","","call-function","52","149973","0.0-52.0","h4aexfks","","","","","","","",""
"2310.670000000013","{""judgement"":1}","[0]","survey-likert","53","152284","0.0-53.0","h4aexfks","","","","","","","","1"
"1923.1849999999977","{""confidence"":1}","[0]","survey-likert","54","154208","0.0-54.0","h4aexfks","","","","","","","",""
"","","","call-function","55","154209","0.0-55.0","h4aexfks","","","","","","","",""
"null","","","html-keyboard-response","56","155714","0.0-56.0","h4aexfks","","<span style=""color:Black; font-size:50px;"">Agent A","null","","","","",""
"null","","","video-keyboard-response","57","158782","0.0-57.0","h4aexfks","","","null","","Agent A","veridical","STIM_SET_1/1159447.bmp_pp70_L2_V1.0_veridical_freeview_isoFalse.mp4",""
"null","","","html-keyboard-response","58","160285","0.0-58.0","h4aexfks","","<span style=""color:Black; font-size:50px;"">Agent B","null","","","","",""
"null","","","video-keyboard-response","59","163397","0.0-59.0","h4aexfks","","","null","","Agent B","scrambled","STIM_SET_1/1159447.bmp_pp70_L2_V1.0_scrambled_freeview_isoFalse.mp4",""
"","","","call-function","60","163398","0.0-60.0","h4aexfks","","","","","","","",""
"1745.6900000000023","{""judgement"":0}","[0]","survey-likert","61","165144","0.0-61.0","h4aexfks","","","","","","","","0"
"1351.9400000000023","{""confidence"":1}","[0]","survey-likert","62","166497","0.0-62.0","h4aexfks","","","","","","","",""
"","","","call-function","63","166498","0.0-63.0","h4aexfks","","","","","","","",""
"null","","","html-keyboard-response","64","168002","0.0-64.0","h4aexfks","","<span style=""color:Black; font-size:50px;"">Agent A","null","","","","",""
"null","","","video-keyboard-response","65","171126","0.0-65.0","h4aexfks","","","null","","Agent A","veridical","STIM_SET_1/1159440.bmp_pp98_L1_V1.0_veridical_freeview_isoFalse.mp4",""
"null","","","html-keyboard-response","66","172633","0.0-66.0","h4aexfks","","<span style=""color:Black; font-size:50px;"">Agent B","null","","","","",""
"null","","","video-keyboard-response","67","175708","0.0-67.0","h4aexfks","","","null","","Agent B","scrambled","STIM_SET_1/1159440.bmp_pp98_L1_V1.0_scrambled_freeview_isoFalse.mp4",""
"","","","call-function","68","175709","0.0-68.0","h4aexfks","","","","","","","",""
"2104.915000000008","{""judgement"":1}","[0]","survey-likert","69","177816","0.0-69.0","h4aexfks","","","","","","","","0"
"1868.5799999999872","{""confidence"":1}","[0]","survey-likert","70","179686","0.0-70.0","h4aexfks","","","","","","","",""
"","","","call-function","71","179687","0.0-71.0","h4aexfks","","","","","","","",""
"null","","","html-keyboard-response","72","181194","0.0-72.0","h4aexfks","","<span style=""color:Black; font-size:50px;"">Agent A","null","","","","",""
"null","","","video-keyboard-response","73","184260","0.0-73.0","h4aexfks","","","null","","Agent A","scrambled","STIM_SET_1/1592817.bmp_pp55_L3_V1.0_scrambled_freeview_isoFalse.mp4",""
"null","","","html-keyboard-response","74","185764","0.0-74.0","h4aexfks","","<span style=""color:Black; font-size:50px;"">Agent B","null","","","","",""
"null","","","video-keyboard-response","75","188832","0.0-75.0","h4aexfks","","","null","","Agent B","veridical","STIM_SET_1/1592817.bmp_pp55_L3_V1.0_veridical_freeview_isoFalse.mp4",""
"","","","call-function","76","188832","0.0-76.0","h4aexfks","","","","","","","",""
"3054.209999999992","{""judgement"":1}","[0]","survey-likert","77","191888","0.0-77.0","h4aexfks","","","","","","","","1"
"1678.9649999999965","{""confidence"":1}","[0]","survey-likert","78","193568","0.0-78.0","h4aexfks","","","","","","","",""
"","","","call-function","79","193568","0.0-79.0","h4aexfks","","","","","","","",""
"null","","","html-keyboard-response","80","195071","0.0-80.0","h4aexfks","","<span style=""color:Black; font-size:50px;"">Agent A","null","","","","",""
"null","","","video-keyboard-response","81","198151","0.0-81.0","h4aexfks","","","null","","Agent A","scrambled","STIM_SET_1/498175.bmp_pp154_L1_V1.0_scrambled_freeview_isoFalse.mp4",""
"null","","","html-keyboard-response","82","199652","0.0-82.0","h4aexfks","","<span style=""color:Black; font-size:50px;"">Agent B","null","","","","",""
"null","","","video-keyboard-response","83","202729","0.0-83.0","h4aexfks","","","null","","Agent B","veridical","STIM_SET_1/498175.bmp_pp154_L1_V1.0_veridical_freeview_isoFalse.mp4",""
"","","","call-function","84","202729","0.0-84.0","h4aexfks","","","","","","","",""
"3030.600000000006","{""judgement"":1}","[0]","survey-likert","85","205761","0.0-85.0","h4aexfks","","","","","","","","1"
"2183.1050000000105","{""confidence"":0}","[0]","survey-likert","86","207945","0.0-86.0","h4aexfks","","","","","","","",""
"51705.255000000005","","","instructions","87","259651","0.0-87.0","h4aexfks","[{""page_index"":0,""viewing_time"":1193.1050000000105},{""page_index"":1,""viewing_time"":48754.72},{""page_index"":2,""viewing_time"":1757.2749999999942}]","","","","","","",""
"4779.475000000006","","","instructions","88","264430","0.0-88.0","h4aexfks","[{""page_index"":0,""viewing_time"":1776.2949999999837},{""page_index"":1,""viewing_time"":2183.024999999994},{""page_index"":2,""viewing_time"":819.9349999999977}]","","","","","","",""
"","","","call-function","89","264432","0.0-89.0","h4aexfks","","","","","","","",""
"null","","","html-keyboard-response","90","265934","0.0-90.0","h4aexfks","","<span style=""color:Black; font-size:50px;"">Agent A","null","","","","",""
"null","","","video-keyboard-response","91","269006","0.0-91.0","h4aexfks","","","null","","Agent A","scrambled","STIM_SET_1/1159813.bmp_pp79_L2_V1.0_scrambled_freeview_isoFalse.mp4",""
"null","","","html-keyboard-response","92","270510","0.0-92.0","h4aexfks","","<span style=""color:Black; font-size:50px;"">Agent B","null","","","","",""
"null","","","video-keyboard-response","93","273582","0.0-93.0","h4aexfks","","","null","","Agent B","veridical","STIM_SET_1/1159813.bmp_pp79_L2_V1.0_veridical_freeview_isoFalse.mp4",""
"","","","call-function","94","273582","0.0-94.0","h4aexfks","","","","","","","",""
"2271.4700000000303","{""judgement"":0}","[0]","survey-likert","95","275855","0.0-95.0","h4aexfks","","","","","","","","1"
"1290.3399999999674","{""confidence"":1}","[0]","survey-likert","96","277146","0.0-96.0","h4aexfks","","","","","","","",""
"","","","call-function","97","277146","0.0-97.0","h4aexfks","","","","","","","",""
"null","","","html-keyboard-response","98","278649","0.0-98.0","h4aexfks","","<span style=""color:Black; font-size:50px;"">Agent A","null","","","","",""
"null","","","video-keyboard-response","99","281723","0.0-99.0","h4aexfks","","","null","","Agent A","veridical","STIM_SET_1/1592581.bmp_pp100_L3_V1.0_veridical_freeview_isoFalse.mp4",""
"null","","","html-keyboard-response","100","283225","0.0-100.0","h4aexfks","","<span style=""color:Black; font-size:50px;"">Agent B","null","","","","",""
"null","","","video-keyboard-response","101","286297","0.0-101.0","h4aexfks","","","null","","Agent B","scrambled","STIM_SET_1/1592581.bmp_pp100_L3_V1.0_scrambled_freeview_isoFalse.mp4",""
"","","","call-function","102","286297","0.0-102.0","h4aexfks","","","","","","","",""
"1712.7700000000186","{""judgement"":0}","[0]","survey-likert","103","288011","0.0-103.0","h4aexfks","","","","","","","","0"
"2255.710000000021","{""confidence"":2}","[0]","survey-likert","104","290268","0.0-104.0","h4aexfks","","","","","","","",""
"","","","call-function","105","290268","0.0-105.0","h4aexfks","","","","","","","",""
"null","","","html-keyboard-response","106","291773","0.0-106.0","h4aexfks","","<span style=""color:Black; font-size:50px;"">Agent A","null","","","","",""
"null","","","video-keyboard-response","107","294883","0.0-107.0","h4aexfks","","","null","","Agent A","scrambled","STIM_SET_1/1592397.bmp_pp85_L3_V1.0_scrambled_freeview_isoFalse.mp4",""
"null","","","html-keyboard-response","108","296385","0.0-108.0","h4aexfks","","<span style=""color:Black; font-size:50px;"">Agent B","null","","","","",""
"null","","","video-keyboard-response","109","299501","0.0-109.0","h4aexfks","","","null","","Agent B","veridical","STIM_SET_1/1592397.bmp_pp85_L3_V1.0_veridical_freeview_isoFalse.mp4",""
"","","","call-function","110","299501","0.0-110.0","h4aexfks","","","","","","","",""
"2265.335000000021","{""judgement"":0}","[0]","survey-likert","111","301767","0.0-111.0","h4aexfks","","","","","","","","1"
"3953.1100000000442","{""confidence"":1}","[0]","survey-likert","112","305722","0.0-112.0","h4aexfks","","","","","","","",""
"","","","call-function","113","305722","0.0-113.0","h4aexfks","","","","","","","",""
"null","","","html-keyboard-response","114","307225","0.0-114.0","h4aexfks","","<span style=""color:Black; font-size:50px;"">Agent A","null","","","","",""
"null","","","video-keyboard-response","115","310345","0.0-115.0","h4aexfks","","","null","","Agent A","scrambled","STIM_SET_1/285751.bmp_pp55_L3_V1.0_scrambled_freeview_isoFalse.mp4",""
"null","","","html-keyboard-response","116","311846","0.0-116.0","h4aexfks","","<span style=""color:Black; font-size:50px;"">Agent B","null","","","","",""
"null","","","video-keyboard-response","117","314965","0.0-117.0","h4aexfks","","","null","","Agent B","veridical","STIM_SET_1/285751.bmp_pp55_L3_V1.0_veridical_freeview_isoFalse.mp4",""
"","","","call-function","118","314966","0.0-118.0","h4aexfks","","","","","","","",""
"1927.8450000000303","{""judgement"":1}","[0]","survey-likert","119","316895","0.0-119.0","h4aexfks","","","","","","","","1"
"1333.0800000000163","{""confidence"":1}","[0]","survey-likert","120","318229","0.0-120.0","h4aexfks","","","","","","","",""
"","","","call-function","121","318229","0.0-121.0","h4aexfks","","","","","","","",""
"null","","","html-keyboard-response","122","319731","0.0-122.0","h4aexfks","","<span style=""color:Black; font-size:50px;"">Agent A","null","","","","",""
"null","","","video-keyboard-response","123","322840","0.0-123.0","h4aexfks","","","null","","Agent A","veridical","STIM_SET_1/1593035.bmp_pp94_L2_V1.0_veridical_freeview_isoFalse.mp4",""
"null","","","html-keyboard-response","124","324344","0.0-124.0","h4aexfks","","<span style=""color:Black; font-size:50px;"">Agent B","null","","","","",""
"null","","","video-keyboard-response","125","327451","0.0-125.0","h4aexfks","","","null","","Agent B","scrambled","STIM_SET_1/1593035.bmp_pp94_L2_V1.0_scrambled_freeview_isoFalse.mp4",""
"","","","call-function","126","327452","0.0-126.0","h4aexfks","","","","","","","",""
"1849.4249999999884","{""judgement"":0}","[0]","survey-likert","127","329303","0.0-127.0","h4aexfks","","","","","","","","0"
"1808.914999999979","{""confidence"":1}","[0]","survey-likert","128","331113","0.0-128.0","h4aexfks","","","","","","","",""
"","","","call-function","129","331114","0.0-129.0","h4aexfks","","","","","","","",""
"null","","","html-keyboard-response","130","332617","0.0-130.0","h4aexfks","","<span style=""color:Black; font-size:50px;"">Agent A","null","","","","",""
"null","","","video-keyboard-response","131","335694","0.0-131.0","h4aexfks","","","null","","Agent A","veridical","STIM_SET_1/498111.bmp_pp88_L2_V1.0_veridical_freeview_isoFalse.mp4",""
"null","","","html-keyboard-response","132","337196","0.0-132.0","h4aexfks","","<span style=""color:Black; font-size:50px;"">Agent B","null","","","","",""
"null","","","video-keyboard-response","133","340275","0.0-133.0","h4aexfks","","","null","","Agent B","scrambled","STIM_SET_1/498111.bmp_pp88_L2_V1.0_scrambled_freeview_isoFalse.mp4",""
"","","","call-function","134","340275","0.0-134.0","h4aexfks","","","","","","","",""
"1694.7700000000186","{""judgement"":0}","[0]","survey-likert","135","341971","0.0-135.0","h4aexfks","","","","","","","","0"
"1998.9249999999884","{""confidence"":1}","[0]","survey-likert","136","343971","0.0-136.0","h4aexfks","","","","","","","",""
"","","","call-function","137","343971","0.0-137.0","h4aexfks","","","","","","","",""
"null","","","html-keyboard-response","138","345477","0.0-138.0","h4aexfks","","<span style=""color:Black; font-size:50px;"">Agent A","null","","","","",""
"null","","","video-keyboard-response","139","348554","0.0-139.0","h4aexfks","","","null","","Agent A","scrambled","STIM_SET_1/713017.bmp_pp152_L2_V1.0_scrambled_freeview_isoFalse.mp4",""
"null","","","html-keyboard-response","140","350057","0.0-140.0","h4aexfks","","<span style=""color:Black; font-size:50px;"">Agent B","null","","","","",""
"null","","","video-keyboard-response","141","353131","0.0-141.0","h4aexfks","","","null","","Agent B","veridical","STIM_SET_1/713017.bmp_pp152_L2_V1.0_veridical_freeview_isoFalse.mp4",""
"","","","call-function","142","353131","0.0-142.0","h4aexfks","","","","","","","",""
"2218.819999999949","{""judgement"":1}","[0]","survey-likert","143","355351","0.0-143.0","h4aexfks","","","","","","","","1"
"1758.9349999999977","{""confidence"":1}","[0]","survey-likert","144","357111","0.0-144.0","h4aexfks","","","","","","","",""
"","","","call-function","145","357111","0.0-145.0","h4aexfks","","","","","","","",""
"null","","","html-keyboard-response","146","358615","0.0-146.0","h4aexfks","","<span style=""color:Black; font-size:50px;"">Agent A","null","","","","",""
"null","","","video-keyboard-response","147","361726","0.0-147.0","h4aexfks","","","null","","Agent A","veridical","STIM_SET_1/1592934.bmp_pp63_L1_V1.0_veridical_freeview_isoFalse.mp4",""
"null","","","html-keyboard-response","148","363228","0.0-148.0","h4aexfks","","<span style=""color:Black; font-size:50px;"">Agent B","null","","","","",""
"null","","","video-keyboard-response","149","366340","0.0-149.0","h4aexfks","","","null","","Agent B","scrambled","STIM_SET_1/1592934.bmp_pp63_L1_V1.0_scrambled_freeview_isoFalse.mp4",""
"","","","call-function","150","366340","0.0-150.0","h4aexfks","","","","","","","",""
"2316.4550000000163","{""judgement"":0}","[0]","survey-likert","151","368658","0.0-151.0","h4aexfks","","","","","","","","0"
"1229.0349999999744","{""confidence"":2}","[0]","survey-likert","152","369889","0.0-152.0","h4aexfks","","","","","","","",""
"","","","call-function","153","369890","0.0-153.0","h4aexfks","","","","","","","",""
"null","","","html-keyboard-response","154","371393","0.0-154.0","h4aexfks","","<span style=""color:Black; font-size:50px;"">Agent A","null","","","","",""
"null","","","video-keyboard-response","155","374468","0.0-155.0","h4aexfks","","","null","","Agent A","veridical","STIM_SET_1/1159829.bmp_pp91_L3_V1.0_veridical_freeview_isoFalse.mp4",""
"null","","","html-keyboard-response","156","375971","0.0-156.0","h4aexfks","","<span style=""color:Black; font-size:50px;"">Agent B","null","","","","",""
"null","","","video-keyboard-response","157","379046","0.0-157.0","h4aexfks","","","null","","Agent B","scrambled","STIM_SET_1/1159829.bmp_pp91_L3_V1.0_scrambled_freeview_isoFalse.mp4",""
"","","","call-function","158","379047","0.0-158.0","h4aexfks","","","","","","","",""
"2400.0999999999767","{""judgement"":0}","[0]","survey-likert","159","381448","0.0-159.0","h4aexfks","","","","","","","","0"
"1983.875","{""confidence"":0}","[0]","survey-likert","160","383433","0.0-160.0","h4aexfks","","","","","","","",""
"","","","call-function","161","383434","0.0-161.0","h4aexfks","","","","","","","",""
"null","","","html-keyboard-response","162","384936","0.0-162.0","h4aexfks","","<span style=""color:Black; font-size:50px;"">Agent A","null","","","","",""
"null","","","video-keyboard-response","163","388012","0.0-163.0","h4aexfks","","","null","","Agent A","veridical","STIM_SET_1/285994.bmp_pp92_L3_V1.0_veridical_freeview_isoFalse.mp4",""
"null","","","html-keyboard-response","164","389515","0.0-164.0","h4aexfks","","<span style=""color:Black; font-size:50px;"">Agent B","null","","","","",""
"null","","","video-keyboard-response","165","392582","0.0-165.0","h4aexfks","","","null","","Agent B","scrambled","STIM_SET_1/285994.bmp_pp92_L3_V1.0_scrambled_freeview_isoFalse.mp4",""
"","","","call-function","166","392582","0.0-166.0","h4aexfks","","","","","","","",""
"1458.7849999999744","{""judgement"":0}","[0]","survey-likert","167","394042","0.0-167.0","h4aexfks","","","","","","","","0"
"3009.015000000014","{""confidence"":1}","[0]","survey-likert","168","397052","0.0-168.0","h4aexfks","","","","","","","",""
"50778.98999999999","","","instructions","169","447832","0.0-169.0","h4aexfks","[{""page_index"":0,""viewing_time"":1057.7999999999884},{""page_index"":1,""viewing_time"":49069.965000000026},{""page_index"":2,""viewing_time"":651.0650000000023}]","","","","","","",""
"2373.4649999999674","","","instructions","170","450206","0.0-170.0","h4aexfks","[{""page_index"":0,""viewing_time"":841.664999999979},{""page_index"":1,""viewing_time"":958.625},{""page_index"":2,""viewing_time"":573.070000000007}]","","","","","","",""
"","","","call-function","171","450206","0.0-171.0","h4aexfks","","","","","","","",""
"null","","","html-keyboard-response","172","451710","0.0-172.0","h4aexfks","","<span style=""color:Black; font-size:50px;"">Agent A","null","","","","",""
"null","","","video-keyboard-response","173","454778","0.0-173.0","h4aexfks","","","null","","Agent A","veridical","STIM_SET_1/1592619.bmp_pp56_L3_V1.0_veridical_freeview_isoFalse.mp4",""
"null","","","html-keyboard-response","174","456280","0.0-174.0","h4aexfks","","<span style=""color:Black; font-size:50px;"">Agent B","null","","","","",""
"null","","","video-keyboard-response","175","459347","0.0-175.0","h4aexfks","","","null","","Agent B","scrambled","STIM_SET_1/1592619.bmp_pp56_L3_V1.0_scrambled_freeview_isoFalse.mp4",""
"","","","call-function","176","459348","0.0-176.0","h4aexfks","","","","","","","",""
"2062.695000000007","{""judgement"":0}","[0]","survey-likert","177","461411","0.0-177.0","h4aexfks","","","","","","","","0"
"2382.140000000014","{""confidence"":2}","[0]","survey-likert","178","463794","0.0-178.0","h4aexfks","","","","","","","",""
"","","","call-function","179","463795","0.0-179.0","h4aexfks","","","","","","","",""
"null","","","html-keyboard-response","180","465298","0.0-180.0","h4aexfks","","<span style=""color:Black; font-size:50px;"">Agent A","null","","","","",""
"null","","","video-keyboard-response","181","468367","0.0-181.0","h4aexfks","","","null","","Agent A","veridical","STIM_SET_1/1159621.bmp_pp92_L3_V1.0_veridical_freeview_isoFalse.mp4",""
"null","","","html-keyboard-response","182","469868","0.0-182.0","h4aexfks","","<span style=""color:Black; font-size:50px;"">Agent B","null","","","","",""
"null","","","video-keyboard-response","183","472935","0.0-183.0","h4aexfks","","","null","","Agent B","scrambled","STIM_SET_1/1159621.bmp_pp92_L3_V1.0_scrambled_freeview_isoFalse.mp4",""
"","","","call-function","184","472935","0.0-184.0","h4aexfks","","","","","","","",""
"1862.3400000000256","{""judgement"":0}","[0]","survey-likert","185","474798","0.0-185.0","h4aexfks","","","","","","","","0"
"2342.969999999972","{""confidence"":1}","[0]","survey-likert","186","477142","0.0-186.0","h4aexfks","","","","","","","",""
"","","","call-function","187","477143","0.0-187.0","h4aexfks","","","","","","","",""
"null","","","html-keyboard-response","188","478646","0.0-188.0","h4aexfks","","<span style=""color:Black; font-size:50px;"">Agent A","null","","","","",""
"null","","","video-keyboard-response","189","481756","0.0-189.0","h4aexfks","","","null","","Agent A","scrambled","STIM_SET_1/1159515.bmp_pp84_L3_V1.0_scrambled_freeview_isoFalse.mp4",""
"null","","","html-keyboard-response","190","483262","0.0-190.0","h4aexfks","","<span style=""color:Black; font-size:50px;"">Agent B","null","","","","",""
"null","","","video-keyboard-response","191","486377","0.0-191.0","h4aexfks","","","null","","Agent B","veridical","STIM_SET_1/1159515.bmp_pp84_L3_V1.0_veridical_freeview_isoFalse.mp4",""
"","","","call-function","192","486377","0.0-192.0","h4aexfks","","","","","","","",""
"2836.0200000000186","{""judgement"":1}","[0]","survey-likert","193","489214","0.0-193.0","h4aexfks","","","","","","","","1"
"2653.6300000000047","{""confidence"":1}","[0]","survey-likert","194","491869","0.0-194.0","h4aexfks","","","","","","","",""
"","","","call-function","195","491870","0.0-195.0","h4aexfks","","","","","","","",""
"null","","","html-keyboard-response","196","493373","0.0-196.0","h4aexfks","","<span style=""color:Black; font-size:50px;"">Agent A","null","","","","",""
"null","","","video-keyboard-response","197","496491","0.0-197.0","h4aexfks","","","null","","Agent A","scrambled","STIM_SET_1/1592657.bmp_pp98_L1_V1.0_scrambled_freeview_isoFalse.mp4",""
"null","","","html-keyboard-response","198","497997","0.0-198.0","h4aexfks","","<span style=""color:Black; font-size:50px;"">Agent B","null","","","","",""
"null","","","video-keyboard-response","199","501113","0.0-199.0","h4aexfks","","","null","","Agent B","veridical","STIM_SET_1/1592657.bmp_pp98_L1_V1.0_veridical_freeview_isoFalse.mp4",""
"","","","call-function","200","501113","0.0-200.0","h4aexfks","","","","","","","",""
"1703.7449999999953","{""judgement"":1}","[0]","survey-likert","201","502818","0.0-201.0","h4aexfks","","","","","","","","1"
"1460.304999999993","{""confidence"":0}","[0]","survey-likert","202","504279","0.0-202.0","h4aexfks","","","","","","","",""
"","","","call-function","203","504280","0.0-203.0","h4aexfks","","","","","","","",""
"null","","","html-keyboard-response","204","505781","0.0-204.0","h4aexfks","","<span style=""color:Black; font-size:50px;"">Agent A","null","","","","",""
"null","","","video-keyboard-response","205","508900","0.0-205.0","h4aexfks","","","null","","Agent A","scrambled","STIM_SET_1/285933.bmp_pp81_L1_V1.0_scrambled_freeview_isoFalse.mp4",""
"null","","","html-keyboard-response","206","510405","0.0-206.0","h4aexfks","","<span style=""color:Black; font-size:50px;"">Agent B","null","","","","",""
"null","","","video-keyboard-response","207","513520","0.0-207.0","h4aexfks","","","null","","Agent B","veridical","STIM_SET_1/285933.bmp_pp81_L1_V1.0_veridical_freeview_isoFalse.mp4",""
"","","","call-function","208","513521","0.0-208.0","h4aexfks","","","","","","","",""
"3874.405000000028","{""judgement"":0}","[0]","survey-likert","209","517396","0.0-209.0","h4aexfks","","","","","","","","1"
"1206.0350000000326","{""confidence"":1}","[0]","survey-likert","210","518603","0.0-210.0","h4aexfks","","","","","","","",""
"","","","call-function","211","518604","0.0-211.0","h4aexfks","","","","","","","",""
"null","","","html-keyboard-response","212","520105","0.0-212.0","h4aexfks","","<span style=""color:Black; font-size:50px;"">Agent A","null","","","","",""
"null","","","video-keyboard-response","213","523173","0.0-213.0","h4aexfks","","","null","","Agent A","scrambled","STIM_SET_1/497950.bmp_pp151_L1_V1.0_scrambled_freeview_isoFalse.mp4",""
"null","","","html-keyboard-response","214","524679","0.0-214.0","h4aexfks","","<span style=""color:Black; font-size:50px;"">Agent B","null","","","","",""
"null","","","video-keyboard-response","215","527749","0.0-215.0","h4aexfks","","","null","","Agent B","veridical","STIM_SET_1/497950.bmp_pp151_L1_V1.0_veridical_freeview_isoFalse.mp4",""
"","","","call-function","216","527750","0.0-216.0","h4aexfks","","","","","","","",""
"1549.6199999999953","{""judgement"":1}","[0]","survey-likert","217","529300","0.0-217.0","h4aexfks","","","","","","","","1"
"1847.3550000000978","{""confidence"":2}","[0]","survey-likert","218","531149","0.0-218.0","h4aexfks","","","","","","","",""
"","","","call-function","219","531149","0.0-219.0","h4aexfks","","","","","","","",""
"null","","","html-keyboard-response","220","532653","0.0-220.0","h4aexfks","","<span style=""color:Black; font-size:50px;"">Agent A","null","","","","",""
"null","","","video-keyboard-response","221","535731","0.0-221.0","h4aexfks","","","null","","Agent A","scrambled","STIM_SET_1/1592499.bmp_pp96_L2_V1.0_scrambled_freeview_isoFalse.mp4",""
"null","","","html-keyboard-response","222","537232","0.0-222.0","h4aexfks","","<span style=""color:Black; font-size:50px;"">Agent B","null","","","","",""
"null","","","video-keyboard-response","223","540306","0.0-223.0","h4aexfks","","","null","","Agent B","veridical","STIM_SET_1/1592499.bmp_pp96_L2_V1.0_veridical_freeview_isoFalse.mp4",""
"","","","call-function","224","540307","0.0-224.0","h4aexfks","","","","","","","",""
"3383.0599999999395","{""judgement"":0}","[0]","survey-likert","225","543691","0.0-225.0","h4aexfks","","","","","","","","1"
"1891.1499999999069","{""confidence"":0}","[0]","survey-likert","226","545583","0.0-226.0","h4aexfks","","","","","","","",""
"","","","call-function","227","545584","0.0-227.0","h4aexfks","","","","","","","",""
"null","","","html-keyboard-response","228","547086","0.0-228.0","h4aexfks","","<span style=""color:Black; font-size:50px;"">Agent A","null","","","","",""
"null","","","video-keyboard-response","229","550169","0.0-229.0","h4aexfks","","","null","","Agent A","scrambled","STIM_SET_1/713371.bmp_pp68_L1_V1.0_scrambled_freeview_isoFalse.mp4",""
"null","","","html-keyboard-response","230","551673","0.0-230.0","h4aexfks","","<span style=""color:Black; font-size:50px;"">Agent B","null","","","","",""
"null","","","video-keyboard-response","231","554755","0.0-231.0","h4aexfks","","","null","","Agent B","veridical","STIM_SET_1/713371.bmp_pp68_L1_V1.0_veridical_freeview_isoFalse.mp4",""
"","","","call-function","232","554757","0.0-232.0","h4aexfks","","","","","","","",""
"1642.765000000014","{""judgement"":1}","[0]","survey-likert","233","556401","0.0-233.0","h4aexfks","","","","","","","","1"
"1640.9350000000559","{""confidence"":2}","[0]","survey-likert","234","558043","0.0-234.0","h4aexfks","","","","","","","",""
"","","","call-function","235","558044","0.0-235.0","h4aexfks","","","","","","","",""
"null","","","html-keyboard-response","236","559550","0.0-236.0","h4aexfks","","<span style=""color:Black; font-size:50px;"">Agent A","null","","","","",""
"null","","","video-keyboard-response","237","562629","0.0-237.0","h4aexfks","","","null","","Agent A","veridical","STIM_SET_1/1592351.bmp_pp51_L1_V1.0_veridical_freeview_isoFalse.mp4",""
"null","","","html-keyboard-response","238","564132","0.0-238.0","h4aexfks","","<span style=""color:Black; font-size:50px;"">Agent B","null","","","","",""
"null","","","video-keyboard-response","239","567200","0.0-239.0","h4aexfks","","","null","","Agent B","scrambled","STIM_SET_1/1592351.bmp_pp51_L1_V1.0_scrambled_freeview_isoFalse.mp4",""
"","","","call-function","240","567201","0.0-240.0","h4aexfks","","","","","","","",""
"2074.314999999944","{""judgement"":0}","[0]","survey-likert","241","569276","0.0-241.0","h4aexfks","","","","","","","","0"
"1502.8249999999534","{""confidence"":1}","[0]","survey-likert","242","570780","0.0-242.0","h4aexfks","","","","","","","",""
"","","","call-function","243","570780","0.0-243.0","h4aexfks","","","","","","","",""
"null","","","html-keyboard-response","244","572283","0.0-244.0","h4aexfks","","<span style=""color:Black; font-size:50px;"">Agent A","null","","","","",""
"null","","","video-keyboard-response","245","575356","0.0-245.0","h4aexfks","","","null","","Agent A","scrambled","STIM_SET_1/713135.bmp_pp54_L2_V1.0_scrambled_freeview_isoFalse.mp4",""
"null","","","html-keyboard-response","246","576861","0.0-246.0","h4aexfks","","<span style=""color:Black; font-size:50px;"">Agent B","null","","","","",""
"null","","","video-keyboard-response","247","579928","0.0-247.0","h4aexfks","","","null","","Agent B","veridical","STIM_SET_1/713135.bmp_pp54_L2_V1.0_veridical_freeview_isoFalse.mp4",""
"","","","call-function","248","579928","0.0-248.0","h4aexfks","","","","","","","",""
"2949.359999999986","{""judgement"":1}","[0]","survey-likert","249","582879","0.0-249.0","h4aexfks","","","","","","","","1"
"1496.0199999999022","{""confidence"":1}","[0]","survey-likert","250","584376","0.0-250.0","h4aexfks","","","","","","","",""
"58342.98999999999","","","instructions","251","642719","0.0-251.0","h4aexfks","[{""page_index"":0,""viewing_time"":1054.9649999999674},{""page_index"":1,""viewing_time"":56588.25},{""page_index"":2,""viewing_time"":699.6199999999953}]","","","","","","",""
"1501.5750000000698","","","instructions","252","644221","0.0-252.0","h4aexfks","[{""page_index"":0,""viewing_time"":487.4300000000512},{""page_index"":1,""viewing_time"":493.0349999999162},{""page_index"":2,""viewing_time"":521.0050000000047}]","","","","","","",""
"","","","call-function","253","644222","0.0-253.0","h4aexfks","","","","","","","",""
"null","","","html-keyboard-response","254","645723","0.0-254.0","h4aexfks","","<span style=""color:Black; font-size:50px;"">Agent A","null","","","","",""
"null","","","video-keyboard-response","255","648802","0.0-255.0","h4aexfks","","","null","","Agent A","veridical","STIM_SET_1/1160127.bmp_pp90_L2_V1.0_veridical_freeview_isoFalse.mp4",""
"null","","","html-keyboard-response","256","650305","0.0-256.0","h4aexfks","","<span style=""color:Black; font-size:50px;"">Agent B","null","","","","",""
"null","","","video-keyboard-response","257","653387","0.0-257.0","h4aexfks","","","null","","Agent B","scrambled","STIM_SET_1/1160127.bmp_pp90_L2_V1.0_scrambled_freeview_isoFalse.mp4",""
"","","","call-function","258","653387","0.0-258.0","h4aexfks","","","","","","","",""
"1866.7050000000745","{""judgement"":0}","[0]","survey-likert","259","655255","0.0-259.0","h4aexfks","","","","","","","","0"
"2142.045000000042","{""confidence"":2}","[0]","survey-likert","260","657398","0.0-260.0","h4aexfks","","","","","","","",""
"","","","call-function","261","657398","0.0-261.0","h4aexfks","","","","","","","",""
"null","","","html-keyboard-response","262","658904","0.0-262.0","h4aexfks","","<span style=""color:Black; font-size:50px;"">Agent A","null","","","","",""
"null","","","video-keyboard-response","263","661986","0.0-263.0","h4aexfks","","","null","","Agent A","scrambled","STIM_SET_1/61537.bmp_pp73_L3_V1.0_scrambled_freeview_isoFalse.mp4",""
"null","","","html-keyboard-response","264","663489","0.0-264.0","h4aexfks","","<span style=""color:Black; font-size:50px;"">Agent B","null","","","","",""
"null","","","video-keyboard-response","265","666565","0.0-265.0","h4aexfks","","","null","","Agent B","veridical","STIM_SET_1/61537.bmp_pp73_L3_V1.0_veridical_freeview_isoFalse.mp4",""
"","","","call-function","266","666566","0.0-266.0","h4aexfks","","","","","","","",""
"1801.125","{""judgement"":1}","[0]","survey-likert","267","668368","0.0-267.0","h4aexfks","","","","","","","","1"
"2426.8349999999627","{""confidence"":2}","[0]","survey-likert","268","670796","0.0-268.0","h4aexfks","","","","","","","",""
"","","","call-function","269","670797","0.0-269.0","h4aexfks","","","","","","","",""
"null","","","html-keyboard-response","270","672301","0.0-270.0","h4aexfks","","<span style=""color:Black; font-size:50px;"">Agent A","null","","","","",""
"null","","","video-keyboard-response","271","675419","0.0-271.0","h4aexfks","","","null","","Agent A","scrambled","STIM_SET_1/1159784.bmp_pp73_L3_V1.0_scrambled_freeview_isoFalse.mp4",""
"null","","","html-keyboard-response","272","676923","0.0-272.0","h4aexfks","","<span style=""color:Black; font-size:50px;"">Agent B","null","","","","",""
"null","","","video-keyboard-response","273","680036","0.0-273.0","h4aexfks","","","null","","Agent B","veridical","STIM_SET_1/1159784.bmp_pp73_L3_V1.0_veridical_freeview_isoFalse.mp4",""
"","","","call-function","274","680036","0.0-274.0","h4aexfks","","","","","","","",""
"2340.609999999986","{""judgement"":1}","[0]","survey-likert","275","682378","0.0-275.0","h4aexfks","","","","","","","","1"
"1608.484999999986","{""confidence"":1}","[0]","survey-likert","276","683988","0.0-276.0","h4aexfks","","","","","","","",""
"","","","call-function","277","683988","0.0-277.0","h4aexfks","","","","","","","",""
"null","","","html-keyboard-response","278","685491","0.0-278.0","h4aexfks","","<span style=""color:Black; font-size:50px;"">Agent A","null","","","","",""
"null","","","video-keyboard-response","279","688600","0.0-279.0","h4aexfks","","","null","","Agent A","scrambled","STIM_SET_1/713513.bmp_pp62_L2_V1.0_scrambled_freeview_isoFalse.mp4",""
"null","","","html-keyboard-response","280","690105","0.0-280.0","h4aexfks","","<span style=""color:Black; font-size:50px;"">Agent B","null","","","","",""
"null","","","video-keyboard-response","281","693215","0.0-281.0","h4aexfks","","","null","","Agent B","veridical","STIM_SET_1/713513.bmp_pp62_L2_V1.0_veridical_freeview_isoFalse.mp4",""
"","","","call-function","282","693216","0.0-282.0","h4aexfks","","","","","","","",""
"1552.765000000014","{""judgement"":1}","[0]","survey-likert","283","694769","0.0-283.0","h4aexfks","","","","","","","","1"
"1515.3649999999907","{""confidence"":1}","[0]","survey-likert","284","696286","0.0-284.0","h4aexfks","","","","","","","",""
"","","","call-function","285","696286","0.0-285.0","h4aexfks","","","","","","","",""
"null","","","html-keyboard-response","286","697790","0.0-286.0","h4aexfks","","<span style=""color:Black; font-size:50px;"">Agent A","null","","","","",""
"null","","","video-keyboard-response","287","700869","0.0-287.0","h4aexfks","","","null","","Agent A","scrambled","STIM_SET_1/1592890.bmp_pp82_L2_V1.0_scrambled_freeview_isoFalse.mp4",""
"null","","","html-keyboard-response","288","702370","0.0-288.0","h4aexfks","","<span style=""color:Black; font-size:50px;"">Agent B","null","","","","",""
"null","","","video-keyboard-response","289","705446","0.0-289.0","h4aexfks","","","null","","Agent B","veridical","STIM_SET_1/1592890.bmp_pp82_L2_V1.0_veridical_freeview_isoFalse.mp4",""
"","","","call-function","290","705447","0.0-290.0","h4aexfks","","","","","","","",""
"2092.039999999921","{""judgement"":0}","[0]","survey-likert","291","707540","0.0-291.0","h4aexfks","","","","","","","","1"
"3109.890000000014","{""confidence"":1}","[0]","survey-likert","292","710651","0.0-292.0","h4aexfks","","","","","","","",""
"","","","call-function","293","710651","0.0-293.0","h4aexfks","","","","","","","",""
"null","","","html-keyboard-response","294","712152","0.0-294.0","h4aexfks","","<span style=""color:Black; font-size:50px;"">Agent A","null","","","","",""
"null","","","video-keyboard-response","295","715231","0.0-295.0","h4aexfks","","","null","","Agent A","scrambled","STIM_SET_1/713666.bmp_pp97_L3_V1.0_scrambled_freeview_isoFalse.mp4",""
"null","","","html-keyboard-response","296","716735","0.0-296.0","h4aexfks","","<span style=""color:Black; font-size:50px;"">Agent B","null","","","","",""
"null","","","video-keyboard-response","297","719814","0.0-297.0","h4aexfks","","","null","","Agent B","veridical","STIM_SET_1/713666.bmp_pp97_L3_V1.0_veridical_freeview_isoFalse.mp4",""
"","","","call-function","298","719814","0.0-298.0","h4aexfks","","","","","","","",""
"1991.640000000014","{""judgement"":1}","[0]","survey-likert","299","721807","0.0-299.0","h4aexfks","","","","","","","","1"
"4021.060000000056","{""confidence"":1}","[0]","survey-likert","300","725829","0.0-300.0","h4aexfks","","","","","","","",""
"","","","call-function","301","725830","0.0-301.0","h4aexfks","","","","","","","",""
"null","","","html-keyboard-response","302","727335","0.0-302.0","h4aexfks","","<span style=""color:Black; font-size:50px;"">Agent A","null","","","","",""
"null","","","video-keyboard-response","303","730396","0.0-303.0","h4aexfks","","","null","","Agent A","veridical","STIM_SET_1/713684.bmp_pp85_L3_V1.0_veridical_freeview_isoFalse.mp4",""
"null","","","html-keyboard-response","304","731902","0.0-304.0","h4aexfks","","<span style=""color:Black; font-size:50px;"">Agent B","null","","","","",""
"null","","","video-keyboard-response","305","734960","0.0-305.0","h4aexfks","","","null","","Agent B","scrambled","STIM_SET_1/713684.bmp_pp85_L3_V1.0_scrambled_freeview_isoFalse.mp4",""
"","","","call-function","306","734960","0.0-306.0","h4aexfks","","","","","","","",""
"2399.6750000000466","{""judgement"":0}","[0]","survey-likert","307","737361","0.0-307.0","h4aexfks","","","","","","","","0"
"2204.7449999999953","{""confidence"":0}","[0]","survey-likert","308","739567","0.0-308.0","h4aexfks","","","","","","","",""
"","","","call-function","309","739567","0.0-309.0","h4aexfks","","","","","","","",""
"null","","","html-keyboard-response","310","741070","0.0-310.0","h4aexfks","","<span style=""color:Black; font-size:50px;"">Agent A","null","","","","",""
"null","","","video-keyboard-response","311","744189","0.0-311.0","h4aexfks","","","null","","Agent A","veridical","STIM_SET_1/1591876.bmp_pp63_L1_V1.0_veridical_freeview_isoFalse.mp4",""
"null","","","html-keyboard-response","312","745694","0.0-312.0","h4aexfks","","<span style=""color:Black; font-size:50px;"">Agent B","null","","","","",""
"null","","","video-keyboard-response","313","748774","0.0-313.0","h4aexfks","","","null","","Agent B","scrambled","STIM_SET_1/1591876.bmp_pp63_L1_V1.0_scrambled_freeview_isoFalse.mp4",""
"","","","call-function","314","748775","0.0-314.0","h4aexfks","","","","","","","",""
"1424.5050000000047","{""judgement"":1}","[0]","survey-likert","315","750201","0.0-315.0","h4aexfks","","","","","","","","0"
"1248.7550000000047","{""confidence"":1}","[0]","survey-likert","316","751451","0.0-316.0","h4aexfks","","","","","","","",""
"","","","call-function","317","751452","0.0-317.0","h4aexfks","","","","","","","",""
"null","","","html-keyboard-response","318","752954","0.0-318.0","h4aexfks","","<span style=""color:Black; font-size:50px;"">Agent A","null","","","","",""
"null","","","video-keyboard-response","319","756034","0.0-319.0","h4aexfks","","","null","","Agent A","veridical","STIM_SET_1/1159855.bmp_pp99_L2_V1.0_veridical_freeview_isoFalse.mp4",""
"null","","","html-keyboard-response","320","757537","0.0-320.0","h4aexfks","","<span style=""color:Black; font-size:50px;"">Agent B","null","","","","",""
"null","","","video-keyboard-response","321","760614","0.0-321.0","h4aexfks","","","null","","Agent B","scrambled","STIM_SET_1/1159855.bmp_pp99_L2_V1.0_scrambled_freeview_isoFalse.mp4",""
"","","","call-function","322","760615","0.0-322.0","h4aexfks","","","","","","","",""
"3758.4899999999907","{""judgement"":1}","[0]","survey-likert","323","764374","0.0-323.0","h4aexfks","","","","","","","","0"
"1826.5549999999348","{""confidence"":0}","[0]","survey-likert","324","766202","0.0-324.0","h4aexfks","","","","","","","",""
"","","","call-function","325","766203","0.0-325.0","h4aexfks","","","","","","","",""
"null","","","html-keyboard-response","326","767707","0.0-326.0","h4aexfks","","<span style=""color:Black; font-size:50px;"">Agent A","null","","","","",""
"null","","","video-keyboard-response","327","770776","0.0-327.0","h4aexfks","","","null","","Agent A","veridical","STIM_SET_1/713681.bmp_pp86_L2_V1.0_veridical_freeview_isoFalse.mp4",""
"null","","","html-keyboard-response","328","772283","0.0-328.0","h4aexfks","","<span style=""color:Black; font-size:50px;"">Agent B","null","","","","",""
"null","","","video-keyboard-response","329","775356","0.0-329.0","h4aexfks","","","null","","Agent B","scrambled","STIM_SET_1/713681.bmp_pp86_L2_V1.0_scrambled_freeview_isoFalse.mp4",""
"","","","call-function","330","775357","0.0-330.0","h4aexfks","","","","","","","",""
"2728.5","{""judgement"":1}","[0]","survey-likert","331","778086","0.0-331.0","h4aexfks","","","","","","","","0"
"1701.0850000000792","{""confidence"":0}","[0]","survey-likert","332","779788","0.0-332.0","h4aexfks","","","","","","","",""
"59218.185000000056","","","instructions","333","839007","0.0-333.0","h4aexfks","[{""page_index"":0,""viewing_time"":1158.015000000014},{""page_index"":1,""viewing_time"":57519.29500000004},{""page_index"":2,""viewing_time"":540.7199999999721}]","","","","","","",""
"1435.5750000000698","","","instructions","334","840443","0.0-334.0","h4aexfks","[{""page_index"":0,""viewing_time"":412.2299999999814},{""page_index"":1,""viewing_time"":449.1600000000326},{""page_index"":2,""viewing_time"":573.9649999999674}]","","","","","","",""
"","","","call-function","335","840444","0.0-335.0","h4aexfks","","","","","","","",""
"null","","","html-keyboard-response","336","841947","0.0-336.0","h4aexfks","","<span style=""color:Black; font-size:50px;"">Agent A","null","","","","",""
"null","","","video-keyboard-response","337","845026","0.0-337.0","h4aexfks","","","null","","Agent A","veridical","STIM_SET_1/1159777.bmp_pp77_L3_V1.0_veridical_freeview_isoFalse.mp4",""
"null","","","html-keyboard-response","338","846530","0.0-338.0","h4aexfks","","<span style=""color:Black; font-size:50px;"">Agent B","null","","","","",""
"null","","","video-keyboard-response","339","849610","0.0-339.0","h4aexfks","","","null","","Agent B","scrambled","STIM_SET_1/1159777.bmp_pp77_L3_V1.0_scrambled_freeview_isoFalse.mp4",""
"","","","call-function","340","849610","0.0-340.0","h4aexfks","","","","","","","",""
"3506.679999999935","{""judgement"":0}","[0]","survey-likert","341","853118","0.0-341.0","h4aexfks","","","","","","","","0"
"1325.9400000000605","{""confidence"":1}","[0]","survey-likert","342","854445","0.0-342.0","h4aexfks","","","","","","","",""
"","","","call-function","343","854446","0.0-343.0","h4aexfks","","","","","","","",""
"null","","","html-keyboard-response","344","855952","0.0-344.0","h4aexfks","","<span style=""color:Black; font-size:50px;"">Agent A","null","","","","",""
"null","","","video-keyboard-response","345","859031","0.0-345.0","h4aexfks","","","null","","Agent A","scrambled","STIM_SET_1/1592807.bmp_pp68_L1_V1.0_scrambled_freeview_isoFalse.mp4",""
"null","","","html-keyboard-response","346","860535","0.0-346.0","h4aexfks","","<span style=""color:Black; font-size:50px;"">Agent B","null","","","","",""
"null","","","video-keyboard-response","347","863614","0.0-347.0","h4aexfks","","","null","","Agent B","veridical","STIM_SET_1/1592807.bmp_pp68_L1_V1.0_veridical_freeview_isoFalse.mp4",""
"","","","call-function","348","863614","0.0-348.0","h4aexfks","","","","","","","",""
"2020.0599999999395","{""judgement"":0}","[0]","survey-likert","349","865635","0.0-349.0","h4aexfks","","","","","","","","1"
"1908.0050000000047","{""confidence"":0}","[0]","survey-likert","350","867544","0.0-350.0","h4aexfks","","","","","","","",""
"","","","call-function","351","867545","0.0-351.0","h4aexfks","","","","","","","",""
"null","","","html-keyboard-response","352","869049","0.0-352.0","h4aexfks","","<span style=""color:Black; font-size:50px;"">Agent A","null","","","","",""
"null","","","video-keyboard-response","353","872166","0.0-353.0","h4aexfks","","","null","","Agent A","veridical","STIM_SET_1/1592804.bmp_pp91_L3_V1.0_veridical_freeview_isoFalse.mp4",""
"null","","","html-keyboard-response","354","873670","0.0-354.0","h4aexfks","","<span style=""color:Black; font-size:50px;"">Agent B","null","","","","",""
"null","","","video-keyboard-response","355","876792","0.0-355.0","h4aexfks","","","null","","Agent B","scrambled","STIM_SET_1/1592804.bmp_pp91_L3_V1.0_scrambled_freeview_isoFalse.mp4",""
"","","","call-function","356","876792","0.0-356.0","h4aexfks","","","","","","","",""
"1888.984999999986","{""judgement"":0}","[0]","survey-likert","357","878682","0.0-357.0","h4aexfks","","","","","","","","0"
"1713.4500000000698","{""confidence"":1}","[0]","survey-likert","358","880397","0.0-358.0","h4aexfks","","","","","","","",""
"","","","call-function","359","880397","0.0-359.0","h4aexfks","","","","","","","",""
"null","","","html-keyboard-response","360","881902","0.0-360.0","h4aexfks","","<span style=""color:Black; font-size:50px;"">Agent A","null","","","","",""
"null","","","video-keyboard-response","361","885019","0.0-361.0","h4aexfks","","","null","","Agent A","scrambled","STIM_SET_1/713749.bmp_pp88_L2_V1.0_scrambled_freeview_isoFalse.mp4",""
"null","","","html-keyboard-response","362","886525","0.0-362.0","h4aexfks","","<span style=""color:Black; font-size:50px;"">Agent B","null","","","","",""
"null","","","video-keyboard-response","363","889644","0.0-363.0","h4aexfks","","","null","","Agent B","veridical","STIM_SET_1/713749.bmp_pp88_L2_V1.0_veridical_freeview_isoFalse.mp4",""
"","","","call-function","364","889645","0.0-364.0","h4aexfks","","","","","","","",""
"2149.444999999949","{""judgement"":0}","[0]","survey-likert","365","891795","0.0-365.0","h4aexfks","","","","","","","","1"
"1904.2949999999255","{""confidence"":0}","[0]","survey-likert","366","893701","0.0-366.0","h4aexfks","","","","","","","",""
"","","","call-function","367","893701","0.0-367.0","h4aexfks","","","","","","","",""
"null","","","html-keyboard-response","368","895205","0.0-368.0","h4aexfks","","<span style=""color:Black; font-size:50px;"">Agent A","null","","","","",""
"null","","","video-keyboard-response","369","898290","0.0-369.0","h4aexfks","","","null","","Agent A","veridical","STIM_SET_1/1160168.bmp_pp53_L2_V1.0_veridical_freeview_isoFalse.mp4",""
"null","","","html-keyboard-response","370","899796","0.0-370.0","h4aexfks","","<span style=""color:Black; font-size:50px;"">Agent B","null","","","","",""
"null","","","video-keyboard-response","371","902925","0.0-371.0","h4aexfks","","","null","","Agent B","scrambled","STIM_SET_1/1160168.bmp_pp53_L2_V1.0_scrambled_freeview_isoFalse.mp4",""
"","","","call-function","372","902926","0.0-372.0","h4aexfks","","","","","","","",""
"1840.7449999999953","{""judgement"":1}","[0]","survey-likert","373","904767","0.0-373.0","h4aexfks","","","","","","","","0"
"1440.9799999999814","{""confidence"":1}","[0]","survey-likert","374","906209","0.0-374.0","h4aexfks","","","","","","","",""
"","","","call-function","375","906210","0.0-375.0","h4aexfks","","","","","","","",""
"null","","","html-keyboard-response","376","907713","0.0-376.0","h4aexfks","","<span style=""color:Black; font-size:50px;"">Agent A","null","","","","",""
"null","","","video-keyboard-response","377","910786","0.0-377.0","h4aexfks","","","null","","Agent A","scrambled","STIM_SET_1/1593041.bmp_pp58_L1_V1.0_scrambled_freeview_isoFalse.mp4",""
"null","","","html-keyboard-response","378","912291","0.0-378.0","h4aexfks","","<span style=""color:Black; font-size:50px;"">Agent B","null","","","","",""
"null","","","video-keyboard-response","379","915369","0.0-379.0","h4aexfks","","","null","","Agent B","veridical","STIM_SET_1/1593041.bmp_pp58_L1_V1.0_veridical_freeview_isoFalse.mp4",""
"","","","call-function","380","915369","0.0-380.0","h4aexfks","","","","","","","",""
"2336.3549999999814","{""judgement"":0}","[0]","survey-likert","381","917706","0.0-381.0","h4aexfks","","","","","","","","1"
"1374.0250000000233","{""confidence"":1}","[0]","survey-likert","382","919081","0.0-382.0","h4aexfks","","","","","","","",""
"","","","call-function","383","919082","0.0-383.0","h4aexfks","","","","","","","",""
"null","","","html-keyboard-response","384","920588","0.0-384.0","h4aexfks","","<span style=""color:Black; font-size:50px;"">Agent A","null","","","","",""
"null","","","video-keyboard-response","385","923658","0.0-385.0","h4aexfks","","","null","","Agent A","scrambled","STIM_SET_1/713089.bmp_pp60_L3_V1.0_scrambled_freeview_isoFalse.mp4",""
"null","","","html-keyboard-response","386","925164","0.0-386.0","h4aexfks","","<span style=""color:Black; font-size:50px;"">Agent B","null","","","","",""
"null","","","video-keyboard-response","387","928233","0.0-387.0","h4aexfks","","","null","","Agent B","veridical","STIM_SET_1/713089.bmp_pp60_L3_V1.0_veridical_freeview_isoFalse.mp4",""
"","","","call-function","388","928233","0.0-388.0","h4aexfks","","","","","","","",""
"1763.6450000000186","{""judgement"":1}","[0]","survey-likert","389","929998","0.0-389.0","h4aexfks","","","","","","","","1"
"1557.5650000000605","{""confidence"":2}","[0]","survey-likert","390","931556","0.0-390.0","h4aexfks","","","","","","","",""
"","","","call-function","391","931557","0.0-391.0","h4aexfks","","","","","","","",""
"null","","","html-keyboard-response","392","933058","0.0-392.0","h4aexfks","","<span style=""color:Black; font-size:50px;"">Agent A","null","","","","",""
"null","","","video-keyboard-response","393","936173","0.0-393.0","h4aexfks","","","null","","Agent A","scrambled","STIM_SET_1/712977.bmp_pp51_L1_V1.0_scrambled_freeview_isoFalse.mp4",""
"null","","","html-keyboard-response","394","937678","0.0-394.0","h4aexfks","","<span style=""color:Black; font-size:50px;"">Agent B","null","","","","",""
"null","","","video-keyboard-response","395","940796","0.0-395.0","h4aexfks","","","null","","Agent B","veridical","STIM_SET_1/712977.bmp_pp51_L1_V1.0_veridical_freeview_isoFalse.mp4",""
"","","","call-function","396","940796","0.0-396.0","h4aexfks","","","","","","","",""
"1839.795000000042","{""judgement"":1}","[0]","survey-likert","397","942637","0.0-397.0","h4aexfks","","","","","","","","1"
"2932.5650000000605","{""confidence"":0}","[0]","survey-likert","398","945572","0.0-398.0","h4aexfks","","","","","","","",""
"","","","call-function","399","945573","0.0-399.0","h4aexfks","","","","","","","",""
"null","","","html-keyboard-response","400","947080","0.0-400.0","h4aexfks","","<span style=""color:Black; font-size:50px;"">Agent A","null","","","","",""
"null","","","video-keyboard-response","401","950153","0.0-401.0","h4aexfks","","","null","","Agent A","scrambled","STIM_SET_1/1592286.bmp_pp52_L1_V1.0_scrambled_freeview_isoFalse.mp4",""
"null","","","html-keyboard-response","402","951657","0.0-402.0","h4aexfks","","<span style=""color:Black; font-size:50px;"">Agent B","null","","","","",""
"null","","","video-keyboard-response","403","954732","0.0-403.0","h4aexfks","","","null","","Agent B","veridical","STIM_SET_1/1592286.bmp_pp52_L1_V1.0_veridical_freeview_isoFalse.mp4",""
"","","","call-function","404","954733","0.0-404.0","h4aexfks","","","","","","","",""
"1791.5700000000652","{""judgement"":0}","[0]","survey-likert","405","956526","0.0-405.0","h4aexfks","","","","","","","","1"
"1891.0549999999348","{""confidence"":0}","[0]","survey-likert","406","958418","0.0-406.0","h4aexfks","","","","","","","",""
"","","","call-function","407","958419","0.0-407.0","h4aexfks","","","","","","","",""
"null","","","html-keyboard-response","408","959920","0.0-408.0","h4aexfks","","<span style=""color:Black; font-size:50px;"">Agent A","null","","","","",""
"null","","","video-keyboard-response","409","962986","0.0-409.0","h4aexfks","","","null","","Agent A","scrambled","STIM_SET_1/713779.bmp_pp152_L2_V1.0_scrambled_freeview_isoFalse.mp4",""
"null","","","html-keyboard-response","410","964489","0.0-410.0","h4aexfks","","<span style=""color:Black; font-size:50px;"">Agent B","null","","","","",""
"null","","","video-keyboard-response","411","967551","0.0-411.0","h4aexfks","","","null","","Agent B","veridical","STIM_SET_1/713779.bmp_pp152_L2_V1.0_veridical_freeview_isoFalse.mp4",""
"","","","call-function","412","967552","0.0-412.0","h4aexfks","","","","","","","",""
"3534.5350000000326","{""judgement"":1}","[0]","survey-likert","413","971088","0.0-413.0","h4aexfks","","","","","","","","1"
"1551.7550000000047","{""confidence"":0}","[0]","survey-likert","414","972641","0.0-414.0","h4aexfks","","","","","","","",""
"37353.625","","","instructions","415","1009995","0.0-415.0","h4aexfks","[{""page_index"":0,""viewing_time"":897.5100000000093},{""page_index"":1,""viewing_time"":35920.07500000007},{""page_index"":2,""viewing_time"":535.8800000000047}]","","","","","","",""
"1632.515000000014","","","instructions","416","1011628","0.0-416.0","h4aexfks","[{""page_index"":0,""viewing_time"":453.4800000000978},{""page_index"":1,""viewing_time"":667.0899999999674},{""page_index"":2,""viewing_time"":511.83499999996275}]","","","","","","",""
"","","","call-function","417","1011629","0.0-417.0","h4aexfks","","","","","","","",""
"null","","","html-keyboard-response","418","1013133","0.0-418.0","h4aexfks","","<span style=""color:Black; font-size:50px;"">Agent A","null","","","","",""
"null","","","video-keyboard-response","419","1016206","0.0-419.0","h4aexfks","","","null","","Agent A","scrambled","STIM_SET_1/1592362.bmp_pp95_L2_V1.0_scrambled_freeview_isoFalse.mp4",""
"null","","","html-keyboard-response","420","1017709","0.0-420.0","h4aexfks","","<span style=""color:Black; font-size:50px;"">Agent B","null","","","","",""
"null","","","video-keyboard-response","421","1020781","0.0-421.0","h4aexfks","","","null","","Agent B","veridical","STIM_SET_1/1592362.bmp_pp95_L2_V1.0_veridical_freeview_isoFalse.mp4",""
"","","","call-function","422","1020782","0.0-422.0","h4aexfks","","","","","","","",""
"1625.5650000000605","{""judgement"":0}","[0]","survey-likert","423","1022408","0.0-423.0","h4aexfks","","","","","","","","1"
"2094.75","{""confidence"":2}","[0]","survey-likert","424","1024504","0.0-424.0","h4aexfks","","","","","","","",""
"","","","call-function","425","1024504","0.0-425.0","h4aexfks","","","","","","","",""
"null","","","html-keyboard-response","426","1026007","0.0-426.0","h4aexfks","","<span style=""color:Black; font-size:50px;"">Agent A","null","","","","",""
"null","","","video-keyboard-response","427","1029087","0.0-427.0","h4aexfks","","","null","","Agent A","scrambled","STIM_SET_1/1591954.bmp_pp62_L2_V1.0_scrambled_freeview_isoFalse.mp4",""
"null","","","html-keyboard-response","428","1030590","0.0-428.0","h4aexfks","","<span style=""color:Black; font-size:50px;"">Agent B","null","","","","",""
"null","","","video-keyboard-response","429","1033672","0.0-429.0","h4aexfks","","","null","","Agent B","veridical","STIM_SET_1/1591954.bmp_pp62_L2_V1.0_veridical_freeview_isoFalse.mp4",""
"","","","call-function","430","1033672","0.0-430.0","h4aexfks","","","","","","","",""
"1549.4599999999627","{""judgement"":1}","[0]","survey-likert","431","1035223","0.0-431.0","h4aexfks","","","","","","","","1"
"2351.8800000000047","{""confidence"":1}","[0]","survey-likert","432","1037576","0.0-432.0","h4aexfks","","","","","","","",""
"","","","call-function","433","1037576","0.0-433.0","h4aexfks","","","","","","","",""
"null","","","html-keyboard-response","434","1039078","0.0-434.0","h4aexfks","","<span style=""color:Black; font-size:50px;"">Agent A","null","","","","",""
"null","","","video-keyboard-response","435","1042191","0.0-435.0","h4aexfks","","","null","","Agent A","scrambled","STIM_SET_1/1159882.bmp_pp61_L2_V1.0_scrambled_freeview_isoFalse.mp4",""
"null","","","html-keyboard-response","436","1043694","0.0-436.0","h4aexfks","","<span style=""color:Black; font-size:50px;"">Agent B","null","","","","",""
"null","","","video-keyboard-response","437","1046803","0.0-437.0","h4aexfks","","","null","","Agent B","veridical","STIM_SET_1/1159882.bmp_pp61_L2_V1.0_veridical_freeview_isoFalse.mp4",""
"","","","call-function","438","1046804","0.0-438.0","h4aexfks","","","","","","","",""
"1968.7499999998836","{""judgement"":0}","[0]","survey-likert","439","1048774","0.0-439.0","h4aexfks","","","","","","","","1"
"1536.7299999999814","{""confidence"":1}","[0]","survey-likert","440","1050312","0.0-440.0","h4aexfks","","","","","","","",""
"","","","call-function","441","1050312","0.0-441.0","h4aexfks","","","","","","","",""
"null","","","html-keyboard-response","442","1051816","0.0-442.0","h4aexfks","","<span style=""color:Black; font-size:50px;"">Agent A","null","","","","",""
"null","","","video-keyboard-response","443","1054902","0.0-443.0","h4aexfks","","","null","","Agent A","scrambled","STIM_SET_1/1591994.bmp_pp69_L3_V1.0_scrambled_freeview_isoFalse.mp4",""
"null","","","html-keyboard-response","444","1056409","0.0-444.0","h4aexfks","","<span style=""color:Black; font-size:50px;"">Agent B","null","","","","",""
"null","","","video-keyboard-response","445","1059494","0.0-445.0","h4aexfks","","","null","","Agent B","veridical","STIM_SET_1/1591994.bmp_pp69_L3_V1.0_veridical_freeview_isoFalse.mp4",""
"","","","call-function","446","1059495","0.0-446.0","h4aexfks","","","","","","","",""
"2747.8549999999814","{""judgement"":0}","[0]","survey-likert","447","1062244","0.0-447.0","h4aexfks","","","","","","","","1"
"1909.8950000000186","{""confidence"":0}","[0]","survey-likert","448","1064155","0.0-448.0","h4aexfks","","","","","","","",""
"","","","call-function","449","1064155","0.0-449.0","h4aexfks","","","","","","","",""
"null","","","html-keyboard-response","450","1065658","0.0-450.0","h4aexfks","","<span style=""color:Black; font-size:50px;"">Agent A","null","","","","",""
"null","","","video-keyboard-response","451","1068758","0.0-451.0","h4aexfks","","","null","","Agent A","scrambled","STIM_SET_1/1592727.bmp_pp59_L3_V1.0_scrambled_freeview_isoFalse.mp4",""
"null","","","html-keyboard-response","452","1070262","0.0-452.0","h4aexfks","","<span style=""color:Black; font-size:50px;"">Agent B","null","","","","",""
"null","","","video-keyboard-response","453","1073362","0.0-453.0","h4aexfks","","","null","","Agent B","veridical","STIM_SET_1/1592727.bmp_pp59_L3_V1.0_veridical_freeview_isoFalse.mp4",""
"","","","call-function","454","1073362","0.0-454.0","h4aexfks","","","","","","","",""
"1945.755000000121","{""judgement"":1}","[0]","survey-likert","455","1075309","0.0-455.0","h4aexfks","","","","","","","","1"
"1280.8950000000186","{""confidence"":2}","[0]","survey-likert","456","1076591","0.0-456.0","h4aexfks","","","","","","","",""
"","","","call-function","457","1076591","0.0-457.0","h4aexfks","","","","","","","",""
"null","","","html-keyboard-response","458","1078095","0.0-458.0","h4aexfks","","<span style=""color:Black; font-size:50px;"">Agent A","null","","","","",""
"null","","","video-keyboard-response","459","1081160","0.0-459.0","h4aexfks","","","null","","Agent A","scrambled","STIM_SET_1/286001.bmp_pp54_L2_V1.0_scrambled_freeview_isoFalse.mp4",""
"null","","","html-keyboard-response","460","1082663","0.0-460.0","h4aexfks","","<span style=""color:Black; font-size:50px;"">Agent B","null","","","","",""
"null","","","video-keyboard-response","461","1085730","0.0-461.0","h4aexfks","","","null","","Agent B","veridical","STIM_SET_1/286001.bmp_pp54_L2_V1.0_veridical_freeview_isoFalse.mp4",""
"","","","call-function","462","1085730","0.0-462.0","h4aexfks","","","","","","","",""
"1899.4499999999534","{""judgement"":1}","[0]","survey-likert","463","1087631","0.0-463.0","h4aexfks","","","","","","","","1"
"1758.7900000000373","{""confidence"":0}","[0]","survey-likert","464","1089391","0.0-464.0","h4aexfks","","","","","","","",""
"","","","call-function","465","1089391","0.0-465.0","h4aexfks","","","","","","","",""
"null","","","html-keyboard-response","466","1090896","0.0-466.0","h4aexfks","","<span style=""color:Black; font-size:50px;"">Agent A","null","","","","",""
"null","","","video-keyboard-response","467","1093967","0.0-467.0","h4aexfks","","","null","","Agent A","scrambled","STIM_SET_1/1159768.bmp_pp89_L1_V1.0_scrambled_freeview_isoFalse.mp4",""
"null","","","html-keyboard-response","468","1095471","0.0-468.0","h4aexfks","","<span style=""color:Black; font-size:50px;"">Agent B","null","","","","",""
"null","","","video-keyboard-response","469","1098543","0.0-469.0","h4aexfks","","","null","","Agent B","veridical","STIM_SET_1/1159768.bmp_pp89_L1_V1.0_veridical_freeview_isoFalse.mp4",""
"","","","call-function","470","1098544","0.0-470.0","h4aexfks","","","","","","","",""
"2096.2700000000186","{""judgement"":1}","[0]","survey-likert","471","1100641","0.0-471.0","h4aexfks","","","","","","","","1"
"3076.4899999999907","{""confidence"":1}","[0]","survey-likert","472","1103719","0.0-472.0","h4aexfks","","","","","","","",""
"","","","call-function","473","1103719","0.0-473.0","h4aexfks","","","","","","","",""
"null","","","html-keyboard-response","474","1105223","0.0-474.0","h4aexfks","","<span style=""color:Black; font-size:50px;"">Agent A","null","","","","",""
"null","","","video-keyboard-response","475","1108307","0.0-475.0","h4aexfks","","","null","","Agent A","scrambled","STIM_SET_1/713707.bmp_pp154_L1_V1.0_scrambled_freeview_isoFalse.mp4",""
"null","","","html-keyboard-response","476","1109808","0.0-476.0","h4aexfks","","<span style=""color:Black; font-size:50px;"">Agent B","null","","","","",""
"null","","","video-keyboard-response","477","1112940","0.0-477.0","h4aexfks","","","null","","Agent B","veridical","STIM_SET_1/713707.bmp_pp154_L1_V1.0_veridical_freeview_isoFalse.mp4",""
"","","","call-function","478","1112941","0.0-478.0","h4aexfks","","","","","","","",""
"1853.7600000000093","{""judgement"":0}","[0]","survey-likert","479","1114796","0.0-479.0","h4aexfks","","","","","","","","1"
"2223.030000000028","{""confidence"":0}","[0]","survey-likert","480","1117021","0.0-480.0","h4aexfks","","","","","","","",""
"","","","call-function","481","1117022","0.0-481.0","h4aexfks","","","","","","","",""
"null","","","html-keyboard-response","482","1118526","0.0-482.0","h4aexfks","","<span style=""color:Black; font-size:50px;"">Agent A","null","","","","",""
"null","","","video-keyboard-response","483","1121602","0.0-483.0","h4aexfks","","","null","","Agent A","veridical","STIM_SET_1/713593.bmp_pp64_L1_V1.0_veridical_freeview_isoFalse.mp4",""
"null","","","html-keyboard-response","484","1123106","0.0-484.0","h4aexfks","","<span style=""color:Black; font-size:50px;"">Agent B","null","","","","",""
"null","","","video-keyboard-response","485","1126186","0.0-485.0","h4aexfks","","","null","","Agent B","scrambled","STIM_SET_1/713593.bmp_pp64_L1_V1.0_scrambled_freeview_isoFalse.mp4",""
"","","","call-function","486","1126187","0.0-486.0","h4aexfks","","","","","","","",""
"1663.7099999999627","{""judgement"":0}","[0]","survey-likert","487","1127851","0.0-487.0","h4aexfks","","","","","","","","0"
"1619.4399999999441","{""confidence"":2}","[0]","survey-likert","488","1129472","0.0-488.0","h4aexfks","","","","","","","",""
"","","","call-function","489","1129473","0.0-489.0","h4aexfks","","","","","","","",""
"null","","","html-keyboard-response","490","1130979","0.0-490.0","h4aexfks","","<span style=""color:Black; font-size:50px;"">Agent A","null","","","","",""
"null","","","video-keyboard-response","491","1134060","0.0-491.0","h4aexfks","","","null","","Agent A","veridical","STIM_SET_1/1592372.bmp_pp76_L1_V1.0_veridical_freeview_isoFalse.mp4",""
"null","","","html-keyboard-response","492","1135564","0.0-492.0","h4aexfks","","<span style=""color:Black; font-size:50px;"">Agent B","null","","","","",""
"null","","","video-keyboard-response","493","1138641","0.0-493.0","h4aexfks","","","null","","Agent B","scrambled","STIM_SET_1/1592372.bmp_pp76_L1_V1.0_scrambled_freeview_isoFalse.mp4",""
"","","","call-function","494","1138642","0.0-494.0","h4aexfks","","","","","","","",""
"1662.505000000121","{""judgement"":0}","[0]","survey-likert","495","1140305","0.0-495.0","h4aexfks","","","","","","","","0"
"1482.875","{""confidence"":2}","[0]","survey-likert","496","1141789","0.0-496.0","h4aexfks","","","","","","","",""
"45421.12999999989","","","instructions","497","1187211","0.0-497.0","h4aexfks","[{""page_index"":0,""viewing_time"":1014.9950000001118},{""page_index"":1,""viewing_time"":43693.875},{""page_index"":2,""viewing_time"":712.1049999999814}]","","","","","","",""
"2141.505000000121","","","instructions","498","1189353","0.0-498.0","h4aexfks","[{""page_index"":0,""viewing_time"":713.410000000149},{""page_index"":1,""viewing_time"":593.9050000000279},{""page_index"":2,""viewing_time"":833.9099999999162}]","","","","","","",""
"","","","call-function","499","1189354","0.0-499.0","h4aexfks","","","","","","","",""
"null","","","html-keyboard-response","500","1190855","0.0-500.0","h4aexfks","","<span style=""color:Black; font-size:50px;"">Agent A","null","","","","",""
"null","","","video-keyboard-response","501","1193937","0.0-501.0","h4aexfks","","","null","","Agent A","veridical","STIM_SET_1/1159675.bmp_pp77_L3_V1.0_veridical_freeview_isoFalse.mp4",""
"null","","","html-keyboard-response","502","1195441","0.0-502.0","h4aexfks","","<span style=""color:Black; font-size:50px;"">Agent B","null","","","","",""
"null","","","video-keyboard-response","503","1198521","0.0-503.0","h4aexfks","","","null","","Agent B","scrambled","STIM_SET_1/1159675.bmp_pp77_L3_V1.0_scrambled_freeview_isoFalse.mp4",""
"","","","call-function","504","1198522","0.0-504.0","h4aexfks","","","","","","","",""
"1577.3850000000093","{""judgement"":0}","[0]","survey-likert","505","1200100","0.0-505.0","h4aexfks","","","","","","","","0"
"1415.7000000001863","{""confidence"":1}","[0]","survey-likert","506","1201517","0.0-506.0","h4aexfks","","","","","","","",""
"","","","call-function","507","1201518","0.0-507.0","h4aexfks","","","","","","","",""
"null","","","html-keyboard-response","508","1203019","0.0-508.0","h4aexfks","","<span style=""color:Black; font-size:50px;"">Agent A","null","","","","",""
"null","","","video-keyboard-response","509","1206098","0.0-509.0","h4aexfks","","","null","","Agent A","scrambled","STIM_SET_1/498253.bmp_pp67_L2_V1.0_scrambled_freeview_isoFalse.mp4",""
"null","","","html-keyboard-response","510","1207602","0.0-510.0","h4aexfks","","<span style=""color:Black; font-size:50px;"">Agent B","null","","","","",""
"null","","","video-keyboard-response","511","1210681","0.0-511.0","h4aexfks","","","null","","Agent B","veridical","STIM_SET_1/498253.bmp_pp67_L2_V1.0_veridical_freeview_isoFalse.mp4",""
"","","","call-function","512","1210682","0.0-512.0","h4aexfks","","","","","","","",""
"1538.625","{""judgement"":1}","[0]","survey-likert","513","1212221","0.0-513.0","h4aexfks","","","","","","","","1"
"1309.7150000000838","{""confidence"":1}","[0]","survey-likert","514","1213532","0.0-514.0","h4aexfks","","","","","","","",""
"","","","call-function","515","1213533","0.0-515.0","h4aexfks","","","","","","","",""
"null","","","html-keyboard-response","516","1215038","0.0-516.0","h4aexfks","","<span style=""color:Black; font-size:50px;"">Agent A","null","","","","",""
"null","","","video-keyboard-response","517","1218143","0.0-517.0","h4aexfks","","","null","","Agent A","scrambled","STIM_SET_1/498149.bmp_pp99_L2_V1.0_scrambled_freeview_isoFalse.mp4",""
"null","","","html-keyboard-response","518","1219649","0.0-518.0","h4aexfks","","<span style=""color:Black; font-size:50px;"">Agent B","null","","","","",""
"null","","","video-keyboard-response","519","1222754","0.0-519.0","h4aexfks","","","null","","Agent B","veridical","STIM_SET_1/498149.bmp_pp99_L2_V1.0_veridical_freeview_isoFalse.mp4",""
"","","","call-function","520","1222754","0.0-520.0","h4aexfks","","","","","","","",""
"1796.9450000000652","{""judgement"":1}","[0]","survey-likert","521","1224552","0.0-521.0","h4aexfks","","","","","","","","1"
"5767.074999999953","{""confidence"":2}","[0]","survey-likert","522","1230320","0.0-522.0","h4aexfks","","","","","","","",""
"","","","call-function","523","1230321","0.0-523.0","h4aexfks","","","","","","","",""
"null","","","html-keyboard-response","524","1231821","0.0-524.0","h4aexfks","","<span style=""color:Black; font-size:50px;"">Agent A","null","","","","",""
"null","","","video-keyboard-response","525","1234946","0.0-525.0","h4aexfks","","","null","","Agent A","scrambled","STIM_SET_1/285905.bmp_pp57_L1_V1.0_scrambled_freeview_isoFalse.mp4",""
"null","","","html-keyboard-response","526","1236447","0.0-526.0","h4aexfks","","<span style=""color:Black; font-size:50px;"">Agent B","null","","","","",""
"null","","","video-keyboard-response","527","1239569","0.0-527.0","h4aexfks","","","null","","Agent B","veridical","STIM_SET_1/285905.bmp_pp57_L1_V1.0_veridical_freeview_isoFalse.mp4",""
"","","","call-function","528","1239569","0.0-528.0","h4aexfks","","","","","","","",""
"2395.2399999999907","{""judgement"":1}","[0]","survey-likert","529","1241965","0.0-529.0","h4aexfks","","","","","","","","1"
"1262.8200000000652","{""confidence"":2}","[0]","survey-likert","530","1243229","0.0-530.0","h4aexfks","","","","","","","",""
"","","","call-function","531","1243230","0.0-531.0","h4aexfks","","","","","","","",""
"null","","","html-keyboard-response","532","1244731","0.0-532.0","h4aexfks","","<span style=""color:Black; font-size:50px;"">Agent A","null","","","","",""
"null","","","video-keyboard-response","533","1247836","0.0-533.0","h4aexfks","","","null","","Agent A","scrambled","STIM_SET_1/713403.bmp_pp80_L3_V1.0_scrambled_freeview_isoFalse.mp4",""
"null","","","html-keyboard-response","534","1249342","0.0-534.0","h4aexfks","","<span style=""color:Black; font-size:50px;"">Agent B","null","","","","",""
"null","","","video-keyboard-response","535","1252447","0.0-535.0","h4aexfks","","","null","","Agent B","veridical","STIM_SET_1/713403.bmp_pp80_L3_V1.0_veridical_freeview_isoFalse.mp4",""
"","","","call-function","536","1252447","0.0-536.0","h4aexfks","","","","","","","",""
"1531.3000000000466","{""judgement"":1}","[0]","survey-likert","537","1253979","0.0-537.0","h4aexfks","","","","","","","","1"
"1727.9399999999441","{""confidence"":2}","[0]","survey-likert","538","1255708","0.0-538.0","h4aexfks","","","","","","","",""
"","","","call-function","539","1255709","0.0-539.0","h4aexfks","","","","","","","",""
"null","","","html-keyboard-response","540","1257211","0.0-540.0","h4aexfks","","<span style=""color:Black; font-size:50px;"">Agent A","null","","","","",""
"null","","","video-keyboard-response","541","1260278","0.0-541.0","h4aexfks","","","null","","Agent A","veridical","STIM_SET_1/498170.bmp_pp153_L3_V1.0_veridical_freeview_isoFalse.mp4",""
"null","","","html-keyboard-response","542","1261783","0.0-542.0","h4aexfks","","<span style=""color:Black; font-size:50px;"">Agent B","null","","","","",""
"null","","","video-keyboard-response","543","1264853","0.0-543.0","h4aexfks","","","null","","Agent B","scrambled","STIM_SET_1/498170.bmp_pp153_L3_V1.0_scrambled_freeview_isoFalse.mp4",""
"","","","call-function","544","1264853","0.0-544.0","h4aexfks","","","","","","","",""
"2404.005000000121","{""judgement"":0}","[0]","survey-likert","545","1267258","0.0-545.0","h4aexfks","","","","","","","","0"
"2692.320000000065","{""confidence"":1}","[0]","survey-likert","546","1269952","0.0-546.0","h4aexfks","","","","","","","",""
"","","","call-function","547","1269952","0.0-547.0","h4aexfks","","","","","","","",""
"null","","","html-keyboard-response","548","1271459","0.0-548.0","h4aexfks","","<span style=""color:Black; font-size:50px;"">Agent A","null","","","","",""
"null","","","video-keyboard-response","549","1274528","0.0-549.0","h4aexfks","","","null","","Agent A","veridical","STIM_SET_1/1159572.bmp_pp71_L1_V1.0_veridical_freeview_isoFalse.mp4",""
"null","","","html-keyboard-response","550","1276032","0.0-550.0","h4aexfks","","<span style=""color:Black; font-size:50px;"">Agent B","null","","","","",""
"null","","","video-keyboard-response","551","1279100","0.0-551.0","h4aexfks","","","null","","Agent B","scrambled","STIM_SET_1/1159572.bmp_pp71_L1_V1.0_scrambled_freeview_isoFalse.mp4",""
"","","","call-function","552","1279100","0.0-552.0","h4aexfks","","","","","","","",""
"1569.0600000000559","{""judgement"":0}","[0]","survey-likert","553","1280671","0.0-553.0","h4aexfks","","","","","","","","0"
"2019.5749999999534","{""confidence"":2}","[0]","survey-likert","554","1282692","0.0-554.0","h4aexfks","","","","","","","",""
"","","","call-function","555","1282692","0.0-555.0","h4aexfks","","","","","","","",""
"null","","","html-keyboard-response","556","1284196","0.0-556.0","h4aexfks","","<span style=""color:Black; font-size:50px;"">Agent A","null","","","","",""
"null","","","video-keyboard-response","557","1287306","0.0-557.0","h4aexfks","","","null","","Agent A","scrambled","STIM_SET_1/1592133.bmp_pp75_L1_V1.0_scrambled_freeview_isoFalse.mp4",""
"null","","","html-keyboard-response","558","1288811","0.0-558.0","h4aexfks","","<span style=""color:Black; font-size:50px;"">Agent B","null","","","","",""
"null","","","video-keyboard-response","559","1291884","0.0-559.0","h4aexfks","","","null","","Agent B","veridical","STIM_SET_1/1592133.bmp_pp75_L1_V1.0_veridical_freeview_isoFalse.mp4",""
"","","","call-function","560","1291885","0.0-560.0","h4aexfks","","","","","","","",""
"2832.7900000000373","{""judgement"":0}","[0]","survey-likert","561","1294719","0.0-561.0","h4aexfks","","","","","","","","1"
"1198.9650000000838","{""confidence"":1}","[0]","survey-likert","562","1295921","0.0-562.0","h4aexfks","","","","","","","",""
"","","","call-function","563","1295922","0.0-563.0","h4aexfks","","","","","","","",""
"null","","","html-keyboard-response","564","1297424","0.0-564.0","h4aexfks","","<span style=""color:Black; font-size:50px;"">Agent A","null","","","","",""
"null","","","video-keyboard-response","565","1300490","0.0-565.0","h4aexfks","","","null","","Agent A","scrambled","STIM_SET_1/713760.bmp_pp81_L1_V1.0_scrambled_freeview_isoFalse.mp4",""
"null","","","html-keyboard-response","566","1301993","0.0-566.0","h4aexfks","","<span style=""color:Black; font-size:50px;"">Agent B","null","","","","",""
"null","","","video-keyboard-response","567","1305054","0.0-567.0","h4aexfks","","","null","","Agent B","veridical","STIM_SET_1/713760.bmp_pp81_L1_V1.0_veridical_freeview_isoFalse.mp4",""
"","","","call-function","568","1305055","0.0-568.0","h4aexfks","","","","","","","",""
"1975.869999999879","{""judgement"":1}","[0]","survey-likert","569","1307032","0.0-569.0","h4aexfks","","","","","","","","1"
"1454.5200000000186","{""confidence"":1}","[0]","survey-likert","570","1308488","0.0-570.0","h4aexfks","","","","","","","",""
"","","","call-function","571","1308488","0.0-571.0","h4aexfks","","","","","","","",""
"null","","","html-keyboard-response","572","1309991","0.0-572.0","h4aexfks","","<span style=""color:Black; font-size:50px;"">Agent A","null","","","","",""
"null","","","video-keyboard-response","573","1313074","0.0-573.0","h4aexfks","","","null","","Agent A","veridical","STIM_SET_1/713211.bmp_pp100_L3_V1.0_veridical_freeview_isoFalse.mp4",""
"null","","","html-keyboard-response","574","1314576","0.0-574.0","h4aexfks","","<span style=""color:Black; font-size:50px;"">Agent B","null","","","","",""
"null","","","video-keyboard-response","575","1317655","0.0-575.0","h4aexfks","","","null","","Agent B","scrambled","STIM_SET_1/713211.bmp_pp100_L3_V1.0_scrambled_freeview_isoFalse.mp4",""
"","","","call-function","576","1317655","0.0-576.0","h4aexfks","","","","","","","",""
"1937.6799999999348","{""judgement"":0}","[0]","survey-likert","577","1319594","0.0-577.0","h4aexfks","","","","","","","","0"
"1403.1850000000559","{""confidence"":2}","[0]","survey-likert","578","1320998","0.0-578.0","h4aexfks","","","","","","","",""
"1127.5649999999441","","","instructions","579","1322126","0.0-579.0","h4aexfks","[{""page_index"":0,""viewing_time"":1127.405000000028}]","","","","","","",""
"1233.7050000000745","","","instructions","580","1323360","0.0-580.0","h4aexfks","[{""page_index"":0,""viewing_time"":1233.4950000001118}]","","","","","","",""
"11126.819999999832","{""post-1"":2}","[0]","survey-likert","581","1334488","0.0-581.0","h4aexfks","","","","","","","",""
"2849.7700000000186","{""post-1"":1}","[0]","survey-likert","582","1337339","0.0-582.0","h4aexfks","","","","","","","",""
"7346.130000000121","{""post-2"":2}","[0]","survey-likert","583","1344687","0.0-583.0","h4aexfks","","","","","","","",""
"8249.76000000001","{""post-2"":1}","[0]","survey-likert","584","1352938","0.0-584.0","h4aexfks","","","","","","","",""
"4383.590000000084","{""post-3"":2}","[0]","survey-likert","585","1357322","0.0-585.0","h4aexfks","","","","","","","",""
"2128.1450000000186","{""post-3"":0}","[0]","survey-likert","586","1359452","0.0-586.0","h4aexfks","","","","","","","",""
"3893.7349999998696","{""post-4"":2}","[0]","survey-likert","587","1363347","0.0-587.0","h4aexfks","","","","","","","",""
"1950.9250000000466","{""post-4"":0}","[0]","survey-likert","588","1365299","0.0-588.0","h4aexfks","","","","","","","",""
"5595.195000000065","{""post-5"":1}","[0]","survey-likert","589","1370896","0.0-589.0","h4aexfks","","","","","","","",""
"2592.475000000093","{""post-5"":2}","[0]","survey-likert","590","1373490","0.0-590.0","h4aexfks","","","","","","","",""
"39733.125","{""Q0"":""This experiment felt easier compared to the one with the black background since the context was important.""}","","survey-text","591","1413229","0.0-591.0","h4aexfks","","","","","","","",""
"64374.97500000009","{""Q0"":""I found it easiest to determine the human when I found myself looking in a similar pattern to the agent. Additionally, when the agent focused on the most important areas of the picture first, it seemed more natural.""}","","survey-text","592","1477607","0.0-592.0","h4aexfks","","","","","","","",""
"35123.625","{""Q0"":""For some pictures, both of the agents felt unnatural, so it was hard to determine.""}","","survey-text","593","1512734","0.0-593.0","h4aexfks","","","","","","","",""
"1030.369999999879","","","instructions","594","1513766","0.0-594.0","h4aexfks","[{""page_index"":0,""viewing_time"":1030.2099999999627}]","","","","","","",""
"35827.16500000004","{""Experimenter_end"":[""Printed ID# h4aexfks on consent form"",""Given subject SONA credit or payment"",""Given the subject debrief form""]}","[0]","survey-multi-select","595","1549596","0.0-595.0","h4aexfks","","","","","","","",""
