"rt","responses","question_order","trial_type","trial_index","time_elapsed","internal_node_id","ID","view_history","stimulus","key_press","value","agent","condition","image","correct_answer"
"8223.535","{""Experimenter"":[""Confirmed subject's identity"",""Confirmed normal or corrected-to-normal vision"",""Obtained consent (signature and date)"",""Checked the test room lighting"",""Checked computer screen lighting"",""Checked distance from screen to chin rest (50cm)"",""Cleaned and adjusted chin rest"",""Counterbalanced the order of the tasks"",""Opened the experiment in Firefox"",""Made the experiment full screen"",""Encouraged subject to silence phone, put away distractors, etc.""]}","[0]","survey-multi-select","0","8232","0.0-0.0","hflxzz25","","","","","","","",""
"15285.96","","","instructions","1","23519","0.0-1.0","hflxzz25","[{""page_index"":0,""viewing_time"":15285.36}]","","","","","","",""
"5958.040000000001","","","instructions","2","29479","0.0-2.0","hflxzz25","[{""page_index"":0,""viewing_time"":2244.7700000000004},{""page_index"":1,""viewing_time"":984.0099999999984},{""page_index"":2,""viewing_time"":2729.135000000002}]","","","","","","",""
"2848.9500000000007","","","instructions","3","32328","0.0-3.0","hflxzz25","[{""page_index"":0,""viewing_time"":2848.845000000001}]","","","","","","",""
"null","","","video-keyboard-response","4","35402","0.0-4.0","hflxzz25","","","null","","","","",""
"5318.369999999995","","","instructions","5","40720","0.0-5.0","hflxzz25","[{""page_index"":0,""viewing_time"":1597.3299999999945},{""page_index"":1,""viewing_time"":1197.895000000004},{""page_index"":2,""viewing_time"":2523.034999999996}]","","","","","","",""
"1869.7850000000035","","","instructions","6","42591","0.0-6.0","hflxzz25","[{""page_index"":0,""viewing_time"":1869.6800000000003}]","","","","","","",""
"1237.449999999997","","","instructions","7","43829","0.0-7.0","hflxzz25","[{""page_index"":0,""viewing_time"":1237.229999999996}]","","","","","","",""
"null","","","video-keyboard-response","8","46900","0.0-8.0","hflxzz25","","","null","","","","",""
"3745.864999999998","","","instructions","9","50647","0.0-9.0","hflxzz25","[{""page_index"":0,""viewing_time"":1086.7750000000015},{""page_index"":1,""viewing_time"":1300.8600000000006},{""page_index"":2,""viewing_time"":1358.0950000000012}]","","","","","","",""
"2679.5499999999956","","","instructions","10","53326","0.0-10.0","hflxzz25","[{""page_index"":0,""viewing_time"":2679.4300000000003}]","","","","","","",""
"","","","call-function","11","53327","0.0-11.0","hflxzz25","","","","","","","",""
"null","","","html-keyboard-response","12","54830","0.0-12.0","hflxzz25","","<span style=""color:Black; font-size:50px;"">Agent A","null","","","","",""
"null","","","video-keyboard-response","13","57898","0.0-13.0","hflxzz25","","","null","","Agent A","scrambled","STIM_SET_2/1592314.bmp_pp100_L3_V1.0_scrambled_freeview_isoTrue.mp4",""
"null","","","html-keyboard-response","14","59400","0.0-14.0","hflxzz25","","<span style=""color:Black; font-size:50px;"">Agent B","null","","","","",""
"null","","","video-keyboard-response","15","62468","0.0-15.0","hflxzz25","","","null","","Agent B","veridical","STIM_SET_2/1592314.bmp_pp100_L3_V1.0_veridical_freeview_isoTrue.mp4",""
"","","","call-function","16","62468","0.0-16.0","hflxzz25","","","","","","","",""
"2008.7250000000058","{""judgement"":0}","[0]","survey-likert","17","64478","0.0-17.0","hflxzz25","","","","","","","","1"
"1349.739999999998","{""confidence"":0}","[0]","survey-likert","18","65829","0.0-18.0","hflxzz25","","","","","","","",""
"","","","call-function","19","65829","0.0-19.0","hflxzz25","","","","","","","",""
"null","","","html-keyboard-response","20","67333","0.0-20.0","hflxzz25","","<span style=""color:Black; font-size:50px;"">Agent A","null","","","","",""
"null","","","video-keyboard-response","21","70440","0.0-21.0","hflxzz25","","","null","","Agent A","scrambled","STIM_SET_2/1159956.bmp_pp59_L3_V1.0_scrambled_freeview_isoTrue.mp4",""
"null","","","html-keyboard-response","22","71942","0.0-22.0","hflxzz25","","<span style=""color:Black; font-size:50px;"">Agent B","null","","","","",""
"null","","","video-keyboard-response","23","75040","0.0-23.0","hflxzz25","","","null","","Agent B","veridical","STIM_SET_2/1159956.bmp_pp59_L3_V1.0_veridical_freeview_isoTrue.mp4",""
"","","","call-function","24","75040","0.0-24.0","hflxzz25","","","","","","","",""
"1785.824999999997","{""judgement"":0}","[0]","survey-likert","25","76827","0.0-25.0","hflxzz25","","","","","","","","1"
"1913.729999999996","{""confidence"":0}","[0]","survey-likert","26","78742","0.0-26.0","hflxzz25","","","","","","","",""
"","","","call-function","27","78742","0.0-27.0","hflxzz25","","","","","","","",""
"null","","","html-keyboard-response","28","80244","0.0-28.0","hflxzz25","","<span style=""color:Black; font-size:50px;"">Agent A","null","","","","",""
"null","","","video-keyboard-response","29","83302","0.0-29.0","hflxzz25","","","null","","Agent A","veridical","STIM_SET_2/1159860.bmp_pp152_L2_V1.0_veridical_freeview_isoTrue.mp4",""
"null","","","html-keyboard-response","30","84804","0.0-30.0","hflxzz25","","<span style=""color:Black; font-size:50px;"">Agent B","null","","","","",""
"null","","","video-keyboard-response","31","87862","0.0-31.0","hflxzz25","","","null","","Agent B","scrambled","STIM_SET_2/1159860.bmp_pp152_L2_V1.0_scrambled_freeview_isoTrue.mp4",""
"","","","call-function","32","87863","0.0-32.0","hflxzz25","","","","","","","",""
"4216.524999999994","{""judgement"":1}","[0]","survey-likert","33","92080","0.0-33.0","hflxzz25","","","","","","","","0"
"2067.904999999999","{""confidence"":0}","[0]","survey-likert","34","94149","0.0-34.0","hflxzz25","","","","","","","",""
"","","","call-function","35","94150","0.0-35.0","hflxzz25","","","","","","","",""
"null","","","html-keyboard-response","36","95655","0.0-36.0","hflxzz25","","<span style=""color:Black; font-size:50px;"">Agent A","null","","","","",""
"null","","","video-keyboard-response","37","98725","0.0-37.0","hflxzz25","","","null","","Agent A","scrambled","STIM_SET_2/1592921.bmp_pp69_L3_V1.0_scrambled_freeview_isoTrue.mp4",""
"null","","","html-keyboard-response","38","100229","0.0-38.0","hflxzz25","","<span style=""color:Black; font-size:50px;"">Agent B","null","","","","",""
"null","","","video-keyboard-response","39","103334","0.0-39.0","hflxzz25","","","null","","Agent B","veridical","STIM_SET_2/1592921.bmp_pp69_L3_V1.0_veridical_freeview_isoTrue.mp4",""
"","","","call-function","40","103335","0.0-40.0","hflxzz25","","","","","","","",""
"2124.1800000000076","{""judgement"":1}","[0]","survey-likert","41","105460","0.0-41.0","hflxzz25","","","","","","","","1"
"1934.5699999999924","{""confidence"":0}","[0]","survey-likert","42","107396","0.0-42.0","hflxzz25","","","","","","","",""
"","","","call-function","43","107396","0.0-43.0","hflxzz25","","","","","","","",""
"null","","","html-keyboard-response","44","108901","0.0-44.0","hflxzz25","","<span style=""color:Black; font-size:50px;"">Agent A","null","","","","",""
"null","","","video-keyboard-response","45","111982","0.0-45.0","hflxzz25","","","null","","Agent A","veridical","STIM_SET_2/713742.bmp_pp91_L3_V1.0_veridical_freeview_isoTrue.mp4",""
"null","","","html-keyboard-response","46","113485","0.0-46.0","hflxzz25","","<span style=""color:Black; font-size:50px;"">Agent B","null","","","","",""
"null","","","video-keyboard-response","47","116591","0.0-47.0","hflxzz25","","","null","","Agent B","scrambled","STIM_SET_2/713742.bmp_pp91_L3_V1.0_scrambled_freeview_isoTrue.mp4",""
"","","","call-function","48","116591","0.0-48.0","hflxzz25","","","","","","","",""
"1737.6399999999994","{""judgement"":1}","[0]","survey-likert","49","118330","0.0-49.0","hflxzz25","","","","","","","","0"
"2415.0800000000017","{""confidence"":0}","[0]","survey-likert","50","120746","0.0-50.0","hflxzz25","","","","","","","",""
"","","","call-function","51","120746","0.0-51.0","hflxzz25","","","","","","","",""
"null","","","html-keyboard-response","52","122251","0.0-52.0","hflxzz25","","<span style=""color:Black; font-size:50px;"">Agent A","null","","","","",""
"null","","","video-keyboard-response","53","125326","0.0-53.0","hflxzz25","","","null","","Agent A","scrambled","STIM_SET_2/1591781.bmp_pp63_L1_V1.0_scrambled_freeview_isoTrue.mp4",""
"null","","","html-keyboard-response","54","126833","0.0-54.0","hflxzz25","","<span style=""color:Black; font-size:50px;"">Agent B","null","","","","",""
"null","","","video-keyboard-response","55","129909","0.0-55.0","hflxzz25","","","null","","Agent B","veridical","STIM_SET_2/1591781.bmp_pp63_L1_V1.0_veridical_freeview_isoTrue.mp4",""
"","","","call-function","56","129909","0.0-56.0","hflxzz25","","","","","","","",""
"2069.725000000006","{""judgement"":1}","[0]","survey-likert","57","131980","0.0-57.0","hflxzz25","","","","","","","","1"
"1680.0050000000047","{""confidence"":0}","[0]","survey-likert","58","133661","0.0-58.0","hflxzz25","","","","","","","",""
"","","","call-function","59","133661","0.0-59.0","hflxzz25","","","","","","","",""
"null","","","html-keyboard-response","60","135166","0.0-60.0","hflxzz25","","<span style=""color:Black; font-size:50px;"">Agent A","null","","","","",""
"null","","","video-keyboard-response","61","138266","0.0-61.0","hflxzz25","","","null","","Agent A","scrambled","STIM_SET_2/1592129.bmp_pp153_L3_V1.0_scrambled_freeview_isoTrue.mp4",""
"null","","","html-keyboard-response","62","139771","0.0-62.0","hflxzz25","","<span style=""color:Black; font-size:50px;"">Agent B","null","","","","",""
"null","","","video-keyboard-response","63","142871","0.0-63.0","hflxzz25","","","null","","Agent B","veridical","STIM_SET_2/1592129.bmp_pp153_L3_V1.0_veridical_freeview_isoTrue.mp4",""
"","","","call-function","64","142872","0.0-64.0","hflxzz25","","","","","","","",""
"3539.0499999999884","{""judgement"":1}","[0]","survey-likert","65","146412","0.0-65.0","hflxzz25","","","","","","","","1"
"2030.9100000000035","{""confidence"":0}","[0]","survey-likert","66","148444","0.0-66.0","hflxzz25","","","","","","","",""
"","","","call-function","67","148445","0.0-67.0","hflxzz25","","","","","","","",""
"null","","","html-keyboard-response","68","149950","0.0-68.0","hflxzz25","","<span style=""color:Black; font-size:50px;"">Agent A","null","","","","",""
"null","","","video-keyboard-response","69","153027","0.0-69.0","hflxzz25","","","null","","Agent A","scrambled","STIM_SET_2/1159874.bmp_pp96_L2_V1.0_scrambled_freeview_isoTrue.mp4",""
"null","","","html-keyboard-response","70","154529","0.0-70.0","hflxzz25","","<span style=""color:Black; font-size:50px;"">Agent B","null","","","","",""
"null","","","video-keyboard-response","71","157606","0.0-71.0","hflxzz25","","","null","","Agent B","veridical","STIM_SET_2/1159874.bmp_pp96_L2_V1.0_veridical_freeview_isoTrue.mp4",""
"","","","call-function","72","157607","0.0-72.0","hflxzz25","","","","","","","",""
"3094.265000000014","{""judgement"":0}","[0]","survey-likert","73","160703","0.0-73.0","hflxzz25","","","","","","","","1"
"2812.2000000000116","{""confidence"":0}","[0]","survey-likert","74","163517","0.0-74.0","hflxzz25","","","","","","","",""
"","","","call-function","75","163517","0.0-75.0","hflxzz25","","","","","","","",""
"null","","","html-keyboard-response","76","165018","0.0-76.0","hflxzz25","","<span style=""color:Black; font-size:50px;"">Agent A","null","","","","",""
"null","","","video-keyboard-response","77","168093","0.0-77.0","hflxzz25","","","null","","Agent A","scrambled","STIM_SET_2/498261.bmp_pp84_L3_V1.0_scrambled_freeview_isoTrue.mp4",""
"null","","","html-keyboard-response","78","169598","0.0-78.0","hflxzz25","","<span style=""color:Black; font-size:50px;"">Agent B","null","","","","",""
"null","","","video-keyboard-response","79","172675","0.0-79.0","hflxzz25","","","null","","Agent B","veridical","STIM_SET_2/498261.bmp_pp84_L3_V1.0_veridical_freeview_isoTrue.mp4",""
"","","","call-function","80","172675","0.0-80.0","hflxzz25","","","","","","","",""
"4428.349999999977","{""judgement"":1}","[0]","survey-likert","81","177105","0.0-81.0","hflxzz25","","","","","","","","1"
"1343.8099999999977","{""confidence"":0}","[0]","survey-likert","82","178450","0.0-82.0","hflxzz25","","","","","","","",""
"","","","call-function","83","178450","0.0-83.0","hflxzz25","","","","","","","",""
"null","","","html-keyboard-response","84","179951","0.0-84.0","hflxzz25","","<span style=""color:Black; font-size:50px;"">Agent A","null","","","","",""
"null","","","video-keyboard-response","85","183053","0.0-85.0","hflxzz25","","","null","","Agent A","veridical","STIM_SET_2/498372.bmp_pp95_L2_V1_veridical_freeview_isoTrue.mp4",""
"null","","","html-keyboard-response","86","184559","0.0-86.0","hflxzz25","","<span style=""color:Black; font-size:50px;"">Agent B","null","","","","",""
"null","","","video-keyboard-response","87","187662","0.0-87.0","hflxzz25","","","null","","Agent B","scrambled","STIM_SET_2/498372.bmp_pp95_L2_V1_scrambled_freeview_isoTrue.mp4",""
"","","","call-function","88","187663","0.0-88.0","hflxzz25","","","","","","","",""
"1819.7099999999919","{""judgement"":0}","[0]","survey-likert","89","189484","0.0-89.0","hflxzz25","","","","","","","","0"
"2048.3150000000023","{""confidence"":0}","[0]","survey-likert","90","191533","0.0-90.0","hflxzz25","","","","","","","",""
"43993.244999999995","","","instructions","91","235527","0.0-91.0","hflxzz25","[{""page_index"":0,""viewing_time"":42308.29500000001},{""page_index"":1,""viewing_time"":956.6399999999849},{""page_index"":2,""viewing_time"":728.1000000000058}]","","","","","","",""
"1703.4750000000058","","","instructions","92","237231","0.0-92.0","hflxzz25","[{""page_index"":0,""viewing_time"":652.390000000014},{""page_index"":1,""viewing_time"":516.875},{""page_index"":2,""viewing_time"":534.0999999999767}]","","","","","","",""
"","","","call-function","93","237231","0.0-93.0","hflxzz25","","","","","","","",""
"null","","","html-keyboard-response","94","238735","0.0-94.0","hflxzz25","","<span style=""color:Black; font-size:50px;"">Agent A","null","","","","",""
"null","","","video-keyboard-response","95","241807","0.0-95.0","hflxzz25","","","null","","Agent A","scrambled","STIM_SET_2/150463.bmp_pp55_L3_V1.0_scrambled_freeview_isoTrue.mp4",""
"null","","","html-keyboard-response","96","243309","0.0-96.0","hflxzz25","","<span style=""color:Black; font-size:50px;"">Agent B","null","","","","",""
"null","","","video-keyboard-response","97","246385","0.0-97.0","hflxzz25","","","null","","Agent B","veridical","STIM_SET_2/150463.bmp_pp55_L3_V1.0_veridical_freeview_isoTrue.mp4",""
"","","","call-function","98","246385","0.0-98.0","hflxzz25","","","","","","","",""
"2343.4550000000163","{""judgement"":1}","[0]","survey-likert","99","248729","0.0-99.0","hflxzz25","","","","","","","","1"
"2733.665000000008","{""confidence"":0}","[0]","survey-likert","100","251464","0.0-100.0","hflxzz25","","","","","","","",""
"","","","call-function","101","251464","0.0-101.0","hflxzz25","","","","","","","",""
"null","","","html-keyboard-response","102","252966","0.0-102.0","hflxzz25","","<span style=""color:Black; font-size:50px;"">Agent A","null","","","","",""
"null","","","video-keyboard-response","103","256045","0.0-103.0","hflxzz25","","","null","","Agent A","scrambled","STIM_SET_2/713633.bmp_pp58_L1_V1.0_scrambled_freeview_isoTrue.mp4",""
"null","","","html-keyboard-response","104","257547","0.0-104.0","hflxzz25","","<span style=""color:Black; font-size:50px;"">Agent B","null","","","","",""
"null","","","video-keyboard-response","105","260630","0.0-105.0","hflxzz25","","","null","","Agent B","veridical","STIM_SET_2/713633.bmp_pp58_L1_V1.0_veridical_freeview_isoTrue.mp4",""
"","","","call-function","106","260630","0.0-106.0","hflxzz25","","","","","","","",""
"2894.2000000000116","{""judgement"":1}","[0]","survey-likert","107","263525","0.0-107.0","hflxzz25","","","","","","","","1"
"1833.1699999999837","{""confidence"":0}","[0]","survey-likert","108","265360","0.0-108.0","hflxzz25","","","","","","","",""
"","","","call-function","109","265360","0.0-109.0","hflxzz25","","","","","","","",""
"null","","","html-keyboard-response","110","266866","0.0-110.0","hflxzz25","","<span style=""color:Black; font-size:50px;"">Agent A","null","","","","",""
"null","","","video-keyboard-response","111","269965","0.0-111.0","hflxzz25","","","null","","Agent A","veridical","STIM_SET_2/1159329.bmp_pp61_L2_V1.0_veridical_freeview_isoTrue.mp4",""
"null","","","html-keyboard-response","112","271467","0.0-112.0","hflxzz25","","<span style=""color:Black; font-size:50px;"">Agent B","null","","","","",""
"null","","","video-keyboard-response","113","274566","0.0-113.0","hflxzz25","","","null","","Agent B","scrambled","STIM_SET_2/1159329.bmp_pp61_L2_V1.0_scrambled_freeview_isoTrue.mp4",""
"","","","call-function","114","274567","0.0-114.0","hflxzz25","","","","","","","",""
"5167.205000000016","{""judgement"":1}","[0]","survey-likert","115","279735","0.0-115.0","hflxzz25","","","","","","","","0"
"1769.390000000014","{""confidence"":0}","[0]","survey-likert","116","281505","0.0-116.0","hflxzz25","","","","","","","",""
"","","","call-function","117","281506","0.0-117.0","hflxzz25","","","","","","","",""
"null","","","html-keyboard-response","118","283009","0.0-118.0","hflxzz25","","<span style=""color:Black; font-size:50px;"">Agent A","null","","","","",""
"null","","","video-keyboard-response","119","286109","0.0-119.0","hflxzz25","","","null","","Agent A","scrambled","STIM_SET_2/1592350.bmp_pp55_L3_V1.0_scrambled_freeview_isoTrue.mp4",""
"null","","","html-keyboard-response","120","287613","0.0-120.0","hflxzz25","","<span style=""color:Black; font-size:50px;"">Agent B","null","","","","",""
"null","","","video-keyboard-response","121","290693","0.0-121.0","hflxzz25","","","null","","Agent B","veridical","STIM_SET_2/1592350.bmp_pp55_L3_V1.0_veridical_freeview_isoTrue.mp4",""
"","","","call-function","122","290694","0.0-122.0","hflxzz25","","","","","","","",""
"2007.085000000021","{""judgement"":0}","[0]","survey-likert","123","292703","0.0-123.0","hflxzz25","","","","","","","","1"
"2153.4049999999697","{""confidence"":0}","[0]","survey-likert","124","294858","0.0-124.0","hflxzz25","","","","","","","",""
"","","","call-function","125","294859","0.0-125.0","hflxzz25","","","","","","","",""
"null","","","html-keyboard-response","126","296365","0.0-126.0","hflxzz25","","<span style=""color:Black; font-size:50px;"">Agent A","null","","","","",""
"null","","","video-keyboard-response","127","299432","0.0-127.0","hflxzz25","","","null","","Agent A","scrambled","STIM_SET_2/1591975.bmp_pp88_L2_V1.0_scrambled_freeview_isoTrue.mp4",""
"null","","","html-keyboard-response","128","300935","0.0-128.0","hflxzz25","","<span style=""color:Black; font-size:50px;"">Agent B","null","","","","",""
"null","","","video-keyboard-response","129","304005","0.0-129.0","hflxzz25","","","null","","Agent B","veridical","STIM_SET_2/1591975.bmp_pp88_L2_V1.0_veridical_freeview_isoTrue.mp4",""
"","","","call-function","130","304005","0.0-130.0","hflxzz25","","","","","","","",""
"4211.925000000047","{""judgement"":1}","[0]","survey-likert","131","308219","0.0-131.0","hflxzz25","","","","","","","","1"
"2807.545000000042","{""confidence"":0}","[0]","survey-likert","132","311027","0.0-132.0","hflxzz25","","","","","","","",""
"","","","call-function","133","311028","0.0-133.0","hflxzz25","","","","","","","",""
"null","","","html-keyboard-response","134","312532","0.0-134.0","hflxzz25","","<span style=""color:Black; font-size:50px;"">Agent A","null","","","","",""
"null","","","video-keyboard-response","135","315607","0.0-135.0","hflxzz25","","","null","","Agent A","scrambled","STIM_SET_2/285946.bmp_pp79_L2_V1.0_scrambled_freeview_isoTrue.mp4",""
"null","","","html-keyboard-response","136","317110","0.0-136.0","hflxzz25","","<span style=""color:Black; font-size:50px;"">Agent B","null","","","","",""
"null","","","video-keyboard-response","137","320203","0.0-137.0","hflxzz25","","","null","","Agent B","veridical","STIM_SET_2/285946.bmp_pp79_L2_V1.0_veridical_freeview_isoTrue.mp4",""
"","","","call-function","138","320203","0.0-138.0","hflxzz25","","","","","","","",""
"3088.554999999993","{""judgement"":1}","[0]","survey-likert","139","323293","0.0-139.0","hflxzz25","","","","","","","","1"
"3488.8649999999907","{""confidence"":0}","[0]","survey-likert","140","326783","0.0-140.0","hflxzz25","","","","","","","",""
"","","","call-function","141","326783","0.0-141.0","hflxzz25","","","","","","","",""
"null","","","html-keyboard-response","142","328285","0.0-142.0","hflxzz25","","<span style=""color:Black; font-size:50px;"">Agent A","null","","","","",""
"null","","","video-keyboard-response","143","331380","0.0-143.0","hflxzz25","","","null","","Agent A","veridical","STIM_SET_2/1159508.bmp_pp151_L1_V1.0_veridical_freeview_isoTrue.mp4",""
"null","","","html-keyboard-response","144","332886","0.0-144.0","hflxzz25","","<span style=""color:Black; font-size:50px;"">Agent B","null","","","","",""
"null","","","video-keyboard-response","145","335982","0.0-145.0","hflxzz25","","","null","","Agent B","scrambled","STIM_SET_2/1159508.bmp_pp151_L1_V1.0_scrambled_freeview_isoTrue.mp4",""
"","","","call-function","146","335983","0.0-146.0","hflxzz25","","","","","","","",""
"4491.65499999997","{""judgement"":1}","[0]","survey-likert","147","340475","0.0-147.0","hflxzz25","","","","","","","","0"
"2190.1849999999977","{""confidence"":0}","[0]","survey-likert","148","342666","0.0-148.0","hflxzz25","","","","","","","",""
"","","","call-function","149","342667","0.0-149.0","hflxzz25","","","","","","","",""
"null","","","html-keyboard-response","150","344169","0.0-150.0","hflxzz25","","<span style=""color:Black; font-size:50px;"">Agent A","null","","","","",""
"null","","","video-keyboard-response","151","347265","0.0-151.0","hflxzz25","","","null","","Agent A","scrambled","STIM_SET_2/1159973.bmp_pp98_L1_V1.0_scrambled_freeview_isoTrue.mp4",""
"null","","","html-keyboard-response","152","348772","0.0-152.0","hflxzz25","","<span style=""color:Black; font-size:50px;"">Agent B","null","","","","",""
"null","","","video-keyboard-response","153","351869","0.0-153.0","hflxzz25","","","null","","Agent B","veridical","STIM_SET_2/1159973.bmp_pp98_L1_V1.0_veridical_freeview_isoTrue.mp4",""
"","","","call-function","154","351869","0.0-154.0","hflxzz25","","","","","","","",""
"12630.554999999993","{""judgement"":1}","[0]","survey-likert","155","364501","0.0-155.0","hflxzz25","","","","","","","","1"
"2236.7150000000256","{""confidence"":0}","[0]","survey-likert","156","366738","0.0-156.0","hflxzz25","","","","","","","",""
"","","","call-function","157","366739","0.0-157.0","hflxzz25","","","","","","","",""
"null","","","html-keyboard-response","158","368243","0.0-158.0","hflxzz25","","<span style=""color:Black; font-size:50px;"">Agent A","null","","","","",""
"null","","","video-keyboard-response","159","371318","0.0-159.0","hflxzz25","","","null","","Agent A","scrambled","STIM_SET_2/1592305.bmp_pp65_L3_V1.0_scrambled_freeview_isoTrue.mp4",""
"null","","","html-keyboard-response","160","372821","0.0-160.0","hflxzz25","","<span style=""color:Black; font-size:50px;"">Agent B","null","","","","",""
"null","","","video-keyboard-response","161","375897","0.0-161.0","hflxzz25","","","null","","Agent B","veridical","STIM_SET_2/1592305.bmp_pp65_L3_V1.0_veridical_freeview_isoTrue.mp4",""
"","","","call-function","162","375897","0.0-162.0","hflxzz25","","","","","","","",""
"5693.299999999988","{""judgement"":1}","[0]","survey-likert","163","381591","0.0-163.0","hflxzz25","","","","","","","","1"
"1895.3199999999488","{""confidence"":0}","[0]","survey-likert","164","383488","0.0-164.0","hflxzz25","","","","","","","",""
"","","","call-function","165","383488","0.0-165.0","hflxzz25","","","","","","","",""
"null","","","html-keyboard-response","166","384992","0.0-166.0","hflxzz25","","<span style=""color:Black; font-size:50px;"">Agent A","null","","","","",""
"null","","","video-keyboard-response","167","388068","0.0-167.0","hflxzz25","","","null","","Agent A","scrambled","STIM_SET_2/1160204.bmp_pp54_L2_V1.0_scrambled_freeview_isoTrue.mp4",""
"null","","","html-keyboard-response","168","389570","0.0-168.0","hflxzz25","","<span style=""color:Black; font-size:50px;"">Agent B","null","","","","",""
"null","","","video-keyboard-response","169","392639","0.0-169.0","hflxzz25","","","null","","Agent B","veridical","STIM_SET_2/1160204.bmp_pp54_L2_V1.0_veridical_freeview_isoTrue.mp4",""
"","","","call-function","170","392640","0.0-170.0","hflxzz25","","","","","","","",""
"4729.765000000014","{""judgement"":0}","[0]","survey-likert","171","397370","0.0-171.0","hflxzz25","","","","","","","","1"
"1953.945000000007","{""confidence"":0}","[0]","survey-likert","172","399325","0.0-172.0","hflxzz25","","","","","","","",""
"236405.91500000004","","","instructions","173","635732","0.0-173.0","hflxzz25","[{""page_index"":0,""viewing_time"":235761.245},{""page_index"":1,""viewing_time"":432.1899999999441},{""page_index"":2,""viewing_time"":212.25500000000466}]","","","","","","",""
"629.2999999999302","","","instructions","174","636363","0.0-174.0","hflxzz25","[{""page_index"":0,""viewing_time"":210.63999999989755},{""page_index"":1,""viewing_time"":172.0350000000326},{""page_index"":2,""viewing_time"":246.52000000001863}]","","","","","","",""
"","","","call-function","175","636364","0.0-175.0","hflxzz25","","","","","","","",""
"null","","","html-keyboard-response","176","637865","0.0-176.0","hflxzz25","","<span style=""color:Black; font-size:50px;"">Agent A","null","","","","",""
"null","","","video-keyboard-response","177","640948","0.0-177.0","hflxzz25","","","null","","Agent A","veridical","STIM_SET_2/285959.bmp_pp93_L1_V1.0_veridical_freeview_isoTrue.mp4",""
"null","","","html-keyboard-response","178","642449","0.0-178.0","hflxzz25","","<span style=""color:Black; font-size:50px;"">Agent B","null","","","","",""
"null","","","video-keyboard-response","179","645527","0.0-179.0","hflxzz25","","","null","","Agent B","scrambled","STIM_SET_2/285959.bmp_pp93_L1_V1.0_scrambled_freeview_isoTrue.mp4",""
"","","","call-function","180","645527","0.0-180.0","hflxzz25","","","","","","","",""
"1650.3149999999441","{""judgement"":0}","[0]","survey-likert","181","647178","0.0-181.0","hflxzz25","","","","","","","","0"
"1630.2200000000885","{""confidence"":0}","[0]","survey-likert","182","648810","0.0-182.0","hflxzz25","","","","","","","",""
"","","","call-function","183","648810","0.0-183.0","hflxzz25","","","","","","","",""
"null","","","html-keyboard-response","184","650312","0.0-184.0","hflxzz25","","<span style=""color:Black; font-size:50px;"">Agent A","null","","","","",""
"null","","","video-keyboard-response","185","653390","0.0-185.0","hflxzz25","","","null","","Agent A","veridical","STIM_SET_2/1592298.bmp_pp56_L3_V1.0_veridical_freeview_isoTrue.mp4",""
"null","","","html-keyboard-response","186","654895","0.0-186.0","hflxzz25","","<span style=""color:Black; font-size:50px;"">Agent B","null","","","","",""
"null","","","video-keyboard-response","187","657969","0.0-187.0","hflxzz25","","","null","","Agent B","scrambled","STIM_SET_2/1592298.bmp_pp56_L3_V1.0_scrambled_freeview_isoTrue.mp4",""
"","","","call-function","188","657969","0.0-188.0","hflxzz25","","","","","","","",""
"3457.019999999902","{""judgement"":1}","[0]","survey-likert","189","661427","0.0-189.0","hflxzz25","","","","","","","","0"
"2117.5999999999767","{""confidence"":0}","[0]","survey-likert","190","663546","0.0-190.0","hflxzz25","","","","","","","",""
"","","","call-function","191","663546","0.0-191.0","hflxzz25","","","","","","","",""
"null","","","html-keyboard-response","192","665049","0.0-192.0","hflxzz25","","<span style=""color:Black; font-size:50px;"">Agent A","null","","","","",""
"null","","","video-keyboard-response","193","668159","0.0-193.0","hflxzz25","","","null","","Agent A","veridical","STIM_SET_2/713770.bmp_pp89_L1_V1.0_veridical_freeview_isoTrue.mp4",""
"null","","","html-keyboard-response","194","669662","0.0-194.0","hflxzz25","","<span style=""color:Black; font-size:50px;"">Agent B","null","","","","",""
"null","","","video-keyboard-response","195","672773","0.0-195.0","hflxzz25","","","null","","Agent B","scrambled","STIM_SET_2/713770.bmp_pp89_L1_V1.0_scrambled_freeview_isoTrue.mp4",""
"","","","call-function","196","672773","0.0-196.0","hflxzz25","","","","","","","",""
"2551.1049999999814","{""judgement"":1}","[0]","survey-likert","197","675325","0.0-197.0","hflxzz25","","","","","","","","0"
"2673.094999999972","{""confidence"":0}","[0]","survey-likert","198","677999","0.0-198.0","hflxzz25","","","","","","","",""
"","","","call-function","199","678000","0.0-199.0","hflxzz25","","","","","","","",""
"null","","","html-keyboard-response","200","679506","0.0-200.0","hflxzz25","","<span style=""color:Black; font-size:50px;"">Agent A","null","","","","",""
"null","","","video-keyboard-response","201","682593","0.0-201.0","hflxzz25","","","null","","Agent A","veridical","STIM_SET_2/1592567.bmp_pp70_L2_V1.0_veridical_freeview_isoTrue.mp4",""
"null","","","html-keyboard-response","202","684095","0.0-202.0","hflxzz25","","<span style=""color:Black; font-size:50px;"">Agent B","null","","","","",""
"null","","","video-keyboard-response","203","687188","0.0-203.0","hflxzz25","","","null","","Agent B","scrambled","STIM_SET_2/1592567.bmp_pp70_L2_V1.0_scrambled_freeview_isoTrue.mp4",""
"","","","call-function","204","687188","0.0-204.0","hflxzz25","","","","","","","",""
"2470.1900000000605","{""judgement"":0}","[0]","survey-likert","205","689659","0.0-205.0","hflxzz25","","","","","","","","0"
"1772.6549999999115","{""confidence"":0}","[0]","survey-likert","206","691433","0.0-206.0","hflxzz25","","","","","","","",""
"","","","call-function","207","691433","0.0-207.0","hflxzz25","","","","","","","",""
"null","","","html-keyboard-response","208","692935","0.0-208.0","hflxzz25","","<span style=""color:Black; font-size:50px;"">Agent A","null","","","","",""
"null","","","video-keyboard-response","209","696036","0.0-209.0","hflxzz25","","","null","","Agent A","veridical","STIM_SET_2/1592530.bmp_pp75_L1_V1.0_veridical_freeview_isoTrue.mp4",""
"null","","","html-keyboard-response","210","697540","0.0-210.0","hflxzz25","","<span style=""color:Black; font-size:50px;"">Agent B","null","","","","",""
"null","","","video-keyboard-response","211","700641","0.0-211.0","hflxzz25","","","null","","Agent B","scrambled","STIM_SET_2/1592530.bmp_pp75_L1_V1.0_scrambled_freeview_isoTrue.mp4",""
"","","","call-function","212","700641","0.0-212.0","hflxzz25","","","","","","","",""
"2235.140000000014","{""judgement"":1}","[0]","survey-likert","213","702877","0.0-213.0","hflxzz25","","","","","","","","0"
"1449.1350000000093","{""confidence"":0}","[0]","survey-likert","214","704327","0.0-214.0","hflxzz25","","","","","","","",""
"","","","call-function","215","704328","0.0-215.0","hflxzz25","","","","","","","",""
"null","","","html-keyboard-response","216","705832","0.0-216.0","hflxzz25","","<span style=""color:Black; font-size:50px;"">Agent A","null","","","","",""
"null","","","video-keyboard-response","217","708907","0.0-217.0","hflxzz25","","","null","","Agent A","veridical","STIM_SET_2/1592038.bmp_pp79_L2_V1.0_veridical_freeview_isoTrue.mp4",""
"null","","","html-keyboard-response","218","710412","0.0-218.0","hflxzz25","","<span style=""color:Black; font-size:50px;"">Agent B","null","","","","",""
"null","","","video-keyboard-response","219","713490","0.0-219.0","hflxzz25","","","null","","Agent B","scrambled","STIM_SET_2/1592038.bmp_pp79_L2_V1.0_scrambled_freeview_isoTrue.mp4",""
"","","","call-function","220","713490","0.0-220.0","hflxzz25","","","","","","","",""
"1971.75","{""judgement"":1}","[0]","survey-likert","221","715463","0.0-221.0","hflxzz25","","","","","","","","0"
"2330.6849999999395","{""confidence"":0}","[0]","survey-likert","222","717795","0.0-222.0","hflxzz25","","","","","","","",""
"","","","call-function","223","717795","0.0-223.0","hflxzz25","","","","","","","",""
"null","","","html-keyboard-response","224","719300","0.0-224.0","hflxzz25","","<span style=""color:Black; font-size:50px;"">Agent A","null","","","","",""
"null","","","video-keyboard-response","225","722371","0.0-225.0","hflxzz25","","","null","","Agent A","scrambled","STIM_SET_2/1160189.bmp_pp64_L1_V1.0_scrambled_freeview_isoTrue.mp4",""
"null","","","html-keyboard-response","226","723874","0.0-226.0","hflxzz25","","<span style=""color:Black; font-size:50px;"">Agent B","null","","","","",""
"null","","","video-keyboard-response","227","726947","0.0-227.0","hflxzz25","","","null","","Agent B","veridical","STIM_SET_2/1160189.bmp_pp64_L1_V1.0_veridical_freeview_isoTrue.mp4",""
"","","","call-function","228","726948","0.0-228.0","hflxzz25","","","","","","","",""
"2094.079999999958","{""judgement"":0}","[0]","survey-likert","229","729043","0.0-229.0","hflxzz25","","","","","","","","1"
"1958.030000000028","{""confidence"":0}","[0]","survey-likert","230","731003","0.0-230.0","hflxzz25","","","","","","","",""
"","","","call-function","231","731003","0.0-231.0","hflxzz25","","","","","","","",""
"null","","","html-keyboard-response","232","732509","0.0-232.0","hflxzz25","","<span style=""color:Black; font-size:50px;"">Agent A","null","","","","",""
"null","","","video-keyboard-response","233","735579","0.0-233.0","hflxzz25","","","null","","Agent A","scrambled","STIM_SET_2/1592747.bmp_pp53_L2_V1.0_scrambled_freeview_isoTrue.mp4",""
"null","","","html-keyboard-response","234","737085","0.0-234.0","hflxzz25","","<span style=""color:Black; font-size:50px;"">Agent B","null","","","","",""
"null","","","video-keyboard-response","235","740162","0.0-235.0","hflxzz25","","","null","","Agent B","veridical","STIM_SET_2/1592747.bmp_pp53_L2_V1.0_veridical_freeview_isoTrue.mp4",""
"","","","call-function","236","740163","0.0-236.0","hflxzz25","","","","","","","",""
"2254.9799999999814","{""judgement"":1}","[0]","survey-likert","237","742419","0.0-237.0","hflxzz25","","","","","","","","1"
"1800.3550000000978","{""confidence"":0}","[0]","survey-likert","238","744220","0.0-238.0","hflxzz25","","","","","","","",""
"","","","call-function","239","744221","0.0-239.0","hflxzz25","","","","","","","",""
"null","","","html-keyboard-response","240","745722","0.0-240.0","hflxzz25","","<span style=""color:Black; font-size:50px;"">Agent A","null","","","","",""
"null","","","video-keyboard-response","241","748790","0.0-241.0","hflxzz25","","","null","","Agent A","veridical","STIM_SET_2/1591920.bmp_pp97_L3_V1_veridical_freeview_isoTrue.mp4",""
"null","","","html-keyboard-response","242","750294","0.0-242.0","hflxzz25","","<span style=""color:Black; font-size:50px;"">Agent B","null","","","","",""
"null","","","video-keyboard-response","243","753363","0.0-243.0","hflxzz25","","","null","","Agent B","scrambled","STIM_SET_2/1591920.bmp_pp97_L3_V1_scrambled_freeview_isoTrue.mp4",""
"","","","call-function","244","753364","0.0-244.0","hflxzz25","","","","","","","",""
"2084.545000000042","{""judgement"":1}","[0]","survey-likert","245","755449","0.0-245.0","hflxzz25","","","","","","","","0"
"1799.140000000014","{""confidence"":0}","[0]","survey-likert","246","757249","0.0-246.0","hflxzz25","","","","","","","",""
"","","","call-function","247","757250","0.0-247.0","hflxzz25","","","","","","","",""
"null","","","html-keyboard-response","248","758752","0.0-248.0","hflxzz25","","<span style=""color:Black; font-size:50px;"">Agent A","null","","","","",""
"null","","","video-keyboard-response","249","761853","0.0-249.0","hflxzz25","","","null","","Agent A","veridical","STIM_SET_2/713920.bmp_pp76_L1_V1.0_veridical_freeview_isoTrue.mp4",""
"null","","","html-keyboard-response","250","763357","0.0-250.0","hflxzz25","","<span style=""color:Black; font-size:50px;"">Agent B","null","","","","",""
"null","","","video-keyboard-response","251","766455","0.0-251.0","hflxzz25","","","null","","Agent B","scrambled","STIM_SET_2/713920.bmp_pp76_L1_V1.0_scrambled_freeview_isoTrue.mp4",""
"","","","call-function","252","766455","0.0-252.0","hflxzz25","","","","","","","",""
"2159.664999999921","{""judgement"":1}","[0]","survey-likert","253","768616","0.0-253.0","hflxzz25","","","","","","","","0"
"2025.3800000000047","{""confidence"":0}","[0]","survey-likert","254","770642","0.0-254.0","hflxzz25","","","","","","","",""
"134771.41999999993","","","instructions","255","905414","0.0-255.0","hflxzz25","[{""page_index"":0,""viewing_time"":133603.15000000002},{""page_index"":1,""viewing_time"":786.0599999999395},{""page_index"":2,""viewing_time"":381.79000000003725}]","","","","","","",""
"1219.2150000000838","","","instructions","256","906634","0.0-256.0","hflxzz25","[{""page_index"":0,""viewing_time"":401.3200000000652},{""page_index"":1,""viewing_time"":426.24499999999534},{""page_index"":2,""viewing_time"":391.53999999992084}]","","","","","","",""
"","","","call-function","257","906634","0.0-257.0","hflxzz25","","","","","","","",""
"null","","","html-keyboard-response","258","908137","0.0-258.0","hflxzz25","","<span style=""color:Black; font-size:50px;"">Agent A","null","","","","",""
"null","","","video-keyboard-response","259","911209","0.0-259.0","hflxzz25","","","null","","Agent A","scrambled","STIM_SET_2/1159819.bmp_pp151_L1_V1.0_scrambled_freeview_isoTrue.mp4",""
"null","","","html-keyboard-response","260","912712","0.0-260.0","hflxzz25","","<span style=""color:Black; font-size:50px;"">Agent B","null","","","","",""
"null","","","video-keyboard-response","261","915788","0.0-261.0","hflxzz25","","","null","","Agent B","veridical","STIM_SET_2/1159819.bmp_pp151_L1_V1.0_veridical_freeview_isoTrue.mp4",""
"","","","call-function","262","915789","0.0-262.0","hflxzz25","","","","","","","",""
"2012.109999999986","{""judgement"":1}","[0]","survey-likert","263","917802","0.0-263.0","hflxzz25","","","","","","","","1"
"4139.984999999986","{""confidence"":0}","[0]","survey-likert","264","921943","0.0-264.0","hflxzz25","","","","","","","",""
"","","","call-function","265","921943","0.0-265.0","hflxzz25","","","","","","","",""
"null","","","html-keyboard-response","266","923445","0.0-266.0","hflxzz25","","<span style=""color:Black; font-size:50px;"">Agent A","null","","","","",""
"null","","","video-keyboard-response","267","926514","0.0-267.0","hflxzz25","","","null","","Agent A","scrambled","STIM_SET_2/713652.bmp_pp89_L1_V1_scrambled_freeview_isoTrue.mp4",""
"null","","","html-keyboard-response","268","928017","0.0-268.0","hflxzz25","","<span style=""color:Black; font-size:50px;"">Agent B","null","","","","",""
"null","","","video-keyboard-response","269","931084","0.0-269.0","hflxzz25","","","null","","Agent B","veridical","STIM_SET_2/713652.bmp_pp89_L1_V1_veridical_freeview_isoTrue.mp4",""
"","","","call-function","270","931084","0.0-270.0","hflxzz25","","","","","","","",""
"1419.515000000014","{""judgement"":1}","[0]","survey-likert","271","932506","0.0-271.0","hflxzz25","","","","","","","","1"
"1553.1549999999115","{""confidence"":0}","[0]","survey-likert","272","934060","0.0-272.0","hflxzz25","","","","","","","",""
"","","","call-function","273","934060","0.0-273.0","hflxzz25","","","","","","","",""
"null","","","html-keyboard-response","274","935563","0.0-274.0","hflxzz25","","<span style=""color:Black; font-size:50px;"">Agent A","null","","","","",""
"null","","","video-keyboard-response","275","938672","0.0-275.0","hflxzz25","","","null","","Agent A","veridical","STIM_SET_2/1592168.bmp_pp71_L1_V1.0_veridical_freeview_isoTrue.mp4",""
"null","","","html-keyboard-response","276","940174","0.0-276.0","hflxzz25","","<span style=""color:Black; font-size:50px;"">Agent B","null","","","","",""
"null","","","video-keyboard-response","277","943284","0.0-277.0","hflxzz25","","","null","","Agent B","scrambled","STIM_SET_2/1592168.bmp_pp71_L1_V1.0_scrambled_freeview_isoTrue.mp4",""
"","","","call-function","278","943285","0.0-278.0","hflxzz25","","","","","","","",""
"1804.7550000000047","{""judgement"":0}","[0]","survey-likert","279","945090","0.0-279.0","hflxzz25","","","","","","","","0"
"4904.480000000098","{""confidence"":0}","[0]","survey-likert","280","949996","0.0-280.0","hflxzz25","","","","","","","",""
"","","","call-function","281","949996","0.0-281.0","hflxzz25","","","","","","","",""
"null","","","html-keyboard-response","282","951498","0.0-282.0","hflxzz25","","<span style=""color:Black; font-size:50px;"">Agent A","null","","","","",""
"null","","","video-keyboard-response","283","954590","0.0-283.0","hflxzz25","","","null","","Agent A","scrambled","STIM_SET_2/498025.bmp_pp81_L1_V1.0_scrambled_freeview_isoTrue.mp4",""
"null","","","html-keyboard-response","284","956095","0.0-284.0","hflxzz25","","<span style=""color:Black; font-size:50px;"">Agent B","null","","","","",""
"null","","","video-keyboard-response","285","959170","0.0-285.0","hflxzz25","","","null","","Agent B","veridical","STIM_SET_2/498025.bmp_pp81_L1_V1.0_veridical_freeview_isoTrue.mp4",""
"","","","call-function","286","959172","0.0-286.0","hflxzz25","","","","","","","",""
"2181.3249999999534","{""judgement"":1}","[0]","survey-likert","287","961354","0.0-287.0","hflxzz25","","","","","","","","1"
"3297.5200000000186","{""confidence"":0}","[0]","survey-likert","288","964653","0.0-288.0","hflxzz25","","","","","","","",""
"","","","call-function","289","964654","0.0-289.0","hflxzz25","","","","","","","",""
"null","","","html-keyboard-response","290","966159","0.0-290.0","hflxzz25","","<span style=""color:Black; font-size:50px;"">Agent A","null","","","","",""
"null","","","video-keyboard-response","291","969224","0.0-291.0","hflxzz25","","","null","","Agent A","scrambled","STIM_SET_2/1159325.bmp_pp67_L2_V1.0_scrambled_freeview_isoTrue.mp4",""
"null","","","html-keyboard-response","292","970726","0.0-292.0","hflxzz25","","<span style=""color:Black; font-size:50px;"">Agent B","null","","","","",""
"null","","","video-keyboard-response","293","973787","0.0-293.0","hflxzz25","","","null","","Agent B","veridical","STIM_SET_2/1159325.bmp_pp67_L2_V1.0_veridical_freeview_isoTrue.mp4",""
"","","","call-function","294","973787","0.0-294.0","hflxzz25","","","","","","","",""
"1926.5299999999115","{""judgement"":1}","[0]","survey-likert","295","975715","0.0-295.0","hflxzz25","","","","","","","","1"
"1896.9100000000326","{""confidence"":0}","[0]","survey-likert","296","977613","0.0-296.0","hflxzz25","","","","","","","",""
"","","","call-function","297","977614","0.0-297.0","hflxzz25","","","","","","","",""
"null","","","html-keyboard-response","298","979116","0.0-298.0","hflxzz25","","<span style=""color:Black; font-size:50px;"">Agent A","null","","","","",""
"null","","","video-keyboard-response","299","982192","0.0-299.0","hflxzz25","","","null","","Agent A","veridical","STIM_SET_2/61513.bmp_pp75_L1_V1.0_veridical_freeview_isoTrue.mp4",""
"null","","","html-keyboard-response","300","983695","0.0-300.0","hflxzz25","","<span style=""color:Black; font-size:50px;"">Agent B","null","","","","",""
"null","","","video-keyboard-response","301","986761","0.0-301.0","hflxzz25","","","null","","Agent B","scrambled","STIM_SET_2/61513.bmp_pp75_L1_V1.0_scrambled_freeview_isoTrue.mp4",""
"","","","call-function","302","986761","0.0-302.0","hflxzz25","","","","","","","",""
"2951.8800000000047","{""judgement"":1}","[0]","survey-likert","303","989714","0.0-303.0","hflxzz25","","","","","","","","0"
"1963.0500000000466","{""confidence"":0}","[0]","survey-likert","304","991678","0.0-304.0","hflxzz25","","","","","","","",""
"","","","call-function","305","991679","0.0-305.0","hflxzz25","","","","","","","",""
"null","","","html-keyboard-response","306","993183","0.0-306.0","hflxzz25","","<span style=""color:Black; font-size:50px;"">Agent A","null","","","","",""
"null","","","video-keyboard-response","307","996237","0.0-307.0","hflxzz25","","","null","","Agent A","scrambled","STIM_SET_2/1592017.bmp_pp154_L1_V1.0_scrambled_freeview_isoTrue.mp4",""
"null","","","html-keyboard-response","308","997739","0.0-308.0","hflxzz25","","<span style=""color:Black; font-size:50px;"">Agent B","null","","","","",""
"null","","","video-keyboard-response","309","1000840","0.0-309.0","hflxzz25","","","null","","Agent B","veridical","STIM_SET_2/1592017.bmp_pp154_L1_V1.0_veridical_freeview_isoTrue.mp4",""
"","","","call-function","310","1000841","0.0-310.0","hflxzz25","","","","","","","",""
"4182.935000000056","{""judgement"":1}","[0]","survey-likert","311","1005025","0.0-311.0","hflxzz25","","","","","","","","1"
"1653.9749999999767","{""confidence"":0}","[0]","survey-likert","312","1006680","0.0-312.0","hflxzz25","","","","","","","",""
"","","","call-function","313","1006680","0.0-313.0","hflxzz25","","","","","","","",""
"null","","","html-keyboard-response","314","1008184","0.0-314.0","hflxzz25","","<span style=""color:Black; font-size:50px;"">Agent A","null","","","","",""
"null","","","video-keyboard-response","315","1011291","0.0-315.0","hflxzz25","","","null","","Agent A","veridical","STIM_SET_2/1159592.bmp_pp91_L3_V1.0_veridical_freeview_isoTrue.mp4",""
"null","","","html-keyboard-response","316","1012793","0.0-316.0","hflxzz25","","<span style=""color:Black; font-size:50px;"">Agent B","null","","","","",""
"null","","","video-keyboard-response","317","1015897","0.0-317.0","hflxzz25","","","null","","Agent B","scrambled","STIM_SET_2/1159592.bmp_pp91_L3_V1.0_scrambled_freeview_isoTrue.mp4",""
"","","","call-function","318","1015898","0.0-318.0","hflxzz25","","","","","","","",""
"2377.679999999935","{""judgement"":1}","[0]","survey-likert","319","1018276","0.0-319.0","hflxzz25","","","","","","","","0"
"1585.8499999999767","{""confidence"":0}","[0]","survey-likert","320","1019863","0.0-320.0","hflxzz25","","","","","","","",""
"","","","call-function","321","1019864","0.0-321.0","hflxzz25","","","","","","","",""
"null","","","html-keyboard-response","322","1021369","0.0-322.0","hflxzz25","","<span style=""color:Black; font-size:50px;"">Agent A","null","","","","",""
"null","","","video-keyboard-response","323","1024439","0.0-323.0","hflxzz25","","","null","","Agent A","scrambled","STIM_SET_2/1159427.bmp_pp98_L1_V1.0_scrambled_freeview_isoTrue.mp4",""
"null","","","html-keyboard-response","324","1025945","0.0-324.0","hflxzz25","","<span style=""color:Black; font-size:50px;"">Agent B","null","","","","",""
"null","","","video-keyboard-response","325","1029003","0.0-325.0","hflxzz25","","","null","","Agent B","veridical","STIM_SET_2/1159427.bmp_pp98_L1_V1.0_veridical_freeview_isoTrue.mp4",""
"","","","call-function","326","1029004","0.0-326.0","hflxzz25","","","","","","","",""
"2241.2099999999627","{""judgement"":0}","[0]","survey-likert","327","1031246","0.0-327.0","hflxzz25","","","","","","","","1"
"1730.8950000000186","{""confidence"":0}","[0]","survey-likert","328","1032978","0.0-328.0","hflxzz25","","","","","","","",""
"","","","call-function","329","1032978","0.0-329.0","hflxzz25","","","","","","","",""
"null","","","html-keyboard-response","330","1034483","0.0-330.0","hflxzz25","","<span style=""color:Black; font-size:50px;"">Agent A","null","","","","",""
"null","","","video-keyboard-response","331","1037553","0.0-331.0","hflxzz25","","","null","","Agent A","veridical","STIM_SET_2/713328.bmp_pp86_L2_V1.0_veridical_freeview_isoTrue.mp4",""
"null","","","html-keyboard-response","332","1039057","0.0-332.0","hflxzz25","","<span style=""color:Black; font-size:50px;"">Agent B","null","","","","",""
"null","","","video-keyboard-response","333","1042127","0.0-333.0","hflxzz25","","","null","","Agent B","scrambled","STIM_SET_2/713328.bmp_pp86_L2_V1.0_scrambled_freeview_isoTrue.mp4",""
"","","","call-function","334","1042127","0.0-334.0","hflxzz25","","","","","","","",""
"2117.7550000000047","{""judgement"":1}","[0]","survey-likert","335","1044246","0.0-335.0","hflxzz25","","","","","","","","0"
"1836.75","{""confidence"":0}","[0]","survey-likert","336","1046084","0.0-336.0","hflxzz25","","","","","","","",""
"159718.26500000013","","","instructions","337","1205803","0.0-337.0","hflxzz25","[{""page_index"":0,""viewing_time"":158472.40999999992},{""page_index"":1,""viewing_time"":641.8700000001118},{""page_index"":2,""viewing_time"":603.8300000000745}]","","","","","","",""
"1529.5549999999348","","","instructions","338","1207334","0.0-338.0","hflxzz25","[{""page_index"":0,""viewing_time"":515.559999999823},{""page_index"":1,""viewing_time"":494.82500000018626},{""page_index"":2,""viewing_time"":519.0649999999441}]","","","","","","",""
"","","","call-function","339","1207335","0.0-339.0","hflxzz25","","","","","","","",""
"null","","","html-keyboard-response","340","1208837","0.0-340.0","hflxzz25","","<span style=""color:Black; font-size:50px;"">Agent A","null","","","","",""
"null","","","video-keyboard-response","341","1211909","0.0-341.0","hflxzz25","","","null","","Agent A","scrambled","STIM_SET_2/498396.bmp_pp99_L2_V1.0_scrambled_freeview_isoTrue.mp4",""
"null","","","html-keyboard-response","342","1213412","0.0-342.0","hflxzz25","","<span style=""color:Black; font-size:50px;"">Agent B","null","","","","",""
"null","","","video-keyboard-response","343","1216488","0.0-343.0","hflxzz25","","","null","","Agent B","veridical","STIM_SET_2/498396.bmp_pp99_L2_V1.0_veridical_freeview_isoTrue.mp4",""
"","","","call-function","344","1216489","0.0-344.0","hflxzz25","","","","","","","",""
"2292.8349999999627","{""judgement"":1}","[0]","survey-likert","345","1218783","0.0-345.0","hflxzz25","","","","","","","","1"
"1012.7700000000186","{""confidence"":0}","[0]","survey-likert","346","1219797","0.0-346.0","hflxzz25","","","","","","","",""
"","","","call-function","347","1219797","0.0-347.0","hflxzz25","","","","","","","",""
"null","","","html-keyboard-response","348","1221299","0.0-348.0","hflxzz25","","<span style=""color:Black; font-size:50px;"">Agent A","null","","","","",""
"null","","","video-keyboard-response","349","1224372","0.0-349.0","hflxzz25","","","null","","Agent A","scrambled","STIM_SET_2/713274.bmp_pp73_L3_V1.0_scrambled_freeview_isoTrue.mp4",""
"null","","","html-keyboard-response","350","1225874","0.0-350.0","hflxzz25","","<span style=""color:Black; font-size:50px;"">Agent B","null","","","","",""
"null","","","video-keyboard-response","351","1228946","0.0-351.0","hflxzz25","","","null","","Agent B","veridical","STIM_SET_2/713274.bmp_pp73_L3_V1.0_veridical_freeview_isoTrue.mp4",""
"","","","call-function","352","1228946","0.0-352.0","hflxzz25","","","","","","","",""
"2436.0150000001304","{""judgement"":1}","[0]","survey-likert","353","1231383","0.0-353.0","hflxzz25","","","","","","","","1"
"2103.9000000001397","{""confidence"":0}","[0]","survey-likert","354","1233488","0.0-354.0","hflxzz25","","","","","","","",""
"","","","call-function","355","1233489","0.0-355.0","hflxzz25","","","","","","","",""
"null","","","html-keyboard-response","356","1234992","0.0-356.0","hflxzz25","","<span style=""color:Black; font-size:50px;"">Agent A","null","","","","",""
"null","","","video-keyboard-response","357","1238088","0.0-357.0","hflxzz25","","","null","","Agent A","veridical","STIM_SET_2/1160049.bmp_pp53_L2_V1.0_veridical_freeview_isoTrue.mp4",""
"null","","","html-keyboard-response","358","1239591","0.0-358.0","hflxzz25","","<span style=""color:Black; font-size:50px;"">Agent B","null","","","","",""
"null","","","video-keyboard-response","359","1242687","0.0-359.0","hflxzz25","","","null","","Agent B","scrambled","STIM_SET_2/1160049.bmp_pp53_L2_V1.0_scrambled_freeview_isoTrue.mp4",""
"","","","call-function","360","1242687","0.0-360.0","hflxzz25","","","","","","","",""
"2438.6800000001676","{""judgement"":0}","[0]","survey-likert","361","1245126","0.0-361.0","hflxzz25","","","","","","","","0"
"3270.9600000001956","{""confidence"":0}","[0]","survey-likert","362","1248398","0.0-362.0","hflxzz25","","","","","","","",""
"","","","call-function","363","1248399","0.0-363.0","hflxzz25","","","","","","","",""
"null","","","html-keyboard-response","364","1249903","0.0-364.0","hflxzz25","","<span style=""color:Black; font-size:50px;"">Agent A","null","","","","",""
"null","","","video-keyboard-response","365","1253002","0.0-365.0","hflxzz25","","","null","","Agent A","scrambled","STIM_SET_2/1160247.bmp_pp54_L2_V1.0_scrambled_freeview_isoTrue.mp4",""
"null","","","html-keyboard-response","366","1254503","0.0-366.0","hflxzz25","","<span style=""color:Black; font-size:50px;"">Agent B","null","","","","",""
"null","","","video-keyboard-response","367","1257606","0.0-367.0","hflxzz25","","","null","","Agent B","veridical","STIM_SET_2/1160247.bmp_pp54_L2_V1.0_veridical_freeview_isoTrue.mp4",""
"","","","call-function","368","1257606","0.0-368.0","hflxzz25","","","","","","","",""
"1599.3999999999069","{""judgement"":1}","[0]","survey-likert","369","1259206","0.0-369.0","hflxzz25","","","","","","","","1"
"1431.969999999972","{""confidence"":0}","[0]","survey-likert","370","1260640","0.0-370.0","hflxzz25","","","","","","","",""
"","","","call-function","371","1260640","0.0-371.0","hflxzz25","","","","","","","",""
"null","","","html-keyboard-response","372","1262142","0.0-372.0","hflxzz25","","<span style=""color:Black; font-size:50px;"">Agent A","null","","","","",""
"null","","","video-keyboard-response","373","1265246","0.0-373.0","hflxzz25","","","null","","Agent A","veridical","STIM_SET_2/1592025.bmp_pp68_L1_V1.0_veridical_freeview_isoTrue.mp4",""
"null","","","html-keyboard-response","374","1266750","0.0-374.0","hflxzz25","","<span style=""color:Black; font-size:50px;"">Agent B","null","","","","",""
"null","","","video-keyboard-response","375","1269850","0.0-375.0","hflxzz25","","","null","","Agent B","scrambled","STIM_SET_2/1592025.bmp_pp68_L1_V1.0_scrambled_freeview_isoTrue.mp4",""
"","","","call-function","376","1269851","0.0-376.0","hflxzz25","","","","","","","",""
"2620.5049999998882","{""judgement"":1}","[0]","survey-likert","377","1272472","0.0-377.0","hflxzz25","","","","","","","","0"
"1543.9199999999255","{""confidence"":0}","[0]","survey-likert","378","1274017","0.0-378.0","hflxzz25","","","","","","","",""
"","","","call-function","379","1274018","0.0-379.0","hflxzz25","","","","","","","",""
"null","","","html-keyboard-response","380","1275520","0.0-380.0","hflxzz25","","<span style=""color:Black; font-size:50px;"">Agent A","null","","","","",""
"null","","","video-keyboard-response","381","1278584","0.0-381.0","hflxzz25","","","null","","Agent A","scrambled","STIM_SET_2/1592951.bmp_pp80_L3_V1.0_scrambled_freeview_isoTrue.mp4",""
"null","","","html-keyboard-response","382","1280086","0.0-382.0","hflxzz25","","<span style=""color:Black; font-size:50px;"">Agent B","null","","","","",""
"null","","","video-keyboard-response","383","1283151","0.0-383.0","hflxzz25","","","null","","Agent B","veridical","STIM_SET_2/1592951.bmp_pp80_L3_V1.0_veridical_freeview_isoTrue.mp4",""
"","","","call-function","384","1283153","0.0-384.0","hflxzz25","","","","","","","",""
"1998.5400000000373","{""judgement"":0}","[0]","survey-likert","385","1285153","0.0-385.0","hflxzz25","","","","","","","","1"
"1020.8349999999627","{""confidence"":0}","[0]","survey-likert","386","1286175","0.0-386.0","hflxzz25","","","","","","","",""
"","","","call-function","387","1286175","0.0-387.0","hflxzz25","","","","","","","",""
"null","","","html-keyboard-response","388","1287676","0.0-388.0","hflxzz25","","<span style=""color:Black; font-size:50px;"">Agent A","null","","","","",""
"null","","","video-keyboard-response","389","1290746","0.0-389.0","hflxzz25","","","null","","Agent A","veridical","STIM_SET_2/285684.bmp_pp80_L3_V1.0_veridical_freeview_isoTrue.mp4",""
"null","","","html-keyboard-response","390","1292253","0.0-390.0","hflxzz25","","<span style=""color:Black; font-size:50px;"">Agent B","null","","","","",""
"null","","","video-keyboard-response","391","1295321","0.0-391.0","hflxzz25","","","null","","Agent B","scrambled","STIM_SET_2/285684.bmp_pp80_L3_V1.0_scrambled_freeview_isoTrue.mp4",""
"","","","call-function","392","1295322","0.0-392.0","hflxzz25","","","","","","","",""
"2020.1500000001397","{""judgement"":0}","[0]","survey-likert","393","1297343","0.0-393.0","hflxzz25","","","","","","","","0"
"3349.839999999851","{""confidence"":0}","[0]","survey-likert","394","1300694","0.0-394.0","hflxzz25","","","","","","","",""
"","","","call-function","395","1300695","0.0-395.0","hflxzz25","","","","","","","",""
"null","","","html-keyboard-response","396","1302197","0.0-396.0","hflxzz25","","<span style=""color:Black; font-size:50px;"">Agent A","null","","","","",""
"null","","","video-keyboard-response","397","1305265","0.0-397.0","hflxzz25","","","null","","Agent A","scrambled","STIM_SET_2/713689.bmp_pp153_L3_V1.0_scrambled_freeview_isoTrue.mp4",""
"null","","","html-keyboard-response","398","1306772","0.0-398.0","hflxzz25","","<span style=""color:Black; font-size:50px;"">Agent B","null","","","","",""
"null","","","video-keyboard-response","399","1309843","0.0-399.0","hflxzz25","","","null","","Agent B","veridical","STIM_SET_2/713689.bmp_pp153_L3_V1.0_veridical_freeview_isoTrue.mp4",""
"","","","call-function","400","1309844","0.0-400.0","hflxzz25","","","","","","","",""
"2063.755000000121","{""judgement"":0}","[0]","survey-likert","401","1311908","0.0-401.0","hflxzz25","","","","","","","","1"
"1727.3899999998976","{""confidence"":0}","[0]","survey-likert","402","1313637","0.0-402.0","hflxzz25","","","","","","","",""
"","","","call-function","403","1313637","0.0-403.0","hflxzz25","","","","","","","",""
"null","","","html-keyboard-response","404","1315140","0.0-404.0","hflxzz25","","<span style=""color:Black; font-size:50px;"">Agent A","null","","","","",""
"null","","","video-keyboard-response","405","1318242","0.0-405.0","hflxzz25","","","null","","Agent A","scrambled","STIM_SET_2/498258.bmp_pp51_L1_V1.0_scrambled_freeview_isoTrue.mp4",""
"null","","","html-keyboard-response","406","1319743","0.0-406.0","hflxzz25","","<span style=""color:Black; font-size:50px;"">Agent B","null","","","","",""
"null","","","video-keyboard-response","407","1322840","0.0-407.0","hflxzz25","","","null","","Agent B","veridical","STIM_SET_2/498258.bmp_pp51_L1_V1.0_veridical_freeview_isoTrue.mp4",""
"","","","call-function","408","1322841","0.0-408.0","hflxzz25","","","","","","","",""
"2207.9199999999255","{""judgement"":0}","[0]","survey-likert","409","1325050","0.0-409.0","hflxzz25","","","","","","","","1"
"3485.7350000001024","{""confidence"":0}","[0]","survey-likert","410","1328537","0.0-410.0","hflxzz25","","","","","","","",""
"","","","call-function","411","1328537","0.0-411.0","hflxzz25","","","","","","","",""
"null","","","html-keyboard-response","412","1330039","0.0-412.0","hflxzz25","","<span style=""color:Black; font-size:50px;"">Agent A","null","","","","",""
"null","","","video-keyboard-response","413","1333142","0.0-413.0","hflxzz25","","","null","","Agent A","veridical","STIM_SET_2/1592150.bmp_pp77_L3_V1.0_veridical_freeview_isoTrue.mp4",""
"null","","","html-keyboard-response","414","1334646","0.0-414.0","hflxzz25","","<span style=""color:Black; font-size:50px;"">Agent B","null","","","","",""
"null","","","video-keyboard-response","415","1337747","0.0-415.0","hflxzz25","","","null","","Agent B","scrambled","STIM_SET_2/1592150.bmp_pp77_L3_V1.0_scrambled_freeview_isoTrue.mp4",""
"","","","call-function","416","1337748","0.0-416.0","hflxzz25","","","","","","","",""
"2100.969999999972","{""judgement"":1}","[0]","survey-likert","417","1339850","0.0-417.0","hflxzz25","","","","","","","","0"
"1409.6450000000186","{""confidence"":0}","[0]","survey-likert","418","1341260","0.0-418.0","hflxzz25","","","","","","","",""
"121122.4750000001","","","instructions","419","1462384","0.0-419.0","hflxzz25","[{""page_index"":0,""viewing_time"":120121.38500000001},{""page_index"":1,""viewing_time"":536.8300000000745},{""page_index"":2,""viewing_time"":464.08499999996275}]","","","","","","",""
"581.6100000001024","","","instructions","420","1462966","0.0-420.0","hflxzz25","[{""page_index"":0,""viewing_time"":128.63000000012107},{""page_index"":1,""viewing_time"":295.7050000000745},{""page_index"":2,""viewing_time"":157.1549999997951}]","","","","","","",""
"","","","call-function","421","1462966","0.0-421.0","hflxzz25","","","","","","","",""
"null","","","html-keyboard-response","422","1464469","0.0-422.0","hflxzz25","","<span style=""color:Black; font-size:50px;"">Agent A","null","","","","",""
"null","","","video-keyboard-response","423","1467536","0.0-423.0","hflxzz25","","","null","","Agent A","scrambled","STIM_SET_2/498326.bmp_pp57_L1_V1.0_scrambled_freeview_isoTrue.mp4",""
"null","","","html-keyboard-response","424","1469038","0.0-424.0","hflxzz25","","<span style=""color:Black; font-size:50px;"">Agent B","null","","","","",""
"null","","","video-keyboard-response","425","1472108","0.0-425.0","hflxzz25","","","null","","Agent B","veridical","STIM_SET_2/498326.bmp_pp57_L1_V1.0_veridical_freeview_isoTrue.mp4",""
"","","","call-function","426","1472109","0.0-426.0","hflxzz25","","","","","","","",""
"1897.3300000000745","{""judgement"":1}","[0]","survey-likert","427","1474007","0.0-427.0","hflxzz25","","","","","","","","1"
"2224.905000000028","{""confidence"":0}","[0]","survey-likert","428","1476233","0.0-428.0","hflxzz25","","","","","","","",""
"","","","call-function","429","1476234","0.0-429.0","hflxzz25","","","","","","","",""
"null","","","html-keyboard-response","430","1477740","0.0-430.0","hflxzz25","","<span style=""color:Black; font-size:50px;"">Agent A","null","","","","",""
"null","","","video-keyboard-response","431","1480810","0.0-431.0","hflxzz25","","","null","","Agent A","veridical","STIM_SET_2/1592047.bmp_pp51_L1_V1.0_veridical_freeview_isoTrue.mp4",""
"null","","","html-keyboard-response","432","1482312","0.0-432.0","hflxzz25","","<span style=""color:Black; font-size:50px;"">Agent B","null","","","","",""
"null","","","video-keyboard-response","433","1485381","0.0-433.0","hflxzz25","","","null","","Agent B","scrambled","STIM_SET_2/1592047.bmp_pp51_L1_V1.0_scrambled_freeview_isoTrue.mp4",""
"","","","call-function","434","1485382","0.0-434.0","hflxzz25","","","","","","","",""
"1408.7749999999069","{""judgement"":0}","[0]","survey-likert","435","1486791","0.0-435.0","hflxzz25","","","","","","","","0"
"1845.5999999998603","{""confidence"":0}","[0]","survey-likert","436","1488638","0.0-436.0","hflxzz25","","","","","","","",""
"","","","call-function","437","1488638","0.0-437.0","hflxzz25","","","","","","","",""
"null","","","html-keyboard-response","438","1490140","0.0-438.0","hflxzz25","","<span style=""color:Black; font-size:50px;"">Agent A","null","","","","",""
"null","","","video-keyboard-response","439","1493223","0.0-439.0","hflxzz25","","","null","","Agent A","veridical","STIM_SET_2/498398.bmp_pp81_L1_V1.0_veridical_freeview_isoTrue.mp4",""
"null","","","html-keyboard-response","440","1494729","0.0-440.0","hflxzz25","","<span style=""color:Black; font-size:50px;"">Agent B","null","","","","",""
"null","","","video-keyboard-response","441","1497792","0.0-441.0","hflxzz25","","","null","","Agent B","scrambled","STIM_SET_2/498398.bmp_pp81_L1_V1.0_scrambled_freeview_isoTrue.mp4",""
"","","","call-function","442","1497792","0.0-442.0","hflxzz25","","","","","","","",""
"2503.255000000121","{""judgement"":0}","[0]","survey-likert","443","1500297","0.0-443.0","hflxzz25","","","","","","","","0"
"1975.3899999998976","{""confidence"":0}","[0]","survey-likert","444","1502275","0.0-444.0","hflxzz25","","","","","","","",""
"","","","call-function","445","1502275","0.0-445.0","hflxzz25","","","","","","","",""
"null","","","html-keyboard-response","446","1503782","0.0-446.0","hflxzz25","","<span style=""color:Black; font-size:50px;"">Agent A","null","","","","",""
"null","","","video-keyboard-response","447","1506858","0.0-447.0","hflxzz25","","","null","","Agent A","veridical","STIM_SET_2/713790.bmp_pp100_L3_V1_veridical_freeview_isoTrue.mp4",""
"null","","","html-keyboard-response","448","1508364","0.0-448.0","hflxzz25","","<span style=""color:Black; font-size:50px;"">Agent B","null","","","","",""
"null","","","video-keyboard-response","449","1511442","0.0-449.0","hflxzz25","","","null","","Agent B","scrambled","STIM_SET_2/713790.bmp_pp100_L3_V1_scrambled_freeview_isoTrue.mp4",""
"","","","call-function","450","1511442","0.0-450.0","hflxzz25","","","","","","","",""
"2153.6650000000373","{""judgement"":1}","[0]","survey-likert","451","1513597","0.0-451.0","hflxzz25","","","","","","","","0"
"2882.7349999998696","{""confidence"":0}","[0]","survey-likert","452","1516481","0.0-452.0","hflxzz25","","","","","","","",""
"","","","call-function","453","1516482","0.0-453.0","hflxzz25","","","","","","","",""
"null","","","html-keyboard-response","454","1517986","0.0-454.0","hflxzz25","","<span style=""color:Black; font-size:50px;"">Agent A","null","","","","",""
"null","","","video-keyboard-response","455","1521056","0.0-455.0","hflxzz25","","","null","","Agent A","scrambled","STIM_SET_2/1592044.bmp_pp94_L2_V1.0_scrambled_freeview_isoTrue.mp4",""
"null","","","html-keyboard-response","456","1522560","0.0-456.0","hflxzz25","","<span style=""color:Black; font-size:50px;"">Agent B","null","","","","",""
"null","","","video-keyboard-response","457","1525629","0.0-457.0","hflxzz25","","","null","","Agent B","veridical","STIM_SET_2/1592044.bmp_pp94_L2_V1.0_veridical_freeview_isoTrue.mp4",""
"","","","call-function","458","1525629","0.0-458.0","hflxzz25","","","","","","","",""
"2819.7949999999255","{""judgement"":0}","[0]","survey-likert","459","1528450","0.0-459.0","hflxzz25","","","","","","","","1"
"3319.0100000000093","{""confidence"":0}","[0]","survey-likert","460","1531770","0.0-460.0","hflxzz25","","","","","","","",""
"","","","call-function","461","1531771","0.0-461.0","hflxzz25","","","","","","","",""
"null","","","html-keyboard-response","462","1533275","0.0-462.0","hflxzz25","","<span style=""color:Black; font-size:50px;"">Agent A","null","","","","",""
"null","","","video-keyboard-response","463","1536376","0.0-463.0","hflxzz25","","","null","","Agent A","veridical","STIM_SET_2/150277.bmp_pp65_L3_V1.0_veridical_freeview_isoTrue.mp4",""
"null","","","html-keyboard-response","464","1537878","0.0-464.0","hflxzz25","","<span style=""color:Black; font-size:50px;"">Agent B","null","","","","",""
"null","","","video-keyboard-response","465","1540980","0.0-465.0","hflxzz25","","","null","","Agent B","scrambled","STIM_SET_2/150277.bmp_pp65_L3_V1.0_scrambled_freeview_isoTrue.mp4",""
"","","","call-function","466","1540980","0.0-466.0","hflxzz25","","","","","","","",""
"3640.8499999998603","{""judgement"":1}","[0]","survey-likert","467","1544622","0.0-467.0","hflxzz25","","","","","","","","0"
"1673.7749999999069","{""confidence"":0}","[0]","survey-likert","468","1546297","0.0-468.0","hflxzz25","","","","","","","",""
"","","","call-function","469","1546297","0.0-469.0","hflxzz25","","","","","","","",""
"null","","","html-keyboard-response","470","1547801","0.0-470.0","hflxzz25","","<span style=""color:Black; font-size:50px;"">Agent A","null","","","","",""
"null","","","video-keyboard-response","471","1550896","0.0-471.0","hflxzz25","","","null","","Agent A","veridical","STIM_SET_2/285932.bmp_pp64_L1_V1.0_veridical_freeview_isoTrue.mp4",""
"null","","","html-keyboard-response","472","1552399","0.0-472.0","hflxzz25","","<span style=""color:Black; font-size:50px;"">Agent B","null","","","","",""
"null","","","video-keyboard-response","473","1555493","0.0-473.0","hflxzz25","","","null","","Agent B","scrambled","STIM_SET_2/285932.bmp_pp64_L1_V1.0_scrambled_freeview_isoTrue.mp4",""
"","","","call-function","474","1555494","0.0-474.0","hflxzz25","","","","","","","",""
"2216.5749999999534","{""judgement"":1}","[0]","survey-likert","475","1557711","0.0-475.0","hflxzz25","","","","","","","","0"
"2872.875","{""confidence"":0}","[0]","survey-likert","476","1560585","0.0-476.0","hflxzz25","","","","","","","",""
"","","","call-function","477","1560586","0.0-477.0","hflxzz25","","","","","","","",""
"null","","","html-keyboard-response","478","1562087","0.0-478.0","hflxzz25","","<span style=""color:Black; font-size:50px;"">Agent A","null","","","","",""
"null","","","video-keyboard-response","479","1565150","0.0-479.0","hflxzz25","","","null","","Agent A","scrambled","STIM_SET_2/1592289.bmp_pp92_L3_V1.0_scrambled_freeview_isoTrue.mp4",""
"null","","","html-keyboard-response","480","1566654","0.0-480.0","hflxzz25","","<span style=""color:Black; font-size:50px;"">Agent B","null","","","","",""
"null","","","video-keyboard-response","481","1569757","0.0-481.0","hflxzz25","","","null","","Agent B","veridical","STIM_SET_2/1592289.bmp_pp92_L3_V1.0_veridical_freeview_isoTrue.mp4",""
"","","","call-function","482","1569758","0.0-482.0","hflxzz25","","","","","","","",""
"1872.8499999998603","{""judgement"":1}","[0]","survey-likert","483","1571631","0.0-483.0","hflxzz25","","","","","","","","1"
"1657.6149999999907","{""confidence"":0}","[0]","survey-likert","484","1573290","0.0-484.0","hflxzz25","","","","","","","",""
"","","","call-function","485","1573291","0.0-485.0","hflxzz25","","","","","","","",""
"null","","","html-keyboard-response","486","1574794","0.0-486.0","hflxzz25","","<span style=""color:Black; font-size:50px;"">Agent A","null","","","","",""
"null","","","video-keyboard-response","487","1577861","0.0-487.0","hflxzz25","","","null","","Agent A","veridical","STIM_SET_2/1592857.bmp_pp52_L1_V1_veridical_freeview_isoTrue.mp4",""
"null","","","html-keyboard-response","488","1579364","0.0-488.0","hflxzz25","","<span style=""color:Black; font-size:50px;"">Agent B","null","","","","",""
"null","","","video-keyboard-response","489","1582435","0.0-489.0","hflxzz25","","","null","","Agent B","scrambled","STIM_SET_2/1592857.bmp_pp52_L1_V1_scrambled_freeview_isoTrue.mp4",""
"","","","call-function","490","1582436","0.0-490.0","hflxzz25","","","","","","","",""
"3127.219999999972","{""judgement"":0}","[0]","survey-likert","491","1585564","0.0-491.0","hflxzz25","","","","","","","","0"
"1707.2049999998417","{""confidence"":0}","[0]","survey-likert","492","1587274","0.0-492.0","hflxzz25","","","","","","","",""
"","","","call-function","493","1587275","0.0-493.0","hflxzz25","","","","","","","",""
"null","","","html-keyboard-response","494","1588777","0.0-494.0","hflxzz25","","<span style=""color:Black; font-size:50px;"">Agent A","null","","","","",""
"null","","","video-keyboard-response","495","1591841","0.0-495.0","hflxzz25","","","null","","Agent A","scrambled","STIM_SET_2/1159392.bmp_pp96_L2_V1.0_scrambled_freeview_isoTrue.mp4",""
"null","","","html-keyboard-response","496","1593342","0.0-496.0","hflxzz25","","<span style=""color:Black; font-size:50px;"">Agent B","null","","","","",""
"null","","","video-keyboard-response","497","1596409","0.0-497.0","hflxzz25","","","null","","Agent B","veridical","STIM_SET_2/1159392.bmp_pp96_L2_V1.0_veridical_freeview_isoTrue.mp4",""
"","","","call-function","498","1596410","0.0-498.0","hflxzz25","","","","","","","",""
"2046.6100000001024","{""judgement"":1}","[0]","survey-likert","499","1598458","0.0-499.0","hflxzz25","","","","","","","","1"
"2407.274999999907","{""confidence"":0}","[0]","survey-likert","500","1600867","0.0-500.0","hflxzz25","","","","","","","",""
"1834.8649999999907","","","instructions","501","1602702","0.0-501.0","hflxzz25","[{""page_index"":0,""viewing_time"":1045.3900000001304},{""page_index"":1,""viewing_time"":593.1649999998044},{""page_index"":2,""viewing_time"":196.1500000001397}]","","","","","","",""
"499.89999999990687","","","instructions","502","1603203","0.0-502.0","hflxzz25","[{""page_index"":0,""viewing_time"":160.70999999996275},{""page_index"":1,""viewing_time"":184.01499999989755},{""page_index"":2,""viewing_time"":155.06499999994412}]","","","","","","",""
"","","","call-function","503","1603204","0.0-503.0","hflxzz25","","","","","","","",""
"null","","","html-keyboard-response","504","1604709","0.0-504.0","hflxzz25","","<span style=""color:Black; font-size:50px;"">Agent A","null","","","","",""
"null","","","video-keyboard-response","505","1607781","0.0-505.0","hflxzz25","","","null","","Agent A","veridical","STIM_SET_2/713829.bmp_pp60_L3_V1.0_veridical_freeview_isoTrue.mp4",""
"null","","","html-keyboard-response","506","1609285","0.0-506.0","hflxzz25","","<span style=""color:Black; font-size:50px;"">Agent B","null","","","","",""
"null","","","video-keyboard-response","507","1612352","0.0-507.0","hflxzz25","","","null","","Agent B","scrambled","STIM_SET_2/713829.bmp_pp60_L3_V1.0_scrambled_freeview_isoTrue.mp4",""
"","","","call-function","508","1612352","0.0-508.0","hflxzz25","","","","","","","",""
"2288.8499999998603","{""judgement"":0}","[0]","survey-likert","509","1614642","0.0-509.0","hflxzz25","","","","","","","","0"
"1726.3250000001863","{""confidence"":0}","[0]","survey-likert","510","1616369","0.0-510.0","hflxzz25","","","","","","","",""
"","","","call-function","511","1616370","0.0-511.0","hflxzz25","","","","","","","",""
"null","","","html-keyboard-response","512","1617873","0.0-512.0","hflxzz25","","<span style=""color:Black; font-size:50px;"">Agent A","null","","","","",""
"null","","","video-keyboard-response","513","1620977","0.0-513.0","hflxzz25","","","null","","Agent A","scrambled","STIM_SET_2/713788.bmp_pp52_L1_V1.0_scrambled_freeview_isoTrue.mp4",""
"null","","","html-keyboard-response","514","1622481","0.0-514.0","hflxzz25","","<span style=""color:Black; font-size:50px;"">Agent B","null","","","","",""
"null","","","video-keyboard-response","515","1625581","0.0-515.0","hflxzz25","","","null","","Agent B","veridical","STIM_SET_2/713788.bmp_pp52_L1_V1.0_veridical_freeview_isoTrue.mp4",""
"","","","call-function","516","1625582","0.0-516.0","hflxzz25","","","","","","","",""
"1783.375","{""judgement"":0}","[0]","survey-likert","517","1627366","0.0-517.0","hflxzz25","","","","","","","","1"
"2063.8600000001024","{""confidence"":0}","[0]","survey-likert","518","1629431","0.0-518.0","hflxzz25","","","","","","","",""
"","","","call-function","519","1629432","0.0-519.0","hflxzz25","","","","","","","",""
"null","","","html-keyboard-response","520","1630936","0.0-520.0","hflxzz25","","<span style=""color:Black; font-size:50px;"">Agent A","null","","","","",""
"null","","","video-keyboard-response","521","1634042","0.0-521.0","hflxzz25","","","null","","Agent A","scrambled","STIM_SET_2/107909.bmp_pp95_L2_V1.0_scrambled_freeview_isoTrue.mp4",""
"null","","","html-keyboard-response","522","1635546","0.0-522.0","hflxzz25","","<span style=""color:Black; font-size:50px;"">Agent B","null","","","","",""
"null","","","video-keyboard-response","523","1638650","0.0-523.0","hflxzz25","","","null","","Agent B","veridical","STIM_SET_2/107909.bmp_pp95_L2_V1.0_veridical_freeview_isoTrue.mp4",""
"","","","call-function","524","1638650","0.0-524.0","hflxzz25","","","","","","","",""
"1877.1350000000093","{""judgement"":1}","[0]","survey-likert","525","1640528","0.0-525.0","hflxzz25","","","","","","","","1"
"1741.8850000000093","{""confidence"":0}","[0]","survey-likert","526","1642271","0.0-526.0","hflxzz25","","","","","","","",""
"","","","call-function","527","1642271","0.0-527.0","hflxzz25","","","","","","","",""
"null","","","html-keyboard-response","528","1643776","0.0-528.0","hflxzz25","","<span style=""color:Black; font-size:50px;"">Agent A","null","","","","",""
"null","","","video-keyboard-response","529","1646873","0.0-529.0","hflxzz25","","","null","","Agent A","scrambled","STIM_SET_2/1592201.bmp_pp97_L3_V1.0_scrambled_freeview_isoTrue.mp4",""
"null","","","html-keyboard-response","530","1648374","0.0-530.0","hflxzz25","","<span style=""color:Black; font-size:50px;"">Agent B","null","","","","",""
"null","","","video-keyboard-response","531","1651474","0.0-531.0","hflxzz25","","","null","","Agent B","veridical","STIM_SET_2/1592201.bmp_pp97_L3_V1.0_veridical_freeview_isoTrue.mp4",""
"","","","call-function","532","1651474","0.0-532.0","hflxzz25","","","","","","","",""
"1368.0200000000186","{""judgement"":1}","[0]","survey-likert","533","1652843","0.0-533.0","hflxzz25","","","","","","","","1"
"2254.844999999972","{""confidence"":0}","[0]","survey-likert","534","1655099","0.0-534.0","hflxzz25","","","","","","","",""
"","","","call-function","535","1655100","0.0-535.0","hflxzz25","","","","","","","",""
"null","","","html-keyboard-response","536","1656604","0.0-536.0","hflxzz25","","<span style=""color:Black; font-size:50px;"">Agent A","null","","","","",""
"null","","","video-keyboard-response","537","1659683","0.0-537.0","hflxzz25","","","null","","Agent A","scrambled","STIM_SET_2/1592568.bmp_pp71_L1_V1.0_scrambled_freeview_isoTrue.mp4",""
"null","","","html-keyboard-response","538","1661185","0.0-538.0","hflxzz25","","<span style=""color:Black; font-size:50px;"">Agent B","null","","","","",""
"null","","","video-keyboard-response","539","1664268","0.0-539.0","hflxzz25","","","null","","Agent B","veridical","STIM_SET_2/1592568.bmp_pp71_L1_V1.0_veridical_freeview_isoTrue.mp4",""
"","","","call-function","540","1664268","0.0-540.0","hflxzz25","","","","","","","",""
"1880.7749999999069","{""judgement"":0}","[0]","survey-likert","541","1666150","0.0-541.0","hflxzz25","","","","","","","","1"
"2680.2650000001304","{""confidence"":0}","[0]","survey-likert","542","1668833","0.0-542.0","hflxzz25","","","","","","","",""
"","","","call-function","543","1668834","0.0-543.0","hflxzz25","","","","","","","",""
"null","","","html-keyboard-response","544","1670337","0.0-544.0","hflxzz25","","<span style=""color:Black; font-size:50px;"">Agent A","null","","","","",""
"null","","","video-keyboard-response","545","1673398","0.0-545.0","hflxzz25","","","null","","Agent A","veridical","STIM_SET_2/285715.bmp_pp67_L2_V1.0_veridical_freeview_isoTrue.mp4",""
"null","","","html-keyboard-response","546","1674901","0.0-546.0","hflxzz25","","<span style=""color:Black; font-size:50px;"">Agent B","null","","","","",""
"null","","","video-keyboard-response","547","1677966","0.0-547.0","hflxzz25","","","null","","Agent B","scrambled","STIM_SET_2/285715.bmp_pp67_L2_V1.0_scrambled_freeview_isoTrue.mp4",""
"","","","call-function","548","1677967","0.0-548.0","hflxzz25","","","","","","","",""
"1699.7700000000186","{""judgement"":1}","[0]","survey-likert","549","1679668","0.0-549.0","hflxzz25","","","","","","","","0"
"1791.3649999999907","{""confidence"":0}","[0]","survey-likert","550","1681461","0.0-550.0","hflxzz25","","","","","","","",""
"","","","call-function","551","1681461","0.0-551.0","hflxzz25","","","","","","","",""
"null","","","html-keyboard-response","552","1682967","0.0-552.0","hflxzz25","","<span style=""color:Black; font-size:50px;"">Agent A","null","","","","",""
"null","","","video-keyboard-response","553","1686045","0.0-553.0","hflxzz25","","","null","","Agent A","scrambled","STIM_SET_2/713381.bmp_pp82_L2_V1.0_scrambled_freeview_isoTrue.mp4",""
"null","","","html-keyboard-response","554","1687547","0.0-554.0","hflxzz25","","<span style=""color:Black; font-size:50px;"">Agent B","null","","","","",""
"null","","","video-keyboard-response","555","1690628","0.0-555.0","hflxzz25","","","null","","Agent B","veridical","STIM_SET_2/713381.bmp_pp82_L2_V1.0_veridical_freeview_isoTrue.mp4",""
"","","","call-function","556","1690629","0.0-556.0","hflxzz25","","","","","","","",""
"1801.0749999999534","{""judgement"":1}","[0]","survey-likert","557","1692431","0.0-557.0","hflxzz25","","","","","","","","1"
"3224.7700000000186","{""confidence"":0}","[0]","survey-likert","558","1695657","0.0-558.0","hflxzz25","","","","","","","",""
"","","","call-function","559","1695658","0.0-559.0","hflxzz25","","","","","","","",""
"null","","","html-keyboard-response","560","1697162","0.0-560.0","hflxzz25","","<span style=""color:Black; font-size:50px;"">Agent A","null","","","","",""
"null","","","video-keyboard-response","561","1700255","0.0-561.0","hflxzz25","","","null","","Agent A","veridical","STIM_SET_2/286034.bmp_pp69_L3_V1.0_veridical_freeview_isoTrue.mp4",""
"null","","","html-keyboard-response","562","1701759","0.0-562.0","hflxzz25","","<span style=""color:Black; font-size:50px;"">Agent B","null","","","","",""
"null","","","video-keyboard-response","563","1704855","0.0-563.0","hflxzz25","","","null","","Agent B","scrambled","STIM_SET_2/286034.bmp_pp69_L3_V1.0_scrambled_freeview_isoTrue.mp4",""
"","","","call-function","564","1704855","0.0-564.0","hflxzz25","","","","","","","",""
"2104.910000000149","{""judgement"":1}","[0]","survey-likert","565","1706962","0.0-565.0","hflxzz25","","","","","","","","0"
"1719.030000000028","{""confidence"":0}","[0]","survey-likert","566","1708682","0.0-566.0","hflxzz25","","","","","","","",""
"","","","call-function","567","1708682","0.0-567.0","hflxzz25","","","","","","","",""
"null","","","html-keyboard-response","568","1710189","0.0-568.0","hflxzz25","","<span style=""color:Black; font-size:50px;"">Agent A","null","","","","",""
"null","","","video-keyboard-response","569","1713248","0.0-569.0","hflxzz25","","","null","","Agent A","scrambled","STIM_SET_2/107955.bmp_pp90_L2_V1.0_scrambled_freeview_isoTrue.mp4",""
"null","","","html-keyboard-response","570","1714750","0.0-570.0","hflxzz25","","<span style=""color:Black; font-size:50px;"">Agent B","null","","","","",""
"null","","","video-keyboard-response","571","1717807","0.0-571.0","hflxzz25","","","null","","Agent B","veridical","STIM_SET_2/107955.bmp_pp90_L2_V1.0_veridical_freeview_isoTrue.mp4",""
"","","","call-function","572","1717807","0.0-572.0","hflxzz25","","","","","","","",""
"2442.2899999998044","{""judgement"":1}","[0]","survey-likert","573","1720250","0.0-573.0","hflxzz25","","","","","","","","1"
"1653.9799999999814","{""confidence"":0}","[0]","survey-likert","574","1721905","0.0-574.0","hflxzz25","","","","","","","",""
"","","","call-function","575","1721906","0.0-575.0","hflxzz25","","","","","","","",""
"null","","","html-keyboard-response","576","1723411","0.0-576.0","hflxzz25","","<span style=""color:Black; font-size:50px;"">Agent A","null","","","","",""
"null","","","video-keyboard-response","577","1726514","0.0-577.0","hflxzz25","","","null","","Agent A","veridical","STIM_SET_2/713858.bmp_pp57_L1_V1.0_veridical_freeview_isoTrue.mp4",""
"null","","","html-keyboard-response","578","1728021","0.0-578.0","hflxzz25","","<span style=""color:Black; font-size:50px;"">Agent B","null","","","","",""
"null","","","video-keyboard-response","579","1731132","0.0-579.0","hflxzz25","","","null","","Agent B","scrambled","STIM_SET_2/713858.bmp_pp57_L1_V1.0_scrambled_freeview_isoTrue.mp4",""
"","","","call-function","580","1731132","0.0-580.0","hflxzz25","","","","","","","",""
"2108.3349999999627","{""judgement"":1}","[0]","survey-likert","581","1733241","0.0-581.0","hflxzz25","","","","","","","","0"
"2429.534999999916","{""confidence"":0}","[0]","survey-likert","582","1735673","0.0-582.0","hflxzz25","","","","","","","",""
"1040.0400000000373","","","instructions","583","1736713","0.0-583.0","hflxzz25","[{""page_index"":0,""viewing_time"":1039.905000000028}]","","","","","","",""
"1606.8349999999627","","","instructions","584","1738321","0.0-584.0","hflxzz25","[{""page_index"":0,""viewing_time"":1606.6450000000186}]","","","","","","",""
"7030.104999999981","{""post-1"":2}","[0]","survey-likert","585","1745352","0.0-585.0","hflxzz25","","","","","","","",""
"3835.4499999999534","{""post-1"":1}","[0]","survey-likert","586","1749189","0.0-586.0","hflxzz25","","","","","","","",""
"2755.0150000001304","{""post-2"":2}","[0]","survey-likert","587","1751946","0.0-587.0","hflxzz25","","","","","","","",""
"2589.75","{""post-2"":1}","[0]","survey-likert","588","1754538","0.0-588.0","hflxzz25","","","","","","","",""
"3886.064999999944","{""post-3"":2}","[0]","survey-likert","589","1758425","0.0-589.0","hflxzz25","","","","","","","",""
"4976.070000000065","{""post-3"":1}","[0]","survey-likert","590","1763402","0.0-590.0","hflxzz25","","","","","","","",""
"5930","{""post-4"":1}","[0]","survey-likert","591","1769334","0.0-591.0","hflxzz25","","","","","","","",""
"4587.475000000093","{""post-4"":1}","[0]","survey-likert","592","1773922","0.0-592.0","hflxzz25","","","","","","","",""
"4570.889999999898","{""post-5"":1}","[0]","survey-likert","593","1778494","0.0-593.0","hflxzz25","","","","","","","",""
"1748.8649999999907","{""post-5"":2}","[0]","survey-likert","594","1780244","0.0-594.0","hflxzz25","","","","","","","",""
"7162.694999999832","{""Q0"":""It was ok""}","","survey-text","595","1787412","0.0-595.0","hflxzz25","","","","","","","",""
"21863.77000000002","{""Q0"":""I tried to focus on those where the attention hotspots were in the middle of the page""}","","survey-text","596","1809279","0.0-596.0","hflxzz25","","","","","","","",""
"13835.455000000075","{""Q0"":""it was hard to stay focused""}","","survey-text","597","1823118","0.0-597.0","hflxzz25","","","","","","","",""
"991.8249999999534","","","instructions","598","1824111","0.0-598.0","hflxzz25","[{""page_index"":0,""viewing_time"":991.6899999999441}]","","","","","","",""
"125951.73000000021","{""Experimenter_end"":[""Printed ID# hflxzz25 on consent form"",""Given subject SONA credit or payment"",""Given the subject debrief form""]}","[0]","survey-multi-select","599","1950066","0.0-599.0","hflxzz25","","","","","","","",""
