"rt","responses","question_order","trial_type","trial_index","time_elapsed","internal_node_id","ID","view_history","stimulus","key_press","value","agent","condition","image","correct_answer"
"181511.355","{""Experimenter"":[""Confirmed subject's identity"",""Confirmed normal or corrected-to-normal vision"",""Obtained consent (signature and date)"",""Checked the test room lighting"",""Checked computer screen lighting"",""Checked distance from screen to chin rest (50cm)"",""Cleaned and adjusted chin rest"",""Counterbalanced the order of the tasks"",""Opened the experiment in Firefox"",""Made the experiment full screen"",""Encouraged subject to silence phone, put away distractors, etc.""]}","[0]","survey-multi-select","0","181519","0.0-0.0","hmnw51ko","","","","","","","",""
"37390.80000000002","","","instructions","1","218912","0.0-1.0","hmnw51ko","[{""page_index"":0,""viewing_time"":37390.655}]","","","","","","",""
"16003.5","","","instructions","2","234916","0.0-2.0","hmnw51ko","[{""page_index"":0,""viewing_time"":8484.589999999997},{""page_index"":1,""viewing_time"":1482.0450000000128},{""page_index"":2,""viewing_time"":6036.744999999995}]","","","","","","",""
"3106.390000000014","","","instructions","3","238024","0.0-3.0","hmnw51ko","[{""page_index"":0,""viewing_time"":3106.2850000000035}]","","","","","","",""
"null","","","video-keyboard-response","4","241100","0.0-4.0","hmnw51ko","","","null","","","","",""
"10381.744999999995","","","instructions","5","251483","0.0-5.0","hmnw51ko","[{""page_index"":0,""viewing_time"":3772.6199999999953},{""page_index"":1,""viewing_time"":3618.9100000000035},{""page_index"":2,""viewing_time"":2990.110000000015}]","","","","","","",""
"4047.100000000006","","","instructions","6","255531","0.0-6.0","hmnw51ko","[{""page_index"":0,""viewing_time"":4046.9949999999953}]","","","","","","",""
"1348.3450000000012","","","instructions","7","256880","0.0-7.0","hmnw51ko","[{""page_index"":0,""viewing_time"":1348.1300000000047}]","","","","","","",""
"null","","","video-keyboard-response","8","259954","0.0-8.0","hmnw51ko","","","null","","","","",""
"17930.744999999995","","","instructions","9","277886","0.0-9.0","hmnw51ko","[{""page_index"":0,""viewing_time"":1797.4649999999965},{""page_index"":1,""viewing_time"":4251.954999999987},{""page_index"":2,""viewing_time"":11881.190000000002}]","","","","","","",""
"4914.075000000012","","","instructions","10","282801","0.0-10.0","hmnw51ko","[{""page_index"":0,""viewing_time"":4913.965000000026}]","","","","","","",""
"","","","call-function","11","282802","0.0-11.0","hmnw51ko","","","","","","","",""
"null","","","html-keyboard-response","12","284306","0.0-12.0","hmnw51ko","","<span style=""color:Black; font-size:50px;"">Agent A","null","","","","",""
"null","","","video-keyboard-response","13","287370","0.0-13.0","hmnw51ko","","","null","","Agent A","scrambled","STIM_SET_5/1592857.bmp_pp52_L1_V1_veridical_freeview_isoTrue_Hflip_fps144.mp4",""
"null","","","html-keyboard-response","14","288875","0.0-14.0","hmnw51ko","","<span style=""color:Black; font-size:50px;"">Agent B","null","","","","",""
"null","","","video-keyboard-response","15","291937","0.0-15.0","hmnw51ko","","","null","","Agent B","veridical","STIM_SET_2_144/1592857.bmp_pp52_L1_V1_veridical_freeview_isoTrue_fps144.mp4",""
"","","","call-function","16","291938","0.0-16.0","hmnw51ko","","","","","","","",""
"4630.390000000014","{""judgement"":1}","[0]","survey-likert","17","296569","0.0-17.0","hmnw51ko","","","","","","","","1"
"6585.109999999986","{""confidence"":1}","[0]","survey-likert","18","303156","0.0-18.0","hmnw51ko","","","","","","","",""
"","","","call-function","19","303158","0.0-19.0","hmnw51ko","","","","","","","",""
"null","","","html-keyboard-response","20","304661","0.0-20.0","hmnw51ko","","<span style=""color:Black; font-size:50px;"">Agent A","null","","","","",""
"null","","","video-keyboard-response","21","307729","0.0-21.0","hmnw51ko","","","null","","Agent A","scrambled","STIM_SET_5/285932.bmp_pp64_L1_V1.0_veridical_freeview_isoTrue_Hflip_fps144.mp4",""
"null","","","html-keyboard-response","22","309232","0.0-22.0","hmnw51ko","","<span style=""color:Black; font-size:50px;"">Agent B","null","","","","",""
"null","","","video-keyboard-response","23","312296","0.0-23.0","hmnw51ko","","","null","","Agent B","veridical","STIM_SET_2_144/285932.bmp_pp64_L1_V1.0_veridical_freeview_isoTrue_fps144.mp4",""
"","","","call-function","24","312297","0.0-24.0","hmnw51ko","","","","","","","",""
"4684.330000000016","{""judgement"":0}","[0]","survey-likert","25","316983","0.0-25.0","hmnw51ko","","","","","","","","1"
"3185.25","{""confidence"":1}","[0]","survey-likert","26","320169","0.0-26.0","hmnw51ko","","","","","","","",""
"","","","call-function","27","320170","0.0-27.0","hmnw51ko","","","","","","","",""
"null","","","html-keyboard-response","28","321674","0.0-28.0","hmnw51ko","","<span style=""color:Black; font-size:50px;"">Agent A","null","","","","",""
"null","","","video-keyboard-response","29","324735","0.0-29.0","hmnw51ko","","","null","","Agent A","scrambled","STIM_SET_5/1159325.bmp_pp67_L2_V1.0_veridical_freeview_isoTrue_Hflip_fps144.mp4",""
"null","","","html-keyboard-response","30","326238","0.0-30.0","hmnw51ko","","<span style=""color:Black; font-size:50px;"">Agent B","null","","","","",""
"null","","","video-keyboard-response","31","329298","0.0-31.0","hmnw51ko","","","null","","Agent B","veridical","STIM_SET_2_144/1159325.bmp_pp67_L2_V1.0_veridical_freeview_isoTrue_fps144.mp4",""
"","","","call-function","32","329299","0.0-32.0","hmnw51ko","","","","","","","",""
"4932.965000000026","{""judgement"":0}","[0]","survey-likert","33","334233","0.0-33.0","hmnw51ko","","","","","","","","1"
"1993.9799999999814","{""confidence"":2}","[0]","survey-likert","34","336228","0.0-34.0","hmnw51ko","","","","","","","",""
"","","","call-function","35","336229","0.0-35.0","hmnw51ko","","","","","","","",""
"null","","","html-keyboard-response","36","337731","0.0-36.0","hmnw51ko","","<span style=""color:Black; font-size:50px;"">Agent A","null","","","","",""
"null","","","video-keyboard-response","37","340823","0.0-37.0","hmnw51ko","","","null","","Agent A","veridical","STIM_SET_2_144/1591781.bmp_pp63_L1_V1.0_veridical_freeview_isoTrue_fps144.mp4",""
"null","","","html-keyboard-response","38","342329","0.0-38.0","hmnw51ko","","<span style=""color:Black; font-size:50px;"">Agent B","null","","","","",""
"null","","","video-keyboard-response","39","345421","0.0-39.0","hmnw51ko","","","null","","Agent B","scrambled","STIM_SET_5/1591781.bmp_pp63_L1_V1.0_veridical_freeview_isoTrue_Hflip_fps144.mp4",""
"","","","call-function","40","345422","0.0-40.0","hmnw51ko","","","","","","","",""
"6058.534999999974","{""judgement"":1}","[0]","survey-likert","41","351482","0.0-41.0","hmnw51ko","","","","","","","","0"
"5639.464999999967","{""confidence"":1}","[0]","survey-likert","42","357122","0.0-42.0","hmnw51ko","","","","","","","",""
"","","","call-function","43","357123","0.0-43.0","hmnw51ko","","","","","","","",""
"null","","","html-keyboard-response","44","358630","0.0-44.0","hmnw51ko","","<span style=""color:Black; font-size:50px;"">Agent A","null","","","","",""
"null","","","video-keyboard-response","45","361720","0.0-45.0","hmnw51ko","","","null","","Agent A","veridical","STIM_SET_2_144/1159592.bmp_pp91_L3_V1.0_veridical_freeview_isoTrue_fps144.mp4",""
"null","","","html-keyboard-response","46","363222","0.0-46.0","hmnw51ko","","<span style=""color:Black; font-size:50px;"">Agent B","null","","","","",""
"null","","","video-keyboard-response","47","366314","0.0-47.0","hmnw51ko","","","null","","Agent B","scrambled","STIM_SET_5/1159592.bmp_pp91_L3_V1.0_veridical_freeview_isoTrue_Hflip_fps144.mp4",""
"","","","call-function","48","366314","0.0-48.0","hmnw51ko","","","","","","","",""
"3321.615000000049","{""judgement"":0}","[0]","survey-likert","49","369637","0.0-49.0","hmnw51ko","","","","","","","","0"
"1796.8399999999674","{""confidence"":2}","[0]","survey-likert","50","371435","0.0-50.0","hmnw51ko","","","","","","","",""
"","","","call-function","51","371437","0.0-51.0","hmnw51ko","","","","","","","",""
"null","","","html-keyboard-response","52","372939","0.0-52.0","hmnw51ko","","<span style=""color:Black; font-size:50px;"">Agent A","null","","","","",""
"null","","","video-keyboard-response","53","376007","0.0-53.0","hmnw51ko","","","null","","Agent A","scrambled","STIM_SET_5/150277.bmp_pp65_L3_V1.0_veridical_freeview_isoTrue_Hflip_fps144.mp4",""
"null","","","html-keyboard-response","54","377512","0.0-54.0","hmnw51ko","","<span style=""color:Black; font-size:50px;"">Agent B","null","","","","",""
"null","","","video-keyboard-response","55","380583","0.0-55.0","hmnw51ko","","","null","","Agent B","veridical","STIM_SET_2_144/150277.bmp_pp65_L3_V1.0_veridical_freeview_isoTrue_fps144.mp4",""
"","","","call-function","56","380583","0.0-56.0","hmnw51ko","","","","","","","",""
"2546.3150000000023","{""judgement"":1}","[0]","survey-likert","57","383130","0.0-57.0","hmnw51ko","","","","","","","","1"
"2363.8549999999814","{""confidence"":2}","[0]","survey-likert","58","385496","0.0-58.0","hmnw51ko","","","","","","","",""
"","","","call-function","59","385496","0.0-59.0","hmnw51ko","","","","","","","",""
"null","","","html-keyboard-response","60","386999","0.0-60.0","hmnw51ko","","<span style=""color:Black; font-size:50px;"">Agent A","null","","","","",""
"null","","","video-keyboard-response","61","390063","0.0-61.0","hmnw51ko","","","null","","Agent A","veridical","STIM_SET_2_144/1591920.bmp_pp97_L3_V1_veridical_freeview_isoTrue_fps144.mp4",""
"null","","","html-keyboard-response","62","391567","0.0-62.0","hmnw51ko","","<span style=""color:Black; font-size:50px;"">Agent B","null","","","","",""
"null","","","video-keyboard-response","63","394628","0.0-63.0","hmnw51ko","","","null","","Agent B","scrambled","STIM_SET_5/1591920.bmp_pp97_L3_V1_veridical_freeview_isoTrue_Hflip_fps144.mp4",""
"","","","call-function","64","394629","0.0-64.0","hmnw51ko","","","","","","","",""
"5626.275000000023","{""judgement"":0}","[0]","survey-likert","65","400256","0.0-65.0","hmnw51ko","","","","","","","","0"
"2197.5349999999744","{""confidence"":1}","[0]","survey-likert","66","402456","0.0-66.0","hmnw51ko","","","","","","","",""
"","","","call-function","67","402458","0.0-67.0","hmnw51ko","","","","","","","",""
"null","","","html-keyboard-response","68","403965","0.0-68.0","hmnw51ko","","<span style=""color:Black; font-size:50px;"">Agent A","null","","","","",""
"null","","","video-keyboard-response","69","407044","0.0-69.0","hmnw51ko","","","null","","Agent A","scrambled","STIM_SET_5/1160247.bmp_pp54_L2_V1.0_veridical_freeview_isoTrue_Hflip_fps144.mp4",""
"null","","","html-keyboard-response","70","408549","0.0-70.0","hmnw51ko","","<span style=""color:Black; font-size:50px;"">Agent B","null","","","","",""
"null","","","video-keyboard-response","71","411626","0.0-71.0","hmnw51ko","","","null","","Agent B","veridical","STIM_SET_2_144/1160247.bmp_pp54_L2_V1.0_veridical_freeview_isoTrue_fps144.mp4",""
"","","","call-function","72","411627","0.0-72.0","hmnw51ko","","","","","","","",""
"4337.835000000021","{""judgement"":0}","[0]","survey-likert","73","415966","0.0-73.0","hmnw51ko","","","","","","","","1"
"2901.2550000000047","{""confidence"":2}","[0]","survey-likert","74","418869","0.0-74.0","hmnw51ko","","","","","","","",""
"","","","call-function","75","418870","0.0-75.0","hmnw51ko","","","","","","","",""
"null","","","html-keyboard-response","76","420372","0.0-76.0","hmnw51ko","","<span style=""color:Black; font-size:50px;"">Agent A","null","","","","",""
"null","","","video-keyboard-response","77","423442","0.0-77.0","hmnw51ko","","","null","","Agent A","veridical","STIM_SET_2_144/1159956.bmp_pp59_L3_V1.0_veridical_freeview_isoTrue_fps144.mp4",""
"null","","","html-keyboard-response","78","424947","0.0-78.0","hmnw51ko","","<span style=""color:Black; font-size:50px;"">Agent B","null","","","","",""
"null","","","video-keyboard-response","79","428013","0.0-79.0","hmnw51ko","","","null","","Agent B","scrambled","STIM_SET_5/1159956.bmp_pp59_L3_V1.0_veridical_freeview_isoTrue_Hflip_fps144.mp4",""
"","","","call-function","80","428014","0.0-80.0","hmnw51ko","","","","","","","",""
"2114.0800000000163","{""judgement"":1}","[0]","survey-likert","81","430129","0.0-81.0","hmnw51ko","","","","","","","","0"
"1686.1600000000326","{""confidence"":2}","[0]","survey-likert","82","431816","0.0-82.0","hmnw51ko","","","","","","","",""
"","","","call-function","83","431817","0.0-83.0","hmnw51ko","","","","","","","",""
"null","","","html-keyboard-response","84","433321","0.0-84.0","hmnw51ko","","<span style=""color:Black; font-size:50px;"">Agent A","null","","","","",""
"null","","","video-keyboard-response","85","436401","0.0-85.0","hmnw51ko","","","null","","Agent A","scrambled","STIM_SET_5/1159427.bmp_pp98_L1_V1.0_veridical_freeview_isoTrue_Hflip_fps144.mp4",""
"null","","","html-keyboard-response","86","437903","0.0-86.0","hmnw51ko","","<span style=""color:Black; font-size:50px;"">Agent B","null","","","","",""
"null","","","video-keyboard-response","87","440978","0.0-87.0","hmnw51ko","","","null","","Agent B","veridical","STIM_SET_2_144/1159427.bmp_pp98_L1_V1.0_veridical_freeview_isoTrue_fps144.mp4",""
"","","","call-function","88","440978","0.0-88.0","hmnw51ko","","","","","","","",""
"3860.4700000000303","{""judgement"":0}","[0]","survey-likert","89","444840","0.0-89.0","hmnw51ko","","","","","","","","1"
"7232.440000000002","{""confidence"":0}","[0]","survey-likert","90","452074","0.0-90.0","hmnw51ko","","","","","","","",""
"5150.869999999995","","","instructions","91","457225","0.0-91.0","hmnw51ko","[{""page_index"":0,""viewing_time"":2154.2550000000047},{""page_index"":1,""viewing_time"":1507.9749999999767},{""page_index"":2,""viewing_time"":1488.320000000007}]","","","","","","",""
"6083.849999999977","","","instructions","92","463310","0.0-92.0","hmnw51ko","[{""page_index"":0,""viewing_time"":1345.6300000000047},{""page_index"":1,""viewing_time"":3539.9949999999953},{""page_index"":2,""viewing_time"":1198.1149999999907}]","","","","","","",""
"","","","call-function","93","463311","0.0-93.0","hmnw51ko","","","","","","","",""
"null","","","html-keyboard-response","94","464812","0.0-94.0","hmnw51ko","","<span style=""color:Black; font-size:50px;"">Agent A","null","","","","",""
"null","","","video-keyboard-response","95","467892","0.0-95.0","hmnw51ko","","","null","","Agent A","veridical","STIM_SET_2_144/1159392.bmp_pp96_L2_V1.0_veridical_freeview_isoTrue_fps144.mp4",""
"null","","","html-keyboard-response","96","469395","0.0-96.0","hmnw51ko","","<span style=""color:Black; font-size:50px;"">Agent B","null","","","","",""
"null","","","video-keyboard-response","97","472459","0.0-97.0","hmnw51ko","","","null","","Agent B","scrambled","STIM_SET_5/1159392.bmp_pp96_L2_V1.0_veridical_freeview_isoTrue_Hflip_fps144.mp4",""
"","","","call-function","98","472460","0.0-98.0","hmnw51ko","","","","","","","",""
"3400.6599999999744","{""judgement"":0}","[0]","survey-likert","99","475862","0.0-99.0","hmnw51ko","","","","","","","","0"
"3834.5149999999558","{""confidence"":2}","[0]","survey-likert","100","479698","0.0-100.0","hmnw51ko","","","","","","","",""
"","","","call-function","101","479699","0.0-101.0","hmnw51ko","","","","","","","",""
"null","","","html-keyboard-response","102","481204","0.0-102.0","hmnw51ko","","<span style=""color:Black; font-size:50px;"">Agent A","null","","","","",""
"null","","","video-keyboard-response","103","484267","0.0-103.0","hmnw51ko","","","null","","Agent A","scrambled","STIM_SET_5/1592017.bmp_pp154_L1_V1.0_veridical_freeview_isoTrue_Hflip_fps144.mp4",""
"null","","","html-keyboard-response","104","485773","0.0-104.0","hmnw51ko","","<span style=""color:Black; font-size:50px;"">Agent B","null","","","","",""
"null","","","video-keyboard-response","105","488836","0.0-105.0","hmnw51ko","","","null","","Agent B","veridical","STIM_SET_2_144/1592017.bmp_pp154_L1_V1.0_veridical_freeview_isoTrue_fps144.mp4",""
"","","","call-function","106","488837","0.0-106.0","hmnw51ko","","","","","","","",""
"4322.195000000007","{""judgement"":0}","[0]","survey-likert","107","493160","0.0-107.0","hmnw51ko","","","","","","","","1"
"1766.2949999999837","{""confidence"":2}","[0]","survey-likert","108","494928","0.0-108.0","hmnw51ko","","","","","","","",""
"","","","call-function","109","494929","0.0-109.0","hmnw51ko","","","","","","","",""
"null","","","html-keyboard-response","110","496432","0.0-110.0","hmnw51ko","","<span style=""color:Black; font-size:50px;"">Agent A","null","","","","",""
"null","","","video-keyboard-response","111","499500","0.0-111.0","hmnw51ko","","","null","","Agent A","veridical","STIM_SET_2_144/1592025.bmp_pp68_L1_V1.0_veridical_freeview_isoTrue_fps144.mp4",""
"null","","","html-keyboard-response","112","501004","0.0-112.0","hmnw51ko","","<span style=""color:Black; font-size:50px;"">Agent B","null","","","","",""
"null","","","video-keyboard-response","113","504072","0.0-113.0","hmnw51ko","","","null","","Agent B","scrambled","STIM_SET_5/1592025.bmp_pp68_L1_V1.0_veridical_freeview_isoTrue_Hflip_fps144.mp4",""
"","","","call-function","114","504073","0.0-114.0","hmnw51ko","","","","","","","",""
"2466.2700000000186","{""judgement"":1}","[0]","survey-likert","115","506540","0.0-115.0","hmnw51ko","","","","","","","","0"
"1794.5599999999977","{""confidence"":2}","[0]","survey-likert","116","508336","0.0-116.0","hmnw51ko","","","","","","","",""
"","","","call-function","117","508337","0.0-117.0","hmnw51ko","","","","","","","",""
"null","","","html-keyboard-response","118","509838","0.0-118.0","hmnw51ko","","<span style=""color:Black; font-size:50px;"">Agent A","null","","","","",""
"null","","","video-keyboard-response","119","512933","0.0-119.0","hmnw51ko","","","null","","Agent A","veridical","STIM_SET_2_144/1592168.bmp_pp71_L1_V1.0_veridical_freeview_isoTrue_fps144.mp4",""
"null","","","html-keyboard-response","120","514440","0.0-120.0","hmnw51ko","","<span style=""color:Black; font-size:50px;"">Agent B","null","","","","",""
"null","","","video-keyboard-response","121","517534","0.0-121.0","hmnw51ko","","","null","","Agent B","scrambled","STIM_SET_5/1592168.bmp_pp71_L1_V1.0_veridical_freeview_isoTrue_Hflip_fps144.mp4",""
"","","","call-function","122","517534","0.0-122.0","hmnw51ko","","","","","","","",""
"2932.695000000007","{""judgement"":1}","[0]","survey-likert","123","520469","0.0-123.0","hmnw51ko","","","","","","","","0"
"1429.0100000000093","{""confidence"":2}","[0]","survey-likert","124","521899","0.0-124.0","hmnw51ko","","","","","","","",""
"","","","call-function","125","521900","0.0-125.0","hmnw51ko","","","","","","","",""
"null","","","html-keyboard-response","126","523405","0.0-126.0","hmnw51ko","","<span style=""color:Black; font-size:50px;"">Agent A","null","","","","",""
"null","","","video-keyboard-response","127","526485","0.0-127.0","hmnw51ko","","","null","","Agent A","scrambled","STIM_SET_5/1159973.bmp_pp98_L1_V1.0_veridical_freeview_isoTrue_Hflip_fps144.mp4",""
"null","","","html-keyboard-response","128","527990","0.0-128.0","hmnw51ko","","<span style=""color:Black; font-size:50px;"">Agent B","null","","","","",""
"null","","","video-keyboard-response","129","531073","0.0-129.0","hmnw51ko","","","null","","Agent B","veridical","STIM_SET_2_144/1159973.bmp_pp98_L1_V1.0_veridical_freeview_isoTrue_fps144.mp4",""
"","","","call-function","130","531074","0.0-130.0","hmnw51ko","","","","","","","",""
"5341.395000000019","{""judgement"":0}","[0]","survey-likert","131","536416","0.0-131.0","hmnw51ko","","","","","","","","1"
"1771.0849999999627","{""confidence"":2}","[0]","survey-likert","132","538189","0.0-132.0","hmnw51ko","","","","","","","",""
"","","","call-function","133","538189","0.0-133.0","hmnw51ko","","","","","","","",""
"null","","","html-keyboard-response","134","539691","0.0-134.0","hmnw51ko","","<span style=""color:Black; font-size:50px;"">Agent A","null","","","","",""
"null","","","video-keyboard-response","135","542780","0.0-135.0","hmnw51ko","","","null","","Agent A","scrambled","STIM_SET_5/498372.bmp_pp95_L2_V1_veridical_freeview_isoTrue_Hflip_fps144.mp4",""
"null","","","html-keyboard-response","136","544283","0.0-136.0","hmnw51ko","","<span style=""color:Black; font-size:50px;"">Agent B","null","","","","",""
"null","","","video-keyboard-response","137","547364","0.0-137.0","hmnw51ko","","","null","","Agent B","veridical","STIM_SET_2_144/498372.bmp_pp95_L2_V1_veridical_freeview_isoTrue_fps144.mp4",""
"","","","call-function","138","547365","0.0-138.0","hmnw51ko","","","","","","","",""
"2371.4100000000326","{""judgement"":1}","[0]","survey-likert","139","549737","0.0-139.0","hmnw51ko","","","","","","","","1"
"6109.814999999944","{""confidence"":1}","[0]","survey-likert","140","555848","0.0-140.0","hmnw51ko","","","","","","","",""
"","","","call-function","141","555849","0.0-141.0","hmnw51ko","","","","","","","",""
"null","","","html-keyboard-response","142","557351","0.0-142.0","hmnw51ko","","<span style=""color:Black; font-size:50px;"">Agent A","null","","","","",""
"null","","","video-keyboard-response","143","560414","0.0-143.0","hmnw51ko","","","null","","Agent A","scrambled","STIM_SET_5/1592951.bmp_pp80_L3_V1.0_veridical_freeview_isoTrue_Hflip_fps144.mp4",""
"null","","","html-keyboard-response","144","561916","0.0-144.0","hmnw51ko","","<span style=""color:Black; font-size:50px;"">Agent B","null","","","","",""
"null","","","video-keyboard-response","145","564981","0.0-145.0","hmnw51ko","","","null","","Agent B","veridical","STIM_SET_2_144/1592951.bmp_pp80_L3_V1.0_veridical_freeview_isoTrue_fps144.mp4",""
"","","","call-function","146","564981","0.0-146.0","hmnw51ko","","","","","","","",""
"3446.5400000000373","{""judgement"":0}","[0]","survey-likert","147","568429","0.0-147.0","hmnw51ko","","","","","","","","1"
"2733.625","{""confidence"":2}","[0]","survey-likert","148","571164","0.0-148.0","hmnw51ko","","","","","","","",""
"","","","call-function","149","571165","0.0-149.0","hmnw51ko","","","","","","","",""
"null","","","html-keyboard-response","150","572668","0.0-150.0","hmnw51ko","","<span style=""color:Black; font-size:50px;"">Agent A","null","","","","",""
"null","","","video-keyboard-response","151","575744","0.0-151.0","hmnw51ko","","","null","","Agent A","veridical","STIM_SET_2_144/285959.bmp_pp93_L1_V1.0_veridical_freeview_isoTrue_fps144.mp4",""
"null","","","html-keyboard-response","152","577251","0.0-152.0","hmnw51ko","","<span style=""color:Black; font-size:50px;"">Agent B","null","","","","",""
"null","","","video-keyboard-response","153","580344","0.0-153.0","hmnw51ko","","","null","","Agent B","scrambled","STIM_SET_5/285959.bmp_pp93_L1_V1.0_veridical_freeview_isoTrue_Hflip_fps144.mp4",""
"","","","call-function","154","580346","0.0-154.0","hmnw51ko","","","","","","","",""
"1965.5349999999162","{""judgement"":0}","[0]","survey-likert","155","582313","0.0-155.0","hmnw51ko","","","","","","","","0"
"1664.9749999999767","{""confidence"":1}","[0]","survey-likert","156","583980","0.0-156.0","hmnw51ko","","","","","","","",""
"","","","call-function","157","583980","0.0-157.0","hmnw51ko","","","","","","","",""
"null","","","html-keyboard-response","158","585485","0.0-158.0","hmnw51ko","","<span style=""color:Black; font-size:50px;"">Agent A","null","","","","",""
"null","","","video-keyboard-response","159","588552","0.0-159.0","hmnw51ko","","","null","","Agent A","veridical","STIM_SET_2_144/713829.bmp_pp60_L3_V1.0_veridical_freeview_isoTrue_fps144.mp4",""
"null","","","html-keyboard-response","160","590058","0.0-160.0","hmnw51ko","","<span style=""color:Black; font-size:50px;"">Agent B","null","","","","",""
"null","","","video-keyboard-response","161","593122","0.0-161.0","hmnw51ko","","","null","","Agent B","scrambled","STIM_SET_5/713829.bmp_pp60_L3_V1.0_veridical_freeview_isoTrue_Hflip_fps144.mp4",""
"","","","call-function","162","593123","0.0-162.0","hmnw51ko","","","","","","","",""
"6491.599999999977","{""judgement"":1}","[0]","survey-likert","163","599616","0.0-163.0","hmnw51ko","","","","","","","","0"
"4307.739999999991","{""confidence"":1}","[0]","survey-likert","164","603926","0.0-164.0","hmnw51ko","","","","","","","",""
"","","","call-function","165","603926","0.0-165.0","hmnw51ko","","","","","","","",""
"null","","","html-keyboard-response","166","605430","0.0-166.0","hmnw51ko","","<span style=""color:Black; font-size:50px;"">Agent A","null","","","","",""
"null","","","video-keyboard-response","167","608491","0.0-167.0","hmnw51ko","","","null","","Agent A","veridical","STIM_SET_2_144/498398.bmp_pp81_L1_V1.0_veridical_freeview_isoTrue_fps144.mp4",""
"null","","","html-keyboard-response","168","609996","0.0-168.0","hmnw51ko","","<span style=""color:Black; font-size:50px;"">Agent B","null","","","","",""
"null","","","video-keyboard-response","169","613059","0.0-169.0","hmnw51ko","","","null","","Agent B","scrambled","STIM_SET_5/498398.bmp_pp81_L1_V1.0_veridical_freeview_isoTrue_Hflip_fps144.mp4",""
"","","","call-function","170","613060","0.0-170.0","hmnw51ko","","","","","","","",""
"6699.6699999999255","{""judgement"":0}","[0]","survey-likert","171","619760","0.0-171.0","hmnw51ko","","","","","","","","0"
"3189.644999999902","{""confidence"":2}","[0]","survey-likert","172","622951","0.0-172.0","hmnw51ko","","","","","","","",""
"39188.52999999991","","","instructions","173","662141","0.0-173.0","hmnw51ko","[{""page_index"":0,""viewing_time"":3725.194999999949},{""page_index"":1,""viewing_time"":34170.04500000004},{""page_index"":2,""viewing_time"":1293.079999999958}]","","","","","","",""
"11802.230000000098","","","instructions","174","673944","0.0-174.0","hmnw51ko","[{""page_index"":0,""viewing_time"":1082.3300000000745},{""page_index"":1,""viewing_time"":9531.109999999986},{""page_index"":2,""viewing_time"":1188.5549999999348}]","","","","","","",""
"","","","call-function","175","673944","0.0-175.0","hmnw51ko","","","","","","","",""
"null","","","html-keyboard-response","176","675447","0.0-176.0","hmnw51ko","","<span style=""color:Black; font-size:50px;"">Agent A","null","","","","",""
"null","","","video-keyboard-response","177","678509","0.0-177.0","hmnw51ko","","","null","","Agent A","veridical","STIM_SET_2_144/1159860.bmp_pp152_L2_V1.0_veridical_freeview_isoTrue_fps144.mp4",""
"null","","","html-keyboard-response","178","680015","0.0-178.0","hmnw51ko","","<span style=""color:Black; font-size:50px;"">Agent B","null","","","","",""
"null","","","video-keyboard-response","179","683079","0.0-179.0","hmnw51ko","","","null","","Agent B","scrambled","STIM_SET_5/1159860.bmp_pp152_L2_V1.0_veridical_freeview_isoTrue_Hflip_fps144.mp4",""
"","","","call-function","180","683080","0.0-180.0","hmnw51ko","","","","","","","",""
"4997.625","{""judgement"":1}","[0]","survey-likert","181","688078","0.0-181.0","hmnw51ko","","","","","","","","0"
"2025.6899999999441","{""confidence"":2}","[0]","survey-likert","182","690105","0.0-182.0","hmnw51ko","","","","","","","",""
"","","","call-function","183","690106","0.0-183.0","hmnw51ko","","","","","","","",""
"null","","","html-keyboard-response","184","691612","0.0-184.0","hmnw51ko","","<span style=""color:Black; font-size:50px;"">Agent A","null","","","","",""
"null","","","video-keyboard-response","185","694682","0.0-185.0","hmnw51ko","","","null","","Agent A","scrambled","STIM_SET_5/1592530.bmp_pp75_L1_V1.0_veridical_freeview_isoTrue_Hflip_fps144.mp4",""
"null","","","html-keyboard-response","186","696186","0.0-186.0","hmnw51ko","","<span style=""color:Black; font-size:50px;"">Agent B","null","","","","",""
"null","","","video-keyboard-response","187","699259","0.0-187.0","hmnw51ko","","","null","","Agent B","veridical","STIM_SET_2_144/1592530.bmp_pp75_L1_V1.0_veridical_freeview_isoTrue_fps144.mp4",""
"","","","call-function","188","699259","0.0-188.0","hmnw51ko","","","","","","","",""
"3309.9049999999115","{""judgement"":0}","[0]","survey-likert","189","702570","0.0-189.0","hmnw51ko","","","","","","","","1"
"2098.5149999998976","{""confidence"":2}","[0]","survey-likert","190","704670","0.0-190.0","hmnw51ko","","","","","","","",""
"","","","call-function","191","704671","0.0-191.0","hmnw51ko","","","","","","","",""
"null","","","html-keyboard-response","192","706172","0.0-192.0","hmnw51ko","","<span style=""color:Black; font-size:50px;"">Agent A","null","","","","",""
"null","","","video-keyboard-response","193","709250","0.0-193.0","hmnw51ko","","","null","","Agent A","veridical","STIM_SET_2_144/1592129.bmp_pp153_L3_V1.0_veridical_freeview_isoTrue_fps144.mp4",""
"null","","","html-keyboard-response","194","710758","0.0-194.0","hmnw51ko","","<span style=""color:Black; font-size:50px;"">Agent B","null","","","","",""
"null","","","video-keyboard-response","195","713835","0.0-195.0","hmnw51ko","","","null","","Agent B","scrambled","STIM_SET_5/1592129.bmp_pp153_L3_V1.0_veridical_freeview_isoTrue_Hflip_fps144.mp4",""
"","","","call-function","196","713836","0.0-196.0","hmnw51ko","","","","","","","",""
"1713.4399999999441","{""judgement"":1}","[0]","survey-likert","197","715550","0.0-197.0","hmnw51ko","","","","","","","","0"
"1706.734999999986","{""confidence"":2}","[0]","survey-likert","198","717258","0.0-198.0","hmnw51ko","","","","","","","",""
"","","","call-function","199","717259","0.0-199.0","hmnw51ko","","","","","","","",""
"null","","","html-keyboard-response","200","718764","0.0-200.0","hmnw51ko","","<span style=""color:Black; font-size:50px;"">Agent A","null","","","","",""
"null","","","video-keyboard-response","201","721848","0.0-201.0","hmnw51ko","","","null","","Agent A","veridical","STIM_SET_2_144/1592289.bmp_pp92_L3_V1.0_veridical_freeview_isoTrue_fps144.mp4",""
"null","","","html-keyboard-response","202","723351","0.0-202.0","hmnw51ko","","<span style=""color:Black; font-size:50px;"">Agent B","null","","","","",""
"null","","","video-keyboard-response","203","726435","0.0-203.0","hmnw51ko","","","null","","Agent B","scrambled","STIM_SET_5/1592289.bmp_pp92_L3_V1.0_veridical_freeview_isoTrue_Hflip_fps144.mp4",""
"","","","call-function","204","726436","0.0-204.0","hmnw51ko","","","","","","","",""
"2347.390000000014","{""judgement"":1}","[0]","survey-likert","205","728785","0.0-205.0","hmnw51ko","","","","","","","","0"
"2224.3850000000093","{""confidence"":2}","[0]","survey-likert","206","731012","0.0-206.0","hmnw51ko","","","","","","","",""
"","","","call-function","207","731013","0.0-207.0","hmnw51ko","","","","","","","",""
"null","","","html-keyboard-response","208","732517","0.0-208.0","hmnw51ko","","<span style=""color:Black; font-size:50px;"">Agent A","null","","","","",""
"null","","","video-keyboard-response","209","735587","0.0-209.0","hmnw51ko","","","null","","Agent A","scrambled","STIM_SET_5/1159819.bmp_pp151_L1_V1.0_veridical_freeview_isoTrue_Hflip_fps144.mp4",""
"null","","","html-keyboard-response","210","737090","0.0-210.0","hmnw51ko","","<span style=""color:Black; font-size:50px;"">Agent B","null","","","","",""
"null","","","video-keyboard-response","211","740159","0.0-211.0","hmnw51ko","","","null","","Agent B","veridical","STIM_SET_2_144/1159819.bmp_pp151_L1_V1.0_veridical_freeview_isoTrue_fps144.mp4",""
"","","","call-function","212","740160","0.0-212.0","hmnw51ko","","","","","","","",""
"3211.32500000007","{""judgement"":0}","[0]","survey-likert","213","743373","0.0-213.0","hmnw51ko","","","","","","","","1"
"2201.0400000000373","{""confidence"":2}","[0]","survey-likert","214","745575","0.0-214.0","hmnw51ko","","","","","","","",""
"","","","call-function","215","745576","0.0-215.0","hmnw51ko","","","","","","","",""
"null","","","html-keyboard-response","216","747080","0.0-216.0","hmnw51ko","","<span style=""color:Black; font-size:50px;"">Agent A","null","","","","",""
"null","","","video-keyboard-response","217","750145","0.0-217.0","hmnw51ko","","","null","","Agent A","scrambled","STIM_SET_5/1592567.bmp_pp70_L2_V1.0_veridical_freeview_isoTrue_Hflip_fps144.mp4",""
"null","","","html-keyboard-response","218","751649","0.0-218.0","hmnw51ko","","<span style=""color:Black; font-size:50px;"">Agent B","null","","","","",""
"null","","","video-keyboard-response","219","754710","0.0-219.0","hmnw51ko","","","null","","Agent B","veridical","STIM_SET_2_144/1592567.bmp_pp70_L2_V1.0_veridical_freeview_isoTrue_fps144.mp4",""
"","","","call-function","220","754711","0.0-220.0","hmnw51ko","","","","","","","",""
"1868.2700000000186","{""judgement"":1}","[0]","survey-likert","221","756581","0.0-221.0","hmnw51ko","","","","","","","","1"
"1983.115000000107","{""confidence"":2}","[0]","survey-likert","222","758565","0.0-222.0","hmnw51ko","","","","","","","",""
"","","","call-function","223","758566","0.0-223.0","hmnw51ko","","","","","","","",""
"null","","","html-keyboard-response","224","760068","0.0-224.0","hmnw51ko","","<span style=""color:Black; font-size:50px;"">Agent A","null","","","","",""
"null","","","video-keyboard-response","225","763151","0.0-225.0","hmnw51ko","","","null","","Agent A","scrambled","STIM_SET_5/1159508.bmp_pp151_L1_V1.0_veridical_freeview_isoTrue_Hflip_fps144.mp4",""
"null","","","html-keyboard-response","226","764654","0.0-226.0","hmnw51ko","","<span style=""color:Black; font-size:50px;"">Agent B","null","","","","",""
"null","","","video-keyboard-response","227","767735","0.0-227.0","hmnw51ko","","","null","","Agent B","veridical","STIM_SET_2_144/1159508.bmp_pp151_L1_V1.0_veridical_freeview_isoTrue_fps144.mp4",""
"","","","call-function","228","767736","0.0-228.0","hmnw51ko","","","","","","","",""
"2574.265000000014","{""judgement"":1}","[0]","survey-likert","229","770311","0.0-229.0","hmnw51ko","","","","","","","","1"
"1840.1600000000326","{""confidence"":3}","[0]","survey-likert","230","772153","0.0-230.0","hmnw51ko","","","","","","","",""
"","","","call-function","231","772154","0.0-231.0","hmnw51ko","","","","","","","",""
"null","","","html-keyboard-response","232","773656","0.0-232.0","hmnw51ko","","<span style=""color:Black; font-size:50px;"">Agent A","null","","","","",""
"null","","","video-keyboard-response","233","776738","0.0-233.0","hmnw51ko","","","null","","Agent A","scrambled","STIM_SET_5/1160204.bmp_pp54_L2_V1.0_veridical_freeview_isoTrue_Hflip_fps144.mp4",""
"null","","","html-keyboard-response","234","778240","0.0-234.0","hmnw51ko","","<span style=""color:Black; font-size:50px;"">Agent B","null","","","","",""
"null","","","video-keyboard-response","235","781322","0.0-235.0","hmnw51ko","","","null","","Agent B","veridical","STIM_SET_2_144/1160204.bmp_pp54_L2_V1.0_veridical_freeview_isoTrue_fps144.mp4",""
"","","","call-function","236","781323","0.0-236.0","hmnw51ko","","","","","","","",""
"1762.6450000000186","{""judgement"":0}","[0]","survey-likert","237","783087","0.0-237.0","hmnw51ko","","","","","","","","1"
"1467.0500000000466","{""confidence"":2}","[0]","survey-likert","238","784555","0.0-238.0","hmnw51ko","","","","","","","",""
"","","","call-function","239","784556","0.0-239.0","hmnw51ko","","","","","","","",""
"null","","","html-keyboard-response","240","786059","0.0-240.0","hmnw51ko","","<span style=""color:Black; font-size:50px;"">Agent A","null","","","","",""
"null","","","video-keyboard-response","241","789150","0.0-241.0","hmnw51ko","","","null","","Agent A","scrambled","STIM_SET_5/713858.bmp_pp57_L1_V1.0_veridical_freeview_isoTrue_Hflip_fps144.mp4",""
"null","","","html-keyboard-response","242","790653","0.0-242.0","hmnw51ko","","<span style=""color:Black; font-size:50px;"">Agent B","null","","","","",""
"null","","","video-keyboard-response","243","793745","0.0-243.0","hmnw51ko","","","null","","Agent B","veridical","STIM_SET_2_144/713858.bmp_pp57_L1_V1.0_veridical_freeview_isoTrue_fps144.mp4",""
"","","","call-function","244","793746","0.0-244.0","hmnw51ko","","","","","","","",""
"2358.4850000001024","{""judgement"":1}","[0]","survey-likert","245","796106","0.0-245.0","hmnw51ko","","","","","","","","1"
"1583.079999999958","{""confidence"":1}","[0]","survey-likert","246","797690","0.0-246.0","hmnw51ko","","","","","","","",""
"","","","call-function","247","797691","0.0-247.0","hmnw51ko","","","","","","","",""
"null","","","html-keyboard-response","248","799196","0.0-248.0","hmnw51ko","","<span style=""color:Black; font-size:50px;"">Agent A","null","","","","",""
"null","","","video-keyboard-response","249","802270","0.0-249.0","hmnw51ko","","","null","","Agent A","veridical","STIM_SET_2_144/713770.bmp_pp89_L1_V1.0_veridical_freeview_isoTrue_fps144.mp4",""
"null","","","html-keyboard-response","250","803775","0.0-250.0","hmnw51ko","","<span style=""color:Black; font-size:50px;"">Agent B","null","","","","",""
"null","","","video-keyboard-response","251","806854","0.0-251.0","hmnw51ko","","","null","","Agent B","scrambled","STIM_SET_5/713770.bmp_pp89_L1_V1.0_veridical_freeview_isoTrue_Hflip_fps144.mp4",""
"","","","call-function","252","806855","0.0-252.0","hmnw51ko","","","","","","","",""
"6358.895000000019","{""judgement"":0}","[0]","survey-likert","253","813215","0.0-253.0","hmnw51ko","","","","","","","","0"
"1316.5299999999115","{""confidence"":1}","[0]","survey-likert","254","814533","0.0-254.0","hmnw51ko","","","","","","","",""
"42006.21999999997","","","instructions","255","856540","0.0-255.0","hmnw51ko","[{""page_index"":0,""viewing_time"":2401.344999999972},{""page_index"":1,""viewing_time"":34022.53500000003},{""page_index"":2,""viewing_time"":5582.125}]","","","","","","",""
"36929.94999999995","","","instructions","256","893471","0.0-256.0","hmnw51ko","[{""page_index"":0,""viewing_time"":1828.8199999999488},{""page_index"":1,""viewing_time"":3340.125},{""page_index"":2,""viewing_time"":31760.89500000002}]","","","","","","",""
"","","","call-function","257","893472","0.0-257.0","hmnw51ko","","","","","","","",""
"null","","","html-keyboard-response","258","894977","0.0-258.0","hmnw51ko","","<span style=""color:Black; font-size:50px;"">Agent A","null","","","","",""
"null","","","video-keyboard-response","259","898046","0.0-259.0","hmnw51ko","","","null","","Agent A","scrambled","STIM_SET_5/1160189.bmp_pp64_L1_V1.0_veridical_freeview_isoTrue_Hflip_fps144.mp4",""
"null","","","html-keyboard-response","260","899550","0.0-260.0","hmnw51ko","","<span style=""color:Black; font-size:50px;"">Agent B","null","","","","",""
"null","","","video-keyboard-response","261","902619","0.0-261.0","hmnw51ko","","","null","","Agent B","veridical","STIM_SET_2_144/1160189.bmp_pp64_L1_V1.0_veridical_freeview_isoTrue_fps144.mp4",""
"","","","call-function","262","902619","0.0-262.0","hmnw51ko","","","","","","","",""
"4330.229999999981","{""judgement"":0}","[0]","survey-likert","263","906951","0.0-263.0","hmnw51ko","","","","","","","","1"
"2339.82500000007","{""confidence"":2}","[0]","survey-likert","264","909292","0.0-264.0","hmnw51ko","","","","","","","",""
"","","","call-function","265","909293","0.0-265.0","hmnw51ko","","","","","","","",""
"null","","","html-keyboard-response","266","910796","0.0-266.0","hmnw51ko","","<span style=""color:Black; font-size:50px;"">Agent A","null","","","","",""
"null","","","video-keyboard-response","267","913868","0.0-267.0","hmnw51ko","","","null","","Agent A","scrambled","STIM_SET_5/1159329.bmp_pp61_L2_V1.0_veridical_freeview_isoTrue_Hflip_fps144.mp4",""
"null","","","html-keyboard-response","268","915372","0.0-268.0","hmnw51ko","","<span style=""color:Black; font-size:50px;"">Agent B","null","","","","",""
"null","","","video-keyboard-response","269","918442","0.0-269.0","hmnw51ko","","","null","","Agent B","veridical","STIM_SET_2_144/1159329.bmp_pp61_L2_V1.0_veridical_freeview_isoTrue_fps144.mp4",""
"","","","call-function","270","918444","0.0-270.0","hmnw51ko","","","","","","","",""
"3448.6049999999814","{""judgement"":1}","[0]","survey-likert","271","921893","0.0-271.0","hmnw51ko","","","","","","","","1"
"2322.04999999993","{""confidence"":2}","[0]","survey-likert","272","924217","0.0-272.0","hmnw51ko","","","","","","","",""
"","","","call-function","273","924218","0.0-273.0","hmnw51ko","","","","","","","",""
"null","","","html-keyboard-response","274","925719","0.0-274.0","hmnw51ko","","<span style=""color:Black; font-size:50px;"">Agent A","null","","","","",""
"null","","","video-keyboard-response","275","928800","0.0-275.0","hmnw51ko","","","null","","Agent A","veridical","STIM_SET_2_144/498326.bmp_pp57_L1_V1.0_veridical_freeview_isoTrue_fps144.mp4",""
"null","","","html-keyboard-response","276","930305","0.0-276.0","hmnw51ko","","<span style=""color:Black; font-size:50px;"">Agent B","null","","","","",""
"null","","","video-keyboard-response","277","933383","0.0-277.0","hmnw51ko","","","null","","Agent B","scrambled","STIM_SET_5/498326.bmp_pp57_L1_V1.0_veridical_freeview_isoTrue_Hflip_fps144.mp4",""
"","","","call-function","278","933384","0.0-278.0","hmnw51ko","","","","","","","",""
"2207.659999999916","{""judgement"":1}","[0]","survey-likert","279","935592","0.0-279.0","hmnw51ko","","","","","","","","0"
"2076.109999999986","{""confidence"":2}","[0]","survey-likert","280","937670","0.0-280.0","hmnw51ko","","","","","","","",""
"","","","call-function","281","937671","0.0-281.0","hmnw51ko","","","","","","","",""
"null","","","html-keyboard-response","282","939176","0.0-282.0","hmnw51ko","","<span style=""color:Black; font-size:50px;"">Agent A","null","","","","",""
"null","","","video-keyboard-response","283","942270","0.0-283.0","hmnw51ko","","","null","","Agent A","veridical","STIM_SET_2_144/713790.bmp_pp100_L3_V1_veridical_freeview_isoTrue_fps144.mp4",""
"null","","","html-keyboard-response","284","943774","0.0-284.0","hmnw51ko","","<span style=""color:Black; font-size:50px;"">Agent B","null","","","","",""
"null","","","video-keyboard-response","285","946863","0.0-285.0","hmnw51ko","","","null","","Agent B","scrambled","STIM_SET_5/713790.bmp_pp100_L3_V1_veridical_freeview_isoTrue_Hflip_fps144.mp4",""
"","","","call-function","286","946864","0.0-286.0","hmnw51ko","","","","","","","",""
"2885.819999999949","{""judgement"":0}","[0]","survey-likert","287","949750","0.0-287.0","hmnw51ko","","","","","","","","0"
"3460.7399999999907","{""confidence"":1}","[0]","survey-likert","288","953213","0.0-288.0","hmnw51ko","","","","","","","",""
"","","","call-function","289","953213","0.0-289.0","hmnw51ko","","","","","","","",""
"null","","","html-keyboard-response","290","954714","0.0-290.0","hmnw51ko","","<span style=""color:Black; font-size:50px;"">Agent A","null","","","","",""
"null","","","video-keyboard-response","291","957794","0.0-291.0","hmnw51ko","","","null","","Agent A","scrambled","STIM_SET_5/1592044.bmp_pp94_L2_V1.0_veridical_freeview_isoTrue_Hflip_fps144.mp4",""
"null","","","html-keyboard-response","292","959300","0.0-292.0","hmnw51ko","","<span style=""color:Black; font-size:50px;"">Agent B","null","","","","",""
"null","","","video-keyboard-response","293","962359","0.0-293.0","hmnw51ko","","","null","","Agent B","veridical","STIM_SET_2_144/1592044.bmp_pp94_L2_V1.0_veridical_freeview_isoTrue_fps144.mp4",""
"","","","call-function","294","962360","0.0-294.0","hmnw51ko","","","","","","","",""
"2050.670000000042","{""judgement"":1}","[0]","survey-likert","295","964411","0.0-295.0","hmnw51ko","","","","","","","","1"
"2341.75","{""confidence"":2}","[0]","survey-likert","296","966754","0.0-296.0","hmnw51ko","","","","","","","",""
"","","","call-function","297","966755","0.0-297.0","hmnw51ko","","","","","","","",""
"null","","","html-keyboard-response","298","968259","0.0-298.0","hmnw51ko","","<span style=""color:Black; font-size:50px;"">Agent A","null","","","","",""
"null","","","video-keyboard-response","299","971324","0.0-299.0","hmnw51ko","","","null","","Agent A","veridical","STIM_SET_2_144/285684.bmp_pp80_L3_V1.0_veridical_freeview_isoTrue_fps144.mp4",""
"null","","","html-keyboard-response","300","972828","0.0-300.0","hmnw51ko","","<span style=""color:Black; font-size:50px;"">Agent B","null","","","","",""
"null","","","video-keyboard-response","301","975890","0.0-301.0","hmnw51ko","","","null","","Agent B","scrambled","STIM_SET_5/285684.bmp_pp80_L3_V1.0_veridical_freeview_isoTrue_Hflip_fps144.mp4",""
"","","","call-function","302","975893","0.0-302.0","hmnw51ko","","","","","","","",""
"2501.054999999935","{""judgement"":0}","[0]","survey-likert","303","978395","0.0-303.0","hmnw51ko","","","","","","","","0"
"2183.185000000056","{""confidence"":2}","[0]","survey-likert","304","980580","0.0-304.0","hmnw51ko","","","","","","","",""
"","","","call-function","305","980581","0.0-305.0","hmnw51ko","","","","","","","",""
"null","","","html-keyboard-response","306","982082","0.0-306.0","hmnw51ko","","<span style=""color:Black; font-size:50px;"">Agent A","null","","","","",""
"null","","","video-keyboard-response","307","985152","0.0-307.0","hmnw51ko","","","null","","Agent A","veridical","STIM_SET_2_144/150463.bmp_pp55_L3_V1.0_veridical_freeview_isoTrue_fps144.mp4",""
"null","","","html-keyboard-response","308","986654","0.0-308.0","hmnw51ko","","<span style=""color:Black; font-size:50px;"">Agent B","null","","","","",""
"null","","","video-keyboard-response","309","989722","0.0-309.0","hmnw51ko","","","null","","Agent B","scrambled","STIM_SET_5/150463.bmp_pp55_L3_V1.0_veridical_freeview_isoTrue_Hflip_fps144.mp4",""
"","","","call-function","310","989723","0.0-310.0","hmnw51ko","","","","","","","",""
"4152.135000000009","{""judgement"":1}","[0]","survey-likert","311","993876","0.0-311.0","hmnw51ko","","","","","","","","0"
"1682.375","{""confidence"":2}","[0]","survey-likert","312","995560","0.0-312.0","hmnw51ko","","","","","","","",""
"","","","call-function","313","995561","0.0-313.0","hmnw51ko","","","","","","","",""
"null","","","html-keyboard-response","314","997062","0.0-314.0","hmnw51ko","","<span style=""color:Black; font-size:50px;"">Agent A","null","","","","",""
"null","","","video-keyboard-response","315","1000135","0.0-315.0","hmnw51ko","","","null","","Agent A","veridical","STIM_SET_2_144/1592350.bmp_pp55_L3_V1.0_veridical_freeview_isoTrue_fps144.mp4",""
"null","","","html-keyboard-response","316","1001638","0.0-316.0","hmnw51ko","","<span style=""color:Black; font-size:50px;"">Agent B","null","","","","",""
"null","","","video-keyboard-response","317","1004721","0.0-317.0","hmnw51ko","","","null","","Agent B","scrambled","STIM_SET_5/1592350.bmp_pp55_L3_V1.0_veridical_freeview_isoTrue_Hflip_fps144.mp4",""
"","","","call-function","318","1004722","0.0-318.0","hmnw51ko","","","","","","","",""
"1446.3399999999674","{""judgement"":1}","[0]","survey-likert","319","1006169","0.0-319.0","hmnw51ko","","","","","","","","0"
"1334.6350000000093","{""confidence"":2}","[0]","survey-likert","320","1007505","0.0-320.0","hmnw51ko","","","","","","","",""
"","","","call-function","321","1007506","0.0-321.0","hmnw51ko","","","","","","","",""
"null","","","html-keyboard-response","322","1009012","0.0-322.0","hmnw51ko","","<span style=""color:Black; font-size:50px;"">Agent A","null","","","","",""
"null","","","video-keyboard-response","323","1012087","0.0-323.0","hmnw51ko","","","null","","Agent A","scrambled","STIM_SET_5/286034.bmp_pp69_L3_V1.0_veridical_freeview_isoTrue_Hflip_fps144.mp4",""
"null","","","html-keyboard-response","324","1013590","0.0-324.0","hmnw51ko","","<span style=""color:Black; font-size:50px;"">Agent B","null","","","","",""
"null","","","video-keyboard-response","325","1016663","0.0-325.0","hmnw51ko","","","null","","Agent B","veridical","STIM_SET_2_144/286034.bmp_pp69_L3_V1.0_veridical_freeview_isoTrue_fps144.mp4",""
"","","","call-function","326","1016664","0.0-326.0","hmnw51ko","","","","","","","",""
"5563.895000000019","{""judgement"":1}","[0]","survey-likert","327","1022229","0.0-327.0","hmnw51ko","","","","","","","","1"
"1702.8050000000512","{""confidence"":1}","[0]","survey-likert","328","1023933","0.0-328.0","hmnw51ko","","","","","","","",""
"","","","call-function","329","1023934","0.0-329.0","hmnw51ko","","","","","","","",""
"null","","","html-keyboard-response","330","1025437","0.0-330.0","hmnw51ko","","<span style=""color:Black; font-size:50px;"">Agent A","null","","","","",""
"null","","","video-keyboard-response","331","1028512","0.0-331.0","hmnw51ko","","","null","","Agent A","veridical","STIM_SET_2_144/1592314.bmp_pp100_L3_V1.0_veridical_freeview_isoTrue_fps144.mp4",""
"null","","","html-keyboard-response","332","1030017","0.0-332.0","hmnw51ko","","<span style=""color:Black; font-size:50px;"">Agent B","null","","","","",""
"null","","","video-keyboard-response","333","1033093","0.0-333.0","hmnw51ko","","","null","","Agent B","scrambled","STIM_SET_5/1592314.bmp_pp100_L3_V1.0_veridical_freeview_isoTrue_Hflip_fps144.mp4",""
"","","","call-function","334","1033094","0.0-334.0","hmnw51ko","","","","","","","",""
"5326.4550000000745","{""judgement"":0}","[0]","survey-likert","335","1038421","0.0-335.0","hmnw51ko","","","","","","","","0"
"3084.1199999999953","{""confidence"":0}","[0]","survey-likert","336","1041507","0.0-336.0","hmnw51ko","","","","","","","",""
"2365.765000000014","","","instructions","337","1043873","0.0-337.0","hmnw51ko","[{""page_index"":0,""viewing_time"":1181.420000000042},{""page_index"":1,""viewing_time"":690.0799999999581},{""page_index"":2,""viewing_time"":493.90500000002794}]","","","","","","",""
"1481.4100000000326","","","instructions","338","1045356","0.0-338.0","hmnw51ko","[{""page_index"":0,""viewing_time"":493.86999999999534},{""page_index"":1,""viewing_time"":463.00500000000466},{""page_index"":2,""viewing_time"":524.4200000000419}]","","","","","","",""
"","","","call-function","339","1045357","0.0-339.0","hmnw51ko","","","","","","","",""
"null","","","html-keyboard-response","340","1046857","0.0-340.0","hmnw51ko","","<span style=""color:Black; font-size:50px;"">Agent A","null","","","","",""
"null","","","video-keyboard-response","341","1049928","0.0-341.0","hmnw51ko","","","null","","Agent A","scrambled","STIM_SET_5/498396.bmp_pp99_L2_V1.0_veridical_freeview_isoTrue_Hflip_fps144.mp4",""
"null","","","html-keyboard-response","342","1051434","0.0-342.0","hmnw51ko","","<span style=""color:Black; font-size:50px;"">Agent B","null","","","","",""
"null","","","video-keyboard-response","343","1054504","0.0-343.0","hmnw51ko","","","null","","Agent B","veridical","STIM_SET_2_144/498396.bmp_pp99_L2_V1.0_veridical_freeview_isoTrue_fps144.mp4",""
"","","","call-function","344","1054505","0.0-344.0","hmnw51ko","","","","","","","",""
"1581.7250000000931","{""judgement"":1}","[0]","survey-likert","345","1056087","0.0-345.0","hmnw51ko","","","","","","","","1"
"2001.755000000121","{""confidence"":1}","[0]","survey-likert","346","1058090","0.0-346.0","hmnw51ko","","","","","","","",""
"","","","call-function","347","1058091","0.0-347.0","hmnw51ko","","","","","","","",""
"null","","","html-keyboard-response","348","1059593","0.0-348.0","hmnw51ko","","<span style=""color:Black; font-size:50px;"">Agent A","null","","","","",""
"null","","","video-keyboard-response","349","1062683","0.0-349.0","hmnw51ko","","","null","","Agent A","scrambled","STIM_SET_5/498025.bmp_pp81_L1_V1.0_veridical_freeview_isoTrue_Hflip_fps144.mp4",""
"null","","","html-keyboard-response","350","1064184","0.0-350.0","hmnw51ko","","<span style=""color:Black; font-size:50px;"">Agent B","null","","","","",""
"null","","","video-keyboard-response","351","1067266","0.0-351.0","hmnw51ko","","","null","","Agent B","veridical","STIM_SET_2_144/498025.bmp_pp81_L1_V1.0_veridical_freeview_isoTrue_fps144.mp4",""
"","","","call-function","352","1067267","0.0-352.0","hmnw51ko","","","","","","","",""
"1913.969999999972","{""judgement"":0}","[0]","survey-likert","353","1069182","0.0-353.0","hmnw51ko","","","","","","","","1"
"3739.5149999998976","{""confidence"":2}","[0]","survey-likert","354","1072924","0.0-354.0","hmnw51ko","","","","","","","",""
"","","","call-function","355","1072926","0.0-355.0","hmnw51ko","","","","","","","",""
"null","","","html-keyboard-response","356","1074430","0.0-356.0","hmnw51ko","","<span style=""color:Black; font-size:50px;"">Agent A","null","","","","",""
"null","","","video-keyboard-response","357","1077507","0.0-357.0","hmnw51ko","","","null","","Agent A","veridical","STIM_SET_2_144/1592568.bmp_pp71_L1_V1.0_veridical_freeview_isoTrue_fps144.mp4",""
"null","","","html-keyboard-response","358","1079010","0.0-358.0","hmnw51ko","","<span style=""color:Black; font-size:50px;"">Agent B","null","","","","",""
"null","","","video-keyboard-response","359","1082088","0.0-359.0","hmnw51ko","","","null","","Agent B","scrambled","STIM_SET_5/1592568.bmp_pp71_L1_V1.0_veridical_freeview_isoTrue_Hflip_fps144.mp4",""
"","","","call-function","360","1082089","0.0-360.0","hmnw51ko","","","","","","","",""
"1841.780000000028","{""judgement"":0}","[0]","survey-likert","361","1083931","0.0-361.0","hmnw51ko","","","","","","","","0"
"1808.5800000000745","{""confidence"":1}","[0]","survey-likert","362","1085742","0.0-362.0","hmnw51ko","","","","","","","",""
"","","","call-function","363","1085743","0.0-363.0","hmnw51ko","","","","","","","",""
"null","","","html-keyboard-response","364","1087245","0.0-364.0","hmnw51ko","","<span style=""color:Black; font-size:50px;"">Agent A","null","","","","",""
"null","","","video-keyboard-response","365","1090315","0.0-365.0","hmnw51ko","","","null","","Agent A","veridical","STIM_SET_2_144/61513.bmp_pp75_L1_V1.0_veridical_freeview_isoTrue_fps144.mp4",""
"null","","","html-keyboard-response","366","1091819","0.0-366.0","hmnw51ko","","<span style=""color:Black; font-size:50px;"">Agent B","null","","","","",""
"null","","","video-keyboard-response","367","1094888","0.0-367.0","hmnw51ko","","","null","","Agent B","scrambled","STIM_SET_5/61513.bmp_pp75_L1_V1.0_veridical_freeview_isoTrue_Hflip_fps144.mp4",""
"","","","call-function","368","1094889","0.0-368.0","hmnw51ko","","","","","","","",""
"1714.625","{""judgement"":1}","[0]","survey-likert","369","1096604","0.0-369.0","hmnw51ko","","","","","","","","0"
"3105.570000000065","{""confidence"":2}","[0]","survey-likert","370","1099711","0.0-370.0","hmnw51ko","","","","","","","",""
"","","","call-function","371","1099712","0.0-371.0","hmnw51ko","","","","","","","",""
"null","","","html-keyboard-response","372","1101214","0.0-372.0","hmnw51ko","","<span style=""color:Black; font-size:50px;"">Agent A","null","","","","",""
"null","","","video-keyboard-response","373","1104300","0.0-373.0","hmnw51ko","","","null","","Agent A","scrambled","STIM_SET_5/1592305.bmp_pp65_L3_V1.0_veridical_freeview_isoTrue_Hflip_fps144.mp4",""
"null","","","html-keyboard-response","374","1105802","0.0-374.0","hmnw51ko","","<span style=""color:Black; font-size:50px;"">Agent B","null","","","","",""
"null","","","video-keyboard-response","375","1108883","0.0-375.0","hmnw51ko","","","null","","Agent B","veridical","STIM_SET_2_144/1592305.bmp_pp65_L3_V1.0_veridical_freeview_isoTrue_fps144.mp4",""
"","","","call-function","376","1108885","0.0-376.0","hmnw51ko","","","","","","","",""
"1956.5849999999627","{""judgement"":1}","[0]","survey-likert","377","1110843","0.0-377.0","hmnw51ko","","","","","","","","1"
"2182.0800000000745","{""confidence"":2}","[0]","survey-likert","378","1113026","0.0-378.0","hmnw51ko","","","","","","","",""
"","","","call-function","379","1113027","0.0-379.0","hmnw51ko","","","","","","","",""
"null","","","html-keyboard-response","380","1114532","0.0-380.0","hmnw51ko","","<span style=""color:Black; font-size:50px;"">Agent A","null","","","","",""
"null","","","video-keyboard-response","381","1117609","0.0-381.0","hmnw51ko","","","null","","Agent A","scrambled","STIM_SET_5/1592047.bmp_pp51_L1_V1.0_veridical_freeview_isoTrue_Hflip_fps144.mp4",""
"null","","","html-keyboard-response","382","1119112","0.0-382.0","hmnw51ko","","<span style=""color:Black; font-size:50px;"">Agent B","null","","","","",""
"null","","","video-keyboard-response","383","1122189","0.0-383.0","hmnw51ko","","","null","","Agent B","veridical","STIM_SET_2_144/1592047.bmp_pp51_L1_V1.0_veridical_freeview_isoTrue_fps144.mp4",""
"","","","call-function","384","1122190","0.0-384.0","hmnw51ko","","","","","","","",""
"2543.875","{""judgement"":1}","[0]","survey-likert","385","1124735","0.0-385.0","hmnw51ko","","","","","","","","1"
"2022.8100000000559","{""confidence"":2}","[0]","survey-likert","386","1126759","0.0-386.0","hmnw51ko","","","","","","","",""
"","","","call-function","387","1126760","0.0-387.0","hmnw51ko","","","","","","","",""
"null","","","html-keyboard-response","388","1128262","0.0-388.0","hmnw51ko","","<span style=""color:Black; font-size:50px;"">Agent A","null","","","","",""
"null","","","video-keyboard-response","389","1131343","0.0-389.0","hmnw51ko","","","null","","Agent A","veridical","STIM_SET_2_144/1592747.bmp_pp53_L2_V1.0_veridical_freeview_isoTrue_fps144.mp4",""
"null","","","html-keyboard-response","390","1132845","0.0-390.0","hmnw51ko","","<span style=""color:Black; font-size:50px;"">Agent B","null","","","","",""
"null","","","video-keyboard-response","391","1135923","0.0-391.0","hmnw51ko","","","null","","Agent B","scrambled","STIM_SET_5/1592747.bmp_pp53_L2_V1.0_veridical_freeview_isoTrue_Hflip_fps144.mp4",""
"","","","call-function","392","1135924","0.0-392.0","hmnw51ko","","","","","","","",""
"2113.5","{""judgement"":0}","[0]","survey-likert","393","1138039","0.0-393.0","hmnw51ko","","","","","","","","0"
"3217.5400000000373","{""confidence"":2}","[0]","survey-likert","394","1141258","0.0-394.0","hmnw51ko","","","","","","","",""
"","","","call-function","395","1141259","0.0-395.0","hmnw51ko","","","","","","","",""
"null","","","html-keyboard-response","396","1142760","0.0-396.0","hmnw51ko","","<span style=""color:Black; font-size:50px;"">Agent A","null","","","","",""
"null","","","video-keyboard-response","397","1145822","0.0-397.0","hmnw51ko","","","null","","Agent A","scrambled","STIM_SET_5/107955.bmp_pp90_L2_V1.0_veridical_freeview_isoTrue_Hflip_fps144.mp4",""
"null","","","html-keyboard-response","398","1147326","0.0-398.0","hmnw51ko","","<span style=""color:Black; font-size:50px;"">Agent B","null","","","","",""
"null","","","video-keyboard-response","399","1150390","0.0-399.0","hmnw51ko","","","null","","Agent B","veridical","STIM_SET_2_144/107955.bmp_pp90_L2_V1.0_veridical_freeview_isoTrue_fps144.mp4",""
"","","","call-function","400","1150391","0.0-400.0","hmnw51ko","","","","","","","",""
"2612.5550000001676","{""judgement"":1}","[0]","survey-likert","401","1153004","0.0-401.0","hmnw51ko","","","","","","","","1"
"1507.969999999972","{""confidence"":2}","[0]","survey-likert","402","1154514","0.0-402.0","hmnw51ko","","","","","","","",""
"","","","call-function","403","1154515","0.0-403.0","hmnw51ko","","","","","","","",""
"null","","","html-keyboard-response","404","1156020","0.0-404.0","hmnw51ko","","<span style=""color:Black; font-size:50px;"">Agent A","null","","","","",""
"null","","","video-keyboard-response","405","1159091","0.0-405.0","hmnw51ko","","","null","","Agent A","veridical","STIM_SET_2_144/713788.bmp_pp52_L1_V1.0_veridical_freeview_isoTrue_fps144.mp4",""
"null","","","html-keyboard-response","406","1160596","0.0-406.0","hmnw51ko","","<span style=""color:Black; font-size:50px;"">Agent B","null","","","","",""
"null","","","video-keyboard-response","407","1163665","0.0-407.0","hmnw51ko","","","null","","Agent B","scrambled","STIM_SET_5/713788.bmp_pp52_L1_V1.0_veridical_freeview_isoTrue_Hflip_fps144.mp4",""
"","","","call-function","408","1163666","0.0-408.0","hmnw51ko","","","","","","","",""
"2179.714999999851","{""judgement"":1}","[0]","survey-likert","409","1165847","0.0-409.0","hmnw51ko","","","","","","","","0"
"1949.2949999999255","{""confidence"":2}","[0]","survey-likert","410","1167799","0.0-410.0","hmnw51ko","","","","","","","",""
"","","","call-function","411","1167800","0.0-411.0","hmnw51ko","","","","","","","",""
"null","","","html-keyboard-response","412","1169304","0.0-412.0","hmnw51ko","","<span style=""color:Black; font-size:50px;"">Agent A","null","","","","",""
"null","","","video-keyboard-response","413","1172401","0.0-413.0","hmnw51ko","","","null","","Agent A","veridical","STIM_SET_2_144/285946.bmp_pp79_L2_V1.0_veridical_freeview_isoTrue_fps144.mp4",""
"null","","","html-keyboard-response","414","1173908","0.0-414.0","hmnw51ko","","<span style=""color:Black; font-size:50px;"">Agent B","null","","","","",""
"null","","","video-keyboard-response","415","1177005","0.0-415.0","hmnw51ko","","","null","","Agent B","scrambled","STIM_SET_5/285946.bmp_pp79_L2_V1.0_veridical_freeview_isoTrue_Hflip_fps144.mp4",""
"","","","call-function","416","1177006","0.0-416.0","hmnw51ko","","","","","","","",""
"1922.1750000000466","{""judgement"":0}","[0]","survey-likert","417","1178929","0.0-417.0","hmnw51ko","","","","","","","","0"
"3405.314999999944","{""confidence"":1}","[0]","survey-likert","418","1182335","0.0-418.0","hmnw51ko","","","","","","","",""
"34777.445000000065","","","instructions","419","1217114","0.0-419.0","hmnw51ko","[{""page_index"":0,""viewing_time"":6172.209999999963},{""page_index"":1,""viewing_time"":27828},{""page_index"":2,""viewing_time"":776.9699999999721}]","","","","","","",""
"2213.0849999999627","","","instructions","420","1219328","0.0-420.0","hmnw51ko","[{""page_index"":0,""viewing_time"":489.9799999999814},{""page_index"":1,""viewing_time"":825.0049999998882},{""page_index"":2,""viewing_time"":897.9899999999907}]","","","","","","",""
"","","","call-function","421","1219328","0.0-421.0","hmnw51ko","","","","","","","",""
"null","","","html-keyboard-response","422","1220830","0.0-422.0","hmnw51ko","","<span style=""color:Black; font-size:50px;"">Agent A","null","","","","",""
"null","","","video-keyboard-response","423","1223901","0.0-423.0","hmnw51ko","","","null","","Agent A","veridical","STIM_SET_2_144/1592921.bmp_pp69_L3_V1.0_veridical_freeview_isoTrue_fps144.mp4",""
"null","","","html-keyboard-response","424","1225405","0.0-424.0","hmnw51ko","","<span style=""color:Black; font-size:50px;"">Agent B","null","","","","",""
"null","","","video-keyboard-response","425","1228476","0.0-425.0","hmnw51ko","","","null","","Agent B","scrambled","STIM_SET_5/1592921.bmp_pp69_L3_V1.0_veridical_freeview_isoTrue_Hflip_fps144.mp4",""
"","","","call-function","426","1228477","0.0-426.0","hmnw51ko","","","","","","","",""
"6827.73499999987","{""judgement"":0}","[0]","survey-likert","427","1235305","0.0-427.0","hmnw51ko","","","","","","","","0"
"6234.659999999916","{""confidence"":1}","[0]","survey-likert","428","1241541","0.0-428.0","hmnw51ko","","","","","","","",""
"","","","call-function","429","1241542","0.0-429.0","hmnw51ko","","","","","","","",""
"null","","","html-keyboard-response","430","1243049","0.0-430.0","hmnw51ko","","<span style=""color:Black; font-size:50px;"">Agent A","null","","","","",""
"null","","","video-keyboard-response","431","1246128","0.0-431.0","hmnw51ko","","","null","","Agent A","scrambled","STIM_SET_5/1159874.bmp_pp96_L2_V1.0_veridical_freeview_isoTrue_Hflip_fps144.mp4",""
"null","","","html-keyboard-response","432","1247634","0.0-432.0","hmnw51ko","","<span style=""color:Black; font-size:50px;"">Agent B","null","","","","",""
"null","","","video-keyboard-response","433","1250712","0.0-433.0","hmnw51ko","","","null","","Agent B","veridical","STIM_SET_2_144/1159874.bmp_pp96_L2_V1.0_veridical_freeview_isoTrue_fps144.mp4",""
"","","","call-function","434","1250713","0.0-434.0","hmnw51ko","","","","","","","",""
"2185.4799999999814","{""judgement"":1}","[0]","survey-likert","435","1252899","0.0-435.0","hmnw51ko","","","","","","","","1"
"1946.6899999999441","{""confidence"":2}","[0]","survey-likert","436","1254847","0.0-436.0","hmnw51ko","","","","","","","",""
"","","","call-function","437","1254848","0.0-437.0","hmnw51ko","","","","","","","",""
"null","","","html-keyboard-response","438","1256351","0.0-438.0","hmnw51ko","","<span style=""color:Black; font-size:50px;"">Agent A","null","","","","",""
"null","","","video-keyboard-response","439","1259431","0.0-439.0","hmnw51ko","","","null","","Agent A","veridical","STIM_SET_2_144/1160049.bmp_pp53_L2_V1.0_veridical_freeview_isoTrue_fps144.mp4",""
"null","","","html-keyboard-response","440","1260934","0.0-440.0","hmnw51ko","","<span style=""color:Black; font-size:50px;"">Agent B","null","","","","",""
"null","","","video-keyboard-response","441","1264013","0.0-441.0","hmnw51ko","","","null","","Agent B","scrambled","STIM_SET_5/1160049.bmp_pp53_L2_V1.0_veridical_freeview_isoTrue_Hflip_fps144.mp4",""
"","","","call-function","442","1264015","0.0-442.0","hmnw51ko","","","","","","","",""
"2324.3549999999814","{""judgement"":1}","[0]","survey-likert","443","1266341","0.0-443.0","hmnw51ko","","","","","","","","0"
"1669.7849999999162","{""confidence"":3}","[0]","survey-likert","444","1268013","0.0-444.0","hmnw51ko","","","","","","","",""
"","","","call-function","445","1268013","0.0-445.0","hmnw51ko","","","","","","","",""
"null","","","html-keyboard-response","446","1269519","0.0-446.0","hmnw51ko","","<span style=""color:Black; font-size:50px;"">Agent A","null","","","","",""
"null","","","video-keyboard-response","447","1272590","0.0-447.0","hmnw51ko","","","null","","Agent A","veridical","STIM_SET_2_144/713274.bmp_pp73_L3_V1.0_veridical_freeview_isoTrue_fps144.mp4",""
"null","","","html-keyboard-response","448","1274092","0.0-448.0","hmnw51ko","","<span style=""color:Black; font-size:50px;"">Agent B","null","","","","",""
"null","","","video-keyboard-response","449","1277161","0.0-449.0","hmnw51ko","","","null","","Agent B","scrambled","STIM_SET_5/713274.bmp_pp73_L3_V1.0_veridical_freeview_isoTrue_Hflip_fps144.mp4",""
"","","","call-function","450","1277162","0.0-450.0","hmnw51ko","","","","","","","",""
"1764.6449999997858","{""judgement"":0}","[0]","survey-likert","451","1278928","0.0-451.0","hmnw51ko","","","","","","","","0"
"1441.905000000028","{""confidence"":2}","[0]","survey-likert","452","1280371","0.0-452.0","hmnw51ko","","","","","","","",""
"","","","call-function","453","1280372","0.0-453.0","hmnw51ko","","","","","","","",""
"null","","","html-keyboard-response","454","1281874","0.0-454.0","hmnw51ko","","<span style=""color:Black; font-size:50px;"">Agent A","null","","","","",""
"null","","","video-keyboard-response","455","1284950","0.0-455.0","hmnw51ko","","","null","","Agent A","scrambled","STIM_SET_5/713742.bmp_pp91_L3_V1.0_veridical_freeview_isoTrue_Hflip_fps144.mp4",""
"null","","","html-keyboard-response","456","1286457","0.0-456.0","hmnw51ko","","<span style=""color:Black; font-size:50px;"">Agent B","null","","","","",""
"null","","","video-keyboard-response","457","1289535","0.0-457.0","hmnw51ko","","","null","","Agent B","veridical","STIM_SET_2_144/713742.bmp_pp91_L3_V1.0_veridical_freeview_isoTrue_fps144.mp4",""
"","","","call-function","458","1289536","0.0-458.0","hmnw51ko","","","","","","","",""
"1828.6899999999441","{""judgement"":1}","[0]","survey-likert","459","1291366","0.0-459.0","hmnw51ko","","","","","","","","1"
"3758.5250000001397","{""confidence"":1}","[0]","survey-likert","460","1295126","0.0-460.0","hmnw51ko","","","","","","","",""
"","","","call-function","461","1295127","0.0-461.0","hmnw51ko","","","","","","","",""
"null","","","html-keyboard-response","462","1296631","0.0-462.0","hmnw51ko","","<span style=""color:Black; font-size:50px;"">Agent A","null","","","","",""
"null","","","video-keyboard-response","463","1299724","0.0-463.0","hmnw51ko","","","null","","Agent A","veridical","STIM_SET_2_144/713633.bmp_pp58_L1_V1.0_veridical_freeview_isoTrue_fps144.mp4",""
"null","","","html-keyboard-response","464","1301228","0.0-464.0","hmnw51ko","","<span style=""color:Black; font-size:50px;"">Agent B","null","","","","",""
"null","","","video-keyboard-response","465","1304316","0.0-465.0","hmnw51ko","","","null","","Agent B","scrambled","STIM_SET_5/713633.bmp_pp58_L1_V1.0_veridical_freeview_isoTrue_Hflip_fps144.mp4",""
"","","","call-function","466","1304317","0.0-466.0","hmnw51ko","","","","","","","",""
"2436.1100000001024","{""judgement"":1}","[0]","survey-likert","467","1306754","0.0-467.0","hmnw51ko","","","","","","","","0"
"3328.755000000121","{""confidence"":2}","[0]","survey-likert","468","1310084","0.0-468.0","hmnw51ko","","","","","","","",""
"","","","call-function","469","1310085","0.0-469.0","hmnw51ko","","","","","","","",""
"null","","","html-keyboard-response","470","1311586","0.0-470.0","hmnw51ko","","<span style=""color:Black; font-size:50px;"">Agent A","null","","","","",""
"null","","","video-keyboard-response","471","1314675","0.0-471.0","hmnw51ko","","","null","","Agent A","scrambled","STIM_SET_5/1592038.bmp_pp79_L2_V1.0_veridical_freeview_isoTrue_Hflip_fps144.mp4",""
"null","","","html-keyboard-response","472","1316179","0.0-472.0","hmnw51ko","","<span style=""color:Black; font-size:50px;"">Agent B","null","","","","",""
"null","","","video-keyboard-response","473","1319268","0.0-473.0","hmnw51ko","","","null","","Agent B","veridical","STIM_SET_2_144/1592038.bmp_pp79_L2_V1.0_veridical_freeview_isoTrue_fps144.mp4",""
"","","","call-function","474","1319268","0.0-474.0","hmnw51ko","","","","","","","",""
"2848.3799999998882","{""judgement"":0}","[0]","survey-likert","475","1322118","0.0-475.0","hmnw51ko","","","","","","","","1"
"1831.440000000177","{""confidence"":1}","[0]","survey-likert","476","1323951","0.0-476.0","hmnw51ko","","","","","","","",""
"","","","call-function","477","1323951","0.0-477.0","hmnw51ko","","","","","","","",""
"null","","","html-keyboard-response","478","1325454","0.0-478.0","hmnw51ko","","<span style=""color:Black; font-size:50px;"">Agent A","null","","","","",""
"null","","","video-keyboard-response","479","1328542","0.0-479.0","hmnw51ko","","","null","","Agent A","scrambled","STIM_SET_5/107909.bmp_pp95_L2_V1.0_veridical_freeview_isoTrue_Hflip_fps144.mp4",""
"null","","","html-keyboard-response","480","1330045","0.0-480.0","hmnw51ko","","<span style=""color:Black; font-size:50px;"">Agent B","null","","","","",""
"null","","","video-keyboard-response","481","1333138","0.0-481.0","hmnw51ko","","","null","","Agent B","veridical","STIM_SET_2_144/107909.bmp_pp95_L2_V1.0_veridical_freeview_isoTrue_fps144.mp4",""
"","","","call-function","482","1333140","0.0-482.0","hmnw51ko","","","","","","","",""
"3035.054999999935","{""judgement"":1}","[0]","survey-likert","483","1336176","0.0-483.0","hmnw51ko","","","","","","","","1"
"1920.2950000001583","{""confidence"":2}","[0]","survey-likert","484","1338098","0.0-484.0","hmnw51ko","","","","","","","",""
"","","","call-function","485","1338099","0.0-485.0","hmnw51ko","","","","","","","",""
"null","","","html-keyboard-response","486","1339600","0.0-486.0","hmnw51ko","","<span style=""color:Black; font-size:50px;"">Agent A","null","","","","",""
"null","","","video-keyboard-response","487","1342682","0.0-487.0","hmnw51ko","","","null","","Agent A","veridical","STIM_SET_2_144/498258.bmp_pp51_L1_V1.0_veridical_freeview_isoTrue_fps144.mp4",""
"null","","","html-keyboard-response","488","1344184","0.0-488.0","hmnw51ko","","<span style=""color:Black; font-size:50px;"">Agent B","null","","","","",""
"null","","","video-keyboard-response","489","1347255","0.0-489.0","hmnw51ko","","","null","","Agent B","scrambled","STIM_SET_5/498258.bmp_pp51_L1_V1.0_veridical_freeview_isoTrue_Hflip_fps144.mp4",""
"","","","call-function","490","1347256","0.0-490.0","hmnw51ko","","","","","","","",""
"2144.1149999999907","{""judgement"":1}","[0]","survey-likert","491","1349402","0.0-491.0","hmnw51ko","","","","","","","","0"
"1760.630000000121","{""confidence"":2}","[0]","survey-likert","492","1351164","0.0-492.0","hmnw51ko","","","","","","","",""
"","","","call-function","493","1351165","0.0-493.0","hmnw51ko","","","","","","","",""
"null","","","html-keyboard-response","494","1352669","0.0-494.0","hmnw51ko","","<span style=""color:Black; font-size:50px;"">Agent A","null","","","","",""
"null","","","video-keyboard-response","495","1355734","0.0-495.0","hmnw51ko","","","null","","Agent A","veridical","STIM_SET_2_144/713328.bmp_pp86_L2_V1.0_veridical_freeview_isoTrue_fps144.mp4",""
"null","","","html-keyboard-response","496","1357237","0.0-496.0","hmnw51ko","","<span style=""color:Black; font-size:50px;"">Agent B","null","","","","",""
"null","","","video-keyboard-response","497","1360298","0.0-497.0","hmnw51ko","","","null","","Agent B","scrambled","STIM_SET_5/713328.bmp_pp86_L2_V1.0_veridical_freeview_isoTrue_Hflip_fps144.mp4",""
"","","","call-function","498","1360299","0.0-498.0","hmnw51ko","","","","","","","",""
"1632.8850000000093","{""judgement"":0}","[0]","survey-likert","499","1361933","0.0-499.0","hmnw51ko","","","","","","","","0"
"1538.7900000000373","{""confidence"":2}","[0]","survey-likert","500","1363473","0.0-500.0","hmnw51ko","","","","","","","",""
"2461.945000000065","","","instructions","501","1365936","0.0-501.0","hmnw51ko","[{""page_index"":0,""viewing_time"":1416.7900000000373},{""page_index"":1,""viewing_time"":623.3600000001024},{""page_index"":2,""viewing_time"":421.5399999998044}]","","","","","","",""
"27247.24499999988","","","instructions","502","1393184","0.0-502.0","hmnw51ko","[{""page_index"":0,""viewing_time"":413.9299999999348},{""page_index"":1,""viewing_time"":26120.100000000093},{""page_index"":2,""viewing_time"":713.1049999999814}]","","","","","","",""
"","","","call-function","503","1393185","0.0-503.0","hmnw51ko","","","","","","","",""
"null","","","html-keyboard-response","504","1394688","0.0-504.0","hmnw51ko","","<span style=""color:Black; font-size:50px;"">Agent A","null","","","","",""
"null","","","video-keyboard-response","505","1397781","0.0-505.0","hmnw51ko","","","null","","Agent A","scrambled","STIM_SET_5/713381.bmp_pp82_L2_V1.0_veridical_freeview_isoTrue_Hflip_fps144.mp4",""
"null","","","html-keyboard-response","506","1399285","0.0-506.0","hmnw51ko","","<span style=""color:Black; font-size:50px;"">Agent B","null","","","","",""
"null","","","video-keyboard-response","507","1402374","0.0-507.0","hmnw51ko","","","null","","Agent B","veridical","STIM_SET_2_144/713381.bmp_pp82_L2_V1.0_veridical_freeview_isoTrue_fps144.mp4",""
"","","","call-function","508","1402375","0.0-508.0","hmnw51ko","","","","","","","",""
"2000.4299999999348","{""judgement"":1}","[0]","survey-likert","509","1404376","0.0-509.0","hmnw51ko","","","","","","","","1"
"3718.4950000001118","{""confidence"":2}","[0]","survey-likert","510","1408096","0.0-510.0","hmnw51ko","","","","","","","",""
"","","","call-function","511","1408097","0.0-511.0","hmnw51ko","","","","","","","",""
"null","","","html-keyboard-response","512","1409602","0.0-512.0","hmnw51ko","","<span style=""color:Black; font-size:50px;"">Agent A","null","","","","",""
"null","","","video-keyboard-response","513","1412680","0.0-513.0","hmnw51ko","","","null","","Agent A","veridical","STIM_SET_2_144/713920.bmp_pp76_L1_V1.0_veridical_freeview_isoTrue_fps144.mp4",""
"null","","","html-keyboard-response","514","1414183","0.0-514.0","hmnw51ko","","<span style=""color:Black; font-size:50px;"">Agent B","null","","","","",""
"null","","","video-keyboard-response","515","1417252","0.0-515.0","hmnw51ko","","","null","","Agent B","scrambled","STIM_SET_5/713920.bmp_pp76_L1_V1.0_veridical_freeview_isoTrue_Hflip_fps144.mp4",""
"","","","call-function","516","1417253","0.0-516.0","hmnw51ko","","","","","","","",""
"1382.5499999998137","{""judgement"":1}","[0]","survey-likert","517","1418637","0.0-517.0","hmnw51ko","","","","","","","","0"
"1328.279999999795","{""confidence"":2}","[0]","survey-likert","518","1419967","0.0-518.0","hmnw51ko","","","","","","","",""
"","","","call-function","519","1419968","0.0-519.0","hmnw51ko","","","","","","","",""
"null","","","html-keyboard-response","520","1421471","0.0-520.0","hmnw51ko","","<span style=""color:Black; font-size:50px;"">Agent A","null","","","","",""
"null","","","video-keyboard-response","521","1424543","0.0-521.0","hmnw51ko","","","null","","Agent A","veridical","STIM_SET_2_144/1592201.bmp_pp97_L3_V1.0_veridical_freeview_isoTrue_fps144.mp4",""
"null","","","html-keyboard-response","522","1426047","0.0-522.0","hmnw51ko","","<span style=""color:Black; font-size:50px;"">Agent B","null","","","","",""
"null","","","video-keyboard-response","523","1429119","0.0-523.0","hmnw51ko","","","null","","Agent B","scrambled","STIM_SET_5/1592201.bmp_pp97_L3_V1.0_veridical_freeview_isoTrue_Hflip_fps144.mp4",""
"","","","call-function","524","1429121","0.0-524.0","hmnw51ko","","","","","","","",""
"1786.5500000000466","{""judgement"":0}","[0]","survey-likert","525","1430909","0.0-525.0","hmnw51ko","","","","","","","","0"
"1796.0549999999348","{""confidence"":2}","[0]","survey-likert","526","1432707","0.0-526.0","hmnw51ko","","","","","","","",""
"","","","call-function","527","1432709","0.0-527.0","hmnw51ko","","","","","","","",""
"null","","","html-keyboard-response","528","1434214","0.0-528.0","hmnw51ko","","<span style=""color:Black; font-size:50px;"">Agent A","null","","","","",""
"null","","","video-keyboard-response","529","1437282","0.0-529.0","hmnw51ko","","","null","","Agent A","scrambled","STIM_SET_5/498261.bmp_pp84_L3_V1.0_veridical_freeview_isoTrue_Hflip_fps144.mp4",""
"null","","","html-keyboard-response","530","1438788","0.0-530.0","hmnw51ko","","<span style=""color:Black; font-size:50px;"">Agent B","null","","","","",""
"null","","","video-keyboard-response","531","1441859","0.0-531.0","hmnw51ko","","","null","","Agent B","veridical","STIM_SET_2_144/498261.bmp_pp84_L3_V1.0_veridical_freeview_isoTrue_fps144.mp4",""
"","","","call-function","532","1441860","0.0-532.0","hmnw51ko","","","","","","","",""
"1432.7900000000373","{""judgement"":1}","[0]","survey-likert","533","1443294","0.0-533.0","hmnw51ko","","","","","","","","1"
"1569.1450000000186","{""confidence"":2}","[0]","survey-likert","534","1444864","0.0-534.0","hmnw51ko","","","","","","","",""
"","","","call-function","535","1444865","0.0-535.0","hmnw51ko","","","","","","","",""
"null","","","html-keyboard-response","536","1446367","0.0-536.0","hmnw51ko","","<span style=""color:Black; font-size:50px;"">Agent A","null","","","","",""
"null","","","video-keyboard-response","537","1449432","0.0-537.0","hmnw51ko","","","null","","Agent A","veridical","STIM_SET_2_144/285715.bmp_pp67_L2_V1.0_veridical_freeview_isoTrue_fps144.mp4",""
"null","","","html-keyboard-response","538","1450936","0.0-538.0","hmnw51ko","","<span style=""color:Black; font-size:50px;"">Agent B","null","","","","",""
"null","","","video-keyboard-response","539","1454011","0.0-539.0","hmnw51ko","","","null","","Agent B","scrambled","STIM_SET_5/285715.bmp_pp67_L2_V1.0_veridical_freeview_isoTrue_Hflip_fps144.mp4",""
"","","","call-function","540","1454012","0.0-540.0","hmnw51ko","","","","","","","",""
"1572.1000000000931","{""judgement"":0}","[0]","survey-likert","541","1455585","0.0-541.0","hmnw51ko","","","","","","","","0"
"2466.5","{""confidence"":1}","[0]","survey-likert","542","1458053","0.0-542.0","hmnw51ko","","","","","","","",""
"","","","call-function","543","1458054","0.0-543.0","hmnw51ko","","","","","","","",""
"null","","","html-keyboard-response","544","1459556","0.0-544.0","hmnw51ko","","<span style=""color:Black; font-size:50px;"">Agent A","null","","","","",""
"null","","","video-keyboard-response","545","1462636","0.0-545.0","hmnw51ko","","","null","","Agent A","veridical","STIM_SET_2_144/713689.bmp_pp153_L3_V1.0_veridical_freeview_isoTrue_fps144.mp4",""
"null","","","html-keyboard-response","546","1464139","0.0-546.0","hmnw51ko","","<span style=""color:Black; font-size:50px;"">Agent B","null","","","","",""
"null","","","video-keyboard-response","547","1467219","0.0-547.0","hmnw51ko","","","null","","Agent B","scrambled","STIM_SET_5/713689.bmp_pp153_L3_V1.0_veridical_freeview_isoTrue_Hflip_fps144.mp4",""
"","","","call-function","548","1467219","0.0-548.0","hmnw51ko","","","","","","","",""
"2812.869999999879","{""judgement"":1}","[0]","survey-likert","549","1470034","0.0-549.0","hmnw51ko","","","","","","","","0"
"1443.4150000000373","{""confidence"":2}","[0]","survey-likert","550","1471479","0.0-550.0","hmnw51ko","","","","","","","",""
"","","","call-function","551","1471480","0.0-551.0","hmnw51ko","","","","","","","",""
"null","","","html-keyboard-response","552","1472982","0.0-552.0","hmnw51ko","","<span style=""color:Black; font-size:50px;"">Agent A","null","","","","",""
"null","","","video-keyboard-response","553","1476069","0.0-553.0","hmnw51ko","","","null","","Agent A","scrambled","STIM_SET_5/1592298.bmp_pp56_L3_V1.0_veridical_freeview_isoTrue_Hflip_fps144.mp4",""
"null","","","html-keyboard-response","554","1477570","0.0-554.0","hmnw51ko","","<span style=""color:Black; font-size:50px;"">Agent B","null","","","","",""
"null","","","video-keyboard-response","555","1480649","0.0-555.0","hmnw51ko","","","null","","Agent B","veridical","STIM_SET_2_144/1592298.bmp_pp56_L3_V1.0_veridical_freeview_isoTrue_fps144.mp4",""
"","","","call-function","556","1480650","0.0-556.0","hmnw51ko","","","","","","","",""
"2648.8950000000186","{""judgement"":1}","[0]","survey-likert","557","1483300","0.0-557.0","hmnw51ko","","","","","","","","1"
"1947.6350000000093","{""confidence"":2}","[0]","survey-likert","558","1485249","0.0-558.0","hmnw51ko","","","","","","","",""
"","","","call-function","559","1485250","0.0-559.0","hmnw51ko","","","","","","","",""
"null","","","html-keyboard-response","560","1486751","0.0-560.0","hmnw51ko","","<span style=""color:Black; font-size:50px;"">Agent A","null","","","","",""
"null","","","video-keyboard-response","561","1489829","0.0-561.0","hmnw51ko","","","null","","Agent A","scrambled","STIM_SET_5/1592150.bmp_pp77_L3_V1.0_veridical_freeview_isoTrue_Hflip_fps144.mp4",""
"null","","","html-keyboard-response","562","1491335","0.0-562.0","hmnw51ko","","<span style=""color:Black; font-size:50px;"">Agent B","null","","","","",""
"null","","","video-keyboard-response","563","1494396","0.0-563.0","hmnw51ko","","","null","","Agent B","veridical","STIM_SET_2_144/1592150.bmp_pp77_L3_V1.0_veridical_freeview_isoTrue_fps144.mp4",""
"","","","call-function","564","1494397","0.0-564.0","hmnw51ko","","","","","","","",""
"2401.6200000001118","{""judgement"":1}","[0]","survey-likert","565","1496800","0.0-565.0","hmnw51ko","","","","","","","","1"
"2438.7349999998696","{""confidence"":1}","[0]","survey-likert","566","1499240","0.0-566.0","hmnw51ko","","","","","","","",""
"","","","call-function","567","1499241","0.0-567.0","hmnw51ko","","","","","","","",""
"null","","","html-keyboard-response","568","1500742","0.0-568.0","hmnw51ko","","<span style=""color:Black; font-size:50px;"">Agent A","null","","","","",""
"null","","","video-keyboard-response","569","1503802","0.0-569.0","hmnw51ko","","","null","","Agent A","scrambled","STIM_SET_5/713652.bmp_pp89_L1_V1_veridical_freeview_isoTrue_Hflip_fps144.mp4",""
"null","","","html-keyboard-response","570","1505304","0.0-570.0","hmnw51ko","","<span style=""color:Black; font-size:50px;"">Agent B","null","","","","",""
"null","","","video-keyboard-response","571","1508366","0.0-571.0","hmnw51ko","","","null","","Agent B","veridical","STIM_SET_2_144/713652.bmp_pp89_L1_V1_veridical_freeview_isoTrue_fps144.mp4",""
"","","","call-function","572","1508367","0.0-572.0","hmnw51ko","","","","","","","",""
"1704.9500000001863","{""judgement"":0}","[0]","survey-likert","573","1510074","0.0-573.0","hmnw51ko","","","","","","","","1"
"1536.6699999999255","{""confidence"":1}","[0]","survey-likert","574","1511612","0.0-574.0","hmnw51ko","","","","","","","",""
"","","","call-function","575","1511613","0.0-575.0","hmnw51ko","","","","","","","",""
"null","","","html-keyboard-response","576","1513118","0.0-576.0","hmnw51ko","","<span style=""color:Black; font-size:50px;"">Agent A","null","","","","",""
"null","","","video-keyboard-response","577","1516177","0.0-577.0","hmnw51ko","","","null","","Agent A","veridical","STIM_SET_2_144/1591975.bmp_pp88_L2_V1.0_veridical_freeview_isoTrue_fps144.mp4",""
"null","","","html-keyboard-response","578","1517682","0.0-578.0","hmnw51ko","","<span style=""color:Black; font-size:50px;"">Agent B","null","","","","",""
"null","","","video-keyboard-response","579","1520745","0.0-579.0","hmnw51ko","","","null","","Agent B","scrambled","STIM_SET_5/1591975.bmp_pp88_L2_V1.0_veridical_freeview_isoTrue_Hflip_fps144.mp4",""
"","","","call-function","580","1520746","0.0-580.0","hmnw51ko","","","","","","","",""
"1912.8300000000745","{""judgement"":1}","[0]","survey-likert","581","1522660","0.0-581.0","hmnw51ko","","","","","","","","0"
"1845.3549999999814","{""confidence"":2}","[0]","survey-likert","582","1524507","0.0-582.0","hmnw51ko","","","","","","","",""
"3066.1049999999814","","","instructions","583","1527574","0.0-583.0","hmnw51ko","[{""page_index"":0,""viewing_time"":3065.969999999972}]","","","","","","",""
"2784.0850000001956","","","instructions","584","1530359","0.0-584.0","hmnw51ko","[{""page_index"":0,""viewing_time"":2783.980000000214}]","","","","","","",""
"21027.64000000013","{""post-1"":2}","[0]","survey-likert","585","1551389","0.0-585.0","hmnw51ko","","","","","","","",""
"5114.054999999935","{""post-1"":2}","[0]","survey-likert","586","1556504","0.0-586.0","hmnw51ko","","","","","","","",""
"21308.590000000084","{""post-2"":3}","[0]","survey-likert","587","1577815","0.0-587.0","hmnw51ko","","","","","","","",""
"15024.429999999935","{""post-2"":3}","[0]","survey-likert","588","1592842","0.0-588.0","hmnw51ko","","","","","","","",""
"11030.639999999898","{""post-3"":2}","[0]","survey-likert","589","1603875","0.0-589.0","hmnw51ko","","","","","","","",""
"5073.430000000168","{""post-3"":0}","[0]","survey-likert","590","1608950","0.0-590.0","hmnw51ko","","","","","","","",""
"8536.435000000056","{""post-4"":1}","[0]","survey-likert","591","1617488","0.0-591.0","hmnw51ko","","","","","","","",""
"6425.514999999898","{""post-4"":0}","[0]","survey-likert","592","1623915","0.0-592.0","hmnw51ko","","","","","","","",""
"9892.334999999963","{""post-5"":1}","[0]","survey-likert","593","1633809","0.0-593.0","hmnw51ko","","","","","","","",""
"2129.439999999944","{""post-5"":2}","[0]","survey-likert","594","1635940","0.0-594.0","hmnw51ko","","","","","","","",""
"69352.41999999993","{""Q0"":""I wasn't sure how to go about gauging a human perspective. I considered my own and also the one that was shown in the beginning. ""}","","survey-text","595","1705300","0.0-595.0","hmnw51ko","","","","","","","",""
"53873.10000000009","{""Q0"":""I tried to see if the hotspots would move to the left/right or up/down first, which was easy to see.""}","","survey-text","596","1759178","0.0-596.0","hmnw51ko","","","","","","","",""
"27248.88000000012","{""Q0"":""Comparing the perspectives to what I thought was human-like. ""}","","survey-text","597","1786430","0.0-597.0","hmnw51ko","","","","","","","",""
"57009.3600000001","","","instructions","598","1843441","0.0-598.0","hmnw51ko","[{""page_index"":0,""viewing_time"":57009.21999999997}]","","","","","","",""
"26813.040000000037","{""Experimenter_end"":[""Printed ID# hmnw51ko on consent form"",""Given subject SONA credit or payment"",""Given the subject debrief form""]}","[0]","survey-multi-select","599","1870256","0.0-599.0","hmnw51ko","","","","","","","",""
