"rt","responses","question_order","trial_type","trial_index","time_elapsed","internal_node_id","ID","view_history","stimulus","key_press","value","agent","condition","image","correct_answer"
"27036.855000000003","{""Experimenter"":[""Confirmed subject's identity (ID card)"",""Confirmed normal or corrected-to-normal vision"",""Obtained consent (signature and date)"",""Checked the test room lighting"",""Checked computer screen lighting"",""Checked distance from screen to chin rest (50cm)"",""Cleaned and adjusted chin rest"",""Counterbalanced the order of the tasks"",""Opened the experiment in Firefox"",""Made the experiment full screen"",""Encouraged subject to silence phone, put away distractors, etc.""]}","[0]","survey-multi-select","0","27044","0.0-0.0","j058zhu1","","","","","","","",""
"1176414.26","","","instructions","1","1203463","0.0-1.0","j058zhu1","[{""page_index"":0,""viewing_time"":1176413.705}]","","","","","","",""
"45838.070000000065","","","instructions","2","1249303","0.0-2.0","j058zhu1","[{""page_index"":0,""viewing_time"":11221.679999999935},{""page_index"":1,""viewing_time"":21308.03500000015},{""page_index"":0,""viewing_time"":1506.9749999998603},{""page_index"":1,""viewing_time"":4253.594999999972},{""page_index"":2,""viewing_time"":7547.655000000028}]","","","","","","",""
"4782.429999999935","","","instructions","3","1254086","0.0-3.0","j058zhu1","[{""page_index"":0,""viewing_time"":4782.329999999842}]","","","","","","",""
"null","","","video-keyboard-response","4","1257162","0.0-4.0","j058zhu1","","","null","","","","",""
"29285.165000000037","","","instructions","5","1286448","0.0-5.0","j058zhu1","[{""page_index"":0,""viewing_time"":3464.274999999907},{""page_index"":1,""viewing_time"":9227.660000000149},{""page_index"":2,""viewing_time"":1952.9799999999814},{""page_index"":3,""viewing_time"":6938.034999999916},{""page_index"":4,""viewing_time"":7702.074999999953}]","","","","","","",""
"5754.550000000047","","","instructions","6","1292203","0.0-6.0","j058zhu1","[{""page_index"":0,""viewing_time"":5754.435000000056}]","","","","","","",""
"","","","call-function","7","1292203","0.0-7.0","j058zhu1","","","","","","","",""
"null","","","html-keyboard-response","8","1293709","0.0-8.0","j058zhu1","","<span style=""color:Black; font-size:50px;"">Agent A","null","","","","",""
"null","","","video-keyboard-response","9","1296781","0.0-9.0","j058zhu1","","","null","","Agent A","veridical","STIM_SET_1_REAL/713513.bmp_pp62_L2_V1.0_veridical_freeview_isoFalse_fps144.mp4",""
"null","","","html-keyboard-response","10","1298284","0.0-10.0","j058zhu1","","<span style=""color:Black; font-size:50px;"">Agent B","null","","","","",""
"null","","","video-keyboard-response","11","1301350","0.0-11.0","j058zhu1","","","null","","Agent B","scrambled","STIM_SET_3/1592047.bmp_pp51_L1_V2_veridical_freeview_isoFalsemismatch_713513.bmp_L2_fps90.mp4",""
"","","","call-function","12","1301351","0.0-12.0","j058zhu1","","","","","","","",""
"8763.094999999972","{""judgement"":1}","[0]","survey-likert","13","1310115","0.0-13.0","j058zhu1","","","","","","","","0"
"4611.909999999916","{""confidence"":1}","[0]","survey-likert","14","1314728","0.0-14.0","j058zhu1","","","","","","","",""
"","","","call-function","15","1314728","0.0-15.0","j058zhu1","","","","","","","",""
"null","","","html-keyboard-response","16","1316232","0.0-16.0","j058zhu1","","<span style=""color:Black; font-size:50px;"">Agent A","null","","","","",""
"null","","","video-keyboard-response","17","1319297","0.0-17.0","j058zhu1","","","null","","Agent A","scrambled","STIM_SET_3/285715.bmp_pp67_L2_V2_veridical_freeview_isoFalsemismatch_1159882.bmp_L2_fps90.mp4",""
"null","","","html-keyboard-response","18","1320799","0.0-18.0","j058zhu1","","<span style=""color:Black; font-size:50px;"">Agent B","null","","","","",""
"null","","","video-keyboard-response","19","1323863","0.0-19.0","j058zhu1","","","null","","Agent B","veridical","STIM_SET_1_REAL/1159882.bmp_pp61_L2_V1.0_veridical_freeview_isoFalse_fps144.mp4",""
"","","","call-function","20","1323863","0.0-20.0","j058zhu1","","","","","","","",""
"2869.9150000000373","{""judgement"":0}","[0]","survey-likert","21","1326735","0.0-21.0","j058zhu1","","","","","","","","1"
"3869.060000000056","{""confidence"":1}","[0]","survey-likert","22","1330605","0.0-22.0","j058zhu1","","","","","","","",""
"","","","call-function","23","1330605","0.0-23.0","j058zhu1","","","","","","","",""
"null","","","html-keyboard-response","24","1332112","0.0-24.0","j058zhu1","","<span style=""color:Black; font-size:50px;"">Agent A","null","","","","",""
"null","","","video-keyboard-response","25","1335198","0.0-25.0","j058zhu1","","","null","","Agent A","veridical","STIM_SET_1_REAL/713779.bmp_pp152_L2_V1.0_veridical_freeview_isoFalse_fps144.mp4",""
"null","","","html-keyboard-response","26","1336703","0.0-26.0","j058zhu1","","<span style=""color:Black; font-size:50px;"">Agent B","null","","","","",""
"null","","","video-keyboard-response","27","1339798","0.0-27.0","j058zhu1","","","null","","Agent B","scrambled","STIM_SET_3/1592305.bmp_pp65_L3_V2_veridical_freeview_isoFalsemismatch_713779.bmp_L2_fps90.mp4",""
"","","","call-function","28","1339799","0.0-28.0","j058zhu1","","","","","","","",""
"4393.300000000047","{""judgement"":1}","[0]","survey-likert","29","1344193","0.0-29.0","j058zhu1","","","","","","","","0"
"3360.1700000001583","{""confidence"":0}","[0]","survey-likert","30","1347554","0.0-30.0","j058zhu1","","","","","","","",""
"","","","call-function","31","1347554","0.0-31.0","j058zhu1","","","","","","","",""
"null","","","html-keyboard-response","32","1349056","0.0-32.0","j058zhu1","","<span style=""color:Black; font-size:50px;"">Agent A","null","","","","",""
"null","","","video-keyboard-response","33","1352152","0.0-33.0","j058zhu1","","","null","","Agent A","scrambled","STIM_SET_3/1159508.bmp_pp151_L1_V2_veridical_freeview_isoFalsemismatch_1159675.bmp_L3_fps90.mp4",""
"null","","","html-keyboard-response","34","1353657","0.0-34.0","j058zhu1","","<span style=""color:Black; font-size:50px;"">Agent B","null","","","","",""
"null","","","video-keyboard-response","35","1356757","0.0-35.0","j058zhu1","","","null","","Agent B","veridical","STIM_SET_1_REAL/1159675.bmp_pp77_L3_V1.0_veridical_freeview_isoFalse_fps144.mp4",""
"","","","call-function","36","1356757","0.0-36.0","j058zhu1","","","","","","","",""
"2742.969999999972","{""judgement"":1}","[0]","survey-likert","37","1359501","0.0-37.0","j058zhu1","","","","","","","","1"
"2016.190000000177","{""confidence"":2}","[0]","survey-likert","38","1361518","0.0-38.0","j058zhu1","","","","","","","",""
"","","","call-function","39","1361518","0.0-39.0","j058zhu1","","","","","","","",""
"null","","","html-keyboard-response","40","1363020","0.0-40.0","j058zhu1","","<span style=""color:Black; font-size:50px;"">Agent A","null","","","","",""
"null","","","video-keyboard-response","41","1366096","0.0-41.0","j058zhu1","","","null","","Agent A","scrambled","STIM_SET_3/1159874.bmp_pp96_L2_V2_veridical_freeview_isoFalsemismatch_1159515.bmp_L3_fps90.mp4",""
"null","","","html-keyboard-response","42","1367603","0.0-42.0","j058zhu1","","<span style=""color:Black; font-size:50px;"">Agent B","null","","","","",""
"null","","","video-keyboard-response","43","1370674","0.0-43.0","j058zhu1","","","null","","Agent B","veridical","STIM_SET_1_REAL/1159515.bmp_pp84_L3_V1.0_veridical_freeview_isoFalse_fps144.mp4",""
"","","","call-function","44","1370675","0.0-44.0","j058zhu1","","","","","","","",""
"3102.8850000000093","{""judgement"":1}","[0]","survey-likert","45","1373779","0.0-45.0","j058zhu1","","","","","","","","1"
"1829.9350000000559","{""confidence"":2}","[0]","survey-likert","46","1375610","0.0-46.0","j058zhu1","","","","","","","",""
"","","","call-function","47","1375611","0.0-47.0","j058zhu1","","","","","","","",""
"null","","","html-keyboard-response","48","1377113","0.0-48.0","j058zhu1","","<span style=""color:Black; font-size:50px;"">Agent A","null","","","","",""
"null","","","video-keyboard-response","49","1380175","0.0-49.0","j058zhu1","","","null","","Agent A","scrambled","STIM_SET_3/713328.bmp_pp86_L2_V2_veridical_freeview_isoFalsemismatch_1591994.bmp_L3_fps90.mp4",""
"null","","","html-keyboard-response","50","1381680","0.0-50.0","j058zhu1","","<span style=""color:Black; font-size:50px;"">Agent B","null","","","","",""
"null","","","video-keyboard-response","51","1384756","0.0-51.0","j058zhu1","","","null","","Agent B","veridical","STIM_SET_1_REAL/1591994.bmp_pp69_L3_V1.0_veridical_freeview_isoFalse_fps144.mp4",""
"","","","call-function","52","1384757","0.0-52.0","j058zhu1","","","","","","","",""
"7381.860000000102","{""judgement"":0}","[0]","survey-likert","53","1392140","0.0-53.0","j058zhu1","","","","","","","","1"
"1718.2450000001118","{""confidence"":1}","[0]","survey-likert","54","1393859","0.0-54.0","j058zhu1","","","","","","","",""
"","","","call-function","55","1393860","0.0-55.0","j058zhu1","","","","","","","",""
"null","","","html-keyboard-response","56","1395364","0.0-56.0","j058zhu1","","<span style=""color:Black; font-size:50px;"">Agent A","null","","","","",""
"null","","","video-keyboard-response","57","1398430","0.0-57.0","j058zhu1","","","null","","Agent A","scrambled","STIM_SET_3/107955.bmp_pp90_L2_V2_veridical_freeview_isoFalsemismatch_498149.bmp_L2_fps90.mp4",""
"null","","","html-keyboard-response","58","1399935","0.0-58.0","j058zhu1","","<span style=""color:Black; font-size:50px;"">Agent B","null","","","","",""
"null","","","video-keyboard-response","59","1403022","0.0-59.0","j058zhu1","","","null","","Agent B","veridical","STIM_SET_1_REAL/498149.bmp_pp99_L2_V1.0_veridical_freeview_isoFalse_fps144.mp4",""
"","","","call-function","60","1403023","0.0-60.0","j058zhu1","","","","","","","",""
"3198.594999999972","{""judgement"":1}","[0]","survey-likert","61","1406222","0.0-61.0","j058zhu1","","","","","","","","1"
"1850.845000000205","{""confidence"":1}","[0]","survey-likert","62","1408074","0.0-62.0","j058zhu1","","","","","","","",""
"","","","call-function","63","1408075","0.0-63.0","j058zhu1","","","","","","","",""
"null","","","html-keyboard-response","64","1409580","0.0-64.0","j058zhu1","","<span style=""color:Black; font-size:50px;"">Agent A","null","","","","",""
"null","","","video-keyboard-response","65","1412690","0.0-65.0","j058zhu1","","","null","","Agent A","veridical","STIM_SET_1_REAL/1160168.bmp_pp53_L2_V1.0_veridical_freeview_isoFalse_fps144.mp4",""
"null","","","html-keyboard-response","66","1414192","0.0-66.0","j058zhu1","","<span style=""color:Black; font-size:50px;"">Agent B","null","","","","",""
"null","","","video-keyboard-response","67","1417288","0.0-67.0","j058zhu1","","","null","","Agent B","scrambled","STIM_SET_3/1592857.bmp_pp52_L1_V2_veridical_freeview_isoFalsemismatch_1160168.bmp_L2_fps90.mp4",""
"","","","call-function","68","1417289","0.0-68.0","j058zhu1","","","","","","","",""
"3434.1699999999255","{""judgement"":0}","[0]","survey-likert","69","1420724","0.0-69.0","j058zhu1","","","","","","","","0"
"2223.0550000001676","{""confidence"":2}","[0]","survey-likert","70","1422948","0.0-70.0","j058zhu1","","","","","","","",""
"","","","call-function","71","1422948","0.0-71.0","j058zhu1","","","","","","","",""
"null","","","html-keyboard-response","72","1424452","0.0-72.0","j058zhu1","","<span style=""color:Black; font-size:50px;"">Agent A","null","","","","",""
"null","","","video-keyboard-response","73","1427545","0.0-73.0","j058zhu1","","","null","","Agent A","veridical","STIM_SET_1_REAL/1592727.bmp_pp59_L3_V1.0_veridical_freeview_isoFalse_fps144.mp4",""
"null","","","html-keyboard-response","74","1429049","0.0-74.0","j058zhu1","","<span style=""color:Black; font-size:50px;"">Agent B","null","","","","",""
"null","","","video-keyboard-response","75","1432149","0.0-75.0","j058zhu1","","","null","","Agent B","scrambled","STIM_SET_3/1592038.bmp_pp79_L2_V2_veridical_freeview_isoFalsemismatch_1592727.bmp_L3_fps90.mp4",""
"","","","call-function","76","1432149","0.0-76.0","j058zhu1","","","","","","","",""
"2675.2350000001024","{""judgement"":0}","[0]","survey-likert","77","1434825","0.0-77.0","j058zhu1","","","","","","","","0"
"2394.964999999851","{""confidence"":3}","[0]","survey-likert","78","1437221","0.0-78.0","j058zhu1","","","","","","","",""
"","","","call-function","79","1437221","0.0-79.0","j058zhu1","","","","","","","",""
"null","","","html-keyboard-response","80","1438725","0.0-80.0","j058zhu1","","<span style=""color:Black; font-size:50px;"">Agent A","null","","","","",""
"null","","","video-keyboard-response","81","1441803","0.0-81.0","j058zhu1","","","null","","Agent A","veridical","STIM_SET_1_REAL/713760.bmp_pp81_L1_V1.0_veridical_freeview_isoFalse_fps144.mp4",""
"null","","","html-keyboard-response","82","1443307","0.0-82.0","j058zhu1","","<span style=""color:Black; font-size:50px;"">Agent B","null","","","","",""
"null","","","video-keyboard-response","83","1446375","0.0-83.0","j058zhu1","","","null","","Agent B","scrambled","STIM_SET_3/285684.bmp_pp80_L3_V2_veridical_freeview_isoFalsemismatch_713760.bmp_L1_fps90.mp4",""
"","","","call-function","84","1446376","0.0-84.0","j058zhu1","","","","","","","",""
"3261.4849999998696","{""judgement"":0}","[0]","survey-likert","85","1449638","0.0-85.0","j058zhu1","","","","","","","","0"
"2741.6149999999907","{""confidence"":1}","[0]","survey-likert","86","1452380","0.0-86.0","j058zhu1","","","","","","","",""
"13808.380000000121","","","instructions","87","1466189","0.0-87.0","j058zhu1","[{""page_index"":0,""viewing_time"":1667.9599999999627},{""page_index"":1,""viewing_time"":1735.0849999999627},{""page_index"":2,""viewing_time"":10405.040000000037}]","","","","","","",""
"12153.220000000205","","","instructions","88","1478343","0.0-88.0","j058zhu1","[{""page_index"":0,""viewing_time"":5778.535000000149},{""page_index"":1,""viewing_time"":4222.514999999898},{""page_index"":2,""viewing_time"":2152.065000000177}]","","","","","","",""
"","","","call-function","89","1478343","0.0-89.0","j058zhu1","","","","","","","",""
"null","","","html-keyboard-response","90","1479844","0.0-90.0","j058zhu1","","<span style=""color:Black; font-size:50px;"">Agent A","null","","","","",""
"null","","","video-keyboard-response","91","1482931","0.0-91.0","j058zhu1","","","null","","Agent A","scrambled","STIM_SET_3/107909.bmp_pp95_L2_V2_veridical_freeview_isoFalsemismatch_1592372.bmp_L1_fps90.mp4",""
"null","","","html-keyboard-response","92","1484438","0.0-92.0","j058zhu1","","<span style=""color:Black; font-size:50px;"">Agent B","null","","","","",""
"null","","","video-keyboard-response","93","1487514","0.0-93.0","j058zhu1","","","null","","Agent B","veridical","STIM_SET_1_REAL/1592372.bmp_pp76_L1_V1.0_veridical_freeview_isoFalse_fps144.mp4",""
"","","","call-function","94","1487515","0.0-94.0","j058zhu1","","","","","","","",""
"4969.425000000047","{""judgement"":1}","[0]","survey-likert","95","1492486","0.0-95.0","j058zhu1","","","","","","","","1"
"1982.9750000000931","{""confidence"":1}","[0]","survey-likert","96","1494471","0.0-96.0","j058zhu1","","","","","","","",""
"","","","call-function","97","1494472","0.0-97.0","j058zhu1","","","","","","","",""
"null","","","html-keyboard-response","98","1495975","0.0-98.0","j058zhu1","","<span style=""color:Black; font-size:50px;"">Agent A","null","","","","",""
"null","","","video-keyboard-response","99","1499043","0.0-99.0","j058zhu1","","","null","","Agent A","scrambled","STIM_SET_3/1160204.bmp_pp54_L2_V2_veridical_freeview_isoFalsemismatch_286001.bmp_L2_fps90.mp4",""
"null","","","html-keyboard-response","100","1500545","0.0-100.0","j058zhu1","","<span style=""color:Black; font-size:50px;"">Agent B","null","","","","",""
"null","","","video-keyboard-response","101","1503610","0.0-101.0","j058zhu1","","","null","","Agent B","veridical","STIM_SET_1_REAL/286001.bmp_pp54_L2_V1.0_veridical_freeview_isoFalse_fps144.mp4",""
"","","","call-function","102","1503610","0.0-102.0","j058zhu1","","","","","","","",""
"2301.2600000000093","{""judgement"":0}","[0]","survey-likert","103","1505912","0.0-103.0","j058zhu1","","","","","","","","1"
"1807.6599999999162","{""confidence"":2}","[0]","survey-likert","104","1507721","0.0-104.0","j058zhu1","","","","","","","",""
"","","","call-function","105","1507722","0.0-105.0","j058zhu1","","","","","","","",""
"null","","","html-keyboard-response","106","1509226","0.0-106.0","j058zhu1","","<span style=""color:Black; font-size:50px;"">Agent A","null","","","","",""
"null","","","video-keyboard-response","107","1512302","0.0-107.0","j058zhu1","","","null","","Agent A","veridical","STIM_SET_1_REAL/713749.bmp_pp88_L2_V1.0_veridical_freeview_isoFalse_fps144.mp4",""
"null","","","html-keyboard-response","108","1513805","0.0-108.0","j058zhu1","","<span style=""color:Black; font-size:50px;"">Agent B","null","","","","",""
"null","","","video-keyboard-response","109","1516879","0.0-109.0","j058zhu1","","","null","","Agent B","scrambled","STIM_SET_3/713858.bmp_pp57_L1_V2_veridical_freeview_isoFalsemismatch_713749.bmp_L2_fps90.mp4",""
"","","","call-function","110","1516879","0.0-110.0","j058zhu1","","","","","","","",""
"2498.350000000093","{""judgement"":0}","[0]","survey-likert","111","1519378","0.0-111.0","j058zhu1","","","","","","","","0"
"2003.0800000000745","{""confidence"":3}","[0]","survey-likert","112","1521382","0.0-112.0","j058zhu1","","","","","","","",""
"","","","call-function","113","1521383","0.0-113.0","j058zhu1","","","","","","","",""
"null","","","html-keyboard-response","114","1522885","0.0-114.0","j058zhu1","","<span style=""color:Black; font-size:50px;"">Agent A","null","","","","",""
"null","","","video-keyboard-response","115","1525984","0.0-115.0","j058zhu1","","","null","","Agent A","veridical","STIM_SET_1_REAL/1592890.bmp_pp82_L2_V1.0_veridical_freeview_isoFalse_fps144.mp4",""
"null","","","html-keyboard-response","116","1527486","0.0-116.0","j058zhu1","","<span style=""color:Black; font-size:50px;"">Agent B","null","","","","",""
"null","","","video-keyboard-response","117","1530594","0.0-117.0","j058zhu1","","","null","","Agent B","scrambled","STIM_SET_3/1592168.bmp_pp71_L1_V2_veridical_freeview_isoFalsemismatch_1592890.bmp_L2_fps90.mp4",""
"","","","call-function","118","1530594","0.0-118.0","j058zhu1","","","","","","","",""
"2618.0550000001676","{""judgement"":0}","[0]","survey-likert","119","1533213","0.0-119.0","j058zhu1","","","","","","","","0"
"2447.1699999999255","{""confidence"":2}","[0]","survey-likert","120","1535661","0.0-120.0","j058zhu1","","","","","","","",""
"","","","call-function","121","1535662","0.0-121.0","j058zhu1","","","","","","","",""
"null","","","html-keyboard-response","122","1537165","0.0-122.0","j058zhu1","","<span style=""color:Black; font-size:50px;"">Agent A","null","","","","",""
"null","","","video-keyboard-response","123","1540260","0.0-123.0","j058zhu1","","","null","","Agent A","veridical","STIM_SET_1_REAL/713796.bmp_pp84_L3_V1.0_veridical_freeview_isoFalse_fps144.mp4",""
"null","","","html-keyboard-response","124","1541765","0.0-124.0","j058zhu1","","<span style=""color:Black; font-size:50px;"">Agent B","null","","","","",""
"null","","","video-keyboard-response","125","1544865","0.0-125.0","j058zhu1","","","null","","Agent B","scrambled","STIM_SET_3/713633.bmp_pp58_L1_V2_veridical_freeview_isoFalsemismatch_713796.bmp_L3_fps90.mp4",""
"","","","call-function","126","1544866","0.0-126.0","j058zhu1","","","","","","","",""
"2243.6800000001676","{""judgement"":0}","[0]","survey-likert","127","1547110","0.0-127.0","j058zhu1","","","","","","","","0"
"2120.429999999935","{""confidence"":3}","[0]","survey-likert","128","1549232","0.0-128.0","j058zhu1","","","","","","","",""
"","","","call-function","129","1549233","0.0-129.0","j058zhu1","","","","","","","",""
"null","","","html-keyboard-response","130","1550735","0.0-130.0","j058zhu1","","<span style=""color:Black; font-size:50px;"">Agent A","null","","","","",""
"null","","","video-keyboard-response","131","1553821","0.0-131.0","j058zhu1","","","null","","Agent A","veridical","STIM_SET_1_REAL/1592619.bmp_pp56_L3_V1.0_veridical_freeview_isoFalse_fps144.mp4",""
"null","","","html-keyboard-response","132","1555323","0.0-132.0","j058zhu1","","<span style=""color:Black; font-size:50px;"">Agent B","null","","","","",""
"null","","","video-keyboard-response","133","1558419","0.0-133.0","j058zhu1","","","null","","Agent B","scrambled","STIM_SET_3/150463.bmp_pp55_L3_V2_veridical_freeview_isoFalsemismatch_1592619.bmp_L3_fps90.mp4",""
"","","","call-function","134","1558420","0.0-134.0","j058zhu1","","","","","","","",""
"2079.5500000000466","{""judgement"":0}","[0]","survey-likert","135","1560500","0.0-135.0","j058zhu1","","","","","","","","0"
"1648.0149999998976","{""confidence"":1}","[0]","survey-likert","136","1562149","0.0-136.0","j058zhu1","","","","","","","",""
"","","","call-function","137","1562150","0.0-137.0","j058zhu1","","","","","","","",""
"null","","","html-keyboard-response","138","1563656","0.0-138.0","j058zhu1","","<span style=""color:Black; font-size:50px;"">Agent A","null","","","","",""
"null","","","video-keyboard-response","139","1566732","0.0-139.0","j058zhu1","","","null","","Agent A","veridical","STIM_SET_1_REAL/713666.bmp_pp97_L3_V1.0_veridical_freeview_isoFalse_fps144.mp4",""
"null","","","html-keyboard-response","140","1568239","0.0-140.0","j058zhu1","","<span style=""color:Black; font-size:50px;"">Agent B","null","","","","",""
"null","","","video-keyboard-response","141","1571308","0.0-141.0","j058zhu1","","","null","","Agent B","scrambled","STIM_SET_3/1592289.bmp_pp92_L3_V2_veridical_freeview_isoFalsemismatch_713666.bmp_L3_fps90.mp4",""
"","","","call-function","142","1571309","0.0-142.0","j058zhu1","","","","","","","",""
"2112.8850000000093","{""judgement"":0}","[0]","survey-likert","143","1573422","0.0-143.0","j058zhu1","","","","","","","","0"
"1477.9199999999255","{""confidence"":2}","[0]","survey-likert","144","1574901","0.0-144.0","j058zhu1","","","","","","","",""
"","","","call-function","145","1574902","0.0-145.0","j058zhu1","","","","","","","",""
"null","","","html-keyboard-response","146","1576405","0.0-146.0","j058zhu1","","<span style=""color:Black; font-size:50px;"">Agent A","null","","","","",""
"null","","","video-keyboard-response","147","1579479","0.0-147.0","j058zhu1","","","null","","Agent A","veridical","STIM_SET_1_REAL/1593146.bmp_pp93_L1_V1.0_veridical_freeview_isoFalse_fps144.mp4",""
"null","","","html-keyboard-response","148","1580982","0.0-148.0","j058zhu1","","<span style=""color:Black; font-size:50px;"">Agent B","null","","","","",""
"null","","","video-keyboard-response","149","1584050","0.0-149.0","j058zhu1","","","null","","Agent B","scrambled","STIM_SET_3/1592298.bmp_pp56_L3_V2_veridical_freeview_isoFalsemismatch_1593146.bmp_L1_fps90.mp4",""
"","","","call-function","150","1584050","0.0-150.0","j058zhu1","","","","","","","",""
"3299.3350000001956","{""judgement"":0}","[0]","survey-likert","151","1587351","0.0-151.0","j058zhu1","","","","","","","","0"
"1507.8950000000186","{""confidence"":2}","[0]","survey-likert","152","1588860","0.0-152.0","j058zhu1","","","","","","","",""
"","","","call-function","153","1588861","0.0-153.0","j058zhu1","","","","","","","",""
"null","","","html-keyboard-response","154","1590362","0.0-154.0","j058zhu1","","<span style=""color:Black; font-size:50px;"">Agent A","null","","","","",""
"null","","","video-keyboard-response","155","1593453","0.0-155.0","j058zhu1","","","null","","Agent A","scrambled","STIM_SET_3/1591975.bmp_pp88_L2_V2_veridical_freeview_isoFalsemismatch_713017.bmp_L2_fps90.mp4",""
"null","","","html-keyboard-response","156","1594959","0.0-156.0","j058zhu1","","<span style=""color:Black; font-size:50px;"">Agent B","null","","","","",""
"null","","","video-keyboard-response","157","1598057","0.0-157.0","j058zhu1","","","null","","Agent B","veridical","STIM_SET_1_REAL/713017.bmp_pp152_L2_V1.0_veridical_freeview_isoFalse_fps144.mp4",""
"","","","call-function","158","1598059","0.0-158.0","j058zhu1","","","","","","","",""
"2838.844999999972","{""judgement"":1}","[0]","survey-likert","159","1600899","0.0-159.0","j058zhu1","","","","","","","","1"
"1825.9899999999907","{""confidence"":3}","[0]","survey-likert","160","1602726","0.0-160.0","j058zhu1","","","","","","","",""
"","","","call-function","161","1602727","0.0-161.0","j058zhu1","","","","","","","",""
"null","","","html-keyboard-response","162","1604233","0.0-162.0","j058zhu1","","<span style=""color:Black; font-size:50px;"">Agent A","null","","","","",""
"null","","","video-keyboard-response","163","1607310","0.0-163.0","j058zhu1","","","null","","Agent A","scrambled","STIM_SET_3/713790.bmp_pp100_L3_V2_veridical_freeview_isoFalsemismatch_1592397.bmp_L3_fps90.mp4",""
"null","","","html-keyboard-response","164","1608814","0.0-164.0","j058zhu1","","<span style=""color:Black; font-size:50px;"">Agent B","null","","","","",""
"null","","","video-keyboard-response","165","1611882","0.0-165.0","j058zhu1","","","null","","Agent B","veridical","STIM_SET_1_REAL/1592397.bmp_pp85_L3_V1.0_veridical_freeview_isoFalse_fps144.mp4",""
"","","","call-function","166","1611883","0.0-166.0","j058zhu1","","","","","","","",""
"1731.719999999972","{""judgement"":1}","[0]","survey-likert","167","1613616","0.0-167.0","j058zhu1","","","","","","","","1"
"2726.2050000000745","{""confidence"":2}","[0]","survey-likert","168","1616343","0.0-168.0","j058zhu1","","","","","","","",""
"9340.700000000186","","","instructions","169","1625685","0.0-169.0","j058zhu1","[{""page_index"":0,""viewing_time"":1341.405000000028},{""page_index"":1,""viewing_time"":5002.060000000056},{""page_index"":2,""viewing_time"":2996.9950000001118}]","","","","","","",""
"2672.4950000001118","","","instructions","170","1628357","0.0-170.0","j058zhu1","[{""page_index"":0,""viewing_time"":796.1850000000559},{""page_index"":1,""viewing_time"":1059.160000000149},{""page_index"":2,""viewing_time"":817.0449999999255}]","","","","","","",""
"","","","call-function","171","1628358","0.0-171.0","j058zhu1","","","","","","","",""
"null","","","html-keyboard-response","172","1629859","0.0-172.0","j058zhu1","","<span style=""color:Black; font-size:50px;"">Agent A","null","","","","",""
"null","","","video-keyboard-response","173","1632929","0.0-173.0","j058zhu1","","","null","","Agent A","veridical","STIM_SET_1_REAL/285933.bmp_pp81_L1_V1.0_veridical_freeview_isoFalse_fps144.mp4",""
"null","","","html-keyboard-response","174","1634431","0.0-174.0","j058zhu1","","<span style=""color:Black; font-size:50px;"">Agent B","null","","","","",""
"null","","","video-keyboard-response","175","1637499","0.0-175.0","j058zhu1","","","null","","Agent B","scrambled","STIM_SET_3/1159973.bmp_pp98_L1_V2_veridical_freeview_isoFalsemismatch_285933.bmp_L1_fps90.mp4",""
"","","","call-function","176","1637499","0.0-176.0","j058zhu1","","","","","","","",""
"1565.4200000001583","{""judgement"":0}","[0]","survey-likert","177","1639066","0.0-177.0","j058zhu1","","","","","","","","0"
"2484.314999999944","{""confidence"":3}","[0]","survey-likert","178","1641551","0.0-178.0","j058zhu1","","","","","","","",""
"","","","call-function","179","1641551","0.0-179.0","j058zhu1","","","","","","","",""
"null","","","html-keyboard-response","180","1643053","0.0-180.0","j058zhu1","","<span style=""color:Black; font-size:50px;"">Agent A","null","","","","",""
"null","","","video-keyboard-response","181","1646158","0.0-181.0","j058zhu1","","","null","","Agent A","veridical","STIM_SET_1_REAL/713620.bmp_pp65_L3_V1.0_veridical_freeview_isoFalse_fps144.mp4",""
"null","","","html-keyboard-response","182","1647664","0.0-182.0","j058zhu1","","<span style=""color:Black; font-size:50px;"">Agent B","null","","","","",""
"null","","","video-keyboard-response","183","1650755","0.0-183.0","j058zhu1","","","null","","Agent B","scrambled","STIM_SET_3/498398.bmp_pp81_L1_V2_veridical_freeview_isoFalsemismatch_713620.bmp_L3_fps90.mp4",""
"","","","call-function","184","1650756","0.0-184.0","j058zhu1","","","","","","","",""
"4138.175000000047","{""judgement"":0}","[0]","survey-likert","185","1654895","0.0-185.0","j058zhu1","","","","","","","","0"
"1418.0449999999255","{""confidence"":2}","[0]","survey-likert","186","1656314","0.0-186.0","j058zhu1","","","","","","","",""
"","","","call-function","187","1656314","0.0-187.0","j058zhu1","","","","","","","",""
"null","","","html-keyboard-response","188","1657818","0.0-188.0","j058zhu1","","<span style=""color:Black; font-size:50px;"">Agent A","null","","","","",""
"null","","","video-keyboard-response","189","1660905","0.0-189.0","j058zhu1","","","null","","Agent A","scrambled","STIM_SET_3/1159427.bmp_pp98_L1_V2_veridical_freeview_isoFalsemismatch_1591876.bmp_L1_fps90.mp4",""
"null","","","html-keyboard-response","190","1662406","0.0-190.0","j058zhu1","","<span style=""color:Black; font-size:50px;"">Agent B","null","","","","",""
"null","","","video-keyboard-response","191","1665505","0.0-191.0","j058zhu1","","","null","","Agent B","veridical","STIM_SET_1_REAL/1591876.bmp_pp63_L1_V1.0_veridical_freeview_isoFalse_fps144.mp4",""
"","","","call-function","192","1665505","0.0-192.0","j058zhu1","","","","","","","",""
"2247.4549999998417","{""judgement"":1}","[0]","survey-likert","193","1667754","0.0-193.0","j058zhu1","","","","","","","","1"
"3007.810000000056","{""confidence"":3}","[0]","survey-likert","194","1670763","0.0-194.0","j058zhu1","","","","","","","",""
"","","","call-function","195","1670763","0.0-195.0","j058zhu1","","","","","","","",""
"null","","","html-keyboard-response","196","1672269","0.0-196.0","j058zhu1","","<span style=""color:Black; font-size:50px;"">Agent A","null","","","","",""
"null","","","video-keyboard-response","197","1675336","0.0-197.0","j058zhu1","","","null","","Agent A","veridical","STIM_SET_1_REAL/1159768.bmp_pp89_L1_V1.0_veridical_freeview_isoFalse_fps144.mp4",""
"null","","","html-keyboard-response","198","1676838","0.0-198.0","j058zhu1","","<span style=""color:Black; font-size:50px;"">Agent B","null","","","","",""
"null","","","video-keyboard-response","199","1679907","0.0-199.0","j058zhu1","","","null","","Agent B","scrambled","STIM_SET_3/713788.bmp_pp52_L1_V2_veridical_freeview_isoFalsemismatch_1159768.bmp_L1_fps90.mp4",""
"","","","call-function","200","1679907","0.0-200.0","j058zhu1","","","","","","","",""
"2548.1650000000373","{""judgement"":0}","[0]","survey-likert","201","1682456","0.0-201.0","j058zhu1","","","","","","","","0"
"1630.714999999851","{""confidence"":2}","[0]","survey-likert","202","1684088","0.0-202.0","j058zhu1","","","","","","","",""
"","","","call-function","203","1684088","0.0-203.0","j058zhu1","","","","","","","",""
"null","","","html-keyboard-response","204","1685592","0.0-204.0","j058zhu1","","<span style=""color:Black; font-size:50px;"">Agent A","null","","","","",""
"null","","","video-keyboard-response","205","1688690","0.0-205.0","j058zhu1","","","null","","Agent A","veridical","STIM_SET_1_REAL/1592286.bmp_pp52_L1_V1.0_veridical_freeview_isoFalse_fps144.mp4",""
"null","","","html-keyboard-response","206","1690191","0.0-206.0","j058zhu1","","<span style=""color:Black; font-size:50px;"">Agent B","null","","","","",""
"null","","","video-keyboard-response","207","1693281","0.0-207.0","j058zhu1","","","null","","Agent B","scrambled","STIM_SET_3/498326.bmp_pp57_L1_V2_veridical_freeview_isoFalsemismatch_1592286.bmp_L1_fps90.mp4",""
"","","","call-function","208","1693282","0.0-208.0","j058zhu1","","","","","","","",""
"2313.820000000065","{""judgement"":0}","[0]","survey-likert","209","1695596","0.0-209.0","j058zhu1","","","","","","","","0"
"2187.2249999998603","{""confidence"":2}","[0]","survey-likert","210","1697785","0.0-210.0","j058zhu1","","","","","","","",""
"","","","call-function","211","1697785","0.0-211.0","j058zhu1","","","","","","","",""
"null","","","html-keyboard-response","212","1699286","0.0-212.0","j058zhu1","","<span style=""color:Black; font-size:50px;"">Agent A","null","","","","",""
"null","","","video-keyboard-response","213","1702362","0.0-213.0","j058zhu1","","","null","","Agent A","veridical","STIM_SET_1_REAL/61537.bmp_pp73_L3_V1.0_veridical_freeview_isoFalse_fps144.mp4",""
"null","","","html-keyboard-response","214","1703863","0.0-214.0","j058zhu1","","<span style=""color:Black; font-size:50px;"">Agent B","null","","","","",""
"null","","","video-keyboard-response","215","1706940","0.0-215.0","j058zhu1","","","null","","Agent B","scrambled","STIM_SET_3/713770.bmp_pp89_L1_V2_veridical_freeview_isoFalsemismatch_61537.bmp_L3_fps90.mp4",""
"","","","call-function","216","1706941","0.0-216.0","j058zhu1","","","","","","","",""
"2882.810000000056","{""judgement"":0}","[0]","survey-likert","217","1709825","0.0-217.0","j058zhu1","","","","","","","","0"
"1901.280000000028","{""confidence"":3}","[0]","survey-likert","218","1711727","0.0-218.0","j058zhu1","","","","","","","",""
"","","","call-function","219","1711727","0.0-219.0","j058zhu1","","","","","","","",""
"null","","","html-keyboard-response","220","1713232","0.0-220.0","j058zhu1","","<span style=""color:Black; font-size:50px;"">Agent A","null","","","","",""
"null","","","video-keyboard-response","221","1716345","0.0-221.0","j058zhu1","","","null","","Agent A","veridical","STIM_SET_1_REAL/713135.bmp_pp54_L2_V1.0_veridical_freeview_isoFalse_fps144.mp4",""
"null","","","html-keyboard-response","222","1717850","0.0-222.0","j058zhu1","","<span style=""color:Black; font-size:50px;"">Agent B","null","","","","",""
"null","","","video-keyboard-response","223","1720950","0.0-223.0","j058zhu1","","","null","","Agent B","scrambled","STIM_SET_3/1592567.bmp_pp70_L2_V2_veridical_freeview_isoFalsemismatch_713135.bmp_L2_fps90.mp4",""
"","","","call-function","224","1720951","0.0-224.0","j058zhu1","","","","","","","",""
"3285.0849999999627","{""judgement"":1}","[0]","survey-likert","225","1724237","0.0-225.0","j058zhu1","","","","","","","","0"
"2964.4599999999627","{""confidence"":0}","[0]","survey-likert","226","1727204","0.0-226.0","j058zhu1","","","","","","","",""
"","","","call-function","227","1727205","0.0-227.0","j058zhu1","","","","","","","",""
"null","","","html-keyboard-response","228","1728711","0.0-228.0","j058zhu1","","<span style=""color:Black; font-size:50px;"">Agent A","null","","","","",""
"null","","","video-keyboard-response","229","1731772","0.0-229.0","j058zhu1","","","null","","Agent A","veridical","STIM_SET_1_REAL/1159446.bmp_pp60_L3_V1.0_veridical_freeview_isoFalse_fps144.mp4",""
"null","","","html-keyboard-response","230","1733274","0.0-230.0","j058zhu1","","<span style=""color:Black; font-size:50px;"">Agent B","null","","","","",""
"null","","","video-keyboard-response","231","1736342","0.0-231.0","j058zhu1","","","null","","Agent B","scrambled","STIM_SET_3/1592044.bmp_pp94_L2_V2_veridical_freeview_isoFalsemismatch_1159446.bmp_L3_fps90.mp4",""
"","","","call-function","232","1736342","0.0-232.0","j058zhu1","","","","","","","",""
"1736.6100000001024","{""judgement"":0}","[0]","survey-likert","233","1738080","0.0-233.0","j058zhu1","","","","","","","","0"
"2029.2350000001024","{""confidence"":3}","[0]","survey-likert","234","1740110","0.0-234.0","j058zhu1","","","","","","","",""
"","","","call-function","235","1740111","0.0-235.0","j058zhu1","","","","","","","",""
"null","","","html-keyboard-response","236","1741613","0.0-236.0","j058zhu1","","<span style=""color:Black; font-size:50px;"">Agent A","null","","","","",""
"null","","","video-keyboard-response","237","1744689","0.0-237.0","j058zhu1","","","null","","Agent A","scrambled","STIM_SET_3/285959.bmp_pp93_L1_V2_veridical_freeview_isoFalsemismatch_498253.bmp_L2_fps90.mp4",""
"null","","","html-keyboard-response","238","1746193","0.0-238.0","j058zhu1","","<span style=""color:Black; font-size:50px;"">Agent B","null","","","","",""
"null","","","video-keyboard-response","239","1749267","0.0-239.0","j058zhu1","","","null","","Agent B","veridical","STIM_SET_1_REAL/498253.bmp_pp67_L2_V1.0_veridical_freeview_isoFalse_fps144.mp4",""
"","","","call-function","240","1749267","0.0-240.0","j058zhu1","","","","","","","",""
"2438.9849999998696","{""judgement"":1}","[0]","survey-likert","241","1751707","0.0-241.0","j058zhu1","","","","","","","","1"
"2914.3950000000186","{""confidence"":1}","[0]","survey-likert","242","1754623","0.0-242.0","j058zhu1","","","","","","","",""
"","","","call-function","243","1754623","0.0-243.0","j058zhu1","","","","","","","",""
"null","","","html-keyboard-response","244","1756125","0.0-244.0","j058zhu1","","<span style=""color:Black; font-size:50px;"">Agent A","null","","","","",""
"null","","","video-keyboard-response","245","1759223","0.0-245.0","j058zhu1","","","null","","Agent A","scrambled","STIM_SET_3/498258.bmp_pp51_L1_V2_veridical_freeview_isoFalsemismatch_498155.bmp_L2_fps90.mp4",""
"null","","","html-keyboard-response","246","1760727","0.0-246.0","j058zhu1","","<span style=""color:Black; font-size:50px;"">Agent B","null","","","","",""
"null","","","video-keyboard-response","247","1763833","0.0-247.0","j058zhu1","","","null","","Agent B","veridical","STIM_SET_1_REAL/498155.bmp_pp61_L2_V1.0_veridical_freeview_isoFalse_fps144.mp4",""
"","","","call-function","248","1763834","0.0-248.0","j058zhu1","","","","","","","",""
"3576.4000000001397","{""judgement"":1}","[0]","survey-likert","249","1767411","0.0-249.0","j058zhu1","","","","","","","","1"
"2134.0200000000186","{""confidence"":2}","[0]","survey-likert","250","1769546","0.0-250.0","j058zhu1","","","","","","","",""
"9214.205000000075","","","instructions","251","1778761","0.0-251.0","j058zhu1","[{""page_index"":0,""viewing_time"":2706.570000000065},{""page_index"":1,""viewing_time"":5402.579999999842},{""page_index"":2,""viewing_time"":1104.9000000001397}]","","","","","","",""
"4680.600000000093","","","instructions","252","1783442","0.0-252.0","j058zhu1","[{""page_index"":0,""viewing_time"":1619.905000000028},{""page_index"":1,""viewing_time"":2134.630000000121},{""page_index"":2,""viewing_time"":925.9599999999627}]","","","","","","",""
"","","","call-function","253","1783442","0.0-253.0","j058zhu1","","","","","","","",""
"null","","","html-keyboard-response","254","1784944","0.0-254.0","j058zhu1","","<span style=""color:Black; font-size:50px;"">Agent A","null","","","","",""
"null","","","video-keyboard-response","255","1788038","0.0-255.0","j058zhu1","","","null","","Agent A","veridical","STIM_SET_1_REAL/497950.bmp_pp151_L1_V1.0_veridical_freeview_isoFalse_fps144.mp4",""
"null","","","html-keyboard-response","256","1789541","0.0-256.0","j058zhu1","","<span style=""color:Black; font-size:50px;"">Agent B","null","","","","",""
"null","","","video-keyboard-response","257","1792637","0.0-257.0","j058zhu1","","","null","","Agent B","scrambled","STIM_SET_3/713274.bmp_pp73_L3_V2_veridical_freeview_isoFalsemismatch_497950.bmp_L1_fps90.mp4",""
"","","","call-function","258","1792638","0.0-258.0","j058zhu1","","","","","","","",""
"2300.2249999998603","{""judgement"":0}","[0]","survey-likert","259","1794939","0.0-259.0","j058zhu1","","","","","","","","0"
"1606.0649999999441","{""confidence"":3}","[0]","survey-likert","260","1796546","0.0-260.0","j058zhu1","","","","","","","",""
"","","","call-function","261","1796546","0.0-261.0","j058zhu1","","","","","","","",""
"null","","","html-keyboard-response","262","1798048","0.0-262.0","j058zhu1","","<span style=""color:Black; font-size:50px;"">Agent A","null","","","","",""
"null","","","video-keyboard-response","263","1801123","0.0-263.0","j058zhu1","","","null","","Agent A","veridical","STIM_SET_1_REAL/1159855.bmp_pp99_L2_V1.0_veridical_freeview_isoFalse_fps144.mp4",""
"null","","","html-keyboard-response","264","1802625","0.0-264.0","j058zhu1","","<span style=""color:Black; font-size:50px;"">Agent B","null","","","","",""
"null","","","video-keyboard-response","265","1805687","0.0-265.0","j058zhu1","","","null","","Agent B","scrambled","STIM_SET_3/285932.bmp_pp64_L1_V2_veridical_freeview_isoFalsemismatch_1159855.bmp_L2_fps90.mp4",""
"","","","call-function","266","1805688","0.0-266.0","j058zhu1","","","","","","","",""
"3159.945000000065","{""judgement"":0}","[0]","survey-likert","267","1808848","0.0-267.0","j058zhu1","","","","","","","","0"
"2732.594999999972","{""confidence"":2}","[0]","survey-likert","268","1811583","0.0-268.0","j058zhu1","","","","","","","",""
"","","","call-function","269","1811583","0.0-269.0","j058zhu1","","","","","","","",""
"null","","","html-keyboard-response","270","1813087","0.0-270.0","j058zhu1","","<span style=""color:Black; font-size:50px;"">Agent A","null","","","","",""
"null","","","video-keyboard-response","271","1816157","0.0-271.0","j058zhu1","","","null","","Agent A","scrambled","STIM_SET_3/1160189.bmp_pp64_L1_V2_veridical_freeview_isoFalsemismatch_1592581.bmp_L3_fps90.mp4",""
"null","","","html-keyboard-response","272","1817661","0.0-272.0","j058zhu1","","<span style=""color:Black; font-size:50px;"">Agent B","null","","","","",""
"null","","","video-keyboard-response","273","1820733","0.0-273.0","j058zhu1","","","null","","Agent B","veridical","STIM_SET_1_REAL/1592581.bmp_pp100_L3_V1.0_veridical_freeview_isoFalse_fps144.mp4",""
"","","","call-function","274","1820734","0.0-274.0","j058zhu1","","","","","","","",""
"2007.5500000000466","{""judgement"":1}","[0]","survey-likert","275","1822743","0.0-275.0","j058zhu1","","","","","","","","1"
"2233.8600000001024","{""confidence"":2}","[0]","survey-likert","276","1824979","0.0-276.0","j058zhu1","","","","","","","",""
"","","","call-function","277","1824980","0.0-277.0","j058zhu1","","","","","","","",""
"null","","","html-keyboard-response","278","1826485","0.0-278.0","j058zhu1","","<span style=""color:Black; font-size:50px;"">Agent A","null","","","","",""
"null","","","video-keyboard-response","279","1829552","0.0-279.0","j058zhu1","","","null","","Agent A","scrambled","STIM_SET_3/150277.bmp_pp65_L3_V2_veridical_freeview_isoFalsemismatch_1592362.bmp_L2_fps90.mp4",""
"null","","","html-keyboard-response","280","1831054","0.0-280.0","j058zhu1","","<span style=""color:Black; font-size:50px;"">Agent B","null","","","","",""
"null","","","video-keyboard-response","281","1834128","0.0-281.0","j058zhu1","","","null","","Agent B","veridical","STIM_SET_1_REAL/1592362.bmp_pp95_L2_V1.0_veridical_freeview_isoFalse_fps144.mp4",""
"","","","call-function","282","1834128","0.0-282.0","j058zhu1","","","","","","","",""
"4061.9599999999627","{""judgement"":0}","[0]","survey-likert","283","1838191","0.0-283.0","j058zhu1","","","","","","","","1"
"3985.0699999998324","{""confidence"":1}","[0]","survey-likert","284","1842177","0.0-284.0","j058zhu1","","","","","","","",""
"","","","call-function","285","1842178","0.0-285.0","j058zhu1","","","","","","","",""
"null","","","html-keyboard-response","286","1843684","0.0-286.0","j058zhu1","","<span style=""color:Black; font-size:50px;"">Agent A","null","","","","",""
"null","","","video-keyboard-response","287","1846746","0.0-287.0","j058zhu1","","","null","","Agent A","scrambled","STIM_SET_3/713829.bmp_pp60_L3_V2_veridical_freeview_isoFalsemismatch_1159440.bmp_L1_fps90.mp4",""
"null","","","html-keyboard-response","288","1848251","0.0-288.0","j058zhu1","","<span style=""color:Black; font-size:50px;"">Agent B","null","","","","",""
"null","","","video-keyboard-response","289","1851320","0.0-289.0","j058zhu1","","","null","","Agent B","veridical","STIM_SET_1_REAL/1159440.bmp_pp98_L1_V1.0_veridical_freeview_isoFalse_fps144.mp4",""
"","","","call-function","290","1851320","0.0-290.0","j058zhu1","","","","","","","",""
"1843.4150000000373","{""judgement"":1}","[0]","survey-likert","291","1853164","0.0-291.0","j058zhu1","","","","","","","","1"
"1759.255000000121","{""confidence"":2}","[0]","survey-likert","292","1854925","0.0-292.0","j058zhu1","","","","","","","",""
"","","","call-function","293","1854925","0.0-293.0","j058zhu1","","","","","","","",""
"null","","","html-keyboard-response","294","1856426","0.0-294.0","j058zhu1","","<span style=""color:Black; font-size:50px;"">Agent A","null","","","","",""
"null","","","video-keyboard-response","295","1859526","0.0-295.0","j058zhu1","","","null","","Agent A","veridical","STIM_SET_1_REAL/285751.bmp_pp55_L3_V1.0_veridical_freeview_isoFalse_fps144.mp4",""
"null","","","html-keyboard-response","296","1861030","0.0-296.0","j058zhu1","","<span style=""color:Black; font-size:50px;"">Agent B","null","","","","",""
"null","","","video-keyboard-response","297","1864142","0.0-297.0","j058zhu1","","","null","","Agent B","scrambled","STIM_SET_3/285946.bmp_pp79_L2_V2_veridical_freeview_isoFalsemismatch_285751.bmp_L3_fps90.mp4",""
"","","","call-function","298","1864143","0.0-298.0","j058zhu1","","","","","","","",""
"1978.2849999999162","{""judgement"":0}","[0]","survey-likert","299","1866122","0.0-299.0","j058zhu1","","","","","","","","0"
"3288.630000000121","{""confidence"":3}","[0]","survey-likert","300","1869412","0.0-300.0","j058zhu1","","","","","","","",""
"","","","call-function","301","1869412","0.0-301.0","j058zhu1","","","","","","","",""
"null","","","html-keyboard-response","302","1870917","0.0-302.0","j058zhu1","","<span style=""color:Black; font-size:50px;"">Agent A","null","","","","",""
"null","","","video-keyboard-response","303","1874013","0.0-303.0","j058zhu1","","","null","","Agent A","scrambled","STIM_SET_3/1159860.bmp_pp152_L2_V2_veridical_freeview_isoFalsemismatch_1159621.bmp_L3_fps90.mp4",""
"null","","","html-keyboard-response","304","1875516","0.0-304.0","j058zhu1","","<span style=""color:Black; font-size:50px;"">Agent B","null","","","","",""
"null","","","video-keyboard-response","305","1878610","0.0-305.0","j058zhu1","","","null","","Agent B","veridical","STIM_SET_1_REAL/1159621.bmp_pp92_L3_V1.0_veridical_freeview_isoFalse_fps144.mp4",""
"","","","call-function","306","1878611","0.0-306.0","j058zhu1","","","","","","","",""
"1996.5400000000373","{""judgement"":1}","[0]","survey-likert","307","1880608","0.0-307.0","j058zhu1","","","","","","","","1"
"3318.994999999879","{""confidence"":1}","[0]","survey-likert","308","1883928","0.0-308.0","j058zhu1","","","","","","","",""
"","","","call-function","309","1883929","0.0-309.0","j058zhu1","","","","","","","",""
"null","","","html-keyboard-response","310","1885431","0.0-310.0","j058zhu1","","<span style=""color:Black; font-size:50px;"">Agent A","null","","","","",""
"null","","","video-keyboard-response","311","1888531","0.0-311.0","j058zhu1","","","null","","Agent A","veridical","STIM_SET_1_REAL/713593.bmp_pp64_L1_V1.0_veridical_freeview_isoFalse_fps144.mp4",""
"null","","","html-keyboard-response","312","1890033","0.0-312.0","j058zhu1","","<span style=""color:Black; font-size:50px;"">Agent B","null","","","","",""
"null","","","video-keyboard-response","313","1893101","0.0-313.0","j058zhu1","","","null","","Agent B","scrambled","STIM_SET_3/1592747.bmp_pp53_L2_V2_veridical_freeview_isoFalsemismatch_713593.bmp_L1_fps90.mp4",""
"","","","call-function","314","1893102","0.0-314.0","j058zhu1","","","","","","","",""
"2933.3300000000745","{""judgement"":0}","[0]","survey-likert","315","1896036","0.0-315.0","j058zhu1","","","","","","","","0"
"1445.0849999999627","{""confidence"":2}","[0]","survey-likert","316","1897482","0.0-316.0","j058zhu1","","","","","","","",""
"","","","call-function","317","1897483","0.0-317.0","j058zhu1","","","","","","","",""
"null","","","html-keyboard-response","318","1898987","0.0-318.0","j058zhu1","","<span style=""color:Black; font-size:50px;"">Agent A","null","","","","",""
"null","","","video-keyboard-response","319","1902056","0.0-319.0","j058zhu1","","","null","","Agent A","scrambled","STIM_SET_3/1159956.bmp_pp59_L3_V2_veridical_freeview_isoFalsemismatch_1159829.bmp_L3_fps90.mp4",""
"null","","","html-keyboard-response","320","1903562","0.0-320.0","j058zhu1","","<span style=""color:Black; font-size:50px;"">Agent B","null","","","","",""
"null","","","video-keyboard-response","321","1906654","0.0-321.0","j058zhu1","","","null","","Agent B","veridical","STIM_SET_1_REAL/1159829.bmp_pp91_L3_V1.0_veridical_freeview_isoFalse_fps144.mp4",""
"","","","call-function","322","1906655","0.0-322.0","j058zhu1","","","","","","","",""
"2989.3649999999907","{""judgement"":1}","[0]","survey-likert","323","1909645","0.0-323.0","j058zhu1","","","","","","","","1"
"1378.8249999999534","{""confidence"":1}","[0]","survey-likert","324","1911025","0.0-324.0","j058zhu1","","","","","","","",""
"","","","call-function","325","1911026","0.0-325.0","j058zhu1","","","","","","","",""
"null","","","html-keyboard-response","326","1912527","0.0-326.0","j058zhu1","","<span style=""color:Black; font-size:50px;"">Agent A","null","","","","",""
"null","","","video-keyboard-response","327","1915589","0.0-327.0","j058zhu1","","","null","","Agent A","veridical","STIM_SET_1_REAL/1159572.bmp_pp71_L1_V1.0_veridical_freeview_isoFalse_fps144.mp4",""
"null","","","html-keyboard-response","328","1917095","0.0-328.0","j058zhu1","","<span style=""color:Black; font-size:50px;"">Agent B","null","","","","",""
"null","","","video-keyboard-response","329","1920170","0.0-329.0","j058zhu1","","","null","","Agent B","scrambled","STIM_SET_3/713381.bmp_pp82_L2_V2_veridical_freeview_isoFalsemismatch_1159572.bmp_L1_fps90.mp4",""
"","","","call-function","330","1920171","0.0-330.0","j058zhu1","","","","","","","",""
"2011.9899999999907","{""judgement"":0}","[0]","survey-likert","331","1922184","0.0-331.0","j058zhu1","","","","","","","","0"
"1309.3249999999534","{""confidence"":2}","[0]","survey-likert","332","1923494","0.0-332.0","j058zhu1","","","","","","","",""
"3354.469999999972","","","instructions","333","1926850","0.0-333.0","j058zhu1","[{""page_index"":0,""viewing_time"":1039.9499999999534},{""page_index"":1,""viewing_time"":1143.155000000028},{""page_index"":2,""viewing_time"":1171.2299999999814}]","","","","","","",""
"3427.3850000000093","","","instructions","334","1930278","0.0-334.0","j058zhu1","[{""page_index"":0,""viewing_time"":1570.1149999999907},{""page_index"":1,""viewing_time"":957.0550000001676},{""page_index"":2,""viewing_time"":900.1099999998696}]","","","","","","",""
"","","","call-function","335","1930280","0.0-335.0","j058zhu1","","","","","","","",""
"null","","","html-keyboard-response","336","1931783","0.0-336.0","j058zhu1","","<span style=""color:Black; font-size:50px;"">Agent A","null","","","","",""
"null","","","video-keyboard-response","337","1934853","0.0-337.0","j058zhu1","","","null","","Agent A","scrambled","STIM_SET_3/713920.bmp_pp76_L1_V2_veridical_freeview_isoFalsemismatch_713684.bmp_L3_fps90.mp4",""
"null","","","html-keyboard-response","338","1936360","0.0-338.0","j058zhu1","","<span style=""color:Black; font-size:50px;"">Agent B","null","","","","",""
"null","","","video-keyboard-response","339","1939437","0.0-339.0","j058zhu1","","","null","","Agent B","veridical","STIM_SET_1_REAL/713684.bmp_pp85_L3_V1.0_veridical_freeview_isoFalse_fps144.mp4",""
"","","","call-function","340","1939437","0.0-340.0","j058zhu1","","","","","","","",""
"2707.2099999999627","{""judgement"":0}","[0]","survey-likert","341","1942146","0.0-341.0","j058zhu1","","","","","","","","1"
"1187.9550000000745","{""confidence"":1}","[0]","survey-likert","342","1943335","0.0-342.0","j058zhu1","","","","","","","",""
"","","","call-function","343","1943335","0.0-343.0","j058zhu1","","","","","","","",""
"null","","","html-keyboard-response","344","1944841","0.0-344.0","j058zhu1","","<span style=""color:Black; font-size:50px;"">Agent A","null","","","","",""
"null","","","video-keyboard-response","345","1947909","0.0-345.0","j058zhu1","","","null","","Agent A","veridical","STIM_SET_1_REAL/1591961.bmp_pp67_L2_V1.0_veridical_freeview_isoFalse_fps144.mp4",""
"null","","","html-keyboard-response","346","1949414","0.0-346.0","j058zhu1","","<span style=""color:Black; font-size:50px;"">Agent B","null","","","","",""
"null","","","video-keyboard-response","347","1952482","0.0-347.0","j058zhu1","","","null","","Agent B","scrambled","STIM_SET_3/1592530.bmp_pp75_L1_V2_veridical_freeview_isoFalsemismatch_1591961.bmp_L2_fps90.mp4",""
"","","","call-function","348","1952483","0.0-348.0","j058zhu1","","","","","","","",""
"2793.8300000000745","{""judgement"":0}","[0]","survey-likert","349","1955278","0.0-349.0","j058zhu1","","","","","","","","0"
"2213.469999999972","{""confidence"":2}","[0]","survey-likert","350","1957492","0.0-350.0","j058zhu1","","","","","","","",""
"","","","call-function","351","1957493","0.0-351.0","j058zhu1","","","","","","","",""
"null","","","html-keyboard-response","352","1958994","0.0-352.0","j058zhu1","","<span style=""color:Black; font-size:50px;"">Agent A","null","","","","",""
"null","","","video-keyboard-response","353","1962092","0.0-353.0","j058zhu1","","","null","","Agent A","scrambled","STIM_SET_3/1592201.bmp_pp97_L3_V2_veridical_freeview_isoFalsemismatch_713089.bmp_L3_fps90.mp4",""
"null","","","html-keyboard-response","354","1963594","0.0-354.0","j058zhu1","","<span style=""color:Black; font-size:50px;"">Agent B","null","","","","",""
"null","","","video-keyboard-response","355","1966681","0.0-355.0","j058zhu1","","","null","","Agent B","veridical","STIM_SET_1_REAL/713089.bmp_pp60_L3_V1.0_veridical_freeview_isoFalse_fps144.mp4",""
"","","","call-function","356","1966681","0.0-356.0","j058zhu1","","","","","","","",""
"2053.309999999823","{""judgement"":1}","[0]","survey-likert","357","1968736","0.0-357.0","j058zhu1","","","","","","","","1"
"1556.6950000000652","{""confidence"":2}","[0]","survey-likert","358","1970293","0.0-358.0","j058zhu1","","","","","","","",""
"","","","call-function","359","1970294","0.0-359.0","j058zhu1","","","","","","","",""
"null","","","html-keyboard-response","360","1971797","0.0-360.0","j058zhu1","","<span style=""color:Black; font-size:50px;"">Agent A","null","","","","",""
"null","","","video-keyboard-response","361","1974899","0.0-361.0","j058zhu1","","","null","","Agent A","scrambled","STIM_SET_3/1160247.bmp_pp54_L2_V2_veridical_freeview_isoFalsemismatch_1592133.bmp_L1_fps90.mp4",""
"null","","","html-keyboard-response","362","1976401","0.0-362.0","j058zhu1","","<span style=""color:Black; font-size:50px;"">Agent B","null","","","","",""
"null","","","video-keyboard-response","363","1979496","0.0-363.0","j058zhu1","","","null","","Agent B","veridical","STIM_SET_1_REAL/1592133.bmp_pp75_L1_V1.0_veridical_freeview_isoFalse_fps144.mp4",""
"","","","call-function","364","1979496","0.0-364.0","j058zhu1","","","","","","","",""
"2279.195000000065","{""judgement"":1}","[0]","survey-likert","365","1981777","0.0-365.0","j058zhu1","","","","","","","","1"
"1342.9849999998696","{""confidence"":1}","[0]","survey-likert","366","1983121","0.0-366.0","j058zhu1","","","","","","","",""
"","","","call-function","367","1983121","0.0-367.0","j058zhu1","","","","","","","",""
"null","","","html-keyboard-response","368","1984622","0.0-368.0","j058zhu1","","<span style=""color:Black; font-size:50px;"">Agent A","null","","","","",""
"null","","","video-keyboard-response","369","1987733","0.0-369.0","j058zhu1","","","null","","Agent A","scrambled","STIM_SET_3/498025.bmp_pp81_L1_V2_veridical_freeview_isoFalsemismatch_713681.bmp_L2_fps90.mp4",""
"null","","","html-keyboard-response","370","1989236","0.0-370.0","j058zhu1","","<span style=""color:Black; font-size:50px;"">Agent B","null","","","","",""
"null","","","video-keyboard-response","371","1992325","0.0-371.0","j058zhu1","","","null","","Agent B","veridical","STIM_SET_1_REAL/713681.bmp_pp86_L2_V1.0_veridical_freeview_isoFalse_fps144.mp4",""
"","","","call-function","372","1992326","0.0-372.0","j058zhu1","","","","","","","",""
"2847.0400000000373","{""judgement"":1}","[0]","survey-likert","373","1995174","0.0-373.0","j058zhu1","","","","","","","","1"
"1363.4449999998324","{""confidence"":1}","[0]","survey-likert","374","1996539","0.0-374.0","j058zhu1","","","","","","","",""
"","","","call-function","375","1996539","0.0-375.0","j058zhu1","","","","","","","",""
"null","","","html-keyboard-response","376","1998041","0.0-376.0","j058zhu1","","<span style=""color:Black; font-size:50px;"">Agent A","null","","","","",""
"null","","","video-keyboard-response","377","2001114","0.0-377.0","j058zhu1","","","null","","Agent A","veridical","STIM_SET_1_REAL/713707.bmp_pp154_L1_V1.0_veridical_freeview_isoFalse_fps144.mp4",""
"null","","","html-keyboard-response","378","2002620","0.0-378.0","j058zhu1","","<span style=""color:Black; font-size:50px;"">Agent B","null","","","","",""
"null","","","video-keyboard-response","379","2005682","0.0-379.0","j058zhu1","","","null","","Agent B","scrambled","STIM_SET_3/1592314.bmp_pp100_L3_V2_veridical_freeview_isoFalsemismatch_713707.bmp_L1_fps90.mp4",""
"","","","call-function","380","2005683","0.0-380.0","j058zhu1","","","","","","","",""
"1792.8300000000745","{""judgement"":0}","[0]","survey-likert","381","2007476","0.0-381.0","j058zhu1","","","","","","","","0"
"3779.219999999972","{""confidence"":1}","[0]","survey-likert","382","2011257","0.0-382.0","j058zhu1","","","","","","","",""
"","","","call-function","383","2011257","0.0-383.0","j058zhu1","","","","","","","",""
"null","","","html-keyboard-response","384","2012763","0.0-384.0","j058zhu1","","<span style=""color:Black; font-size:50px;"">Agent A","null","","","","",""
"null","","","video-keyboard-response","385","2015824","0.0-385.0","j058zhu1","","","null","","Agent A","veridical","STIM_SET_1_REAL/498170.bmp_pp153_L3_V1.0_veridical_freeview_isoFalse_fps144.mp4",""
"null","","","html-keyboard-response","386","2017327","0.0-386.0","j058zhu1","","<span style=""color:Black; font-size:50px;"">Agent B","null","","","","",""
"null","","","video-keyboard-response","387","2020404","0.0-387.0","j058zhu1","","","null","","Agent B","scrambled","STIM_SET_3/713742.bmp_pp91_L3_V2_veridical_freeview_isoFalsemismatch_498170.bmp_L3_fps90.mp4",""
"","","","call-function","388","2020405","0.0-388.0","j058zhu1","","","","","","","",""
"2005.8249999999534","{""judgement"":0}","[0]","survey-likert","389","2022412","0.0-389.0","j058zhu1","","","","","","","","0"
"1702.8299999998417","{""confidence"":1}","[0]","survey-likert","390","2024116","0.0-390.0","j058zhu1","","","","","","","",""
"","","","call-function","391","2024116","0.0-391.0","j058zhu1","","","","","","","",""
"null","","","html-keyboard-response","392","2025619","0.0-392.0","j058zhu1","","<span style=""color:Black; font-size:50px;"">Agent A","null","","","","",""
"null","","","video-keyboard-response","393","2028714","0.0-393.0","j058zhu1","","","null","","Agent A","scrambled","STIM_SET_3/1159819.bmp_pp151_L1_V2_veridical_freeview_isoFalsemismatch_1592499.bmp_L2_fps90.mp4",""
"null","","","html-keyboard-response","394","2030216","0.0-394.0","j058zhu1","","<span style=""color:Black; font-size:50px;"">Agent B","null","","","","",""
"null","","","video-keyboard-response","395","2033313","0.0-395.0","j058zhu1","","","null","","Agent B","veridical","STIM_SET_1_REAL/1592499.bmp_pp96_L2_V1.0_veridical_freeview_isoFalse_fps144.mp4",""
"","","","call-function","396","2033313","0.0-396.0","j058zhu1","","","","","","","",""
"2121.344999999972","{""judgement"":1}","[0]","survey-likert","397","2035436","0.0-397.0","j058zhu1","","","","","","","","1"
"1631.8799999998882","{""confidence"":2}","[0]","survey-likert","398","2037069","0.0-398.0","j058zhu1","","","","","","","",""
"","","","call-function","399","2037069","0.0-399.0","j058zhu1","","","","","","","",""
"null","","","html-keyboard-response","400","2038570","0.0-400.0","j058zhu1","","<span style=""color:Black; font-size:50px;"">Agent A","null","","","","",""
"null","","","video-keyboard-response","401","2041680","0.0-401.0","j058zhu1","","","null","","Agent A","veridical","STIM_SET_1_REAL/1593041.bmp_pp58_L1_V1.0_veridical_freeview_isoFalse_fps144.mp4",""
"null","","","html-keyboard-response","402","2043183","0.0-402.0","j058zhu1","","<span style=""color:Black; font-size:50px;"">Agent B","null","","","","",""
"null","","","video-keyboard-response","403","2046284","0.0-403.0","j058zhu1","","","null","","Agent B","scrambled","STIM_SET_3/1591781.bmp_pp63_L1_V2_veridical_freeview_isoFalsemismatch_1593041.bmp_L1_fps90.mp4",""
"","","","call-function","404","2046284","0.0-404.0","j058zhu1","","","","","","","",""
"2524.405000000028","{""judgement"":0}","[0]","survey-likert","405","2048810","0.0-405.0","j058zhu1","","","","","","","","0"
"1739.9250000000466","{""confidence"":0}","[0]","survey-likert","406","2050551","0.0-406.0","j058zhu1","","","","","","","",""
"","","","call-function","407","2050551","0.0-407.0","j058zhu1","","","","","","","",""
"null","","","html-keyboard-response","408","2052054","0.0-408.0","j058zhu1","","<span style=""color:Black; font-size:50px;"">Agent A","null","","","","",""
"null","","","video-keyboard-response","409","2055148","0.0-409.0","j058zhu1","","","null","","Agent A","scrambled","STIM_SET_3/61513.bmp_pp75_L1_V2_veridical_freeview_isoFalsemismatch_1159784.bmp_L3_fps90.mp4",""
"null","","","html-keyboard-response","410","2056653","0.0-410.0","j058zhu1","","<span style=""color:Black; font-size:50px;"">Agent B","null","","","","",""
"null","","","video-keyboard-response","411","2059754","0.0-411.0","j058zhu1","","","null","","Agent B","veridical","STIM_SET_1_REAL/1159784.bmp_pp73_L3_V1.0_veridical_freeview_isoFalse_fps144.mp4",""
"","","","call-function","412","2059755","0.0-412.0","j058zhu1","","","","","","","",""
"2456.2099999999627","{""judgement"":1}","[0]","survey-likert","413","2062213","0.0-413.0","j058zhu1","","","","","","","","1"
"1809.4450000000652","{""confidence"":0}","[0]","survey-likert","414","2064024","0.0-414.0","j058zhu1","","","","","","","",""
"13744.854999999981","","","instructions","415","2077770","0.0-415.0","j058zhu1","[{""page_index"":0,""viewing_time"":1038.530000000028},{""page_index"":1,""viewing_time"":1219.030000000028},{""page_index"":2,""viewing_time"":11487.139999999898}]","","","","","","",""
"2262.8900000001304","","","instructions","416","2080034","0.0-416.0","j058zhu1","[{""page_index"":0,""viewing_time"":688.660000000149},{""page_index"":1,""viewing_time"":907.9549999998417},{""page_index"":2,""viewing_time"":666.160000000149}]","","","","","","",""
"","","","call-function","417","2080035","0.0-417.0","j058zhu1","","","","","","","",""
"null","","","html-keyboard-response","418","2081536","0.0-418.0","j058zhu1","","<span style=""color:Black; font-size:50px;"">Agent A","null","","","","",""
"null","","","video-keyboard-response","419","2084614","0.0-419.0","j058zhu1","","","null","","Agent A","veridical","STIM_SET_1_REAL/713371.bmp_pp68_L1_V1.0_veridical_freeview_isoFalse_fps144.mp4",""
"null","","","html-keyboard-response","420","2086121","0.0-420.0","j058zhu1","","<span style=""color:Black; font-size:50px;"">Agent B","null","","","","",""
"null","","","video-keyboard-response","421","2089192","0.0-421.0","j058zhu1","","","null","","Agent B","scrambled","STIM_SET_3/498396.bmp_pp99_L2_V2_veridical_freeview_isoFalsemismatch_713371.bmp_L1_fps90.mp4",""
"","","","call-function","422","2089192","0.0-422.0","j058zhu1","","","","","","","",""
"2054.969999999972","{""judgement"":0}","[0]","survey-likert","423","2091248","0.0-423.0","j058zhu1","","","","","","","","0"
"2307.304999999935","{""confidence"":2}","[0]","survey-likert","424","2093557","0.0-424.0","j058zhu1","","","","","","","",""
"","","","call-function","425","2093558","0.0-425.0","j058zhu1","","","","","","","",""
"null","","","html-keyboard-response","426","2095062","0.0-426.0","j058zhu1","","<span style=""color:Black; font-size:50px;"">Agent A","null","","","","",""
"null","","","video-keyboard-response","427","2098130","0.0-427.0","j058zhu1","","","null","","Agent A","scrambled","STIM_SET_3/1592921.bmp_pp69_L3_V2_veridical_freeview_isoFalsemismatch_713211.bmp_L3_fps90.mp4",""
"null","","","html-keyboard-response","428","2099635","0.0-428.0","j058zhu1","","<span style=""color:Black; font-size:50px;"">Agent B","null","","","","",""
"null","","","video-keyboard-response","429","2102711","0.0-429.0","j058zhu1","","","null","","Agent B","veridical","STIM_SET_1_REAL/713211.bmp_pp100_L3_V1.0_veridical_freeview_isoFalse_fps144.mp4",""
"","","","call-function","430","2102711","0.0-430.0","j058zhu1","","","","","","","",""
"2121.725000000093","{""judgement"":1}","[0]","survey-likert","431","2104834","0.0-431.0","j058zhu1","","","","","","","","1"
"1604.9099999996834","{""confidence"":2}","[0]","survey-likert","432","2106440","0.0-432.0","j058zhu1","","","","","","","",""
"","","","call-function","433","2106440","0.0-433.0","j058zhu1","","","","","","","",""
"null","","","html-keyboard-response","434","2107946","0.0-434.0","j058zhu1","","<span style=""color:Black; font-size:50px;"">Agent A","null","","","","",""
"null","","","video-keyboard-response","435","2111031","0.0-435.0","j058zhu1","","","null","","Agent A","veridical","STIM_SET_1_REAL/713403.bmp_pp80_L3_V1.0_veridical_freeview_isoFalse_fps144.mp4",""
"null","","","html-keyboard-response","436","2112534","0.0-436.0","j058zhu1","","<span style=""color:Black; font-size:50px;"">Agent B","null","","","","",""
"null","","","video-keyboard-response","437","2115621","0.0-437.0","j058zhu1","","","null","","Agent B","scrambled","STIM_SET_3/286034.bmp_pp69_L3_V2_veridical_freeview_isoFalsemismatch_713403.bmp_L3_fps90.mp4",""
"","","","call-function","438","2115621","0.0-438.0","j058zhu1","","","","","","","",""
"2000.75","{""judgement"":0}","[0]","survey-likert","439","2117623","0.0-439.0","j058zhu1","","","","","","","","0"
"1802.7949999999255","{""confidence"":3}","[0]","survey-likert","440","2119427","0.0-440.0","j058zhu1","","","","","","","",""
"","","","call-function","441","2119427","0.0-441.0","j058zhu1","","","","","","","",""
"null","","","html-keyboard-response","442","2120931","0.0-442.0","j058zhu1","","<span style=""color:Black; font-size:50px;"">Agent A","null","","","","",""
"null","","","video-keyboard-response","443","2124031","0.0-443.0","j058zhu1","","","null","","Agent A","veridical","STIM_SET_1_REAL/1159777.bmp_pp77_L3_V1.0_veridical_freeview_isoFalse_fps144.mp4",""
"null","","","html-keyboard-response","444","2125537","0.0-444.0","j058zhu1","","<span style=""color:Black; font-size:50px;"">Agent B","null","","","","",""
"null","","","video-keyboard-response","445","2128625","0.0-445.0","j058zhu1","","","null","","Agent B","scrambled","STIM_SET_3/1592017.bmp_pp154_L1_V2_veridical_freeview_isoFalsemismatch_1159777.bmp_L3_fps90.mp4",""
"","","","call-function","446","2128626","0.0-446.0","j058zhu1","","","","","","","",""
"2072.214999999851","{""judgement"":0}","[0]","survey-likert","447","2130699","0.0-447.0","j058zhu1","","","","","","","","0"
"3009.054999999702","{""confidence"":2}","[0]","survey-likert","448","2133709","0.0-448.0","j058zhu1","","","","","","","",""
"","","","call-function","449","2133709","0.0-449.0","j058zhu1","","","","","","","",""
"null","","","html-keyboard-response","450","2135213","0.0-450.0","j058zhu1","","<span style=""color:Black; font-size:50px;"">Agent A","null","","","","",""
"null","","","video-keyboard-response","451","2138301","0.0-451.0","j058zhu1","","","null","","Agent A","scrambled","STIM_SET_3/1591920.bmp_pp97_L3_V2_veridical_freeview_isoFalsemismatch_1592804.bmp_L3_fps90.mp4",""
"null","","","html-keyboard-response","452","2139803","0.0-452.0","j058zhu1","","<span style=""color:Black; font-size:50px;"">Agent B","null","","","","",""
"null","","","video-keyboard-response","453","2142908","0.0-453.0","j058zhu1","","","null","","Agent B","veridical","STIM_SET_1_REAL/1592804.bmp_pp91_L3_V1.0_veridical_freeview_isoFalse_fps144.mp4",""
"","","","call-function","454","2142909","0.0-454.0","j058zhu1","","","","","","","",""
"1933.625","{""judgement"":0}","[0]","survey-likert","455","2144843","0.0-455.0","j058zhu1","","","","","","","","1"
"1478.7399999997579","{""confidence"":0}","[0]","survey-likert","456","2146323","0.0-456.0","j058zhu1","","","","","","","",""
"","","","call-function","457","2146323","0.0-457.0","j058zhu1","","","","","","","",""
"null","","","html-keyboard-response","458","2147827","0.0-458.0","j058zhu1","","<span style=""color:Black; font-size:50px;"">Agent A","null","","","","",""
"null","","","video-keyboard-response","459","2150902","0.0-459.0","j058zhu1","","","null","","Agent A","scrambled","STIM_SET_3/1159592.bmp_pp91_L3_V2_veridical_freeview_isoFalsemismatch_285994.bmp_L3_fps90.mp4",""
"null","","","html-keyboard-response","460","2152406","0.0-460.0","j058zhu1","","<span style=""color:Black; font-size:50px;"">Agent B","null","","","","",""
"null","","","video-keyboard-response","461","2155473","0.0-461.0","j058zhu1","","","null","","Agent B","veridical","STIM_SET_1_REAL/285994.bmp_pp92_L3_V1.0_veridical_freeview_isoFalse_fps144.mp4",""
"","","","call-function","462","2155473","0.0-462.0","j058zhu1","","","","","","","",""
"1797.0249999999069","{""judgement"":1}","[0]","survey-likert","463","2157271","0.0-463.0","j058zhu1","","","","","","","","1"
"1431.75","{""confidence"":0}","[0]","survey-likert","464","2158704","0.0-464.0","j058zhu1","","","","","","","",""
"","","","call-function","465","2158704","0.0-465.0","j058zhu1","","","","","","","",""
"null","","","html-keyboard-response","466","2160206","0.0-466.0","j058zhu1","","<span style=""color:Black; font-size:50px;"">Agent A","null","","","","",""
"null","","","video-keyboard-response","467","2163268","0.0-467.0","j058zhu1","","","null","","Agent A","veridical","STIM_SET_1_REAL/1593035.bmp_pp94_L2_V1.0_veridical_freeview_isoFalse_fps144.mp4",""
"null","","","html-keyboard-response","468","2164771","0.0-468.0","j058zhu1","","<span style=""color:Black; font-size:50px;"">Agent B","null","","","","",""
"null","","","video-keyboard-response","469","2167854","0.0-469.0","j058zhu1","","","null","","Agent B","scrambled","STIM_SET_3/1159325.bmp_pp67_L2_V2_veridical_freeview_isoFalsemismatch_1593035.bmp_L2_fps90.mp4",""
"","","","call-function","470","2167855","0.0-470.0","j058zhu1","","","","","","","",""
"3318.2349999998696","{""judgement"":0}","[0]","survey-likert","471","2171174","0.0-471.0","j058zhu1","","","","","","","","0"
"1329.220000000205","{""confidence"":1}","[0]","survey-likert","472","2172504","0.0-472.0","j058zhu1","","","","","","","",""
"","","","call-function","473","2172505","0.0-473.0","j058zhu1","","","","","","","",""
"null","","","html-keyboard-response","474","2174007","0.0-474.0","j058zhu1","","<span style=""color:Black; font-size:50px;"">Agent A","null","","","","",""
"null","","","video-keyboard-response","475","2177104","0.0-475.0","j058zhu1","","","null","","Agent A","veridical","STIM_SET_1_REAL/1592934.bmp_pp63_L1_V1.0_veridical_freeview_isoFalse_fps144.mp4",""
"null","","","html-keyboard-response","476","2178610","0.0-476.0","j058zhu1","","<span style=""color:Black; font-size:50px;"">Agent B","null","","","","",""
"null","","","video-keyboard-response","477","2181705","0.0-477.0","j058zhu1","","","null","","Agent B","scrambled","STIM_SET_3/1159392.bmp_pp96_L2_V2_veridical_freeview_isoFalsemismatch_1592934.bmp_L1_fps90.mp4",""
"","","","call-function","478","2181706","0.0-478.0","j058zhu1","","","","","","","",""
"2533.1550000002608","{""judgement"":1}","[0]","survey-likert","479","2184240","0.0-479.0","j058zhu1","","","","","","","","0"
"1906.554999999702","{""confidence"":0}","[0]","survey-likert","480","2186149","0.0-480.0","j058zhu1","","","","","","","",""
"","","","call-function","481","2186149","0.0-481.0","j058zhu1","","","","","","","",""
"null","","","html-keyboard-response","482","2187653","0.0-482.0","j058zhu1","","<span style=""color:Black; font-size:50px;"">Agent A","null","","","","",""
"null","","","video-keyboard-response","483","2190758","0.0-483.0","j058zhu1","","","null","","Agent A","veridical","STIM_SET_1_REAL/712977.bmp_pp51_L1_V1.0_veridical_freeview_isoFalse_fps144.mp4",""
"null","","","html-keyboard-response","484","2192264","0.0-484.0","j058zhu1","","<span style=""color:Black; font-size:50px;"">Agent B","null","","","","",""
"null","","","video-keyboard-response","485","2195354","0.0-485.0","j058zhu1","","","null","","Agent B","scrambled","STIM_SET_3/1592951.bmp_pp80_L3_V2_veridical_freeview_isoFalsemismatch_712977.bmp_L1_fps90.mp4",""
"","","","call-function","486","2195355","0.0-486.0","j058zhu1","","","","","","","",""
"3987.5800000000745","{""judgement"":0}","[0]","survey-likert","487","2199344","0.0-487.0","j058zhu1","","","","","","","","0"
"2166.4449999998324","{""confidence"":0}","[0]","survey-likert","488","2201513","0.0-488.0","j058zhu1","","","","","","","",""
"","","","call-function","489","2201514","0.0-489.0","j058zhu1","","","","","","","",""
"null","","","html-keyboard-response","490","2203018","0.0-490.0","j058zhu1","","<span style=""color:Black; font-size:50px;"">Agent A","null","","","","",""
"null","","","video-keyboard-response","491","2206094","0.0-491.0","j058zhu1","","","null","","Agent A","scrambled","STIM_SET_3/498372.bmp_pp95_L2_V2_veridical_freeview_isoFalsemismatch_1160127.bmp_L2_fps90.mp4",""
"null","","","html-keyboard-response","492","2207596","0.0-492.0","j058zhu1","","<span style=""color:Black; font-size:50px;"">Agent B","null","","","","",""
"null","","","video-keyboard-response","493","2210674","0.0-493.0","j058zhu1","","","null","","Agent B","veridical","STIM_SET_1_REAL/1160127.bmp_pp90_L2_V1.0_veridical_freeview_isoFalse_fps144.mp4",""
"","","","call-function","494","2210674","0.0-494.0","j058zhu1","","","","","","","",""
"1872.2050000000745","{""judgement"":1}","[0]","survey-likert","495","2212547","0.0-495.0","j058zhu1","","","","","","","","1"
"1258.6499999999069","{""confidence"":1}","[0]","survey-likert","496","2213807","0.0-496.0","j058zhu1","","","","","","","",""
"13768.44999999972","","","instructions","497","2227577","0.0-497.0","j058zhu1","[{""page_index"":0,""viewing_time"":1196},{""page_index"":1,""viewing_time"":11504.959999999963},{""page_index"":2,""viewing_time"":1067.3249999997206}]","","","","","","",""
"2667.7299999999814","","","instructions","498","2230245","0.0-498.0","j058zhu1","[{""page_index"":0,""viewing_time"":1130.5949999997392},{""page_index"":1,""viewing_time"":850.9150000000373},{""page_index"":2,""viewing_time"":686.1200000001118}]","","","","","","",""
"","","","call-function","499","2230245","0.0-499.0","j058zhu1","","","","","","","",""
"null","","","html-keyboard-response","500","2231747","0.0-500.0","j058zhu1","","<span style=""color:Black; font-size:50px;"">Agent A","null","","","","",""
"null","","","video-keyboard-response","501","2234823","0.0-501.0","j058zhu1","","","null","","Agent A","veridical","STIM_SET_1_REAL/498175.bmp_pp154_L1_V1.0_veridical_freeview_isoFalse_fps144.mp4",""
"null","","","html-keyboard-response","502","2236326","0.0-502.0","j058zhu1","","<span style=""color:Black; font-size:50px;"">Agent B","null","","","","",""
"null","","","video-keyboard-response","503","2239387","0.0-503.0","j058zhu1","","","null","","Agent B","scrambled","STIM_SET_3/713689.bmp_pp153_L3_V2_veridical_freeview_isoFalsemismatch_498175.bmp_L1_fps90.mp4",""
"","","","call-function","504","2239387","0.0-504.0","j058zhu1","","","","","","","",""
"2659.285000000149","{""judgement"":0}","[0]","survey-likert","505","2242047","0.0-505.0","j058zhu1","","","","","","","","0"
"2216.310000000056","{""confidence"":3}","[0]","survey-likert","506","2244265","0.0-506.0","j058zhu1","","","","","","","",""
"","","","call-function","507","2244265","0.0-507.0","j058zhu1","","","","","","","",""
"null","","","html-keyboard-response","508","2245767","0.0-508.0","j058zhu1","","<span style=""color:Black; font-size:50px;"">Agent A","null","","","","",""
"null","","","video-keyboard-response","509","2248854","0.0-509.0","j058zhu1","","","null","","Agent A","veridical","STIM_SET_1_REAL/1592817.bmp_pp55_L3_V1.0_veridical_freeview_isoFalse_fps144.mp4",""
"null","","","html-keyboard-response","510","2250357","0.0-510.0","j058zhu1","","<span style=""color:Black; font-size:50px;"">Agent B","null","","","","",""
"null","","","video-keyboard-response","511","2253456","0.0-511.0","j058zhu1","","","null","","Agent B","scrambled","STIM_SET_3/1159329.bmp_pp61_L2_V2_veridical_freeview_isoFalsemismatch_1592817.bmp_L3_fps90.mp4",""
"","","","call-function","512","2253456","0.0-512.0","j058zhu1","","","","","","","",""
"2433.329999999609","{""judgement"":0}","[0]","survey-likert","513","2255890","0.0-513.0","j058zhu1","","","","","","","","0"
"1550.945000000298","{""confidence"":1}","[0]","survey-likert","514","2257442","0.0-514.0","j058zhu1","","","","","","","",""
"","","","call-function","515","2257443","0.0-515.0","j058zhu1","","","","","","","",""
"null","","","html-keyboard-response","516","2258944","0.0-516.0","j058zhu1","","<span style=""color:Black; font-size:50px;"">Agent A","null","","","","",""
"null","","","video-keyboard-response","517","2262057","0.0-517.0","j058zhu1","","","null","","Agent A","veridical","STIM_SET_1_REAL/1591954.bmp_pp62_L2_V1.0_veridical_freeview_isoFalse_fps144.mp4",""
"null","","","html-keyboard-response","518","2263558","0.0-518.0","j058zhu1","","<span style=""color:Black; font-size:50px;"">Agent B","null","","","","",""
"null","","","video-keyboard-response","519","2266655","0.0-519.0","j058zhu1","","","null","","Agent B","scrambled","STIM_SET_3/1160049.bmp_pp53_L2_V2_veridical_freeview_isoFalsemismatch_1591954.bmp_L2_fps90.mp4",""
"","","","call-function","520","2266655","0.0-520.0","j058zhu1","","","","","","","",""
"4789.180000000168","{""judgement"":0}","[0]","survey-likert","521","2271445","0.0-521.0","j058zhu1","","","","","","","","0"
"1456.8500000000931","{""confidence"":0}","[0]","survey-likert","522","2272903","0.0-522.0","j058zhu1","","","","","","","",""
"","","","call-function","523","2272904","0.0-523.0","j058zhu1","","","","","","","",""
"null","","","html-keyboard-response","524","2274410","0.0-524.0","j058zhu1","","<span style=""color:Black; font-size:50px;"">Agent A","null","","","","",""
"null","","","video-keyboard-response","525","2277481","0.0-525.0","j058zhu1","","","null","","Agent A","scrambled","STIM_SET_3/1592025.bmp_pp68_L1_V2_veridical_freeview_isoFalsemismatch_1592351.bmp_L1_fps90.mp4",""
"null","","","html-keyboard-response","526","2278983","0.0-526.0","j058zhu1","","<span style=""color:Black; font-size:50px;"">Agent B","null","","","","",""
"null","","","video-keyboard-response","527","2282046","0.0-527.0","j058zhu1","","","null","","Agent B","veridical","STIM_SET_1_REAL/1592351.bmp_pp51_L1_V1.0_veridical_freeview_isoFalse_fps144.mp4",""
"","","","call-function","528","2282046","0.0-528.0","j058zhu1","","","","","","","",""
"2000.8799999998882","{""judgement"":1}","[0]","survey-likert","529","2284048","0.0-529.0","j058zhu1","","","","","","","","1"
"2324.2400000002235","{""confidence"":2}","[0]","survey-likert","530","2286373","0.0-530.0","j058zhu1","","","","","","","",""
"","","","call-function","531","2286374","0.0-531.0","j058zhu1","","","","","","","",""
"null","","","html-keyboard-response","532","2287875","0.0-532.0","j058zhu1","","<span style=""color:Black; font-size:50px;"">Agent A","null","","","","",""
"null","","","video-keyboard-response","533","2290987","0.0-533.0","j058zhu1","","","null","","Agent A","veridical","STIM_SET_1_REAL/1159813.bmp_pp79_L2_V1.0_veridical_freeview_isoFalse_fps144.mp4",""
"null","","","html-keyboard-response","534","2292489","0.0-534.0","j058zhu1","","<span style=""color:Black; font-size:50px;"">Agent B","null","","","","",""
"null","","","video-keyboard-response","535","2295574","0.0-535.0","j058zhu1","","","null","","Agent B","scrambled","STIM_SET_3/1592129.bmp_pp153_L3_V2_veridical_freeview_isoFalsemismatch_1159813.bmp_L2_fps90.mp4",""
"","","","call-function","536","2295574","0.0-536.0","j058zhu1","","","","","","","",""
"1795.6349999997765","{""judgement"":0}","[0]","survey-likert","537","2297371","0.0-537.0","j058zhu1","","","","","","","","0"
"2488.6450000000186","{""confidence"":2}","[0]","survey-likert","538","2299860","0.0-538.0","j058zhu1","","","","","","","",""
"","","","call-function","539","2299861","0.0-539.0","j058zhu1","","","","","","","",""
"null","","","html-keyboard-response","540","2301365","0.0-540.0","j058zhu1","","<span style=""color:Black; font-size:50px;"">Agent A","null","","","","",""
"null","","","video-keyboard-response","541","2304438","0.0-541.0","j058zhu1","","","null","","Agent A","veridical","STIM_SET_1_REAL/1592657.bmp_pp98_L1_V1.0_veridical_freeview_isoFalse_fps144.mp4",""
"null","","","html-keyboard-response","542","2305939","0.0-542.0","j058zhu1","","<span style=""color:Black; font-size:50px;"">Agent B","null","","","","",""
"null","","","video-keyboard-response","543","2309007","0.0-543.0","j058zhu1","","","null","","Agent B","scrambled","STIM_SET_3/498261.bmp_pp84_L3_V2_veridical_freeview_isoFalsemismatch_1592657.bmp_L1_fps90.mp4",""
"","","","call-function","544","2309008","0.0-544.0","j058zhu1","","","","","","","",""
"1721.6499999999069","{""judgement"":0}","[0]","survey-likert","545","2310730","0.0-545.0","j058zhu1","","","","","","","","0"
"1275.0400000000373","{""confidence"":1}","[0]","survey-likert","546","2312007","0.0-546.0","j058zhu1","","","","","","","",""
"","","","call-function","547","2312007","0.0-547.0","j058zhu1","","","","","","","",""
"null","","","html-keyboard-response","548","2313512","0.0-548.0","j058zhu1","","<span style=""color:Black; font-size:50px;"">Agent A","null","","","","",""
"null","","","video-keyboard-response","549","2316621","0.0-549.0","j058zhu1","","","null","","Agent A","scrambled","STIM_SET_3/1592568.bmp_pp71_L1_V2_veridical_freeview_isoFalsemismatch_285905.bmp_L1_fps90.mp4",""
"null","","","html-keyboard-response","550","2318125","0.0-550.0","j058zhu1","","<span style=""color:Black; font-size:50px;"">Agent B","null","","","","",""
"null","","","video-keyboard-response","551","2321230","0.0-551.0","j058zhu1","","","null","","Agent B","veridical","STIM_SET_1_REAL/285905.bmp_pp57_L1_V1.0_veridical_freeview_isoFalse_fps144.mp4",""
"","","","call-function","552","2321231","0.0-552.0","j058zhu1","","","","","","","",""
"1829.1899999999441","{""judgement"":1}","[0]","survey-likert","553","2323062","0.0-553.0","j058zhu1","","","","","","","","1"
"2343.339999999851","{""confidence"":2}","[0]","survey-likert","554","2325407","0.0-554.0","j058zhu1","","","","","","","",""
"","","","call-function","555","2325408","0.0-555.0","j058zhu1","","","","","","","",""
"null","","","html-keyboard-response","556","2326914","0.0-556.0","j058zhu1","","<span style=""color:Black; font-size:50px;"">Agent A","null","","","","",""
"null","","","video-keyboard-response","557","2329988","0.0-557.0","j058zhu1","","","null","","Agent A","veridical","STIM_SET_1_REAL/1592807.bmp_pp68_L1_V1.0_veridical_freeview_isoFalse_fps144.mp4",""
"null","","","html-keyboard-response","558","2331492","0.0-558.0","j058zhu1","","<span style=""color:Black; font-size:50px;"">Agent B","null","","","","",""
"null","","","video-keyboard-response","559","2334559","0.0-559.0","j058zhu1","","","null","","Agent B","scrambled","STIM_SET_3/713652.bmp_pp89_L1_V2_veridical_freeview_isoFalsemismatch_1592807.bmp_L1_fps90.mp4",""
"","","","call-function","560","2334559","0.0-560.0","j058zhu1","","","","","","","",""
"1912.3849999997765","{""judgement"":0}","[0]","survey-likert","561","2336473","0.0-561.0","j058zhu1","","","","","","","","0"
"2872.399999999907","{""confidence"":3}","[0]","survey-likert","562","2339347","0.0-562.0","j058zhu1","","","","","","","",""
"","","","call-function","563","2339347","0.0-563.0","j058zhu1","","","","","","","",""
"null","","","html-keyboard-response","564","2340850","0.0-564.0","j058zhu1","","<span style=""color:Black; font-size:50px;"">Agent A","null","","","","",""
"null","","","video-keyboard-response","565","2343927","0.0-565.0","j058zhu1","","","null","","Agent A","veridical","STIM_SET_1_REAL/498111.bmp_pp88_L2_V1.0_veridical_freeview_isoFalse_fps144.mp4",""
"null","","","html-keyboard-response","566","2345429","0.0-566.0","j058zhu1","","<span style=""color:Black; font-size:50px;"">Agent B","null","","","","",""
"null","","","video-keyboard-response","567","2348497","0.0-567.0","j058zhu1","","","null","","Agent B","scrambled","STIM_SET_3/1592350.bmp_pp55_L3_V2_veridical_freeview_isoFalsemismatch_498111.bmp_L2_fps90.mp4",""
"","","","call-function","568","2348497","0.0-568.0","j058zhu1","","","","","","","",""
"2062.064999999944","{""judgement"":0}","[0]","survey-likert","569","2350561","0.0-569.0","j058zhu1","","","","","","","","0"
"3448.3250000001863","{""confidence"":1}","[0]","survey-likert","570","2354010","0.0-570.0","j058zhu1","","","","","","","",""
"","","","call-function","571","2354011","0.0-571.0","j058zhu1","","","","","","","",""
"null","","","html-keyboard-response","572","2355512","0.0-572.0","j058zhu1","","<span style=""color:Black; font-size:50px;"">Agent A","null","","","","",""
"null","","","video-keyboard-response","573","2358601","0.0-573.0","j058zhu1","","","null","","Agent A","scrambled","STIM_SET_3/1592150.bmp_pp77_L3_V2_veridical_freeview_isoFalsemismatch_1159447.bmp_L2_fps90.mp4",""
"null","","","html-keyboard-response","574","2360106","0.0-574.0","j058zhu1","","<span style=""color:Black; font-size:50px;"">Agent B","null","","","","",""
"null","","","video-keyboard-response","575","2363193","0.0-575.0","j058zhu1","","","null","","Agent B","veridical","STIM_SET_1_REAL/1159447.bmp_pp70_L2_V1.0_veridical_freeview_isoFalse_fps144.mp4",""
"","","","call-function","576","2363194","0.0-576.0","j058zhu1","","","","","","","",""
"1996.3149999999441","{""judgement"":1}","[0]","survey-likert","577","2365191","0.0-577.0","j058zhu1","","","","","","","","1"
"1232.5800000000745","{""confidence"":1}","[0]","survey-likert","578","2366424","0.0-578.0","j058zhu1","","","","","","","",""
"2448.439999999944","","","instructions","579","2368873","0.0-579.0","j058zhu1","[{""page_index"":0,""viewing_time"":2448.304999999702}]","","","","","","",""
"4106.604999999981","","","instructions","580","2372981","0.0-580.0","j058zhu1","[{""page_index"":0,""viewing_time"":4106.5}]","","","","","","",""
"25601.89500000002","{""post-1"":1}","[0]","survey-likert","581","2398584","0.0-581.0","j058zhu1","","","","","","","",""
"12886.929999999702","{""post-1"":3}","[0]","survey-likert","582","2411472","0.0-582.0","j058zhu1","","","","","","","",""
"10341.93499999959","{""post-2"":1}","[0]","survey-likert","583","2421815","0.0-583.0","j058zhu1","","","","","","","",""
"13564.345000000205","{""post-2"":0}","[0]","survey-likert","584","2435381","0.0-584.0","j058zhu1","","","","","","","",""
"8791.544999999925","{""post-3"":2}","[0]","survey-likert","585","2444174","0.0-585.0","j058zhu1","","","","","","","",""
"13312.880000000354","{""post-3"":0}","[0]","survey-likert","586","2457489","0.0-586.0","j058zhu1","","","","","","","",""
"5326.839999999851","{""post-4"":1}","[0]","survey-likert","587","2462817","0.0-587.0","j058zhu1","","","","","","","",""
"1644.6000000000931","{""post-4"":0}","[0]","survey-likert","588","2464463","0.0-588.0","j058zhu1","","","","","","","",""
"7309.01500000013","{""post-5"":1}","[0]","survey-likert","589","2471773","0.0-589.0","j058zhu1","","","","","","","",""
"2762.345000000205","{""post-5"":2}","[0]","survey-likert","590","2474537","0.0-590.0","j058zhu1","","","","","","","",""
"34462.50499999989","{""Q0"":""I found the videos that included faces or sings easier to distinguish between the fake/real viewer typically""}","","survey-text","591","2509004","0.0-591.0","j058zhu1","","","","","","","",""
"68614.80500000017","{""Q0"":""If the viewer focused on faces/signs/food/other objects that stood out in the picture, I usually assumed that was the real person (especially when it looked as though they were reading a sign)""}","","survey-text","592","2577622","0.0-592.0","j058zhu1","","","","","","","",""
"62235.77499999991","{""Q0"":""Sometimes both videos would examine faces/objects/signs and sometimes the scenery was kind of bland or had too many things to look at, so it felt like a real person could look anywhere""}","","survey-text","593","2639862","0.0-593.0","j058zhu1","","","","","","","",""
"3019.160000000149","","","instructions","594","2642882","0.0-594.0","j058zhu1","[{""page_index"":0,""viewing_time"":3019.024999999907}]","","","","","","",""
"42934.10499999998","{""Experimenter_end"":[""Printed ID# j058zhu1 on consent form"",""Given subject SONA credit or payment"",""Given the subject debrief form""]}","[0]","survey-multi-select","595","2685818","0.0-595.0","j058zhu1","","","","","","","",""
