"rt","responses","question_order","trial_type","trial_index","time_elapsed","internal_node_id","ID","view_history","stimulus","key_press","value","agent","condition","image","correct_answer"
"19213.955","{""Experimenter"":[""Confirmed subject's identity (ID card)"",""Confirmed normal or corrected-to-normal vision"",""Obtained consent (signature and date)"",""Checked the test room lighting"",""Checked computer screen lighting"",""Checked distance from screen to chin rest (50cm)"",""Cleaned and adjusted chin rest"",""Counterbalanced the order of the tasks"",""Opened the experiment in Firefox"",""Made the experiment full screen"",""Encouraged subject to silence phone, put away distractors, etc.""]}","[0]","survey-multi-select","0","19222","0.0-0.0","jcp60qol","","","","","","","",""
"134936.675","","","instructions","1","154161","0.0-1.0","jcp60qol","[{""page_index"":0,""viewing_time"":134936.53}]","","","","","","",""
"16472.86500000002","","","instructions","2","170635","0.0-2.0","jcp60qol","[{""page_index"":0,""viewing_time"":1777.0500000000175},{""page_index"":1,""viewing_time"":6730.75},{""page_index"":2,""viewing_time"":7964.944999999978}]","","","","","","",""
"2641.1749999999884","","","instructions","3","173276","0.0-3.0","jcp60qol","[{""page_index"":0,""viewing_time"":2641.0750000000116}]","","","","","","",""
"null","","","video-keyboard-response","4","176353","0.0-4.0","jcp60qol","","","null","","","","",""
"18691.07500000001","","","instructions","5","195045","0.0-5.0","jcp60qol","[{""page_index"":0,""viewing_time"":5298.130000000005},{""page_index"":1,""viewing_time"":3539.0899999999965},{""page_index"":2,""viewing_time"":1191.640000000014},{""page_index"":3,""viewing_time"":2675.095000000001},{""page_index"":4,""viewing_time"":5986.994999999995}]","","","","","","",""
"4177.475000000006","","","instructions","6","199223","0.0-6.0","jcp60qol","[{""page_index"":0,""viewing_time"":4177.350000000006}]","","","","","","",""
"","","","call-function","7","199223","0.0-7.0","jcp60qol","","","","","","","",""
"null","","","html-keyboard-response","8","200725","0.0-8.0","jcp60qol","","<span style=""color:Black; font-size:50px;"">Agent A","null","","","","",""
"null","","","video-keyboard-response","9","203798","0.0-9.0","jcp60qol","","","null","","Agent A","veridical","STIM_SET_1/497950.bmp_pp151_L1_V1.0_veridical_freeview_isoFalse.mp4",""
"null","","","html-keyboard-response","10","205300","0.0-10.0","jcp60qol","","<span style=""color:Black; font-size:50px;"">Agent B","null","","","","",""
"null","","","video-keyboard-response","11","208372","0.0-11.0","jcp60qol","","","null","","Agent B","scrambled","STIM_SET_1/497950.bmp_pp151_L1_V1.0_scrambled_freeview_isoFalse.mp4",""
"","","","call-function","12","208372","0.0-12.0","jcp60qol","","","","","","","",""
"2391.540000000008","{""judgement"":0}","[0]","survey-likert","13","210765","0.0-13.0","jcp60qol","","","","","","","","0"
"4845.504999999976","{""confidence"":3}","[0]","survey-likert","14","215612","0.0-14.0","jcp60qol","","","","","","","",""
"","","","call-function","15","215612","0.0-15.0","jcp60qol","","","","","","","",""
"null","","","html-keyboard-response","16","217116","0.0-16.0","jcp60qol","","<span style=""color:Black; font-size:50px;"">Agent A","null","","","","",""
"null","","","video-keyboard-response","17","220189","0.0-17.0","jcp60qol","","","null","","Agent A","scrambled","STIM_SET_1/713089.bmp_pp60_L3_V1.0_scrambled_freeview_isoFalse.mp4",""
"null","","","html-keyboard-response","18","221694","0.0-18.0","jcp60qol","","<span style=""color:Black; font-size:50px;"">Agent B","null","","","","",""
"null","","","video-keyboard-response","19","224764","0.0-19.0","jcp60qol","","","null","","Agent B","veridical","STIM_SET_1/713089.bmp_pp60_L3_V1.0_veridical_freeview_isoFalse.mp4",""
"","","","call-function","20","224764","0.0-20.0","jcp60qol","","","","","","","",""
"3008.470000000001","{""judgement"":1}","[0]","survey-likert","21","227775","0.0-21.0","jcp60qol","","","","","","","","1"
"3776.1449999999895","{""confidence"":2}","[0]","survey-likert","22","231552","0.0-22.0","jcp60qol","","","","","","","",""
"","","","call-function","23","231552","0.0-23.0","jcp60qol","","","","","","","",""
"null","","","html-keyboard-response","24","233054","0.0-24.0","jcp60qol","","<span style=""color:Black; font-size:50px;"">Agent A","null","","","","",""
"null","","","video-keyboard-response","25","236173","0.0-25.0","jcp60qol","","","null","","Agent A","scrambled","STIM_SET_1/285751.bmp_pp55_L3_V1.0_scrambled_freeview_isoFalse.mp4",""
"null","","","html-keyboard-response","26","237678","0.0-26.0","jcp60qol","","<span style=""color:Black; font-size:50px;"">Agent B","null","","","","",""
"null","","","video-keyboard-response","27","240754","0.0-27.0","jcp60qol","","","null","","Agent B","veridical","STIM_SET_1/285751.bmp_pp55_L3_V1.0_veridical_freeview_isoFalse.mp4",""
"","","","call-function","28","240755","0.0-28.0","jcp60qol","","","","","","","",""
"4488.375","{""judgement"":1}","[0]","survey-likert","29","245244","0.0-29.0","jcp60qol","","","","","","","","1"
"1845.0500000000175","{""confidence"":1}","[0]","survey-likert","30","247090","0.0-30.0","jcp60qol","","","","","","","",""
"","","","call-function","31","247091","0.0-31.0","jcp60qol","","","","","","","",""
"null","","","html-keyboard-response","32","248596","0.0-32.0","jcp60qol","","<span style=""color:Black; font-size:50px;"">Agent A","null","","","","",""
"null","","","video-keyboard-response","33","251666","0.0-33.0","jcp60qol","","","null","","Agent A","scrambled","STIM_SET_1/1592351.bmp_pp51_L1_V1.0_scrambled_freeview_isoFalse.mp4",""
"null","","","html-keyboard-response","34","253171","0.0-34.0","jcp60qol","","<span style=""color:Black; font-size:50px;"">Agent B","null","","","","",""
"null","","","video-keyboard-response","35","256238","0.0-35.0","jcp60qol","","","null","","Agent B","veridical","STIM_SET_1/1592351.bmp_pp51_L1_V1.0_veridical_freeview_isoFalse.mp4",""
"","","","call-function","36","256239","0.0-36.0","jcp60qol","","","","","","","",""
"10816.100000000006","{""judgement"":0}","[0]","survey-likert","37","267056","0.0-37.0","jcp60qol","","","","","","","","1"
"2308.7750000000233","{""confidence"":0}","[0]","survey-likert","38","269366","0.0-38.0","jcp60qol","","","","","","","",""
"","","","call-function","39","269367","0.0-39.0","jcp60qol","","","","","","","",""
"null","","","html-keyboard-response","40","270868","0.0-40.0","jcp60qol","","<span style=""color:Black; font-size:50px;"">Agent A","null","","","","",""
"null","","","video-keyboard-response","41","273944","0.0-41.0","jcp60qol","","","null","","Agent A","scrambled","STIM_SET_1/1592397.bmp_pp85_L3_V1.0_scrambled_freeview_isoFalse.mp4",""
"null","","","html-keyboard-response","42","275445","0.0-42.0","jcp60qol","","<span style=""color:Black; font-size:50px;"">Agent B","null","","","","",""
"null","","","video-keyboard-response","43","278563","0.0-43.0","jcp60qol","","","null","","Agent B","veridical","STIM_SET_1/1592397.bmp_pp85_L3_V1.0_veridical_freeview_isoFalse.mp4",""
"","","","call-function","44","278563","0.0-44.0","jcp60qol","","","","","","","",""
"6848.909999999974","{""judgement"":0}","[0]","survey-likert","45","285413","0.0-45.0","jcp60qol","","","","","","","","1"
"1387.320000000007","{""confidence"":2}","[0]","survey-likert","46","286802","0.0-46.0","jcp60qol","","","","","","","",""
"","","","call-function","47","286802","0.0-47.0","jcp60qol","","","","","","","",""
"null","","","html-keyboard-response","48","288307","0.0-48.0","jcp60qol","","<span style=""color:Black; font-size:50px;"">Agent A","null","","","","",""
"null","","","video-keyboard-response","49","291383","0.0-49.0","jcp60qol","","","null","","Agent A","veridical","STIM_SET_1/713017.bmp_pp152_L2_V1.0_veridical_freeview_isoFalse.mp4",""
"null","","","html-keyboard-response","50","292884","0.0-50.0","jcp60qol","","<span style=""color:Black; font-size:50px;"">Agent B","null","","","","",""
"null","","","video-keyboard-response","51","296002","0.0-51.0","jcp60qol","","","null","","Agent B","scrambled","STIM_SET_1/713017.bmp_pp152_L2_V1.0_scrambled_freeview_isoFalse.mp4",""
"","","","call-function","52","296002","0.0-52.0","jcp60qol","","","","","","","",""
"11973.350000000035","{""judgement"":0}","[0]","survey-likert","53","307976","0.0-53.0","jcp60qol","","","","","","","","0"
"1321.179999999993","{""confidence"":2}","[0]","survey-likert","54","309298","0.0-54.0","jcp60qol","","","","","","","",""
"","","","call-function","55","309299","0.0-55.0","jcp60qol","","","","","","","",""
"null","","","html-keyboard-response","56","310800","0.0-56.0","jcp60qol","","<span style=""color:Black; font-size:50px;"">Agent A","null","","","","",""
"null","","","video-keyboard-response","57","313872","0.0-57.0","jcp60qol","","","null","","Agent A","scrambled","STIM_SET_1/1159515.bmp_pp84_L3_V1.0_scrambled_freeview_isoFalse.mp4",""
"null","","","html-keyboard-response","58","315376","0.0-58.0","jcp60qol","","<span style=""color:Black; font-size:50px;"">Agent B","null","","","","",""
"null","","","video-keyboard-response","59","318448","0.0-59.0","jcp60qol","","","null","","Agent B","veridical","STIM_SET_1/1159515.bmp_pp84_L3_V1.0_veridical_freeview_isoFalse.mp4",""
"","","","call-function","60","318449","0.0-60.0","jcp60qol","","","","","","","",""
"1868.8850000000093","{""judgement"":1}","[0]","survey-likert","61","320318","0.0-61.0","jcp60qol","","","","","","","","1"
"1270.4799999999814","{""confidence"":2}","[0]","survey-likert","62","321590","0.0-62.0","jcp60qol","","","","","","","",""
"","","","call-function","63","321590","0.0-63.0","jcp60qol","","","","","","","",""
"null","","","html-keyboard-response","64","323093","0.0-64.0","jcp60qol","","<span style=""color:Black; font-size:50px;"">Agent A","null","","","","",""
"null","","","video-keyboard-response","65","326160","0.0-65.0","jcp60qol","","","null","","Agent A","scrambled","STIM_SET_1/1592133.bmp_pp75_L1_V1.0_scrambled_freeview_isoFalse.mp4",""
"null","","","html-keyboard-response","66","327663","0.0-66.0","jcp60qol","","<span style=""color:Black; font-size:50px;"">Agent B","null","","","","",""
"null","","","video-keyboard-response","67","330775","0.0-67.0","jcp60qol","","","null","","Agent B","veridical","STIM_SET_1/1592133.bmp_pp75_L1_V1.0_veridical_freeview_isoFalse.mp4",""
"","","","call-function","68","330775","0.0-68.0","jcp60qol","","","","","","","",""
"5458.319999999949","{""judgement"":1}","[0]","survey-likert","69","336234","0.0-69.0","jcp60qol","","","","","","","","1"
"2652.75","{""confidence"":0}","[0]","survey-likert","70","338888","0.0-70.0","jcp60qol","","","","","","","",""
"","","","call-function","71","338888","0.0-71.0","jcp60qol","","","","","","","",""
"null","","","html-keyboard-response","72","340391","0.0-72.0","jcp60qol","","<span style=""color:Black; font-size:50px;"">Agent A","null","","","","",""
"null","","","video-keyboard-response","73","343466","0.0-73.0","jcp60qol","","","null","","Agent A","scrambled","STIM_SET_1/1159784.bmp_pp73_L3_V1.0_scrambled_freeview_isoFalse.mp4",""
"null","","","html-keyboard-response","74","344971","0.0-74.0","jcp60qol","","<span style=""color:Black; font-size:50px;"">Agent B","null","","","","",""
"null","","","video-keyboard-response","75","348089","0.0-75.0","jcp60qol","","","null","","Agent B","veridical","STIM_SET_1/1159784.bmp_pp73_L3_V1.0_veridical_freeview_isoFalse.mp4",""
"","","","call-function","76","348089","0.0-76.0","jcp60qol","","","","","","","",""
"5949.434999999998","{""judgement"":1}","[0]","survey-likert","77","354039","0.0-77.0","jcp60qol","","","","","","","","1"
"1262.4599999999627","{""confidence"":0}","[0]","survey-likert","78","355303","0.0-78.0","jcp60qol","","","","","","","",""
"","","","call-function","79","355303","0.0-79.0","jcp60qol","","","","","","","",""
"null","","","html-keyboard-response","80","356805","0.0-80.0","jcp60qol","","<span style=""color:Black; font-size:50px;"">Agent A","null","","","","",""
"null","","","video-keyboard-response","81","359926","0.0-81.0","jcp60qol","","","null","","Agent A","scrambled","STIM_SET_1/713620.bmp_pp65_L3_V1.0_scrambled_freeview_isoFalse.mp4",""
"null","","","html-keyboard-response","82","361429","0.0-82.0","jcp60qol","","<span style=""color:Black; font-size:50px;"">Agent B","null","","","","",""
"null","","","video-keyboard-response","83","364510","0.0-83.0","jcp60qol","","","null","","Agent B","veridical","STIM_SET_1/713620.bmp_pp65_L3_V1.0_veridical_freeview_isoFalse.mp4",""
"","","","call-function","84","364511","0.0-84.0","jcp60qol","","","","","","","",""
"6717.515000000014","{""judgement"":0}","[0]","survey-likert","85","371230","0.0-85.0","jcp60qol","","","","","","","","1"
"2151.774999999965","{""confidence"":1}","[0]","survey-likert","86","373383","0.0-86.0","jcp60qol","","","","","","","",""
"3694.5499999999884","","","instructions","87","377078","0.0-87.0","jcp60qol","[{""page_index"":0,""viewing_time"":1387.4650000000256},{""page_index"":1,""viewing_time"":1508.820000000007},{""page_index"":2,""viewing_time"":798.054999999993}]","","","","","","",""
"3469.3950000000186","","","instructions","88","380548","0.0-88.0","jcp60qol","[{""page_index"":0,""viewing_time"":982.304999999993},{""page_index"":1,""viewing_time"":1919.0900000000256},{""page_index"":2,""viewing_time"":567.8949999999604}]","","","","","","",""
"","","","call-function","89","380548","0.0-89.0","jcp60qol","","","","","","","",""
"null","","","html-keyboard-response","90","382051","0.0-90.0","jcp60qol","","<span style=""color:Black; font-size:50px;"">Agent A","null","","","","",""
"null","","","video-keyboard-response","91","385122","0.0-91.0","jcp60qol","","","null","","Agent A","scrambled","STIM_SET_1/1159768.bmp_pp89_L1_V1.0_scrambled_freeview_isoFalse.mp4",""
"null","","","html-keyboard-response","92","386629","0.0-92.0","jcp60qol","","<span style=""color:Black; font-size:50px;"">Agent B","null","","","","",""
"null","","","video-keyboard-response","93","389701","0.0-93.0","jcp60qol","","","null","","Agent B","veridical","STIM_SET_1/1159768.bmp_pp89_L1_V1.0_veridical_freeview_isoFalse.mp4",""
"","","","call-function","94","389702","0.0-94.0","jcp60qol","","","","","","","",""
"1784.3099999999977","{""judgement"":0}","[0]","survey-likert","95","391487","0.0-95.0","jcp60qol","","","","","","","","1"
"1904.8450000000303","{""confidence"":2}","[0]","survey-likert","96","393393","0.0-96.0","jcp60qol","","","","","","","",""
"","","","call-function","97","393393","0.0-97.0","jcp60qol","","","","","","","",""
"null","","","html-keyboard-response","98","394899","0.0-98.0","jcp60qol","","<span style=""color:Black; font-size:50px;"">Agent A","null","","","","",""
"null","","","video-keyboard-response","99","397976","0.0-99.0","jcp60qol","","","null","","Agent A","scrambled","STIM_SET_1/713211.bmp_pp100_L3_V1.0_scrambled_freeview_isoFalse.mp4",""
"null","","","html-keyboard-response","100","399481","0.0-100.0","jcp60qol","","<span style=""color:Black; font-size:50px;"">Agent B","null","","","","",""
"null","","","video-keyboard-response","101","402597","0.0-101.0","jcp60qol","","","null","","Agent B","veridical","STIM_SET_1/713211.bmp_pp100_L3_V1.0_veridical_freeview_isoFalse.mp4",""
"","","","call-function","102","402597","0.0-102.0","jcp60qol","","","","","","","",""
"2093.335000000021","{""judgement"":1}","[0]","survey-likert","103","404691","0.0-103.0","jcp60qol","","","","","","","","1"
"1500.3250000000116","{""confidence"":2}","[0]","survey-likert","104","406193","0.0-104.0","jcp60qol","","","","","","","",""
"","","","call-function","105","406193","0.0-105.0","jcp60qol","","","","","","","",""
"null","","","html-keyboard-response","106","407696","0.0-106.0","jcp60qol","","<span style=""color:Black; font-size:50px;"">Agent A","null","","","","",""
"null","","","video-keyboard-response","107","410796","0.0-107.0","jcp60qol","","","null","","Agent A","veridical","STIM_SET_1/1592817.bmp_pp55_L3_V1.0_veridical_freeview_isoFalse.mp4",""
"null","","","html-keyboard-response","108","412302","0.0-108.0","jcp60qol","","<span style=""color:Black; font-size:50px;"">Agent B","null","","","","",""
"null","","","video-keyboard-response","109","415405","0.0-109.0","jcp60qol","","","null","","Agent B","scrambled","STIM_SET_1/1592817.bmp_pp55_L3_V1.0_scrambled_freeview_isoFalse.mp4",""
"","","","call-function","110","415405","0.0-110.0","jcp60qol","","","","","","","",""
"2660.4899999999907","{""judgement"":0}","[0]","survey-likert","111","418067","0.0-111.0","jcp60qol","","","","","","","","0"
"1984.429999999993","{""confidence"":1}","[0]","survey-likert","112","420052","0.0-112.0","jcp60qol","","","","","","","",""
"","","","call-function","113","420053","0.0-113.0","jcp60qol","","","","","","","",""
"null","","","html-keyboard-response","114","421558","0.0-114.0","jcp60qol","","<span style=""color:Black; font-size:50px;"">Agent A","null","","","","",""
"null","","","video-keyboard-response","115","424643","0.0-115.0","jcp60qol","","","null","","Agent A","scrambled","STIM_SET_1/1591994.bmp_pp69_L3_V1.0_scrambled_freeview_isoFalse.mp4",""
"null","","","html-keyboard-response","116","426148","0.0-116.0","jcp60qol","","<span style=""color:Black; font-size:50px;"">Agent B","null","","","","",""
"null","","","video-keyboard-response","117","429225","0.0-117.0","jcp60qol","","","null","","Agent B","veridical","STIM_SET_1/1591994.bmp_pp69_L3_V1.0_veridical_freeview_isoFalse.mp4",""
"","","","call-function","118","429226","0.0-118.0","jcp60qol","","","","","","","",""
"4153.009999999951","{""judgement"":1}","[0]","survey-likert","119","433380","0.0-119.0","jcp60qol","","","","","","","","1"
"1265.5650000000023","{""confidence"":0}","[0]","survey-likert","120","434646","0.0-120.0","jcp60qol","","","","","","","",""
"","","","call-function","121","434647","0.0-121.0","jcp60qol","","","","","","","",""
"null","","","html-keyboard-response","122","436150","0.0-122.0","jcp60qol","","<span style=""color:Black; font-size:50px;"">Agent A","null","","","","",""
"null","","","video-keyboard-response","123","439258","0.0-123.0","jcp60qol","","","null","","Agent A","scrambled","STIM_SET_1/1593035.bmp_pp94_L2_V1.0_scrambled_freeview_isoFalse.mp4",""
"null","","","html-keyboard-response","124","440762","0.0-124.0","jcp60qol","","<span style=""color:Black; font-size:50px;"">Agent B","null","","","","",""
"null","","","video-keyboard-response","125","443874","0.0-125.0","jcp60qol","","","null","","Agent B","veridical","STIM_SET_1/1593035.bmp_pp94_L2_V1.0_veridical_freeview_isoFalse.mp4",""
"","","","call-function","126","443875","0.0-126.0","jcp60qol","","","","","","","",""
"3470.0350000000326","{""judgement"":1}","[0]","survey-likert","127","447346","0.0-127.0","jcp60qol","","","","","","","","1"
"1956.570000000007","{""confidence"":1}","[0]","survey-likert","128","449304","0.0-128.0","jcp60qol","","","","","","","",""
"","","","call-function","129","449304","0.0-129.0","jcp60qol","","","","","","","",""
"null","","","html-keyboard-response","130","450810","0.0-130.0","jcp60qol","","<span style=""color:Black; font-size:50px;"">Agent A","null","","","","",""
"null","","","video-keyboard-response","131","453882","0.0-131.0","jcp60qol","","","null","","Agent A","veridical","STIM_SET_1/1592499.bmp_pp96_L2_V1.0_veridical_freeview_isoFalse.mp4",""
"null","","","html-keyboard-response","132","455389","0.0-132.0","jcp60qol","","<span style=""color:Black; font-size:50px;"">Agent B","null","","","","",""
"null","","","video-keyboard-response","133","458464","0.0-133.0","jcp60qol","","","null","","Agent B","scrambled","STIM_SET_1/1592499.bmp_pp96_L2_V1.0_scrambled_freeview_isoFalse.mp4",""
"","","","call-function","134","458464","0.0-134.0","jcp60qol","","","","","","","",""
"1567.1699999999837","{""judgement"":0}","[0]","survey-likert","135","460033","0.0-135.0","jcp60qol","","","","","","","","0"
"1921.679999999993","{""confidence"":2}","[0]","survey-likert","136","461955","0.0-136.0","jcp60qol","","","","","","","",""
"","","","call-function","137","461956","0.0-137.0","jcp60qol","","","","","","","",""
"null","","","html-keyboard-response","138","463459","0.0-138.0","jcp60qol","","<span style=""color:Black; font-size:50px;"">Agent A","null","","","","",""
"null","","","video-keyboard-response","139","466531","0.0-139.0","jcp60qol","","","null","","Agent A","scrambled","STIM_SET_1/1592934.bmp_pp63_L1_V1.0_scrambled_freeview_isoFalse.mp4",""
"null","","","html-keyboard-response","140","468034","0.0-140.0","jcp60qol","","<span style=""color:Black; font-size:50px;"">Agent B","null","","","","",""
"null","","","video-keyboard-response","141","471144","0.0-141.0","jcp60qol","","","null","","Agent B","veridical","STIM_SET_1/1592934.bmp_pp63_L1_V1.0_veridical_freeview_isoFalse.mp4",""
"","","","call-function","142","471145","0.0-142.0","jcp60qol","","","","","","","",""
"2154.759999999951","{""judgement"":0}","[0]","survey-likert","143","473301","0.0-143.0","jcp60qol","","","","","","","","1"
"1185.4349999999977","{""confidence"":1}","[0]","survey-likert","144","474488","0.0-144.0","jcp60qol","","","","","","","",""
"","","","call-function","145","474488","0.0-145.0","jcp60qol","","","","","","","",""
"null","","","html-keyboard-response","146","475993","0.0-146.0","jcp60qol","","<span style=""color:Black; font-size:50px;"">Agent A","null","","","","",""
"null","","","video-keyboard-response","147","479065","0.0-147.0","jcp60qol","","","null","","Agent A","veridical","STIM_SET_1/713681.bmp_pp86_L2_V1.0_veridical_freeview_isoFalse.mp4",""
"null","","","html-keyboard-response","148","480569","0.0-148.0","jcp60qol","","<span style=""color:Black; font-size:50px;"">Agent B","null","","","","",""
"null","","","video-keyboard-response","149","483640","0.0-149.0","jcp60qol","","","null","","Agent B","scrambled","STIM_SET_1/713681.bmp_pp86_L2_V1.0_scrambled_freeview_isoFalse.mp4",""
"","","","call-function","150","483641","0.0-150.0","jcp60qol","","","","","","","",""
"3446.1900000000023","{""judgement"":1}","[0]","survey-likert","151","487088","0.0-151.0","jcp60qol","","","","","","","","0"
"1424.4899999999907","{""confidence"":1}","[0]","survey-likert","152","488514","0.0-152.0","jcp60qol","","","","","","","",""
"","","","call-function","153","488514","0.0-153.0","jcp60qol","","","","","","","",""
"null","","","html-keyboard-response","154","490016","0.0-154.0","jcp60qol","","<span style=""color:Black; font-size:50px;"">Agent A","null","","","","",""
"null","","","video-keyboard-response","155","493082","0.0-155.0","jcp60qol","","","null","","Agent A","veridical","STIM_SET_1/1159446.bmp_pp60_L3_V1.0_veridical_freeview_isoFalse.mp4",""
"null","","","html-keyboard-response","156","494587","0.0-156.0","jcp60qol","","<span style=""color:Black; font-size:50px;"">Agent B","null","","","","",""
"null","","","video-keyboard-response","157","497652","0.0-157.0","jcp60qol","","","null","","Agent B","scrambled","STIM_SET_1/1159446.bmp_pp60_L3_V1.0_scrambled_freeview_isoFalse.mp4",""
"","","","call-function","158","497653","0.0-158.0","jcp60qol","","","","","","","",""
"1731.3399999999674","{""judgement"":0}","[0]","survey-likert","159","499385","0.0-159.0","jcp60qol","","","","","","","","0"
"1562.530000000028","{""confidence"":2}","[0]","survey-likert","160","500949","0.0-160.0","jcp60qol","","","","","","","",""
"","","","call-function","161","500949","0.0-161.0","jcp60qol","","","","","","","",""
"null","","","html-keyboard-response","162","502451","0.0-162.0","jcp60qol","","<span style=""color:Black; font-size:50px;"">Agent A","null","","","","",""
"null","","","video-keyboard-response","163","505574","0.0-163.0","jcp60qol","","","null","","Agent A","veridical","STIM_SET_1/498155.bmp_pp61_L2_V1.0_veridical_freeview_isoFalse.mp4",""
"null","","","html-keyboard-response","164","507077","0.0-164.0","jcp60qol","","<span style=""color:Black; font-size:50px;"">Agent B","null","","","","",""
"null","","","video-keyboard-response","165","510195","0.0-165.0","jcp60qol","","","null","","Agent B","scrambled","STIM_SET_1/498155.bmp_pp61_L2_V1.0_scrambled_freeview_isoFalse.mp4",""
"","","","call-function","166","510195","0.0-166.0","jcp60qol","","","","","","","",""
"2575.320000000007","{""judgement"":1}","[0]","survey-likert","167","512772","0.0-167.0","jcp60qol","","","","","","","","0"
"1240.5400000000373","{""confidence"":1}","[0]","survey-likert","168","514014","0.0-168.0","jcp60qol","","","","","","","",""
"3535.6749999999884","","","instructions","169","517550","0.0-169.0","jcp60qol","[{""page_index"":0,""viewing_time"":1314.469999999972},{""page_index"":1,""viewing_time"":1552.1300000000047},{""page_index"":2,""viewing_time"":668.875}]","","","","","","",""
"2830.6500000000233","","","instructions","170","520381","0.0-170.0","jcp60qol","[{""page_index"":0,""viewing_time"":454.50500000000466},{""page_index"":1,""viewing_time"":1738.4649999999674},{""page_index"":2,""viewing_time"":637.5750000000116}]","","","","","","",""
"","","","call-function","171","520382","0.0-171.0","jcp60qol","","","","","","","",""
"null","","","html-keyboard-response","172","521884","0.0-172.0","jcp60qol","","<span style=""color:Black; font-size:50px;"">Agent A","null","","","","",""
"null","","","video-keyboard-response","173","525004","0.0-173.0","jcp60qol","","","null","","Agent A","veridical","STIM_SET_1/1592807.bmp_pp68_L1_V1.0_veridical_freeview_isoFalse.mp4",""
"null","","","html-keyboard-response","174","526507","0.0-174.0","jcp60qol","","<span style=""color:Black; font-size:50px;"">Agent B","null","","","","",""
"null","","","video-keyboard-response","175","529625","0.0-175.0","jcp60qol","","","null","","Agent B","scrambled","STIM_SET_1/1592807.bmp_pp68_L1_V1.0_scrambled_freeview_isoFalse.mp4",""
"","","","call-function","176","529625","0.0-176.0","jcp60qol","","","","","","","",""
"3034.6049999999814","{""judgement"":1}","[0]","survey-likert","177","532661","0.0-177.0","jcp60qol","","","","","","","","0"
"1648.9500000000698","{""confidence"":2}","[0]","survey-likert","178","534311","0.0-178.0","jcp60qol","","","","","","","",""
"","","","call-function","179","534311","0.0-179.0","jcp60qol","","","","","","","",""
"null","","","html-keyboard-response","180","535814","0.0-180.0","jcp60qol","","<span style=""color:Black; font-size:50px;"">Agent A","null","","","","",""
"null","","","video-keyboard-response","181","538931","0.0-181.0","jcp60qol","","","null","","Agent A","veridical","STIM_SET_1/498253.bmp_pp67_L2_V1.0_veridical_freeview_isoFalse.mp4",""
"null","","","html-keyboard-response","182","540434","0.0-182.0","jcp60qol","","<span style=""color:Black; font-size:50px;"">Agent B","null","","","","",""
"null","","","video-keyboard-response","183","543515","0.0-183.0","jcp60qol","","","null","","Agent B","scrambled","STIM_SET_1/498253.bmp_pp67_L2_V1.0_scrambled_freeview_isoFalse.mp4",""
"","","","call-function","184","543515","0.0-184.0","jcp60qol","","","","","","","",""
"5146.170000000042","{""judgement"":0}","[0]","survey-likert","185","548663","0.0-185.0","jcp60qol","","","","","","","","0"
"1465.7600000000093","{""confidence"":2}","[0]","survey-likert","186","550130","0.0-186.0","jcp60qol","","","","","","","",""
"","","","call-function","187","550130","0.0-187.0","jcp60qol","","","","","","","",""
"null","","","html-keyboard-response","188","551632","0.0-188.0","jcp60qol","","<span style=""color:Black; font-size:50px;"">Agent A","null","","","","",""
"null","","","video-keyboard-response","189","554706","0.0-189.0","jcp60qol","","","null","","Agent A","veridical","STIM_SET_1/1592286.bmp_pp52_L1_V1.0_veridical_freeview_isoFalse.mp4",""
"null","","","html-keyboard-response","190","556211","0.0-190.0","jcp60qol","","<span style=""color:Black; font-size:50px;"">Agent B","null","","","","",""
"null","","","video-keyboard-response","191","559285","0.0-191.0","jcp60qol","","","null","","Agent B","scrambled","STIM_SET_1/1592286.bmp_pp52_L1_V1.0_scrambled_freeview_isoFalse.mp4",""
"","","","call-function","192","559286","0.0-192.0","jcp60qol","","","","","","","",""
"1639.9350000000559","{""judgement"":1}","[0]","survey-likert","193","560927","0.0-193.0","jcp60qol","","","","","","","","0"
"2372.3000000000466","{""confidence"":1}","[0]","survey-likert","194","563300","0.0-194.0","jcp60qol","","","","","","","",""
"","","","call-function","195","563300","0.0-195.0","jcp60qol","","","","","","","",""
"null","","","html-keyboard-response","196","564806","0.0-196.0","jcp60qol","","<span style=""color:Black; font-size:50px;"">Agent A","null","","","","",""
"null","","","video-keyboard-response","197","567882","0.0-197.0","jcp60qol","","","null","","Agent A","scrambled","STIM_SET_1/1159855.bmp_pp99_L2_V1.0_scrambled_freeview_isoFalse.mp4",""
"null","","","html-keyboard-response","198","569389","0.0-198.0","jcp60qol","","<span style=""color:Black; font-size:50px;"">Agent B","null","","","","",""
"null","","","video-keyboard-response","199","572508","0.0-199.0","jcp60qol","","","null","","Agent B","veridical","STIM_SET_1/1159855.bmp_pp99_L2_V1.0_veridical_freeview_isoFalse.mp4",""
"","","","call-function","200","572509","0.0-200.0","jcp60qol","","","","","","","",""
"3003.4150000000373","{""judgement"":1}","[0]","survey-likert","201","575513","0.0-201.0","jcp60qol","","","","","","","","1"
"1121.469999999972","{""confidence"":2}","[0]","survey-likert","202","576636","0.0-202.0","jcp60qol","","","","","","","",""
"","","","call-function","203","576636","0.0-203.0","jcp60qol","","","","","","","",""
"null","","","html-keyboard-response","204","578140","0.0-204.0","jcp60qol","","<span style=""color:Black; font-size:50px;"">Agent A","null","","","","",""
"null","","","video-keyboard-response","205","581228","0.0-205.0","jcp60qol","","","null","","Agent A","veridical","STIM_SET_1/1593041.bmp_pp58_L1_V1.0_veridical_freeview_isoFalse.mp4",""
"null","","","html-keyboard-response","206","582736","0.0-206.0","jcp60qol","","<span style=""color:Black; font-size:50px;"">Agent B","null","","","","",""
"null","","","video-keyboard-response","207","585827","0.0-207.0","jcp60qol","","","null","","Agent B","scrambled","STIM_SET_1/1593041.bmp_pp58_L1_V1.0_scrambled_freeview_isoFalse.mp4",""
"","","","call-function","208","585827","0.0-208.0","jcp60qol","","","","","","","",""
"1833.609999999986","{""judgement"":1}","[0]","survey-likert","209","587662","0.0-209.0","jcp60qol","","","","","","","","0"
"1729.4000000000233","{""confidence"":2}","[0]","survey-likert","210","589392","0.0-210.0","jcp60qol","","","","","","","",""
"","","","call-function","211","589393","0.0-211.0","jcp60qol","","","","","","","",""
"null","","","html-keyboard-response","212","590894","0.0-212.0","jcp60qol","","<span style=""color:Black; font-size:50px;"">Agent A","null","","","","",""
"null","","","video-keyboard-response","213","593982","0.0-213.0","jcp60qol","","","null","","Agent A","scrambled","STIM_SET_1/713779.bmp_pp152_L2_V1.0_scrambled_freeview_isoFalse.mp4",""
"null","","","html-keyboard-response","214","595485","0.0-214.0","jcp60qol","","<span style=""color:Black; font-size:50px;"">Agent B","null","","","","",""
"null","","","video-keyboard-response","215","598572","0.0-215.0","jcp60qol","","","null","","Agent B","veridical","STIM_SET_1/713779.bmp_pp152_L2_V1.0_veridical_freeview_isoFalse.mp4",""
"","","","call-function","216","598573","0.0-216.0","jcp60qol","","","","","","","",""
"2483.234999999986","{""judgement"":0}","[0]","survey-likert","217","601057","0.0-217.0","jcp60qol","","","","","","","","1"
"1483.7149999999674","{""confidence"":1}","[0]","survey-likert","218","602543","0.0-218.0","jcp60qol","","","","","","","",""
"","","","call-function","219","602544","0.0-219.0","jcp60qol","","","","","","","",""
"null","","","html-keyboard-response","220","604049","0.0-220.0","jcp60qol","","<span style=""color:Black; font-size:50px;"">Agent A","null","","","","",""
"null","","","video-keyboard-response","221","607124","0.0-221.0","jcp60qol","","","null","","Agent A","scrambled","STIM_SET_1/1159440.bmp_pp98_L1_V1.0_scrambled_freeview_isoFalse.mp4",""
"null","","","html-keyboard-response","222","608627","0.0-222.0","jcp60qol","","<span style=""color:Black; font-size:50px;"">Agent B","null","","","","",""
"null","","","video-keyboard-response","223","611703","0.0-223.0","jcp60qol","","","null","","Agent B","veridical","STIM_SET_1/1159440.bmp_pp98_L1_V1.0_veridical_freeview_isoFalse.mp4",""
"","","","call-function","224","611704","0.0-224.0","jcp60qol","","","","","","","",""
"5643.109999999986","{""judgement"":1}","[0]","survey-likert","225","617348","0.0-225.0","jcp60qol","","","","","","","","1"
"3003.180000000051","{""confidence"":1}","[0]","survey-likert","226","620352","0.0-226.0","jcp60qol","","","","","","","",""
"","","","call-function","227","620353","0.0-227.0","jcp60qol","","","","","","","",""
"null","","","html-keyboard-response","228","621859","0.0-228.0","jcp60qol","","<span style=""color:Black; font-size:50px;"">Agent A","null","","","","",""
"null","","","video-keyboard-response","229","624940","0.0-229.0","jcp60qol","","","null","","Agent A","veridical","STIM_SET_1/713749.bmp_pp88_L2_V1.0_veridical_freeview_isoFalse.mp4",""
"null","","","html-keyboard-response","230","626443","0.0-230.0","jcp60qol","","<span style=""color:Black; font-size:50px;"">Agent B","null","","","","",""
"null","","","video-keyboard-response","231","629524","0.0-231.0","jcp60qol","","","null","","Agent B","scrambled","STIM_SET_1/713749.bmp_pp88_L2_V1.0_scrambled_freeview_isoFalse.mp4",""
"","","","call-function","232","629524","0.0-232.0","jcp60qol","","","","","","","",""
"3446.7750000000233","{""judgement"":0}","[0]","survey-likert","233","632972","0.0-233.0","jcp60qol","","","","","","","","0"
"1518.2050000000745","{""confidence"":1}","[0]","survey-likert","234","634491","0.0-234.0","jcp60qol","","","","","","","",""
"","","","call-function","235","634492","0.0-235.0","jcp60qol","","","","","","","",""
"null","","","html-keyboard-response","236","635996","0.0-236.0","jcp60qol","","<span style=""color:Black; font-size:50px;"">Agent A","null","","","","",""
"null","","","video-keyboard-response","237","639116","0.0-237.0","jcp60qol","","","null","","Agent A","scrambled","STIM_SET_1/498175.bmp_pp154_L1_V1.0_scrambled_freeview_isoFalse.mp4",""
"null","","","html-keyboard-response","238","640621","0.0-238.0","jcp60qol","","<span style=""color:Black; font-size:50px;"">Agent B","null","","","","",""
"null","","","video-keyboard-response","239","643736","0.0-239.0","jcp60qol","","","null","","Agent B","veridical","STIM_SET_1/498175.bmp_pp154_L1_V1.0_veridical_freeview_isoFalse.mp4",""
"","","","call-function","240","643737","0.0-240.0","jcp60qol","","","","","","","",""
"1424.1650000000373","{""judgement"":1}","[0]","survey-likert","241","645162","0.0-241.0","jcp60qol","","","","","","","","1"
"1635.045000000042","{""confidence"":2}","[0]","survey-likert","242","646798","0.0-242.0","jcp60qol","","","","","","","",""
"","","","call-function","243","646798","0.0-243.0","jcp60qol","","","","","","","",""
"null","","","html-keyboard-response","244","648303","0.0-244.0","jcp60qol","","<span style=""color:Black; font-size:50px;"">Agent A","null","","","","",""
"null","","","video-keyboard-response","245","651413","0.0-245.0","jcp60qol","","","null","","Agent A","veridical","STIM_SET_1/1159829.bmp_pp91_L3_V1.0_veridical_freeview_isoFalse.mp4",""
"null","","","html-keyboard-response","246","652914","0.0-246.0","jcp60qol","","<span style=""color:Black; font-size:50px;"">Agent B","null","","","","",""
"null","","","video-keyboard-response","247","656025","0.0-247.0","jcp60qol","","","null","","Agent B","scrambled","STIM_SET_1/1159829.bmp_pp91_L3_V1.0_scrambled_freeview_isoFalse.mp4",""
"","","","call-function","248","656025","0.0-248.0","jcp60qol","","","","","","","",""
"2072.0200000000186","{""judgement"":1}","[0]","survey-likert","249","658098","0.0-249.0","jcp60qol","","","","","","","","0"
"1194.8050000000512","{""confidence"":1}","[0]","survey-likert","250","659294","0.0-250.0","jcp60qol","","","","","","","",""
"10369.365000000107","","","instructions","251","669664","0.0-251.0","jcp60qol","[{""page_index"":0,""viewing_time"":1655.0050000000047},{""page_index"":1,""viewing_time"":7400.0650000000605},{""page_index"":2,""viewing_time"":1314.0899999999674}]","","","","","","",""
"4504.310000000056","","","instructions","252","674168","0.0-252.0","jcp60qol","[{""page_index"":0,""viewing_time"":3248.570000000065},{""page_index"":1,""viewing_time"":805.6799999999348},{""page_index"":2,""viewing_time"":449.9550000000745}]","","","","","","",""
"","","","call-function","253","674169","0.0-253.0","jcp60qol","","","","","","","",""
"null","","","html-keyboard-response","254","675676","0.0-254.0","jcp60qol","","<span style=""color:Black; font-size:50px;"">Agent A","null","","","","",""
"null","","","video-keyboard-response","255","678744","0.0-255.0","jcp60qol","","","null","","Agent A","scrambled","STIM_SET_1/1159447.bmp_pp70_L2_V1.0_scrambled_freeview_isoFalse.mp4",""
"null","","","html-keyboard-response","256","680248","0.0-256.0","jcp60qol","","<span style=""color:Black; font-size:50px;"">Agent B","null","","","","",""
"null","","","video-keyboard-response","257","683316","0.0-257.0","jcp60qol","","","null","","Agent B","veridical","STIM_SET_1/1159447.bmp_pp70_L2_V1.0_veridical_freeview_isoFalse.mp4",""
"","","","call-function","258","683316","0.0-258.0","jcp60qol","","","","","","","",""
"1635.545000000042","{""judgement"":1}","[0]","survey-likert","259","684953","0.0-259.0","jcp60qol","","","","","","","","1"
"1736.4949999999953","{""confidence"":2}","[0]","survey-likert","260","686690","0.0-260.0","jcp60qol","","","","","","","",""
"","","","call-function","261","686691","0.0-261.0","jcp60qol","","","","","","","",""
"null","","","html-keyboard-response","262","688196","0.0-262.0","jcp60qol","","<span style=""color:Black; font-size:50px;"">Agent A","null","","","","",""
"null","","","video-keyboard-response","263","691272","0.0-263.0","jcp60qol","","","null","","Agent A","scrambled","STIM_SET_1/498111.bmp_pp88_L2_V1.0_scrambled_freeview_isoFalse.mp4",""
"null","","","html-keyboard-response","264","692776","0.0-264.0","jcp60qol","","<span style=""color:Black; font-size:50px;"">Agent B","null","","","","",""
"null","","","video-keyboard-response","265","695856","0.0-265.0","jcp60qol","","","null","","Agent B","veridical","STIM_SET_1/498111.bmp_pp88_L2_V1.0_veridical_freeview_isoFalse.mp4",""
"","","","call-function","266","695856","0.0-266.0","jcp60qol","","","","","","","",""
"2907.159999999916","{""judgement"":0}","[0]","survey-likert","267","698764","0.0-267.0","jcp60qol","","","","","","","","1"
"1801.3699999999953","{""confidence"":1}","[0]","survey-likert","268","700567","0.0-268.0","jcp60qol","","","","","","","",""
"","","","call-function","269","700568","0.0-269.0","jcp60qol","","","","","","","",""
"null","","","html-keyboard-response","270","702071","0.0-270.0","jcp60qol","","<span style=""color:Black; font-size:50px;"">Agent A","null","","","","",""
"null","","","video-keyboard-response","271","705182","0.0-271.0","jcp60qol","","","null","","Agent A","veridical","STIM_SET_1/1159572.bmp_pp71_L1_V1.0_veridical_freeview_isoFalse.mp4",""
"null","","","html-keyboard-response","272","706688","0.0-272.0","jcp60qol","","<span style=""color:Black; font-size:50px;"">Agent B","null","","","","",""
"null","","","video-keyboard-response","273","709758","0.0-273.0","jcp60qol","","","null","","Agent B","scrambled","STIM_SET_1/1159572.bmp_pp71_L1_V1.0_scrambled_freeview_isoFalse.mp4",""
"","","","call-function","274","709760","0.0-274.0","jcp60qol","","","","","","","",""
"1776.3950000000186","{""judgement"":1}","[0]","survey-likert","275","711538","0.0-275.0","jcp60qol","","","","","","","","0"
"1846.7149999999674","{""confidence"":1}","[0]","survey-likert","276","713386","0.0-276.0","jcp60qol","","","","","","","",""
"","","","call-function","277","713386","0.0-277.0","jcp60qol","","","","","","","",""
"null","","","html-keyboard-response","278","714890","0.0-278.0","jcp60qol","","<span style=""color:Black; font-size:50px;"">Agent A","null","","","","",""
"null","","","video-keyboard-response","279","717970","0.0-279.0","jcp60qol","","","null","","Agent A","scrambled","STIM_SET_1/1592657.bmp_pp98_L1_V1.0_scrambled_freeview_isoFalse.mp4",""
"null","","","html-keyboard-response","280","719472","0.0-280.0","jcp60qol","","<span style=""color:Black; font-size:50px;"">Agent B","null","","","","",""
"null","","","video-keyboard-response","281","722554","0.0-281.0","jcp60qol","","","null","","Agent B","veridical","STIM_SET_1/1592657.bmp_pp98_L1_V1.0_veridical_freeview_isoFalse.mp4",""
"","","","call-function","282","722554","0.0-282.0","jcp60qol","","","","","","","",""
"2065.1300000000047","{""judgement"":0}","[0]","survey-likert","283","724620","0.0-283.0","jcp60qol","","","","","","","","1"
"1598.765000000014","{""confidence"":2}","[0]","survey-likert","284","726221","0.0-284.0","jcp60qol","","","","","","","",""
"","","","call-function","285","726221","0.0-285.0","jcp60qol","","","","","","","",""
"null","","","html-keyboard-response","286","727722","0.0-286.0","jcp60qol","","<span style=""color:Black; font-size:50px;"">Agent A","null","","","","",""
"null","","","video-keyboard-response","287","730801","0.0-287.0","jcp60qol","","","null","","Agent A","veridical","STIM_SET_1/713593.bmp_pp64_L1_V1.0_veridical_freeview_isoFalse.mp4",""
"null","","","html-keyboard-response","288","732303","0.0-288.0","jcp60qol","","<span style=""color:Black; font-size:50px;"">Agent B","null","","","","",""
"null","","","video-keyboard-response","289","735418","0.0-289.0","jcp60qol","","","null","","Agent B","scrambled","STIM_SET_1/713593.bmp_pp64_L1_V1.0_scrambled_freeview_isoFalse.mp4",""
"","","","call-function","290","735418","0.0-290.0","jcp60qol","","","","","","","",""
"1947.3699999999953","{""judgement"":0}","[0]","survey-likert","291","737366","0.0-291.0","jcp60qol","","","","","","","","0"
"1955.844999999972","{""confidence"":2}","[0]","survey-likert","292","739323","0.0-292.0","jcp60qol","","","","","","","",""
"","","","call-function","293","739324","0.0-293.0","jcp60qol","","","","","","","",""
"null","","","html-keyboard-response","294","740826","0.0-294.0","jcp60qol","","<span style=""color:Black; font-size:50px;"">Agent A","null","","","","",""
"null","","","video-keyboard-response","295","743943","0.0-295.0","jcp60qol","","","null","","Agent A","scrambled","STIM_SET_1/1592804.bmp_pp91_L3_V1.0_scrambled_freeview_isoFalse.mp4",""
"null","","","html-keyboard-response","296","745449","0.0-296.0","jcp60qol","","<span style=""color:Black; font-size:50px;"">Agent B","null","","","","",""
"null","","","video-keyboard-response","297","748571","0.0-297.0","jcp60qol","","","null","","Agent B","veridical","STIM_SET_1/1592804.bmp_pp91_L3_V1.0_veridical_freeview_isoFalse.mp4",""
"","","","call-function","298","748572","0.0-298.0","jcp60qol","","","","","","","",""
"3195.6350000000093","{""judgement"":1}","[0]","survey-likert","299","751768","0.0-299.0","jcp60qol","","","","","","","","1"
"1370.6800000000512","{""confidence"":0}","[0]","survey-likert","300","753140","0.0-300.0","jcp60qol","","","","","","","",""
"","","","call-function","301","753141","0.0-301.0","jcp60qol","","","","","","","",""
"null","","","html-keyboard-response","302","754645","0.0-302.0","jcp60qol","","<span style=""color:Black; font-size:50px;"">Agent A","null","","","","",""
"null","","","video-keyboard-response","303","757762","0.0-303.0","jcp60qol","","","null","","Agent A","veridical","STIM_SET_1/285905.bmp_pp57_L1_V1.0_veridical_freeview_isoFalse.mp4",""
"null","","","html-keyboard-response","304","759266","0.0-304.0","jcp60qol","","<span style=""color:Black; font-size:50px;"">Agent B","null","","","","",""
"null","","","video-keyboard-response","305","762382","0.0-305.0","jcp60qol","","","null","","Agent B","scrambled","STIM_SET_1/285905.bmp_pp57_L1_V1.0_scrambled_freeview_isoFalse.mp4",""
"","","","call-function","306","762383","0.0-306.0","jcp60qol","","","","","","","",""
"1999.7099999999627","{""judgement"":1}","[0]","survey-likert","307","764383","0.0-307.0","jcp60qol","","","","","","","","0"
"1399.9400000000605","{""confidence"":2}","[0]","survey-likert","308","765784","0.0-308.0","jcp60qol","","","","","","","",""
"","","","call-function","309","765785","0.0-309.0","jcp60qol","","","","","","","",""
"null","","","html-keyboard-response","310","767286","0.0-310.0","jcp60qol","","<span style=""color:Black; font-size:50px;"">Agent A","null","","","","",""
"null","","","video-keyboard-response","311","770400","0.0-311.0","jcp60qol","","","null","","Agent A","scrambled","STIM_SET_1/713135.bmp_pp54_L2_V1.0_scrambled_freeview_isoFalse.mp4",""
"null","","","html-keyboard-response","312","771901","0.0-312.0","jcp60qol","","<span style=""color:Black; font-size:50px;"">Agent B","null","","","","",""
"null","","","video-keyboard-response","313","774970","0.0-313.0","jcp60qol","","","null","","Agent B","veridical","STIM_SET_1/713135.bmp_pp54_L2_V1.0_veridical_freeview_isoFalse.mp4",""
"","","","call-function","314","774970","0.0-314.0","jcp60qol","","","","","","","",""
"1677.9349999999395","{""judgement"":1}","[0]","survey-likert","315","776649","0.0-315.0","jcp60qol","","","","","","","","1"
"1573.3249999999534","{""confidence"":2}","[0]","survey-likert","316","778224","0.0-316.0","jcp60qol","","","","","","","",""
"","","","call-function","317","778224","0.0-317.0","jcp60qol","","","","","","","",""
"null","","","html-keyboard-response","318","779727","0.0-318.0","jcp60qol","","<span style=""color:Black; font-size:50px;"">Agent A","null","","","","",""
"null","","","video-keyboard-response","319","782798","0.0-319.0","jcp60qol","","","null","","Agent A","veridical","STIM_SET_1/713796.bmp_pp84_L3_V1.0_veridical_freeview_isoFalse.mp4",""
"null","","","html-keyboard-response","320","784301","0.0-320.0","jcp60qol","","<span style=""color:Black; font-size:50px;"">Agent B","null","","","","",""
"null","","","video-keyboard-response","321","787372","0.0-321.0","jcp60qol","","","null","","Agent B","scrambled","STIM_SET_1/713796.bmp_pp84_L3_V1.0_scrambled_freeview_isoFalse.mp4",""
"","","","call-function","322","787372","0.0-322.0","jcp60qol","","","","","","","",""
"1409.1999999999534","{""judgement"":0}","[0]","survey-likert","323","788782","0.0-323.0","jcp60qol","","","","","","","","0"
"1645.009999999893","{""confidence"":2}","[0]","survey-likert","324","790428","0.0-324.0","jcp60qol","","","","","","","",""
"","","","call-function","325","790429","0.0-325.0","jcp60qol","","","","","","","",""
"null","","","html-keyboard-response","326","791934","0.0-326.0","jcp60qol","","<span style=""color:Black; font-size:50px;"">Agent A","null","","","","",""
"null","","","video-keyboard-response","327","795005","0.0-327.0","jcp60qol","","","null","","Agent A","scrambled","STIM_SET_1/285933.bmp_pp81_L1_V1.0_scrambled_freeview_isoFalse.mp4",""
"null","","","html-keyboard-response","328","796511","0.0-328.0","jcp60qol","","<span style=""color:Black; font-size:50px;"">Agent B","null","","","","",""
"null","","","video-keyboard-response","329","799627","0.0-329.0","jcp60qol","","","null","","Agent B","veridical","STIM_SET_1/285933.bmp_pp81_L1_V1.0_veridical_freeview_isoFalse.mp4",""
"","","","call-function","330","799627","0.0-330.0","jcp60qol","","","","","","","",""
"2805.8000000000466","{""judgement"":1}","[0]","survey-likert","331","802434","0.0-331.0","jcp60qol","","","","","","","","1"
"1257.1100000001024","{""confidence"":1}","[0]","survey-likert","332","803692","0.0-332.0","jcp60qol","","","","","","","",""
"1898.1899999999441","","","instructions","333","805591","0.0-333.0","jcp60qol","[{""page_index"":0,""viewing_time"":879.6899999999441},{""page_index"":1,""viewing_time"":720.6300000000047},{""page_index"":2,""viewing_time"":297.6700000000419}]","","","","","","",""
"1249.3050000000512","","","instructions","334","806841","0.0-334.0","jcp60qol","[{""page_index"":0,""viewing_time"":365.15500000002794},{""page_index"":1,""viewing_time"":422.9399999999441},{""page_index"":2,""viewing_time"":461.1050000000978}]","","","","","","",""
"","","","call-function","335","806841","0.0-335.0","jcp60qol","","","","","","","",""
"null","","","html-keyboard-response","336","808344","0.0-336.0","jcp60qol","","<span style=""color:Black; font-size:50px;"">Agent A","null","","","","",""
"null","","","video-keyboard-response","337","811424","0.0-337.0","jcp60qol","","","null","","Agent A","veridical","STIM_SET_1/1592890.bmp_pp82_L2_V1.0_veridical_freeview_isoFalse.mp4",""
"null","","","html-keyboard-response","338","812931","0.0-338.0","jcp60qol","","<span style=""color:Black; font-size:50px;"">Agent B","null","","","","",""
"null","","","video-keyboard-response","339","816002","0.0-339.0","jcp60qol","","","null","","Agent B","scrambled","STIM_SET_1/1592890.bmp_pp82_L2_V1.0_scrambled_freeview_isoFalse.mp4",""
"","","","call-function","340","816003","0.0-340.0","jcp60qol","","","","","","","",""
"1963.9300000000512","{""judgement"":1}","[0]","survey-likert","341","817969","0.0-341.0","jcp60qol","","","","","","","","0"
"1655.0100000000093","{""confidence"":1}","[0]","survey-likert","342","819626","0.0-342.0","jcp60qol","","","","","","","",""
"","","","call-function","343","819627","0.0-343.0","jcp60qol","","","","","","","",""
"null","","","html-keyboard-response","344","821128","0.0-344.0","jcp60qol","","<span style=""color:Black; font-size:50px;"">Agent A","null","","","","",""
"null","","","video-keyboard-response","345","824210","0.0-345.0","jcp60qol","","","null","","Agent A","scrambled","STIM_SET_1/61537.bmp_pp73_L3_V1.0_scrambled_freeview_isoFalse.mp4",""
"null","","","html-keyboard-response","346","825713","0.0-346.0","jcp60qol","","<span style=""color:Black; font-size:50px;"">Agent B","null","","","","",""
"null","","","video-keyboard-response","347","828789","0.0-347.0","jcp60qol","","","null","","Agent B","veridical","STIM_SET_1/61537.bmp_pp73_L3_V1.0_veridical_freeview_isoFalse.mp4",""
"","","","call-function","348","828790","0.0-348.0","jcp60qol","","","","","","","",""
"1866.780000000028","{""judgement"":1}","[0]","survey-likert","349","830657","0.0-349.0","jcp60qol","","","","","","","","1"
"1177.3049999999348","{""confidence"":2}","[0]","survey-likert","350","831836","0.0-350.0","jcp60qol","","","","","","","",""
"","","","call-function","351","831836","0.0-351.0","jcp60qol","","","","","","","",""
"null","","","html-keyboard-response","352","833342","0.0-352.0","jcp60qol","","<span style=""color:Black; font-size:50px;"">Agent A","null","","","","",""
"null","","","video-keyboard-response","353","836415","0.0-353.0","jcp60qol","","","null","","Agent A","scrambled","STIM_SET_1/1593146.bmp_pp93_L1_V1.0_scrambled_freeview_isoFalse.mp4",""
"null","","","html-keyboard-response","354","837918","0.0-354.0","jcp60qol","","<span style=""color:Black; font-size:50px;"">Agent B","null","","","","",""
"null","","","video-keyboard-response","355","841030","0.0-355.0","jcp60qol","","","null","","Agent B","veridical","STIM_SET_1/1593146.bmp_pp93_L1_V1.0_veridical_freeview_isoFalse.mp4",""
"","","","call-function","356","841031","0.0-356.0","jcp60qol","","","","","","","",""
"1653.3350000000792","{""judgement"":1}","[0]","survey-likert","357","842685","0.0-357.0","jcp60qol","","","","","","","","1"
"1376.5650000000605","{""confidence"":2}","[0]","survey-likert","358","844062","0.0-358.0","jcp60qol","","","","","","","",""
"","","","call-function","359","844063","0.0-359.0","jcp60qol","","","","","","","",""
"null","","","html-keyboard-response","360","845568","0.0-360.0","jcp60qol","","<span style=""color:Black; font-size:50px;"">Agent A","null","","","","",""
"null","","","video-keyboard-response","361","848674","0.0-361.0","jcp60qol","","","null","","Agent A","scrambled","STIM_SET_1/498149.bmp_pp99_L2_V1.0_scrambled_freeview_isoFalse.mp4",""
"null","","","html-keyboard-response","362","850181","0.0-362.0","jcp60qol","","<span style=""color:Black; font-size:50px;"">Agent B","null","","","","",""
"null","","","video-keyboard-response","363","853289","0.0-363.0","jcp60qol","","","null","","Agent B","veridical","STIM_SET_1/498149.bmp_pp99_L2_V1.0_veridical_freeview_isoFalse.mp4",""
"","","","call-function","364","853289","0.0-364.0","jcp60qol","","","","","","","",""
"1885.2799999999115","{""judgement"":1}","[0]","survey-likert","365","855175","0.0-365.0","jcp60qol","","","","","","","","1"
"1567.4000000000233","{""confidence"":1}","[0]","survey-likert","366","856744","0.0-366.0","jcp60qol","","","","","","","",""
"","","","call-function","367","856744","0.0-367.0","jcp60qol","","","","","","","",""
"null","","","html-keyboard-response","368","858247","0.0-368.0","jcp60qol","","<span style=""color:Black; font-size:50px;"">Agent A","null","","","","",""
"null","","","video-keyboard-response","369","861371","0.0-369.0","jcp60qol","","","null","","Agent A","veridical","STIM_SET_1/1160168.bmp_pp53_L2_V1.0_veridical_freeview_isoFalse.mp4",""
"null","","","html-keyboard-response","370","862875","0.0-370.0","jcp60qol","","<span style=""color:Black; font-size:50px;"">Agent B","null","","","","",""
"null","","","video-keyboard-response","371","866000","0.0-371.0","jcp60qol","","","null","","Agent B","scrambled","STIM_SET_1/1160168.bmp_pp53_L2_V1.0_scrambled_freeview_isoFalse.mp4",""
"","","","call-function","372","866000","0.0-372.0","jcp60qol","","","","","","","",""
"1967.0400000000373","{""judgement"":0}","[0]","survey-likert","373","867968","0.0-373.0","jcp60qol","","","","","","","","0"
"1778.9499999999534","{""confidence"":2}","[0]","survey-likert","374","869748","0.0-374.0","jcp60qol","","","","","","","",""
"","","","call-function","375","869749","0.0-375.0","jcp60qol","","","","","","","",""
"null","","","html-keyboard-response","376","871250","0.0-376.0","jcp60qol","","<span style=""color:Black; font-size:50px;"">Agent A","null","","","","",""
"null","","","video-keyboard-response","377","874373","0.0-377.0","jcp60qol","","","null","","Agent A","veridical","STIM_SET_1/1591954.bmp_pp62_L2_V1.0_veridical_freeview_isoFalse.mp4",""
"null","","","html-keyboard-response","378","875879","0.0-378.0","jcp60qol","","<span style=""color:Black; font-size:50px;"">Agent B","null","","","","",""
"null","","","video-keyboard-response","379","879006","0.0-379.0","jcp60qol","","","null","","Agent B","scrambled","STIM_SET_1/1591954.bmp_pp62_L2_V1.0_scrambled_freeview_isoFalse.mp4",""
"","","","call-function","380","879006","0.0-380.0","jcp60qol","","","","","","","",""
"3700.9150000000373","{""judgement"":0}","[0]","survey-likert","381","882708","0.0-381.0","jcp60qol","","","","","","","","0"
"1067.344999999972","{""confidence"":0}","[0]","survey-likert","382","883777","0.0-382.0","jcp60qol","","","","","","","",""
"","","","call-function","383","883777","0.0-383.0","jcp60qol","","","","","","","",""
"null","","","html-keyboard-response","384","885284","0.0-384.0","jcp60qol","","<span style=""color:Black; font-size:50px;"">Agent A","null","","","","",""
"null","","","video-keyboard-response","385","888365","0.0-385.0","jcp60qol","","","null","","Agent A","veridical","STIM_SET_1/713371.bmp_pp68_L1_V1.0_veridical_freeview_isoFalse.mp4",""
"null","","","html-keyboard-response","386","889867","0.0-386.0","jcp60qol","","<span style=""color:Black; font-size:50px;"">Agent B","null","","","","",""
"null","","","video-keyboard-response","387","892946","0.0-387.0","jcp60qol","","","null","","Agent B","scrambled","STIM_SET_1/713371.bmp_pp68_L1_V1.0_scrambled_freeview_isoFalse.mp4",""
"","","","call-function","388","892946","0.0-388.0","jcp60qol","","","","","","","",""
"2081.2900000000373","{""judgement"":1}","[0]","survey-likert","389","895029","0.0-389.0","jcp60qol","","","","","","","","0"
"1335.1599999999162","{""confidence"":1}","[0]","survey-likert","390","896365","0.0-390.0","jcp60qol","","","","","","","",""
"","","","call-function","391","896366","0.0-391.0","jcp60qol","","","","","","","",""
"null","","","html-keyboard-response","392","897867","0.0-392.0","jcp60qol","","<span style=""color:Black; font-size:50px;"">Agent A","null","","","","",""
"null","","","video-keyboard-response","393","900934","0.0-393.0","jcp60qol","","","null","","Agent A","scrambled","STIM_SET_1/713403.bmp_pp80_L3_V1.0_scrambled_freeview_isoFalse.mp4",""
"null","","","html-keyboard-response","394","902438","0.0-394.0","jcp60qol","","<span style=""color:Black; font-size:50px;"">Agent B","null","","","","",""
"null","","","video-keyboard-response","395","905505","0.0-395.0","jcp60qol","","","null","","Agent B","veridical","STIM_SET_1/713403.bmp_pp80_L3_V1.0_veridical_freeview_isoFalse.mp4",""
"","","","call-function","396","905506","0.0-396.0","jcp60qol","","","","","","","",""
"1655.4850000001024","{""judgement"":1}","[0]","survey-likert","397","907162","0.0-397.0","jcp60qol","","","","","","","","1"
"1024.1350000000093","{""confidence"":2}","[0]","survey-likert","398","908188","0.0-398.0","jcp60qol","","","","","","","",""
"","","","call-function","399","908188","0.0-399.0","jcp60qol","","","","","","","",""
"null","","","html-keyboard-response","400","909692","0.0-400.0","jcp60qol","","<span style=""color:Black; font-size:50px;"">Agent A","null","","","","",""
"null","","","video-keyboard-response","401","912800","0.0-401.0","jcp60qol","","","null","","Agent A","scrambled","STIM_SET_1/1160127.bmp_pp90_L2_V1.0_scrambled_freeview_isoFalse.mp4",""
"null","","","html-keyboard-response","402","914303","0.0-402.0","jcp60qol","","<span style=""color:Black; font-size:50px;"">Agent B","null","","","","",""
"null","","","video-keyboard-response","403","917411","0.0-403.0","jcp60qol","","","null","","Agent B","veridical","STIM_SET_1/1160127.bmp_pp90_L2_V1.0_veridical_freeview_isoFalse.mp4",""
"","","","call-function","404","917411","0.0-404.0","jcp60qol","","","","","","","",""
"2308.225000000093","{""judgement"":0}","[0]","survey-likert","405","919720","0.0-405.0","jcp60qol","","","","","","","","1"
"1369.8699999999953","{""confidence"":0}","[0]","survey-likert","406","921091","0.0-406.0","jcp60qol","","","","","","","",""
"","","","call-function","407","921092","0.0-407.0","jcp60qol","","","","","","","",""
"null","","","html-keyboard-response","408","922595","0.0-408.0","jcp60qol","","<span style=""color:Black; font-size:50px;"">Agent A","null","","","","",""
"null","","","video-keyboard-response","409","925705","0.0-409.0","jcp60qol","","","null","","Agent A","veridical","STIM_SET_1/713513.bmp_pp62_L2_V1.0_veridical_freeview_isoFalse.mp4",""
"null","","","html-keyboard-response","410","927207","0.0-410.0","jcp60qol","","<span style=""color:Black; font-size:50px;"">Agent B","null","","","","",""
"null","","","video-keyboard-response","411","930322","0.0-411.0","jcp60qol","","","null","","Agent B","scrambled","STIM_SET_1/713513.bmp_pp62_L2_V1.0_scrambled_freeview_isoFalse.mp4",""
"","","","call-function","412","930323","0.0-412.0","jcp60qol","","","","","","","",""
"2379.094999999972","{""judgement"":0}","[0]","survey-likert","413","932705","0.0-413.0","jcp60qol","","","","","","","","0"
"1491.6850000000559","{""confidence"":1}","[0]","survey-likert","414","934198","0.0-414.0","jcp60qol","","","","","","","",""
"2105","","","instructions","415","936305","0.0-415.0","jcp60qol","[{""page_index"":0,""viewing_time"":953.9149999999208},{""page_index"":1,""viewing_time"":683.9949999999953},{""page_index"":2,""viewing_time"":466.89000000001397}]","","","","","","",""
"1470.6749999999302","","","instructions","416","937776","0.0-416.0","jcp60qol","[{""page_index"":0,""viewing_time"":423.4299999999348},{""page_index"":1,""viewing_time"":616.1000000000931},{""page_index"":2,""viewing_time"":431.03999999992084}]","","","","","","",""
"","","","call-function","417","937777","0.0-417.0","jcp60qol","","","","","","","",""
"null","","","html-keyboard-response","418","939279","0.0-418.0","jcp60qol","","<span style=""color:Black; font-size:50px;"">Agent A","null","","","","",""
"null","","","video-keyboard-response","419","942349","0.0-419.0","jcp60qol","","","null","","Agent A","veridical","STIM_SET_1/1592727.bmp_pp59_L3_V1.0_veridical_freeview_isoFalse.mp4",""
"null","","","html-keyboard-response","420","943855","0.0-420.0","jcp60qol","","<span style=""color:Black; font-size:50px;"">Agent B","null","","","","",""
"null","","","video-keyboard-response","421","946924","0.0-421.0","jcp60qol","","","null","","Agent B","scrambled","STIM_SET_1/1592727.bmp_pp59_L3_V1.0_scrambled_freeview_isoFalse.mp4",""
"","","","call-function","422","946925","0.0-422.0","jcp60qol","","","","","","","",""
"1969.859999999986","{""judgement"":1}","[0]","survey-likert","423","948896","0.0-423.0","jcp60qol","","","","","","","","0"
"1256.7249999999767","{""confidence"":2}","[0]","survey-likert","424","950154","0.0-424.0","jcp60qol","","","","","","","",""
"","","","call-function","425","950155","0.0-425.0","jcp60qol","","","","","","","",""
"null","","","html-keyboard-response","426","951661","0.0-426.0","jcp60qol","","<span style=""color:Black; font-size:50px;"">Agent A","null","","","","",""
"null","","","video-keyboard-response","427","954742","0.0-427.0","jcp60qol","","","null","","Agent A","veridical","STIM_SET_1/713666.bmp_pp97_L3_V1.0_veridical_freeview_isoFalse.mp4",""
"null","","","html-keyboard-response","428","956245","0.0-428.0","jcp60qol","","<span style=""color:Black; font-size:50px;"">Agent B","null","","","","",""
"null","","","video-keyboard-response","429","959321","0.0-429.0","jcp60qol","","","null","","Agent B","scrambled","STIM_SET_1/713666.bmp_pp97_L3_V1.0_scrambled_freeview_isoFalse.mp4",""
"","","","call-function","430","959322","0.0-430.0","jcp60qol","","","","","","","",""
"1951.8050000000512","{""judgement"":1}","[0]","survey-likert","431","961274","0.0-431.0","jcp60qol","","","","","","","","0"
"1497.484999999986","{""confidence"":2}","[0]","survey-likert","432","962773","0.0-432.0","jcp60qol","","","","","","","",""
"","","","call-function","433","962773","0.0-433.0","jcp60qol","","","","","","","",""
"null","","","html-keyboard-response","434","964280","0.0-434.0","jcp60qol","","<span style=""color:Black; font-size:50px;"">Agent A","null","","","","",""
"null","","","video-keyboard-response","435","967390","0.0-435.0","jcp60qol","","","null","","Agent A","veridical","STIM_SET_1/1159882.bmp_pp61_L2_V1.0_veridical_freeview_isoFalse.mp4",""
"null","","","html-keyboard-response","436","968894","0.0-436.0","jcp60qol","","<span style=""color:Black; font-size:50px;"">Agent B","null","","","","",""
"null","","","video-keyboard-response","437","972008","0.0-437.0","jcp60qol","","","null","","Agent B","scrambled","STIM_SET_1/1159882.bmp_pp61_L2_V1.0_scrambled_freeview_isoFalse.mp4",""
"","","","call-function","438","972009","0.0-438.0","jcp60qol","","","","","","","",""
"1840.2649999998976","{""judgement"":1}","[0]","survey-likert","439","973850","0.0-439.0","jcp60qol","","","","","","","","0"
"1530.0500000000466","{""confidence"":1}","[0]","survey-likert","440","975381","0.0-440.0","jcp60qol","","","","","","","",""
"","","","call-function","441","975382","0.0-441.0","jcp60qol","","","","","","","",""
"null","","","html-keyboard-response","442","976883","0.0-442.0","jcp60qol","","<span style=""color:Black; font-size:50px;"">Agent A","null","","","","",""
"null","","","video-keyboard-response","443","979960","0.0-443.0","jcp60qol","","","null","","Agent A","veridical","STIM_SET_1/1592581.bmp_pp100_L3_V1.0_veridical_freeview_isoFalse.mp4",""
"null","","","html-keyboard-response","444","981462","0.0-444.0","jcp60qol","","<span style=""color:Black; font-size:50px;"">Agent B","null","","","","",""
"null","","","video-keyboard-response","445","984541","0.0-445.0","jcp60qol","","","null","","Agent B","scrambled","STIM_SET_1/1592581.bmp_pp100_L3_V1.0_scrambled_freeview_isoFalse.mp4",""
"","","","call-function","446","984541","0.0-446.0","jcp60qol","","","","","","","",""
"1846.3649999999907","{""judgement"":1}","[0]","survey-likert","447","986388","0.0-447.0","jcp60qol","","","","","","","","0"
"1239.3249999999534","{""confidence"":1}","[0]","survey-likert","448","987629","0.0-448.0","jcp60qol","","","","","","","",""
"","","","call-function","449","987629","0.0-449.0","jcp60qol","","","","","","","",""
"null","","","html-keyboard-response","450","989136","0.0-450.0","jcp60qol","","<span style=""color:Black; font-size:50px;"">Agent A","null","","","","",""
"null","","","video-keyboard-response","451","992237","0.0-451.0","jcp60qol","","","null","","Agent A","veridical","STIM_SET_1/1159813.bmp_pp79_L2_V1.0_veridical_freeview_isoFalse.mp4",""
"null","","","html-keyboard-response","452","993741","0.0-452.0","jcp60qol","","<span style=""color:Black; font-size:50px;"">Agent B","null","","","","",""
"null","","","video-keyboard-response","453","996847","0.0-453.0","jcp60qol","","","null","","Agent B","scrambled","STIM_SET_1/1159813.bmp_pp79_L2_V1.0_scrambled_freeview_isoFalse.mp4",""
"","","","call-function","454","996848","0.0-454.0","jcp60qol","","","","","","","",""
"3425.340000000084","{""judgement"":0}","[0]","survey-likert","455","1000274","0.0-455.0","jcp60qol","","","","","","","","0"
"1461.045000000042","{""confidence"":1}","[0]","survey-likert","456","1001736","0.0-456.0","jcp60qol","","","","","","","",""
"","","","call-function","457","1001737","0.0-457.0","jcp60qol","","","","","","","",""
"null","","","html-keyboard-response","458","1003242","0.0-458.0","jcp60qol","","<span style=""color:Black; font-size:50px;"">Agent A","null","","","","",""
"null","","","video-keyboard-response","459","1006312","0.0-459.0","jcp60qol","","","null","","Agent A","scrambled","STIM_SET_1/1159621.bmp_pp92_L3_V1.0_scrambled_freeview_isoFalse.mp4",""
"null","","","html-keyboard-response","460","1007819","0.0-460.0","jcp60qol","","<span style=""color:Black; font-size:50px;"">Agent B","null","","","","",""
"null","","","video-keyboard-response","461","1010889","0.0-461.0","jcp60qol","","","null","","Agent B","veridical","STIM_SET_1/1159621.bmp_pp92_L3_V1.0_veridical_freeview_isoFalse.mp4",""
"","","","call-function","462","1010889","0.0-462.0","jcp60qol","","","","","","","",""
"3090.6450000000186","{""judgement"":1}","[0]","survey-likert","463","1013981","0.0-463.0","jcp60qol","","","","","","","","1"
"1478.8150000000605","{""confidence"":0}","[0]","survey-likert","464","1015461","0.0-464.0","jcp60qol","","","","","","","",""
"","","","call-function","465","1015461","0.0-465.0","jcp60qol","","","","","","","",""
"null","","","html-keyboard-response","466","1016965","0.0-466.0","jcp60qol","","<span style=""color:Black; font-size:50px;"">Agent A","null","","","","",""
"null","","","video-keyboard-response","467","1020040","0.0-467.0","jcp60qol","","","null","","Agent A","scrambled","STIM_SET_1/712977.bmp_pp51_L1_V1.0_scrambled_freeview_isoFalse.mp4",""
"null","","","html-keyboard-response","468","1021544","0.0-468.0","jcp60qol","","<span style=""color:Black; font-size:50px;"">Agent B","null","","","","",""
"null","","","video-keyboard-response","469","1024620","0.0-469.0","jcp60qol","","","null","","Agent B","veridical","STIM_SET_1/712977.bmp_pp51_L1_V1.0_veridical_freeview_isoFalse.mp4",""
"","","","call-function","470","1024620","0.0-470.0","jcp60qol","","","","","","","",""
"1837.6500000000233","{""judgement"":1}","[0]","survey-likert","471","1026459","0.0-471.0","jcp60qol","","","","","","","","1"
"1191.9899999999907","{""confidence"":1}","[0]","survey-likert","472","1027652","0.0-472.0","jcp60qol","","","","","","","",""
"","","","call-function","473","1027652","0.0-473.0","jcp60qol","","","","","","","",""
"null","","","html-keyboard-response","474","1029155","0.0-474.0","jcp60qol","","<span style=""color:Black; font-size:50px;"">Agent A","null","","","","",""
"null","","","video-keyboard-response","475","1032236","0.0-475.0","jcp60qol","","","null","","Agent A","scrambled","STIM_SET_1/1159777.bmp_pp77_L3_V1.0_scrambled_freeview_isoFalse.mp4",""
"null","","","html-keyboard-response","476","1033738","0.0-476.0","jcp60qol","","<span style=""color:Black; font-size:50px;"">Agent B","null","","","","",""
"null","","","video-keyboard-response","477","1036821","0.0-477.0","jcp60qol","","","null","","Agent B","veridical","STIM_SET_1/1159777.bmp_pp77_L3_V1.0_veridical_freeview_isoFalse.mp4",""
"","","","call-function","478","1036823","0.0-478.0","jcp60qol","","","","","","","",""
"1600.7150000000838","{""judgement"":1}","[0]","survey-likert","479","1038425","0.0-479.0","jcp60qol","","","","","","","","1"
"1105.5800000000745","{""confidence"":1}","[0]","survey-likert","480","1039532","0.0-480.0","jcp60qol","","","","","","","",""
"","","","call-function","481","1039533","0.0-481.0","jcp60qol","","","","","","","",""
"null","","","html-keyboard-response","482","1041037","0.0-482.0","jcp60qol","","<span style=""color:Black; font-size:50px;"">Agent A","null","","","","",""
"null","","","video-keyboard-response","483","1044108","0.0-483.0","jcp60qol","","","null","","Agent A","scrambled","STIM_SET_1/285994.bmp_pp92_L3_V1.0_scrambled_freeview_isoFalse.mp4",""
"null","","","html-keyboard-response","484","1045611","0.0-484.0","jcp60qol","","<span style=""color:Black; font-size:50px;"">Agent B","null","","","","",""
"null","","","video-keyboard-response","485","1048684","0.0-485.0","jcp60qol","","","null","","Agent B","veridical","STIM_SET_1/285994.bmp_pp92_L3_V1.0_veridical_freeview_isoFalse.mp4",""
"","","","call-function","486","1048685","0.0-486.0","jcp60qol","","","","","","","",""
"3292.869999999879","{""judgement"":1}","[0]","survey-likert","487","1051978","0.0-487.0","jcp60qol","","","","","","","","1"
"1173.4749999998603","{""confidence"":0}","[0]","survey-likert","488","1053153","0.0-488.0","jcp60qol","","","","","","","",""
"","","","call-function","489","1053154","0.0-489.0","jcp60qol","","","","","","","",""
"null","","","html-keyboard-response","490","1054657","0.0-490.0","jcp60qol","","<span style=""color:Black; font-size:50px;"">Agent A","null","","","","",""
"null","","","video-keyboard-response","491","1057726","0.0-491.0","jcp60qol","","","null","","Agent A","scrambled","STIM_SET_1/498170.bmp_pp153_L3_V1.0_scrambled_freeview_isoFalse.mp4",""
"null","","","html-keyboard-response","492","1059229","0.0-492.0","jcp60qol","","<span style=""color:Black; font-size:50px;"">Agent B","null","","","","",""
"null","","","video-keyboard-response","493","1062300","0.0-493.0","jcp60qol","","","null","","Agent B","veridical","STIM_SET_1/498170.bmp_pp153_L3_V1.0_veridical_freeview_isoFalse.mp4",""
"","","","call-function","494","1062300","0.0-494.0","jcp60qol","","","","","","","",""
"1578.8850000000093","{""judgement"":0}","[0]","survey-likert","495","1063880","0.0-495.0","jcp60qol","","","","","","","","1"
"1961.5349999999162","{""confidence"":1}","[0]","survey-likert","496","1065843","0.0-496.0","jcp60qol","","","","","","","",""
"2060.2450000001118","","","instructions","497","1067904","0.0-497.0","jcp60qol","[{""page_index"":0,""viewing_time"":830.1000000000931},{""page_index"":1,""viewing_time"":641.0100000000093},{""page_index"":2,""viewing_time"":588.9350000000559}]","","","","","","",""
"1924.5400000000373","","","instructions","498","1069829","0.0-498.0","jcp60qol","[{""page_index"":0,""viewing_time"":699.6699999999255},{""page_index"":1,""viewing_time"":501.69999999995343},{""page_index"":2,""viewing_time"":722.9600000001956}]","","","","","","",""
"","","","call-function","499","1069829","0.0-499.0","jcp60qol","","","","","","","",""
"null","","","html-keyboard-response","500","1071331","0.0-500.0","jcp60qol","","<span style=""color:Black; font-size:50px;"">Agent A","null","","","","",""
"null","","","video-keyboard-response","501","1074423","0.0-501.0","jcp60qol","","","null","","Agent A","veridical","STIM_SET_1/713684.bmp_pp85_L3_V1.0_veridical_freeview_isoFalse.mp4",""
"null","","","html-keyboard-response","502","1075927","0.0-502.0","jcp60qol","","<span style=""color:Black; font-size:50px;"">Agent B","null","","","","",""
"null","","","video-keyboard-response","503","1079020","0.0-503.0","jcp60qol","","","null","","Agent B","scrambled","STIM_SET_1/713684.bmp_pp85_L3_V1.0_scrambled_freeview_isoFalse.mp4",""
"","","","call-function","504","1079021","0.0-504.0","jcp60qol","","","","","","","",""
"2690.320000000065","{""judgement"":1}","[0]","survey-likert","505","1081712","0.0-505.0","jcp60qol","","","","","","","","0"
"1298.1149999999907","{""confidence"":1}","[0]","survey-likert","506","1083011","0.0-506.0","jcp60qol","","","","","","","",""
"","","","call-function","507","1083012","0.0-507.0","jcp60qol","","","","","","","",""
"null","","","html-keyboard-response","508","1084515","0.0-508.0","jcp60qol","","<span style=""color:Black; font-size:50px;"">Agent A","null","","","","",""
"null","","","video-keyboard-response","509","1087596","0.0-509.0","jcp60qol","","","null","","Agent A","veridical","STIM_SET_1/713707.bmp_pp154_L1_V1.0_veridical_freeview_isoFalse.mp4",""
"null","","","html-keyboard-response","510","1089102","0.0-510.0","jcp60qol","","<span style=""color:Black; font-size:50px;"">Agent B","null","","","","",""
"null","","","video-keyboard-response","511","1092185","0.0-511.0","jcp60qol","","","null","","Agent B","scrambled","STIM_SET_1/713707.bmp_pp154_L1_V1.0_scrambled_freeview_isoFalse.mp4",""
"","","","call-function","512","1092185","0.0-512.0","jcp60qol","","","","","","","",""
"1878.0400000000373","{""judgement"":0}","[0]","survey-likert","513","1094064","0.0-513.0","jcp60qol","","","","","","","","0"
"1848.6699999999255","{""confidence"":0}","[0]","survey-likert","514","1095914","0.0-514.0","jcp60qol","","","","","","","",""
"","","","call-function","515","1095914","0.0-515.0","jcp60qol","","","","","","","",""
"null","","","html-keyboard-response","516","1097419","0.0-516.0","jcp60qol","","<span style=""color:Black; font-size:50px;"">Agent A","null","","","","",""
"null","","","video-keyboard-response","517","1100529","0.0-517.0","jcp60qol","","","null","","Agent A","veridical","STIM_SET_1/1592619.bmp_pp56_L3_V1.0_veridical_freeview_isoFalse.mp4",""
"null","","","html-keyboard-response","518","1102034","0.0-518.0","jcp60qol","","<span style=""color:Black; font-size:50px;"">Agent B","null","","","","",""
"null","","","video-keyboard-response","519","1105140","0.0-519.0","jcp60qol","","","null","","Agent B","scrambled","STIM_SET_1/1592619.bmp_pp56_L3_V1.0_scrambled_freeview_isoFalse.mp4",""
"","","","call-function","520","1105140","0.0-520.0","jcp60qol","","","","","","","",""
"1930.344999999972","{""judgement"":1}","[0]","survey-likert","521","1107072","0.0-521.0","jcp60qol","","","","","","","","0"
"1733","{""confidence"":0}","[0]","survey-likert","522","1108806","0.0-522.0","jcp60qol","","","","","","","",""
"","","","call-function","523","1108807","0.0-523.0","jcp60qol","","","","","","","",""
"null","","","html-keyboard-response","524","1110313","0.0-524.0","jcp60qol","","<span style=""color:Black; font-size:50px;"">Agent A","null","","","","",""
"null","","","video-keyboard-response","525","1113387","0.0-525.0","jcp60qol","","","null","","Agent A","scrambled","STIM_SET_1/1592362.bmp_pp95_L2_V1.0_scrambled_freeview_isoFalse.mp4",""
"null","","","html-keyboard-response","526","1114890","0.0-526.0","jcp60qol","","<span style=""color:Black; font-size:50px;"">Agent B","null","","","","",""
"null","","","video-keyboard-response","527","1117964","0.0-527.0","jcp60qol","","","null","","Agent B","veridical","STIM_SET_1/1592362.bmp_pp95_L2_V1.0_veridical_freeview_isoFalse.mp4",""
"","","","call-function","528","1117965","0.0-528.0","jcp60qol","","","","","","","",""
"1877.4199999999255","{""judgement"":1}","[0]","survey-likert","529","1119843","0.0-529.0","jcp60qol","","","","","","","","1"
"1794.9749999998603","{""confidence"":2}","[0]","survey-likert","530","1121639","0.0-530.0","jcp60qol","","","","","","","",""
"","","","call-function","531","1121640","0.0-531.0","jcp60qol","","","","","","","",""
"null","","","html-keyboard-response","532","1123143","0.0-532.0","jcp60qol","","<span style=""color:Black; font-size:50px;"">Agent A","null","","","","",""
"null","","","video-keyboard-response","533","1126224","0.0-533.0","jcp60qol","","","null","","Agent A","scrambled","STIM_SET_1/1591876.bmp_pp63_L1_V1.0_scrambled_freeview_isoFalse.mp4",""
"null","","","html-keyboard-response","534","1127730","0.0-534.0","jcp60qol","","<span style=""color:Black; font-size:50px;"">Agent B","null","","","","",""
"null","","","video-keyboard-response","535","1130806","0.0-535.0","jcp60qol","","","null","","Agent B","veridical","STIM_SET_1/1591876.bmp_pp63_L1_V1.0_veridical_freeview_isoFalse.mp4",""
"","","","call-function","536","1130806","0.0-536.0","jcp60qol","","","","","","","",""
"1611.3700000001118","{""judgement"":1}","[0]","survey-likert","537","1132418","0.0-537.0","jcp60qol","","","","","","","","1"
"1367.0400000000373","{""confidence"":2}","[0]","survey-likert","538","1133786","0.0-538.0","jcp60qol","","","","","","","",""
"","","","call-function","539","1133787","0.0-539.0","jcp60qol","","","","","","","",""
"null","","","html-keyboard-response","540","1135288","0.0-540.0","jcp60qol","","<span style=""color:Black; font-size:50px;"">Agent A","null","","","","",""
"null","","","video-keyboard-response","541","1138368","0.0-541.0","jcp60qol","","","null","","Agent A","scrambled","STIM_SET_1/1591961.bmp_pp67_L2_V1.0_scrambled_freeview_isoFalse.mp4",""
"null","","","html-keyboard-response","542","1139873","0.0-542.0","jcp60qol","","<span style=""color:Black; font-size:50px;"">Agent B","null","","","","",""
"null","","","video-keyboard-response","543","1142998","0.0-543.0","jcp60qol","","","null","","Agent B","veridical","STIM_SET_1/1591961.bmp_pp67_L2_V1.0_veridical_freeview_isoFalse.mp4",""
"","","","call-function","544","1142999","0.0-544.0","jcp60qol","","","","","","","",""
"2484.679999999935","{""judgement"":0}","[0]","survey-likert","545","1145484","0.0-545.0","jcp60qol","","","","","","","","1"
"1194.9150000000373","{""confidence"":1}","[0]","survey-likert","546","1146680","0.0-546.0","jcp60qol","","","","","","","",""
"","","","call-function","547","1146681","0.0-547.0","jcp60qol","","","","","","","",""
"null","","","html-keyboard-response","548","1148183","0.0-548.0","jcp60qol","","<span style=""color:Black; font-size:50px;"">Agent A","null","","","","",""
"null","","","video-keyboard-response","549","1151284","0.0-549.0","jcp60qol","","","null","","Agent A","scrambled","STIM_SET_1/286001.bmp_pp54_L2_V1.0_scrambled_freeview_isoFalse.mp4",""
"null","","","html-keyboard-response","550","1152789","0.0-550.0","jcp60qol","","<span style=""color:Black; font-size:50px;"">Agent B","null","","","","",""
"null","","","video-keyboard-response","551","1155852","0.0-551.0","jcp60qol","","","null","","Agent B","veridical","STIM_SET_1/286001.bmp_pp54_L2_V1.0_veridical_freeview_isoFalse.mp4",""
"","","","call-function","552","1155853","0.0-552.0","jcp60qol","","","","","","","",""
"1532.6700000001583","{""judgement"":1}","[0]","survey-likert","553","1157388","0.0-553.0","jcp60qol","","","","","","","","1"
"1724.1000000000931","{""confidence"":2}","[0]","survey-likert","554","1159115","0.0-554.0","jcp60qol","","","","","","","",""
"","","","call-function","555","1159116","0.0-555.0","jcp60qol","","","","","","","",""
"null","","","html-keyboard-response","556","1160623","0.0-556.0","jcp60qol","","<span style=""color:Black; font-size:50px;"">Agent A","null","","","","",""
"null","","","video-keyboard-response","557","1163704","0.0-557.0","jcp60qol","","","null","","Agent A","veridical","STIM_SET_1/1159675.bmp_pp77_L3_V1.0_veridical_freeview_isoFalse.mp4",""
"null","","","html-keyboard-response","558","1165207","0.0-558.0","jcp60qol","","<span style=""color:Black; font-size:50px;"">Agent B","null","","","","",""
"null","","","video-keyboard-response","559","1168292","0.0-559.0","jcp60qol","","","null","","Agent B","scrambled","STIM_SET_1/1159675.bmp_pp77_L3_V1.0_scrambled_freeview_isoFalse.mp4",""
"","","","call-function","560","1168293","0.0-560.0","jcp60qol","","","","","","","",""
"3929.440000000177","{""judgement"":0}","[0]","survey-likert","561","1172223","0.0-561.0","jcp60qol","","","","","","","","0"
"1233.9250000000466","{""confidence"":0}","[0]","survey-likert","562","1173459","0.0-562.0","jcp60qol","","","","","","","",""
"","","","call-function","563","1173459","0.0-563.0","jcp60qol","","","","","","","",""
"null","","","html-keyboard-response","564","1174962","0.0-564.0","jcp60qol","","<span style=""color:Black; font-size:50px;"">Agent A","null","","","","",""
"null","","","video-keyboard-response","565","1178025","0.0-565.0","jcp60qol","","","null","","Agent A","veridical","STIM_SET_1/713760.bmp_pp81_L1_V1.0_veridical_freeview_isoFalse.mp4",""
"null","","","html-keyboard-response","566","1179529","0.0-566.0","jcp60qol","","<span style=""color:Black; font-size:50px;"">Agent B","null","","","","",""
"null","","","video-keyboard-response","567","1182593","0.0-567.0","jcp60qol","","","null","","Agent B","scrambled","STIM_SET_1/713760.bmp_pp81_L1_V1.0_scrambled_freeview_isoFalse.mp4",""
"","","","call-function","568","1182594","0.0-568.0","jcp60qol","","","","","","","",""
"1352.4499999999534","{""judgement"":1}","[0]","survey-likert","569","1183947","0.0-569.0","jcp60qol","","","","","","","","0"
"1892.3249999999534","{""confidence"":1}","[0]","survey-likert","570","1185841","0.0-570.0","jcp60qol","","","","","","","",""
"","","","call-function","571","1185841","0.0-571.0","jcp60qol","","","","","","","",""
"null","","","html-keyboard-response","572","1187345","0.0-572.0","jcp60qol","","<span style=""color:Black; font-size:50px;"">Agent A","null","","","","",""
"null","","","video-keyboard-response","573","1190466","0.0-573.0","jcp60qol","","","null","","Agent A","scrambled","STIM_SET_1/1592372.bmp_pp76_L1_V1.0_scrambled_freeview_isoFalse.mp4",""
"null","","","html-keyboard-response","574","1191968","0.0-574.0","jcp60qol","","<span style=""color:Black; font-size:50px;"">Agent B","null","","","","",""
"null","","","video-keyboard-response","575","1195086","0.0-575.0","jcp60qol","","","null","","Agent B","veridical","STIM_SET_1/1592372.bmp_pp76_L1_V1.0_veridical_freeview_isoFalse.mp4",""
"","","","call-function","576","1195086","0.0-576.0","jcp60qol","","","","","","","",""
"1490.969999999972","{""judgement"":1}","[0]","survey-likert","577","1196578","0.0-577.0","jcp60qol","","","","","","","","1"
"1019.0649999999441","{""confidence"":1}","[0]","survey-likert","578","1197599","0.0-578.0","jcp60qol","","","","","","","",""
"3108.784999999916","","","instructions","579","1200708","0.0-579.0","jcp60qol","[{""page_index"":0,""viewing_time"":3108.655000000028}]","","","","","","",""
"3089.4749999998603","","","instructions","580","1203798","0.0-580.0","jcp60qol","[{""page_index"":0,""viewing_time"":3089.369999999879}]","","","","","","",""
"10762","{""post-1"":2}","[0]","survey-likert","581","1214561","0.0-581.0","jcp60qol","","","","","","","",""
"7235.854999999981","{""post-1"":0}","[0]","survey-likert","582","1221798","0.0-582.0","jcp60qol","","","","","","","",""
"12236.755000000121","{""post-2"":1}","[0]","survey-likert","583","1234036","0.0-583.0","jcp60qol","","","","","","","",""
"4752.090000000084","{""post-2"":0}","[0]","survey-likert","584","1238789","0.0-584.0","jcp60qol","","","","","","","",""
"6564.9199999999255","{""post-3"":1}","[0]","survey-likert","585","1245355","0.0-585.0","jcp60qol","","","","","","","",""
"1940.8100000000559","{""post-3"":0}","[0]","survey-likert","586","1247297","0.0-586.0","jcp60qol","","","","","","","",""
"5403.354999999981","{""post-4"":1}","[0]","survey-likert","587","1252702","0.0-587.0","jcp60qol","","","","","","","",""
"2398.5150000001304","{""post-4"":0}","[0]","survey-likert","588","1255101","0.0-588.0","jcp60qol","","","","","","","",""
"5365.989999999991","{""post-5"":1}","[0]","survey-likert","589","1260469","0.0-589.0","jcp60qol","","","","","","","",""
"2310.9199999999255","{""post-5"":2}","[0]","survey-likert","590","1262782","0.0-590.0","jcp60qol","","","","","","","",""
"118228.92499999981","{""Q0"":""Sometimes I couldn't tell the difference between the two, might an intentional part of the experiment?""}","","survey-text","591","1381017","0.0-591.0","jcp60qol","","","","","","","",""
"24395.189999999944","{""Q0"":""Faces and words are logical points of attention""}","","survey-text","592","1405415","0.0-592.0","jcp60qol","","","","","","","",""
"23152.679999999935","{""Q0"":""Telling the difference between images with only objects""}","","survey-text","593","1428571","0.0-593.0","jcp60qol","","","","","","","",""
"1648.815000000177","","","instructions","594","1430221","0.0-594.0","jcp60qol","[{""page_index"":0,""viewing_time"":1648.2600000000093}]","","","","","","",""
"42933.66000000015","{""Experimenter_end"":[""Printed ID# jcp60qol on consent form"",""Given subject SONA credit or payment"",""Given the subject debrief form""]}","[0]","survey-multi-select","595","1473157","0.0-595.0","jcp60qol","","","","","","","",""
