"rt","responses","question_order","trial_type","trial_index","time_elapsed","internal_node_id","ID","view_history","stimulus","key_press","value","agent","condition","image","correct_answer"
"23519.204999999998","{""Experimenter"":[""Confirmed subject's identity (ID card)"",""Confirmed normal or corrected-to-normal vision"",""Obtained consent (signature and date)"",""Checked the test room lighting"",""Checked computer screen lighting"",""Checked distance from screen to chin rest (50cm)"",""Cleaned and adjusted chin rest"",""Counterbalanced the order of the tasks"",""Opened the experiment in Firefox"",""Made the experiment full screen"",""Encouraged subject to silence phone, put away distractors, etc.""]}","[0]","survey-multi-select","0","23540","0.0-0.0","jd44aya5","","","","","","","",""
"13130.145","","","instructions","1","36673","0.0-1.0","jd44aya5","[{""page_index"":0,""viewing_time"":13129.969999999998}]","","","","","","",""
"14703.46","","","instructions","2","51378","0.0-2.0","jd44aya5","[{""page_index"":0,""viewing_time"":2732.290000000001},{""page_index"":1,""viewing_time"":8458.059999999998},{""page_index"":2,""viewing_time"":3512.9749999999985}]","","","","","","",""
"1322.6200000000026","","","instructions","3","52703","0.0-3.0","jd44aya5","[{""page_index"":0,""viewing_time"":1322.510000000002}]","","","","","","",""
"null","","","video-keyboard-response","4","55783","0.0-4.0","jd44aya5","","","null","","","","",""
"15131.204999999994","","","instructions","5","70915","0.0-5.0","jd44aya5","[{""page_index"":0,""viewing_time"":2705.0699999999997},{""page_index"":1,""viewing_time"":2435.0250000000015},{""page_index"":2,""viewing_time"":1491.8799999999974},{""page_index"":3,""viewing_time"":3792.1199999999953},{""page_index"":4,""viewing_time"":4706.975000000006}]","","","","","","",""
"5157.565000000002","","","instructions","6","76075","0.0-6.0","jd44aya5","[{""page_index"":0,""viewing_time"":5157.429999999993}]","","","","","","",""
"","","","call-function","7","76076","0.0-7.0","jd44aya5","","","","","","","",""
"null","","","html-keyboard-response","8","77580","0.0-8.0","jd44aya5","","<span style=""color:Black; font-size:50px;"">Agent A","null","","","","",""
"null","","","video-keyboard-response","9","80437","0.0-9.0","jd44aya5","","","null","","Agent A","scrambled","FOR_REV_BLOBBY_STIM/1591961.bmp_pp67_L2_V1.0_veridical_freeview_isoFalse_fps144_reversed_REAL.mp4",""
"null","","","html-keyboard-response","10","81942","0.0-10.0","jd44aya5","","<span style=""color:Black; font-size:50px;"">Agent B","null","","","","",""
"null","","","video-keyboard-response","11","84794","0.0-11.0","jd44aya5","","","null","","Agent B","veridical","FOR_REV_BLOBBY_STIM/1591961.bmp_pp67_L2_V1.0_veridical_freeview_isoFalse_fps144.mp4",""
"","","","call-function","12","84796","0.0-12.0","jd44aya5","","","","","","","",""
"2869.3650000000052","{""judgement"":0}","[0]","survey-likert","13","87667","0.0-13.0","jd44aya5","","","","","","","","1"
"1633.520000000004","{""confidence"":2}","[0]","survey-likert","14","89303","0.0-14.0","jd44aya5","","","","","","","",""
"","","","call-function","15","89304","0.0-15.0","jd44aya5","","","","","","","",""
"null","","","html-keyboard-response","16","90807","0.0-16.0","jd44aya5","","<span style=""color:Black; font-size:50px;"">Agent A","null","","","","",""
"null","","","video-keyboard-response","17","93719","0.0-17.0","jd44aya5","","","null","","Agent A","veridical","FOR_REV_BLOBBY_STIM/1593035.bmp_pp94_L2_V1.0_veridical_freeview_isoFalse_fps144.mp4",""
"null","","","html-keyboard-response","18","95227","0.0-18.0","jd44aya5","","<span style=""color:Black; font-size:50px;"">Agent B","null","","","","",""
"null","","","video-keyboard-response","19","98154","0.0-19.0","jd44aya5","","","null","","Agent B","scrambled","FOR_REV_BLOBBY_STIM/1593035.bmp_pp94_L2_V1.0_veridical_freeview_isoFalse_fps144_reversed_REAL.mp4",""
"","","","call-function","20","98156","0.0-20.0","jd44aya5","","","","","","","",""
"3378.054999999993","{""judgement"":1}","[0]","survey-likert","21","101536","0.0-21.0","jd44aya5","","","","","","","","0"
"1546.1000000000058","{""confidence"":3}","[0]","survey-likert","22","103085","0.0-22.0","jd44aya5","","","","","","","",""
"","","","call-function","23","103086","0.0-23.0","jd44aya5","","","","","","","",""
"null","","","html-keyboard-response","24","104589","0.0-24.0","jd44aya5","","<span style=""color:Black; font-size:50px;"">Agent A","null","","","","",""
"null","","","video-keyboard-response","25","107435","0.0-25.0","jd44aya5","","","null","","Agent A","scrambled","FOR_REV_BLOBBY_STIM/1592362.bmp_pp95_L2_V1.0_veridical_freeview_isoFalse_fps144_reversed_REAL.mp4",""
"null","","","html-keyboard-response","26","108940","0.0-26.0","jd44aya5","","<span style=""color:Black; font-size:50px;"">Agent B","null","","","","",""
"null","","","video-keyboard-response","27","111782","0.0-27.0","jd44aya5","","","null","","Agent B","veridical","FOR_REV_BLOBBY_STIM/1592362.bmp_pp95_L2_V1.0_veridical_freeview_isoFalse_fps144.mp4",""
"","","","call-function","28","111784","0.0-28.0","jd44aya5","","","","","","","",""
"2479.415000000008","{""judgement"":0}","[0]","survey-likert","29","114264","0.0-29.0","jd44aya5","","","","","","","","1"
"1523.4949999999953","{""confidence"":1}","[0]","survey-likert","30","115789","0.0-30.0","jd44aya5","","","","","","","",""
"","","","call-function","31","115791","0.0-31.0","jd44aya5","","","","","","","",""
"null","","","html-keyboard-response","32","117293","0.0-32.0","jd44aya5","","<span style=""color:Black; font-size:50px;"">Agent A","null","","","","",""
"null","","","video-keyboard-response","33","120032","0.0-33.0","jd44aya5","","","null","","Agent A","scrambled","FOR_REV_BLOBBY_STIM/1591954.bmp_pp62_L2_V1.0_veridical_freeview_isoFalse_fps144_reversed_REAL.mp4",""
"null","","","html-keyboard-response","34","121535","0.0-34.0","jd44aya5","","<span style=""color:Black; font-size:50px;"">Agent B","null","","","","",""
"null","","","video-keyboard-response","35","124321","0.0-35.0","jd44aya5","","","null","","Agent B","veridical","FOR_REV_BLOBBY_STIM/1591954.bmp_pp62_L2_V1.0_veridical_freeview_isoFalse_fps144.mp4",""
"","","","call-function","36","124322","0.0-36.0","jd44aya5","","","","","","","",""
"2966.165000000008","{""judgement"":0}","[0]","survey-likert","37","127289","0.0-37.0","jd44aya5","","","","","","","","1"
"1348.695000000007","{""confidence"":2}","[0]","survey-likert","38","128640","0.0-38.0","jd44aya5","","","","","","","",""
"","","","call-function","39","128642","0.0-39.0","jd44aya5","","","","","","","",""
"null","","","html-keyboard-response","40","130147","0.0-40.0","jd44aya5","","<span style=""color:Black; font-size:50px;"">Agent A","null","","","","",""
"null","","","video-keyboard-response","41","132982","0.0-41.0","jd44aya5","","","null","","Agent A","veridical","FOR_REV_BLOBBY_STIM/1159768.bmp_pp89_L1_V1.0_veridical_freeview_isoFalse_fps144.mp4",""
"null","","","html-keyboard-response","42","134489","0.0-42.0","jd44aya5","","<span style=""color:Black; font-size:50px;"">Agent B","null","","","","",""
"null","","","video-keyboard-response","43","137302","0.0-43.0","jd44aya5","","","null","","Agent B","scrambled","FOR_REV_BLOBBY_STIM/1159768.bmp_pp89_L1_V1.0_veridical_freeview_isoFalse_fps144_reversed_REAL.mp4",""
"","","","call-function","44","137304","0.0-44.0","jd44aya5","","","","","","","",""
"3766.639999999985","{""judgement"":1}","[0]","survey-likert","45","141072","0.0-45.0","jd44aya5","","","","","","","","0"
"1603.6049999999814","{""confidence"":3}","[0]","survey-likert","46","142679","0.0-46.0","jd44aya5","","","","","","","",""
"","","","call-function","47","142681","0.0-47.0","jd44aya5","","","","","","","",""
"null","","","html-keyboard-response","48","144183","0.0-48.0","jd44aya5","","<span style=""color:Black; font-size:50px;"">Agent A","null","","","","",""
"null","","","video-keyboard-response","49","146995","0.0-49.0","jd44aya5","","","null","","Agent A","scrambled","FOR_REV_BLOBBY_STIM/1592351.bmp_pp51_L1_V1.0_veridical_freeview_isoFalse_fps144_reversed_REAL.mp4",""
"null","","","html-keyboard-response","50","148501","0.0-50.0","jd44aya5","","<span style=""color:Black; font-size:50px;"">Agent B","null","","","","",""
"null","","","video-keyboard-response","51","151308","0.0-51.0","jd44aya5","","","null","","Agent B","veridical","FOR_REV_BLOBBY_STIM/1592351.bmp_pp51_L1_V1.0_veridical_freeview_isoFalse_fps144.mp4",""
"","","","call-function","52","151310","0.0-52.0","jd44aya5","","","","","","","",""
"1502.1050000000105","{""judgement"":1}","[0]","survey-likert","53","152813","0.0-53.0","jd44aya5","","","","","","","","1"
"1310.125","{""confidence"":1}","[0]","survey-likert","54","154126","0.0-54.0","jd44aya5","","","","","","","",""
"","","","call-function","55","154127","0.0-55.0","jd44aya5","","","","","","","",""
"null","","","html-keyboard-response","56","155634","0.0-56.0","jd44aya5","","<span style=""color:Black; font-size:50px;"">Agent A","null","","","","",""
"null","","","video-keyboard-response","57","158440","0.0-57.0","jd44aya5","","","null","","Agent A","veridical","FOR_REV_BLOBBY_STIM/1159440.bmp_pp98_L1_V1.0_veridical_freeview_isoFalse_fps144.mp4",""
"null","","","html-keyboard-response","58","159944","0.0-58.0","jd44aya5","","<span style=""color:Black; font-size:50px;"">Agent B","null","","","","",""
"null","","","video-keyboard-response","59","162809","0.0-59.0","jd44aya5","","","null","","Agent B","scrambled","FOR_REV_BLOBBY_STIM/1159440.bmp_pp98_L1_V1.0_veridical_freeview_isoFalse_fps144_reversed_REAL.mp4",""
"","","","call-function","60","162811","0.0-60.0","jd44aya5","","","","","","","",""
"1826.9550000000163","{""judgement"":0}","[0]","survey-likert","61","164638","0.0-61.0","jd44aya5","","","","","","","","0"
"1537.4449999999779","{""confidence"":3}","[0]","survey-likert","62","166178","0.0-62.0","jd44aya5","","","","","","","",""
"","","","call-function","63","166180","0.0-63.0","jd44aya5","","","","","","","",""
"null","","","html-keyboard-response","64","167686","0.0-64.0","jd44aya5","","<span style=""color:Black; font-size:50px;"">Agent A","null","","","","",""
"null","","","video-keyboard-response","65","170543","0.0-65.0","jd44aya5","","","null","","Agent A","scrambled","FOR_REV_BLOBBY_STIM/285933.bmp_pp81_L1_V1.0_veridical_freeview_isoFalse_fps144_reversed_REAL.mp4",""
"null","","","html-keyboard-response","66","172048","0.0-66.0","jd44aya5","","<span style=""color:Black; font-size:50px;"">Agent B","null","","","","",""
"null","","","video-keyboard-response","67","174849","0.0-67.0","jd44aya5","","","null","","Agent B","veridical","FOR_REV_BLOBBY_STIM/285933.bmp_pp81_L1_V1.0_veridical_freeview_isoFalse_fps144.mp4",""
"","","","call-function","68","174850","0.0-68.0","jd44aya5","","","","","","","",""
"1590.3299999999872","{""judgement"":1}","[0]","survey-likert","69","176442","0.0-69.0","jd44aya5","","","","","","","","1"
"1957.8849999999802","{""confidence"":2}","[0]","survey-likert","70","178402","0.0-70.0","jd44aya5","","","","","","","",""
"","","","call-function","71","178403","0.0-71.0","jd44aya5","","","","","","","",""
"null","","","html-keyboard-response","72","179905","0.0-72.0","jd44aya5","","<span style=""color:Black; font-size:50px;"">Agent A","null","","","","",""
"null","","","video-keyboard-response","73","182501","0.0-73.0","jd44aya5","","","null","","Agent A","scrambled","FOR_REV_BLOBBY_STIM/713760.bmp_pp81_L1_V1.0_veridical_freeview_isoFalse_fps144_reversed_REAL.mp4",""
"null","","","html-keyboard-response","74","184005","0.0-74.0","jd44aya5","","<span style=""color:Black; font-size:50px;"">Agent B","null","","","","",""
"null","","","video-keyboard-response","75","186621","0.0-75.0","jd44aya5","","","null","","Agent B","veridical","FOR_REV_BLOBBY_STIM/713760.bmp_pp81_L1_V1.0_veridical_freeview_isoFalse_fps144.mp4",""
"","","","call-function","76","186622","0.0-76.0","jd44aya5","","","","","","","",""
"1816.5450000000128","{""judgement"":0}","[0]","survey-likert","77","188440","0.0-77.0","jd44aya5","","","","","","","","1"
"1606.6549999999988","{""confidence"":2}","[0]","survey-likert","78","190049","0.0-78.0","jd44aya5","","","","","","","",""
"","","","call-function","79","190050","0.0-79.0","jd44aya5","","","","","","","",""
"null","","","html-keyboard-response","80","191554","0.0-80.0","jd44aya5","","<span style=""color:Black; font-size:50px;"">Agent A","null","","","","",""
"null","","","video-keyboard-response","81","194450","0.0-81.0","jd44aya5","","","null","","Agent A","veridical","FOR_REV_BLOBBY_STIM/497950.bmp_pp151_L1_V1.0_veridical_freeview_isoFalse_fps144.mp4",""
"null","","","html-keyboard-response","82","195959","0.0-82.0","jd44aya5","","<span style=""color:Black; font-size:50px;"">Agent B","null","","","","",""
"null","","","video-keyboard-response","83","198829","0.0-83.0","jd44aya5","","","null","","Agent B","scrambled","FOR_REV_BLOBBY_STIM/497950.bmp_pp151_L1_V1.0_veridical_freeview_isoFalse_fps144_reversed_REAL.mp4",""
"","","","call-function","84","198830","0.0-84.0","jd44aya5","","","","","","","",""
"4980.075000000012","{""judgement"":1}","[0]","survey-likert","85","203811","0.0-85.0","jd44aya5","","","","","","","","0"
"2955.375","{""confidence"":0}","[0]","survey-likert","86","206769","0.0-86.0","jd44aya5","","","","","","","",""
"10305.484999999986","","","instructions","87","217076","0.0-87.0","jd44aya5","[{""page_index"":0,""viewing_time"":971.8450000000012},{""page_index"":1,""viewing_time"":8541.204999999987},{""page_index"":2,""viewing_time"":792.0050000000047}]","","","","","","",""
"4116.944999999978","","","instructions","88","221195","0.0-88.0","jd44aya5","[{""page_index"":0,""viewing_time"":1033},{""page_index"":1,""viewing_time"":2293.014999999985},{""page_index"":2,""viewing_time"":790.8150000000023}]","","","","","","",""
"","","","call-function","89","221196","0.0-89.0","jd44aya5","","","","","","","",""
"null","","","html-keyboard-response","90","222701","0.0-90.0","jd44aya5","","<span style=""color:Black; font-size:50px;"">Agent A","null","","","","",""
"null","","","video-keyboard-response","91","225490","0.0-91.0","jd44aya5","","","null","","Agent A","veridical","FOR_REV_BLOBBY_STIM/1591994.bmp_pp69_L3_V1.0_veridical_freeview_isoFalse_fps144.mp4",""
"null","","","html-keyboard-response","92","226993","0.0-92.0","jd44aya5","","<span style=""color:Black; font-size:50px;"">Agent B","null","","","","",""
"null","","","video-keyboard-response","93","229771","0.0-93.0","jd44aya5","","","null","","Agent B","scrambled","FOR_REV_BLOBBY_STIM/1591994.bmp_pp69_L3_V1.0_veridical_freeview_isoFalse_fps144_reversed_REAL.mp4",""
"","","","call-function","94","229773","0.0-94.0","jd44aya5","","","","","","","",""
"1875.2449999999953","{""judgement"":0}","[0]","survey-likert","95","231649","0.0-95.0","jd44aya5","","","","","","","","0"
"1695.179999999993","{""confidence"":3}","[0]","survey-likert","96","233346","0.0-96.0","jd44aya5","","","","","","","",""
"","","","call-function","97","233348","0.0-97.0","jd44aya5","","","","","","","",""
"null","","","html-keyboard-response","98","234851","0.0-98.0","jd44aya5","","<span style=""color:Black; font-size:50px;"">Agent A","null","","","","",""
"null","","","video-keyboard-response","99","237570","0.0-99.0","jd44aya5","","","null","","Agent A","scrambled","FOR_REV_BLOBBY_STIM/1592817.bmp_pp55_L3_V1.0_veridical_freeview_isoFalse_fps144_reversed_REAL.mp4",""
"null","","","html-keyboard-response","100","239075","0.0-100.0","jd44aya5","","<span style=""color:Black; font-size:50px;"">Agent B","null","","","","",""
"null","","","video-keyboard-response","101","241845","0.0-101.0","jd44aya5","","","null","","Agent B","veridical","FOR_REV_BLOBBY_STIM/1592817.bmp_pp55_L3_V1.0_veridical_freeview_isoFalse_fps144.mp4",""
"","","","call-function","102","241847","0.0-102.0","jd44aya5","","","","","","","",""
"2183.155000000028","{""judgement"":1}","[0]","survey-likert","103","244031","0.0-103.0","jd44aya5","","","","","","","","1"
"1692.664999999979","{""confidence"":2}","[0]","survey-likert","104","245736","0.0-104.0","jd44aya5","","","","","","","",""
"","","","call-function","105","245737","0.0-105.0","jd44aya5","","","","","","","",""
"null","","","html-keyboard-response","106","247241","0.0-106.0","jd44aya5","","<span style=""color:Black; font-size:50px;"">Agent A","null","","","","",""
"null","","","video-keyboard-response","107","250004","0.0-107.0","jd44aya5","","","null","","Agent A","veridical","FOR_REV_BLOBBY_STIM/1159446.bmp_pp60_L3_V1.0_veridical_freeview_isoFalse_fps144.mp4",""
"null","","","html-keyboard-response","108","251512","0.0-108.0","jd44aya5","","<span style=""color:Black; font-size:50px;"">Agent B","null","","","","",""
"null","","","video-keyboard-response","109","254259","0.0-109.0","jd44aya5","","","null","","Agent B","scrambled","FOR_REV_BLOBBY_STIM/1159446.bmp_pp60_L3_V1.0_veridical_freeview_isoFalse_fps144_reversed_REAL.mp4",""
"","","","call-function","110","254261","0.0-110.0","jd44aya5","","","","","","","",""
"1860.7250000000058","{""judgement"":0}","[0]","survey-likert","111","256123","0.0-111.0","jd44aya5","","","","","","","","0"
"1336.875","{""confidence"":3}","[0]","survey-likert","112","257463","0.0-112.0","jd44aya5","","","","","","","",""
"","","","call-function","113","257465","0.0-113.0","jd44aya5","","","","","","","",""
"null","","","html-keyboard-response","114","258967","0.0-114.0","jd44aya5","","<span style=""color:Black; font-size:50px;"">Agent A","null","","","","",""
"null","","","video-keyboard-response","115","260594","0.0-115.0","jd44aya5","","","null","","Agent A","veridical","FOR_REV_BLOBBY_STIM/713684.bmp_pp85_L3_V1.0_veridical_freeview_isoFalse_fps144.mp4",""
"null","","","html-keyboard-response","116","262097","0.0-116.0","jd44aya5","","<span style=""color:Black; font-size:50px;"">Agent B","null","","","","",""
"null","","","video-keyboard-response","117","263684","0.0-117.0","jd44aya5","","","null","","Agent B","scrambled","FOR_REV_BLOBBY_STIM/713684.bmp_pp85_L3_V1.0_veridical_freeview_isoFalse_fps144_reversed_REAL.mp4",""
"","","","call-function","118","263686","0.0-118.0","jd44aya5","","","","","","","",""
"2103.8349999999627","{""judgement"":1}","[0]","survey-likert","119","265791","0.0-119.0","jd44aya5","","","","","","","","0"
"1658.2600000000093","{""confidence"":0}","[0]","survey-likert","120","267453","0.0-120.0","jd44aya5","","","","","","","",""
"","","","call-function","121","267455","0.0-121.0","jd44aya5","","","","","","","",""
"null","","","html-keyboard-response","122","268961","0.0-122.0","jd44aya5","","<span style=""color:Black; font-size:50px;"">Agent A","null","","","","",""
"null","","","video-keyboard-response","123","271635","0.0-123.0","jd44aya5","","","null","","Agent A","veridical","FOR_REV_BLOBBY_STIM/498149.bmp_pp99_L2_V1.0_veridical_freeview_isoFalse_fps144.mp4",""
"null","","","html-keyboard-response","124","273139","0.0-124.0","jd44aya5","","<span style=""color:Black; font-size:50px;"">Agent B","null","","","","",""
"null","","","video-keyboard-response","125","275777","0.0-125.0","jd44aya5","","","null","","Agent B","scrambled","FOR_REV_BLOBBY_STIM/498149.bmp_pp99_L2_V1.0_veridical_freeview_isoFalse_fps144_reversed_REAL.mp4",""
"","","","call-function","126","275779","0.0-126.0","jd44aya5","","","","","","","",""
"3126.710000000021","{""judgement"":0}","[0]","survey-likert","127","278906","0.0-127.0","jd44aya5","","","","","","","","0"
"1462.2999999999884","{""confidence"":2}","[0]","survey-likert","128","280372","0.0-128.0","jd44aya5","","","","","","","",""
"","","","call-function","129","280373","0.0-129.0","jd44aya5","","","","","","","",""
"null","","","html-keyboard-response","130","281878","0.0-130.0","jd44aya5","","<span style=""color:Black; font-size:50px;"">Agent A","null","","","","",""
"null","","","video-keyboard-response","131","284710","0.0-131.0","jd44aya5","","","null","","Agent A","veridical","FOR_REV_BLOBBY_STIM/1159777.bmp_pp77_L3_V1.0_veridical_freeview_isoFalse_fps144.mp4",""
"null","","","html-keyboard-response","132","286214","0.0-132.0","jd44aya5","","<span style=""color:Black; font-size:50px;"">Agent B","null","","","","",""
"null","","","video-keyboard-response","133","289032","0.0-133.0","jd44aya5","","","null","","Agent B","scrambled","FOR_REV_BLOBBY_STIM/1159777.bmp_pp77_L3_V1.0_veridical_freeview_isoFalse_fps144_reversed_REAL.mp4",""
"","","","call-function","134","289034","0.0-134.0","jd44aya5","","","","","","","",""
"1424.384999999951","{""judgement"":0}","[0]","survey-likert","135","290459","0.0-135.0","jd44aya5","","","","","","","","0"
"1897.2699999999604","{""confidence"":3}","[0]","survey-likert","136","292359","0.0-136.0","jd44aya5","","","","","","","",""
"","","","call-function","137","292360","0.0-137.0","jd44aya5","","","","","","","",""
"null","","","html-keyboard-response","138","293864","0.0-138.0","jd44aya5","","<span style=""color:Black; font-size:50px;"">Agent A","null","","","","",""
"null","","","video-keyboard-response","139","296717","0.0-139.0","jd44aya5","","","null","","Agent A","veridical","FOR_REV_BLOBBY_STIM/1592286.bmp_pp52_L1_V1.0_veridical_freeview_isoFalse_fps144.mp4",""
"null","","","html-keyboard-response","140","298220","0.0-140.0","jd44aya5","","<span style=""color:Black; font-size:50px;"">Agent B","null","","","","",""
"null","","","video-keyboard-response","141","301071","0.0-141.0","jd44aya5","","","null","","Agent B","scrambled","FOR_REV_BLOBBY_STIM/1592286.bmp_pp52_L1_V1.0_veridical_freeview_isoFalse_fps144_reversed_REAL.mp4",""
"","","","call-function","142","301073","0.0-142.0","jd44aya5","","","","","","","",""
"2886.9649999999674","{""judgement"":0}","[0]","survey-likert","143","303960","0.0-143.0","jd44aya5","","","","","","","","0"
"1618.2600000000093","{""confidence"":3}","[0]","survey-likert","144","305581","0.0-144.0","jd44aya5","","","","","","","",""
"","","","call-function","145","305582","0.0-145.0","jd44aya5","","","","","","","",""
"null","","","html-keyboard-response","146","307086","0.0-146.0","jd44aya5","","<span style=""color:Black; font-size:50px;"">Agent A","null","","","","",""
"null","","","video-keyboard-response","147","309945","0.0-147.0","jd44aya5","","","null","","Agent A","scrambled","FOR_REV_BLOBBY_STIM/713403.bmp_pp80_L3_V1.0_veridical_freeview_isoFalse_fps144_reversed_REAL.mp4",""
"null","","","html-keyboard-response","148","311452","0.0-148.0","jd44aya5","","<span style=""color:Black; font-size:50px;"">Agent B","null","","","","",""
"null","","","video-keyboard-response","149","314307","0.0-149.0","jd44aya5","","","null","","Agent B","veridical","FOR_REV_BLOBBY_STIM/713403.bmp_pp80_L3_V1.0_veridical_freeview_isoFalse_fps144.mp4",""
"","","","call-function","150","314308","0.0-150.0","jd44aya5","","","","","","","",""
"2915.930000000051","{""judgement"":1}","[0]","survey-likert","151","317225","0.0-151.0","jd44aya5","","","","","","","","1"
"1220.9099999999744","{""confidence"":1}","[0]","survey-likert","152","318448","0.0-152.0","jd44aya5","","","","","","","",""
"","","","call-function","153","318450","0.0-153.0","jd44aya5","","","","","","","",""
"null","","","html-keyboard-response","154","319952","0.0-154.0","jd44aya5","","<span style=""color:Black; font-size:50px;"">Agent A","null","","","","",""
"null","","","video-keyboard-response","155","322716","0.0-155.0","jd44aya5","","","null","","Agent A","veridical","FOR_REV_BLOBBY_STIM/498111.bmp_pp88_L2_V1.0_veridical_freeview_isoFalse_fps144.mp4",""
"null","","","html-keyboard-response","156","324224","0.0-156.0","jd44aya5","","<span style=""color:Black; font-size:50px;"">Agent B","null","","","","",""
"null","","","video-keyboard-response","157","327011","0.0-157.0","jd44aya5","","","null","","Agent B","scrambled","FOR_REV_BLOBBY_STIM/498111.bmp_pp88_L2_V1.0_veridical_freeview_isoFalse_fps144_reversed_REAL.mp4",""
"","","","call-function","158","327013","0.0-158.0","jd44aya5","","","","","","","",""
"2302.914999999979","{""judgement"":1}","[0]","survey-likert","159","329317","0.0-159.0","jd44aya5","","","","","","","","0"
"1605.155000000028","{""confidence"":0}","[0]","survey-likert","160","330924","0.0-160.0","jd44aya5","","","","","","","",""
"","","","call-function","161","330926","0.0-161.0","jd44aya5","","","","","","","",""
"null","","","html-keyboard-response","162","332428","0.0-162.0","jd44aya5","","<span style=""color:Black; font-size:50px;"">Agent A","null","","","","",""
"null","","","video-keyboard-response","163","335278","0.0-163.0","jd44aya5","","","null","","Agent A","scrambled","FOR_REV_BLOBBY_STIM/713017.bmp_pp152_L2_V1.0_veridical_freeview_isoFalse_fps144_reversed_REAL.mp4",""
"null","","","html-keyboard-response","164","336786","0.0-164.0","jd44aya5","","<span style=""color:Black; font-size:50px;"">Agent B","null","","","","",""
"null","","","video-keyboard-response","165","339636","0.0-165.0","jd44aya5","","","null","","Agent B","veridical","FOR_REV_BLOBBY_STIM/713017.bmp_pp152_L2_V1.0_veridical_freeview_isoFalse_fps144.mp4",""
"","","","call-function","166","339637","0.0-166.0","jd44aya5","","","","","","","",""
"1767.6300000000047","{""judgement"":1}","[0]","survey-likert","167","341406","0.0-167.0","jd44aya5","","","","","","","","1"
"1222.0999999999767","{""confidence"":3}","[0]","survey-likert","168","342630","0.0-168.0","jd44aya5","","","","","","","",""
"26604.070000000007","","","instructions","169","369236","0.0-169.0","jd44aya5","[{""page_index"":0,""viewing_time"":1435.8699999999953},{""page_index"":1,""viewing_time"":23835.640000000014},{""page_index"":2,""viewing_time"":1332.210000000021}]","","","","","","",""
"6728.949999999953","","","instructions","170","375966","0.0-170.0","jd44aya5","[{""page_index"":0,""viewing_time"":2944.094999999972},{""page_index"":1,""viewing_time"":2692.7249999999767},{""page_index"":2,""viewing_time"":1092.0200000000186}]","","","","","","",""
"","","","call-function","171","375968","0.0-171.0","jd44aya5","","","","","","","",""
"null","","","html-keyboard-response","172","377471","0.0-172.0","jd44aya5","","<span style=""color:Black; font-size:50px;"">Agent A","null","","","","",""
"null","","","video-keyboard-response","173","380357","0.0-173.0","jd44aya5","","","null","","Agent A","veridical","FOR_REV_BLOBBY_STIM/1592657.bmp_pp98_L1_V1.0_veridical_freeview_isoFalse_fps144.mp4",""
"null","","","html-keyboard-response","174","381864","0.0-174.0","jd44aya5","","<span style=""color:Black; font-size:50px;"">Agent B","null","","","","",""
"null","","","video-keyboard-response","175","384725","0.0-175.0","jd44aya5","","","null","","Agent B","scrambled","FOR_REV_BLOBBY_STIM/1592657.bmp_pp98_L1_V1.0_veridical_freeview_isoFalse_fps144_reversed_REAL.mp4",""
"","","","call-function","176","384726","0.0-176.0","jd44aya5","","","","","","","",""
"2320.75","{""judgement"":0}","[0]","survey-likert","177","387048","0.0-177.0","jd44aya5","","","","","","","","0"
"1307.25","{""confidence"":3}","[0]","survey-likert","178","388359","0.0-178.0","jd44aya5","","","","","","","",""
"","","","call-function","179","388360","0.0-179.0","jd44aya5","","","","","","","",""
"null","","","html-keyboard-response","180","389863","0.0-180.0","jd44aya5","","<span style=""color:Black; font-size:50px;"">Agent A","null","","","","",""
"null","","","video-keyboard-response","181","392648","0.0-181.0","jd44aya5","","","null","","Agent A","veridical","FOR_REV_BLOBBY_STIM/1159621.bmp_pp92_L3_V1.0_veridical_freeview_isoFalse_fps144.mp4",""
"null","","","html-keyboard-response","182","394150","0.0-182.0","jd44aya5","","<span style=""color:Black; font-size:50px;"">Agent B","null","","","","",""
"null","","","video-keyboard-response","183","396997","0.0-183.0","jd44aya5","","","null","","Agent B","scrambled","FOR_REV_BLOBBY_STIM/1159621.bmp_pp92_L3_V1.0_veridical_freeview_isoFalse_fps144_reversed_REAL.mp4",""
"","","","call-function","184","396999","0.0-184.0","jd44aya5","","","","","","","",""
"3609.8800000000047","{""judgement"":0}","[0]","survey-likert","185","400611","0.0-185.0","jd44aya5","","","","","","","","0"
"1427.5599999999977","{""confidence"":3}","[0]","survey-likert","186","402041","0.0-186.0","jd44aya5","","","","","","","",""
"","","","call-function","187","402044","0.0-187.0","jd44aya5","","","","","","","",""
"null","","","html-keyboard-response","188","403549","0.0-188.0","jd44aya5","","<span style=""color:Black; font-size:50px;"">Agent A","null","","","","",""
"null","","","video-keyboard-response","189","406232","0.0-189.0","jd44aya5","","","null","","Agent A","veridical","FOR_REV_BLOBBY_STIM/713779.bmp_pp152_L2_V1.0_veridical_freeview_isoFalse_fps144.mp4",""
"null","","","html-keyboard-response","190","407737","0.0-190.0","jd44aya5","","<span style=""color:Black; font-size:50px;"">Agent B","null","","","","",""
"null","","","video-keyboard-response","191","410358","0.0-191.0","jd44aya5","","","null","","Agent B","scrambled","FOR_REV_BLOBBY_STIM/713779.bmp_pp152_L2_V1.0_veridical_freeview_isoFalse_fps144_reversed_REAL.mp4",""
"","","","call-function","192","410360","0.0-192.0","jd44aya5","","","","","","","",""
"1633.9899999999907","{""judgement"":0}","[0]","survey-likert","193","411995","0.0-193.0","jd44aya5","","","","","","","","0"
"2343.444999999949","{""confidence"":1}","[0]","survey-likert","194","414341","0.0-194.0","jd44aya5","","","","","","","",""
"","","","call-function","195","414342","0.0-195.0","jd44aya5","","","","","","","",""
"null","","","html-keyboard-response","196","415844","0.0-196.0","jd44aya5","","<span style=""color:Black; font-size:50px;"">Agent A","null","","","","",""
"null","","","video-keyboard-response","197","418633","0.0-197.0","jd44aya5","","","null","","Agent A","scrambled","FOR_REV_BLOBBY_STIM/1592499.bmp_pp96_L2_V1.0_veridical_freeview_isoFalse_fps144_reversed_REAL.mp4",""
"null","","","html-keyboard-response","198","420136","0.0-198.0","jd44aya5","","<span style=""color:Black; font-size:50px;"">Agent B","null","","","","",""
"null","","","video-keyboard-response","199","422942","0.0-199.0","jd44aya5","","","null","","Agent B","veridical","FOR_REV_BLOBBY_STIM/1592499.bmp_pp96_L2_V1.0_veridical_freeview_isoFalse_fps144.mp4",""
"","","","call-function","200","422944","0.0-200.0","jd44aya5","","","","","","","",""
"1947.9499999999534","{""judgement"":1}","[0]","survey-likert","201","424893","0.0-201.0","jd44aya5","","","","","","","","1"
"1669.8249999999534","{""confidence"":0}","[0]","survey-likert","202","426565","0.0-202.0","jd44aya5","","","","","","","",""
"","","","call-function","203","426566","0.0-203.0","jd44aya5","","","","","","","",""
"null","","","html-keyboard-response","204","428073","0.0-204.0","jd44aya5","","<span style=""color:Black; font-size:50px;"">Agent A","null","","","","",""
"null","","","video-keyboard-response","205","430893","0.0-205.0","jd44aya5","","","null","","Agent A","scrambled","FOR_REV_BLOBBY_STIM/713620.bmp_pp65_L3_V1.0_veridical_freeview_isoFalse_fps144_reversed_REAL.mp4",""
"null","","","html-keyboard-response","206","432400","0.0-206.0","jd44aya5","","<span style=""color:Black; font-size:50px;"">Agent B","null","","","","",""
"null","","","video-keyboard-response","207","435226","0.0-207.0","jd44aya5","","","null","","Agent B","veridical","FOR_REV_BLOBBY_STIM/713620.bmp_pp65_L3_V1.0_veridical_freeview_isoFalse_fps144.mp4",""
"","","","call-function","208","435228","0.0-208.0","jd44aya5","","","","","","","",""
"1786.0449999999837","{""judgement"":1}","[0]","survey-likert","209","437016","0.0-209.0","jd44aya5","","","","","","","","1"
"1441.5350000000326","{""confidence"":1}","[0]","survey-likert","210","438460","0.0-210.0","jd44aya5","","","","","","","",""
"","","","call-function","211","438461","0.0-211.0","jd44aya5","","","","","","","",""
"null","","","html-keyboard-response","212","439963","0.0-212.0","jd44aya5","","<span style=""color:Black; font-size:50px;"">Agent A","null","","","","",""
"null","","","video-keyboard-response","213","442889","0.0-213.0","jd44aya5","","","null","","Agent A","veridical","FOR_REV_BLOBBY_STIM/285905.bmp_pp57_L1_V1.0_veridical_freeview_isoFalse_fps144.mp4",""
"null","","","html-keyboard-response","214","444392","0.0-214.0","jd44aya5","","<span style=""color:Black; font-size:50px;"">Agent B","null","","","","",""
"null","","","video-keyboard-response","215","447323","0.0-215.0","jd44aya5","","","null","","Agent B","scrambled","FOR_REV_BLOBBY_STIM/285905.bmp_pp57_L1_V1.0_veridical_freeview_isoFalse_fps144_reversed_REAL.mp4",""
"","","","call-function","216","447325","0.0-216.0","jd44aya5","","","","","","","",""
"1906.710000000021","{""judgement"":0}","[0]","survey-likert","217","449233","0.0-217.0","jd44aya5","","","","","","","","0"
"2190.1300000000047","{""confidence"":3}","[0]","survey-likert","218","451425","0.0-218.0","jd44aya5","","","","","","","",""
"","","","call-function","219","451426","0.0-219.0","jd44aya5","","","","","","","",""
"null","","","html-keyboard-response","220","452930","0.0-220.0","jd44aya5","","<span style=""color:Black; font-size:50px;"">Agent A","null","","","","",""
"null","","","video-keyboard-response","221","455563","0.0-221.0","jd44aya5","","","null","","Agent A","veridical","FOR_REV_BLOBBY_STIM/1593146.bmp_pp93_L1_V1.0_veridical_freeview_isoFalse_fps144.mp4",""
"null","","","html-keyboard-response","222","457067","0.0-222.0","jd44aya5","","<span style=""color:Black; font-size:50px;"">Agent B","null","","","","",""
"null","","","video-keyboard-response","223","459702","0.0-223.0","jd44aya5","","","null","","Agent B","scrambled","FOR_REV_BLOBBY_STIM/1593146.bmp_pp93_L1_V1.0_veridical_freeview_isoFalse_fps144_reversed_REAL.mp4",""
"","","","call-function","224","459703","0.0-224.0","jd44aya5","","","","","","","",""
"3393.024999999965","{""judgement"":0}","[0]","survey-likert","225","463097","0.0-225.0","jd44aya5","","","","","","","","0"
"1298.359999999986","{""confidence"":0}","[0]","survey-likert","226","464398","0.0-226.0","jd44aya5","","","","","","","",""
"","","","call-function","227","464401","0.0-227.0","jd44aya5","","","","","","","",""
"null","","","html-keyboard-response","228","465907","0.0-228.0","jd44aya5","","<span style=""color:Black; font-size:50px;"">Agent A","null","","","","",""
"null","","","video-keyboard-response","229","468786","0.0-229.0","jd44aya5","","","null","","Agent A","veridical","FOR_REV_BLOBBY_STIM/498253.bmp_pp67_L2_V1.0_veridical_freeview_isoFalse_fps144.mp4",""
"null","","","html-keyboard-response","230","470293","0.0-230.0","jd44aya5","","<span style=""color:Black; font-size:50px;"">Agent B","null","","","","",""
"null","","","video-keyboard-response","231","473136","0.0-231.0","jd44aya5","","","null","","Agent B","scrambled","FOR_REV_BLOBBY_STIM/498253.bmp_pp67_L2_V1.0_veridical_freeview_isoFalse_fps144_reversed_REAL.mp4",""
"","","","call-function","232","473138","0.0-232.0","jd44aya5","","","","","","","",""
"2314.594999999972","{""judgement"":0}","[0]","survey-likert","233","475453","0.0-233.0","jd44aya5","","","","","","","","0"
"1326.975000000035","{""confidence"":1}","[0]","survey-likert","234","476783","0.0-234.0","jd44aya5","","","","","","","",""
"","","","call-function","235","476784","0.0-235.0","jd44aya5","","","","","","","",""
"null","","","html-keyboard-response","236","478289","0.0-236.0","jd44aya5","","<span style=""color:Black; font-size:50px;"">Agent A","null","","","","",""
"null","","","video-keyboard-response","237","480972","0.0-237.0","jd44aya5","","","null","","Agent A","veridical","FOR_REV_BLOBBY_STIM/1592133.bmp_pp75_L1_V1.0_veridical_freeview_isoFalse_fps144.mp4",""
"null","","","html-keyboard-response","238","482475","0.0-238.0","jd44aya5","","<span style=""color:Black; font-size:50px;"">Agent B","null","","","","",""
"null","","","video-keyboard-response","239","485182","0.0-239.0","jd44aya5","","","null","","Agent B","scrambled","FOR_REV_BLOBBY_STIM/1592133.bmp_pp75_L1_V1.0_veridical_freeview_isoFalse_fps144_reversed_REAL.mp4",""
"","","","call-function","240","485184","0.0-240.0","jd44aya5","","","","","","","",""
"1905.7999999999884","{""judgement"":1}","[0]","survey-likert","241","487091","0.0-241.0","jd44aya5","","","","","","","","0"
"1537.1199999999953","{""confidence"":2}","[0]","survey-likert","242","488631","0.0-242.0","jd44aya5","","","","","","","",""
"","","","call-function","243","488632","0.0-243.0","jd44aya5","","","","","","","",""
"null","","","html-keyboard-response","244","490135","0.0-244.0","jd44aya5","","<span style=""color:Black; font-size:50px;"">Agent A","null","","","","",""
"null","","","video-keyboard-response","245","493006","0.0-245.0","jd44aya5","","","null","","Agent A","scrambled","FOR_REV_BLOBBY_STIM/1592804.bmp_pp91_L3_V1.0_veridical_freeview_isoFalse_fps144_reversed_REAL.mp4",""
"null","","","html-keyboard-response","246","494510","0.0-246.0","jd44aya5","","<span style=""color:Black; font-size:50px;"">Agent B","null","","","","",""
"null","","","video-keyboard-response","247","497334","0.0-247.0","jd44aya5","","","null","","Agent B","veridical","FOR_REV_BLOBBY_STIM/1592804.bmp_pp91_L3_V1.0_veridical_freeview_isoFalse_fps144.mp4",""
"","","","call-function","248","497336","0.0-248.0","jd44aya5","","","","","","","",""
"1836.554999999993","{""judgement"":1}","[0]","survey-likert","249","499173","0.0-249.0","jd44aya5","","","","","","","","1"
"1197.3150000000023","{""confidence"":1}","[0]","survey-likert","250","500373","0.0-250.0","jd44aya5","","","","","","","",""
"18453.32500000001","","","instructions","251","518828","0.0-251.0","jd44aya5","[{""page_index"":0,""viewing_time"":1960.015000000014},{""page_index"":1,""viewing_time"":14578.130000000005},{""page_index"":2,""viewing_time"":1914.9550000000163}]","","","","","","",""
"3644.4800000000396","","","instructions","252","522475","0.0-252.0","jd44aya5","[{""page_index"":0,""viewing_time"":1108.490000000049},{""page_index"":1,""viewing_time"":1925.1449999999604},{""page_index"":2,""viewing_time"":610.734999999986}]","","","","","","",""
"","","","call-function","253","522477","0.0-253.0","jd44aya5","","","","","","","",""
"null","","","html-keyboard-response","254","523980","0.0-254.0","jd44aya5","","<span style=""color:Black; font-size:50px;"">Agent A","null","","","","",""
"null","","","video-keyboard-response","255","526560","0.0-255.0","jd44aya5","","","null","","Agent A","scrambled","FOR_REV_BLOBBY_STIM/1592397.bmp_pp85_L3_V1.0_veridical_freeview_isoFalse_fps144_reversed_REAL.mp4",""
"null","","","html-keyboard-response","256","528064","0.0-256.0","jd44aya5","","<span style=""color:Black; font-size:50px;"">Agent B","null","","","","",""
"null","","","video-keyboard-response","257","530643","0.0-257.0","jd44aya5","","","null","","Agent B","veridical","FOR_REV_BLOBBY_STIM/1592397.bmp_pp85_L3_V1.0_veridical_freeview_isoFalse_fps144.mp4",""
"","","","call-function","258","530645","0.0-258.0","jd44aya5","","","","","","","",""
"2586.9599999999627","{""judgement"":0}","[0]","survey-likert","259","533233","0.0-259.0","jd44aya5","","","","","","","","1"
"1648.2449999999953","{""confidence"":2}","[0]","survey-likert","260","534884","0.0-260.0","jd44aya5","","","","","","","",""
"","","","call-function","261","534885","0.0-261.0","jd44aya5","","","","","","","",""
"null","","","html-keyboard-response","262","536388","0.0-262.0","jd44aya5","","<span style=""color:Black; font-size:50px;"">Agent A","null","","","","",""
"null","","","video-keyboard-response","263","539225","0.0-263.0","jd44aya5","","","null","","Agent A","veridical","FOR_REV_BLOBBY_STIM/712977.bmp_pp51_L1_V1.0_veridical_freeview_isoFalse_fps144.mp4",""
"null","","","html-keyboard-response","264","540731","0.0-264.0","jd44aya5","","<span style=""color:Black; font-size:50px;"">Agent B","null","","","","",""
"null","","","video-keyboard-response","265","543572","0.0-265.0","jd44aya5","","","null","","Agent B","scrambled","FOR_REV_BLOBBY_STIM/712977.bmp_pp51_L1_V1.0_veridical_freeview_isoFalse_fps144_reversed_REAL.mp4",""
"","","","call-function","266","543574","0.0-266.0","jd44aya5","","","","","","","",""
"1400.9650000000838","{""judgement"":0}","[0]","survey-likert","267","544976","0.0-267.0","jd44aya5","","","","","","","","0"
"2064.04999999993","{""confidence"":3}","[0]","survey-likert","268","547043","0.0-268.0","jd44aya5","","","","","","","",""
"","","","call-function","269","547045","0.0-269.0","jd44aya5","","","","","","","",""
"null","","","html-keyboard-response","270","548547","0.0-270.0","jd44aya5","","<span style=""color:Black; font-size:50px;"">Agent A","null","","","","",""
"null","","","video-keyboard-response","271","551434","0.0-271.0","jd44aya5","","","null","","Agent A","scrambled","FOR_REV_BLOBBY_STIM/1160127.bmp_pp90_L2_V1.0_veridical_freeview_isoFalse_fps144_reversed_REAL.mp4",""
"null","","","html-keyboard-response","272","552940","0.0-272.0","jd44aya5","","<span style=""color:Black; font-size:50px;"">Agent B","null","","","","",""
"null","","","video-keyboard-response","273","555819","0.0-273.0","jd44aya5","","","null","","Agent B","veridical","FOR_REV_BLOBBY_STIM/1160127.bmp_pp90_L2_V1.0_veridical_freeview_isoFalse_fps144.mp4",""
"","","","call-function","274","555820","0.0-274.0","jd44aya5","","","","","","","",""
"1707.7899999999208","{""judgement"":1}","[0]","survey-likert","275","557529","0.0-275.0","jd44aya5","","","","","","","","1"
"1676.5050000000047","{""confidence"":0}","[0]","survey-likert","276","559208","0.0-276.0","jd44aya5","","","","","","","",""
"","","","call-function","277","559210","0.0-277.0","jd44aya5","","","","","","","",""
"null","","","html-keyboard-response","278","560713","0.0-278.0","jd44aya5","","<span style=""color:Black; font-size:50px;"">Agent A","null","","","","",""
"null","","","video-keyboard-response","279","563489","0.0-279.0","jd44aya5","","","null","","Agent A","scrambled","FOR_REV_BLOBBY_STIM/713749.bmp_pp88_L2_V1.0_veridical_freeview_isoFalse_fps144_reversed_REAL.mp4",""
"null","","","html-keyboard-response","280","564995","0.0-280.0","jd44aya5","","<span style=""color:Black; font-size:50px;"">Agent B","null","","","","",""
"null","","","video-keyboard-response","281","567763","0.0-281.0","jd44aya5","","","null","","Agent B","veridical","FOR_REV_BLOBBY_STIM/713749.bmp_pp88_L2_V1.0_veridical_freeview_isoFalse_fps144.mp4",""
"","","","call-function","282","567764","0.0-282.0","jd44aya5","","","","","","","",""
"1971.6650000000373","{""judgement"":0}","[0]","survey-likert","283","569737","0.0-283.0","jd44aya5","","","","","","","","1"
"1525.625","{""confidence"":1}","[0]","survey-likert","284","571265","0.0-284.0","jd44aya5","","","","","","","",""
"","","","call-function","285","571266","0.0-285.0","jd44aya5","","","","","","","",""
"null","","","html-keyboard-response","286","572771","0.0-286.0","jd44aya5","","<span style=""color:Black; font-size:50px;"">Agent A","null","","","","",""
"null","","","video-keyboard-response","287","575630","0.0-287.0","jd44aya5","","","null","","Agent A","scrambled","FOR_REV_BLOBBY_STIM/1159675.bmp_pp77_L3_V1.0_veridical_freeview_isoFalse_fps144_reversed_REAL.mp4",""
"null","","","html-keyboard-response","288","577135","0.0-288.0","jd44aya5","","<span style=""color:Black; font-size:50px;"">Agent B","null","","","","",""
"null","","","video-keyboard-response","289","579991","0.0-289.0","jd44aya5","","","null","","Agent B","veridical","FOR_REV_BLOBBY_STIM/1159675.bmp_pp77_L3_V1.0_veridical_freeview_isoFalse_fps144.mp4",""
"","","","call-function","290","579993","0.0-290.0","jd44aya5","","","","","","","",""
"1851.0250000000233","{""judgement"":1}","[0]","survey-likert","291","581845","0.0-291.0","jd44aya5","","","","","","","","1"
"1750.4949999999953","{""confidence"":2}","[0]","survey-likert","292","583598","0.0-292.0","jd44aya5","","","","","","","",""
"","","","call-function","293","583599","0.0-293.0","jd44aya5","","","","","","","",""
"null","","","html-keyboard-response","294","585104","0.0-294.0","jd44aya5","","<span style=""color:Black; font-size:50px;"">Agent A","null","","","","",""
"null","","","video-keyboard-response","295","587953","0.0-295.0","jd44aya5","","","null","","Agent A","scrambled","FOR_REV_BLOBBY_STIM/713666.bmp_pp97_L3_V1.0_veridical_freeview_isoFalse_fps144_reversed_REAL.mp4",""
"null","","","html-keyboard-response","296","589460","0.0-296.0","jd44aya5","","<span style=""color:Black; font-size:50px;"">Agent B","null","","","","",""
"null","","","video-keyboard-response","297","592280","0.0-297.0","jd44aya5","","","null","","Agent B","veridical","FOR_REV_BLOBBY_STIM/713666.bmp_pp97_L3_V1.0_veridical_freeview_isoFalse_fps144.mp4",""
"","","","call-function","298","592281","0.0-298.0","jd44aya5","","","","","","","",""
"1903.5549999999348","{""judgement"":0}","[0]","survey-likert","299","594186","0.0-299.0","jd44aya5","","","","","","","","1"
"1456.0500000000466","{""confidence"":2}","[0]","survey-likert","300","595644","0.0-300.0","jd44aya5","","","","","","","",""
"","","","call-function","301","595645","0.0-301.0","jd44aya5","","","","","","","",""
"null","","","html-keyboard-response","302","597152","0.0-302.0","jd44aya5","","<span style=""color:Black; font-size:50px;"">Agent A","null","","","","",""
"null","","","video-keyboard-response","303","599893","0.0-303.0","jd44aya5","","","null","","Agent A","veridical","FOR_REV_BLOBBY_STIM/1592581.bmp_pp100_L3_V1.0_veridical_freeview_isoFalse_fps144.mp4",""
"null","","","html-keyboard-response","304","601401","0.0-304.0","jd44aya5","","<span style=""color:Black; font-size:50px;"">Agent B","null","","","","",""
"null","","","video-keyboard-response","305","604143","0.0-305.0","jd44aya5","","","null","","Agent B","scrambled","FOR_REV_BLOBBY_STIM/1592581.bmp_pp100_L3_V1.0_veridical_freeview_isoFalse_fps144_reversed_REAL.mp4",""
"","","","call-function","306","604145","0.0-306.0","jd44aya5","","","","","","","",""
"2154.7750000000233","{""judgement"":0}","[0]","survey-likert","307","606301","0.0-307.0","jd44aya5","","","","","","","","0"
"1408.9100000000326","{""confidence"":1}","[0]","survey-likert","308","607712","0.0-308.0","jd44aya5","","","","","","","",""
"","","","call-function","309","607714","0.0-309.0","jd44aya5","","","","","","","",""
"null","","","html-keyboard-response","310","609216","0.0-310.0","jd44aya5","","<span style=""color:Black; font-size:50px;"">Agent A","null","","","","",""
"null","","","video-keyboard-response","311","612029","0.0-311.0","jd44aya5","","","null","","Agent A","veridical","FOR_REV_BLOBBY_STIM/1159855.bmp_pp99_L2_V1.0_veridical_freeview_isoFalse_fps144.mp4",""
"null","","","html-keyboard-response","312","613535","0.0-312.0","jd44aya5","","<span style=""color:Black; font-size:50px;"">Agent B","null","","","","",""
"null","","","video-keyboard-response","313","616358","0.0-313.0","jd44aya5","","","null","","Agent B","scrambled","FOR_REV_BLOBBY_STIM/1159855.bmp_pp99_L2_V1.0_veridical_freeview_isoFalse_fps144_reversed_REAL.mp4",""
"","","","call-function","314","616359","0.0-314.0","jd44aya5","","","","","","","",""
"1470.2099999999627","{""judgement"":0}","[0]","survey-likert","315","617830","0.0-315.0","jd44aya5","","","","","","","","0"
"1782.1549999999115","{""confidence"":3}","[0]","survey-likert","316","619615","0.0-316.0","jd44aya5","","","","","","","",""
"","","","call-function","317","619616","0.0-317.0","jd44aya5","","","","","","","",""
"null","","","html-keyboard-response","318","621120","0.0-318.0","jd44aya5","","<span style=""color:Black; font-size:50px;"">Agent A","null","","","","",""
"null","","","video-keyboard-response","319","623951","0.0-319.0","jd44aya5","","","null","","Agent A","scrambled","FOR_REV_BLOBBY_STIM/1592619.bmp_pp56_L3_V1.0_veridical_freeview_isoFalse_fps144_reversed_REAL.mp4",""
"null","","","html-keyboard-response","320","625455","0.0-320.0","jd44aya5","","<span style=""color:Black; font-size:50px;"">Agent B","null","","","","",""
"null","","","video-keyboard-response","321","628218","0.0-321.0","jd44aya5","","","null","","Agent B","veridical","FOR_REV_BLOBBY_STIM/1592619.bmp_pp56_L3_V1.0_veridical_freeview_isoFalse_fps144.mp4",""
"","","","call-function","322","628220","0.0-322.0","jd44aya5","","","","","","","",""
"1699.1149999999907","{""judgement"":0}","[0]","survey-likert","323","629921","0.0-323.0","jd44aya5","","","","","","","","1"
"1530.5599999999395","{""confidence"":1}","[0]","survey-likert","324","631454","0.0-324.0","jd44aya5","","","","","","","",""
"","","","call-function","325","631456","0.0-325.0","jd44aya5","","","","","","","",""
"null","","","html-keyboard-response","326","632958","0.0-326.0","jd44aya5","","<span style=""color:Black; font-size:50px;"">Agent A","null","","","","",""
"null","","","video-keyboard-response","327","635708","0.0-327.0","jd44aya5","","","null","","Agent A","scrambled","FOR_REV_BLOBBY_STIM/285994.bmp_pp92_L3_V1.0_veridical_freeview_isoFalse_fps144_reversed_REAL.mp4",""
"null","","","html-keyboard-response","328","637212","0.0-328.0","jd44aya5","","<span style=""color:Black; font-size:50px;"">Agent B","null","","","","",""
"null","","","video-keyboard-response","329","639909","0.0-329.0","jd44aya5","","","null","","Agent B","veridical","FOR_REV_BLOBBY_STIM/285994.bmp_pp92_L3_V1.0_veridical_freeview_isoFalse_fps144.mp4",""
"","","","call-function","330","639911","0.0-330.0","jd44aya5","","","","","","","",""
"1668.5100000000093","{""judgement"":0}","[0]","survey-likert","331","641580","0.0-331.0","jd44aya5","","","","","","","","1"
"2274.8399999999674","{""confidence"":2}","[0]","survey-likert","332","643858","0.0-332.0","jd44aya5","","","","","","","",""
"22579.945000000065","","","instructions","333","666439","0.0-333.0","jd44aya5","[{""page_index"":0,""viewing_time"":1527.8800000000047},{""page_index"":1,""viewing_time"":20310.670000000042},{""page_index"":2,""viewing_time"":741.1750000000466}]","","","","","","",""
"2624.2900000000373","","","instructions","334","669065","0.0-334.0","jd44aya5","[{""page_index"":0,""viewing_time"":907.1600000000326},{""page_index"":1,""viewing_time"":1121.0699999999488},{""page_index"":2,""viewing_time"":595.9499999999534}]","","","","","","",""
"","","","call-function","335","669067","0.0-335.0","jd44aya5","","","","","","","",""
"null","","","html-keyboard-response","336","670570","0.0-336.0","jd44aya5","","<span style=""color:Black; font-size:50px;"">Agent A","null","","","","",""
"null","","","video-keyboard-response","337","673410","0.0-337.0","jd44aya5","","","null","","Agent A","veridical","FOR_REV_BLOBBY_STIM/1592807.bmp_pp68_L1_V1.0_veridical_freeview_isoFalse_fps144.mp4",""
"null","","","html-keyboard-response","338","674915","0.0-338.0","jd44aya5","","<span style=""color:Black; font-size:50px;"">Agent B","null","","","","",""
"null","","","video-keyboard-response","339","677772","0.0-339.0","jd44aya5","","","null","","Agent B","scrambled","FOR_REV_BLOBBY_STIM/1592807.bmp_pp68_L1_V1.0_veridical_freeview_isoFalse_fps144_reversed_REAL.mp4",""
"","","","call-function","340","677774","0.0-340.0","jd44aya5","","","","","","","",""
"1768.5700000000652","{""judgement"":0}","[0]","survey-likert","341","679543","0.0-341.0","jd44aya5","","","","","","","","0"
"1528.625","{""confidence"":3}","[0]","survey-likert","342","681075","0.0-342.0","jd44aya5","","","","","","","",""
"","","","call-function","343","681076","0.0-343.0","jd44aya5","","","","","","","",""
"null","","","html-keyboard-response","344","682578","0.0-344.0","jd44aya5","","<span style=""color:Black; font-size:50px;"">Agent A","null","","","","",""
"null","","","video-keyboard-response","345","685441","0.0-345.0","jd44aya5","","","null","","Agent A","scrambled","FOR_REV_BLOBBY_STIM/713593.bmp_pp64_L1_V1.0_veridical_freeview_isoFalse_fps144_reversed_REAL.mp4",""
"null","","","html-keyboard-response","346","686946","0.0-346.0","jd44aya5","","<span style=""color:Black; font-size:50px;"">Agent B","null","","","","",""
"null","","","video-keyboard-response","347","689803","0.0-347.0","jd44aya5","","","null","","Agent B","veridical","FOR_REV_BLOBBY_STIM/713593.bmp_pp64_L1_V1.0_veridical_freeview_isoFalse_fps144.mp4",""
"","","","call-function","348","689805","0.0-348.0","jd44aya5","","","","","","","",""
"1505.4499999999534","{""judgement"":1}","[0]","survey-likert","349","691311","0.0-349.0","jd44aya5","","","","","","","","1"
"1129.875","{""confidence"":2}","[0]","survey-likert","350","692443","0.0-350.0","jd44aya5","","","","","","","",""
"","","","call-function","351","692445","0.0-351.0","jd44aya5","","","","","","","",""
"null","","","html-keyboard-response","352","693949","0.0-352.0","jd44aya5","","<span style=""color:Black; font-size:50px;"">Agent A","null","","","","",""
"null","","","video-keyboard-response","353","696751","0.0-353.0","jd44aya5","","","null","","Agent A","scrambled","FOR_REV_BLOBBY_STIM/1593041.bmp_pp58_L1_V1.0_veridical_freeview_isoFalse_fps144_reversed_REAL.mp4",""
"null","","","html-keyboard-response","354","698254","0.0-354.0","jd44aya5","","<span style=""color:Black; font-size:50px;"">Agent B","null","","","","",""
"null","","","video-keyboard-response","355","701039","0.0-355.0","jd44aya5","","","null","","Agent B","veridical","FOR_REV_BLOBBY_STIM/1593041.bmp_pp58_L1_V1.0_veridical_freeview_isoFalse_fps144.mp4",""
"","","","call-function","356","701041","0.0-356.0","jd44aya5","","","","","","","",""
"2105.6149999999907","{""judgement"":0}","[0]","survey-likert","357","703147","0.0-357.0","jd44aya5","","","","","","","","1"
"1104.9450000000652","{""confidence"":0}","[0]","survey-likert","358","704254","0.0-358.0","jd44aya5","","","","","","","",""
"","","","call-function","359","704256","0.0-359.0","jd44aya5","","","","","","","",""
"null","","","html-keyboard-response","360","705760","0.0-360.0","jd44aya5","","<span style=""color:Black; font-size:50px;"">Agent A","null","","","","",""
"null","","","video-keyboard-response","361","708587","0.0-361.0","jd44aya5","","","null","","Agent A","veridical","FOR_REV_BLOBBY_STIM/713371.bmp_pp68_L1_V1.0_veridical_freeview_isoFalse_fps144.mp4",""
"null","","","html-keyboard-response","362","710093","0.0-362.0","jd44aya5","","<span style=""color:Black; font-size:50px;"">Agent B","null","","","","",""
"null","","","video-keyboard-response","363","712938","0.0-363.0","jd44aya5","","","null","","Agent B","scrambled","FOR_REV_BLOBBY_STIM/713371.bmp_pp68_L1_V1.0_veridical_freeview_isoFalse_fps144_reversed_REAL.mp4",""
"","","","call-function","364","712940","0.0-364.0","jd44aya5","","","","","","","",""
"1754.6000000000931","{""judgement"":0}","[0]","survey-likert","365","714696","0.0-365.0","jd44aya5","","","","","","","","0"
"1460.3249999999534","{""confidence"":3}","[0]","survey-likert","366","716158","0.0-366.0","jd44aya5","","","","","","","",""
"","","","call-function","367","716160","0.0-367.0","jd44aya5","","","","","","","",""
"null","","","html-keyboard-response","368","717664","0.0-368.0","jd44aya5","","<span style=""color:Black; font-size:50px;"">Agent A","null","","","","",""
"null","","","video-keyboard-response","369","720240","0.0-369.0","jd44aya5","","","null","","Agent A","scrambled","FOR_REV_BLOBBY_STIM/1159515.bmp_pp84_L3_V1.0_veridical_freeview_isoFalse_fps144_reversed_REAL.mp4",""
"null","","","html-keyboard-response","370","721743","0.0-370.0","jd44aya5","","<span style=""color:Black; font-size:50px;"">Agent B","null","","","","",""
"null","","","video-keyboard-response","371","724318","0.0-371.0","jd44aya5","","","null","","Agent B","veridical","FOR_REV_BLOBBY_STIM/1159515.bmp_pp84_L3_V1.0_veridical_freeview_isoFalse_fps144.mp4",""
"","","","call-function","372","724320","0.0-372.0","jd44aya5","","","","","","","",""
"4404.954999999958","{""judgement"":0}","[0]","survey-likert","373","728726","0.0-373.0","jd44aya5","","","","","","","","1"
"1606.875","{""confidence"":2}","[0]","survey-likert","374","730336","0.0-374.0","jd44aya5","","","","","","","",""
"","","","call-function","375","730337","0.0-375.0","jd44aya5","","","","","","","",""
"null","","","html-keyboard-response","376","731840","0.0-376.0","jd44aya5","","<span style=""color:Black; font-size:50px;"">Agent A","null","","","","",""
"null","","","video-keyboard-response","377","734420","0.0-377.0","jd44aya5","","","null","","Agent A","veridical","FOR_REV_BLOBBY_STIM/713513.bmp_pp62_L2_V1.0_veridical_freeview_isoFalse_fps144.mp4",""
"null","","","html-keyboard-response","378","735926","0.0-378.0","jd44aya5","","<span style=""color:Black; font-size:50px;"">Agent B","null","","","","",""
"null","","","video-keyboard-response","379","738454","0.0-379.0","jd44aya5","","","null","","Agent B","scrambled","FOR_REV_BLOBBY_STIM/713513.bmp_pp62_L2_V1.0_veridical_freeview_isoFalse_fps144_reversed_REAL.mp4",""
"","","","call-function","380","738456","0.0-380.0","jd44aya5","","","","","","","",""
"1980.3000000000466","{""judgement"":1}","[0]","survey-likert","381","740437","0.0-381.0","jd44aya5","","","","","","","","0"
"1517.7850000000326","{""confidence"":1}","[0]","survey-likert","382","741957","0.0-382.0","jd44aya5","","","","","","","",""
"","","","call-function","383","741959","0.0-383.0","jd44aya5","","","","","","","",""
"null","","","html-keyboard-response","384","743465","0.0-384.0","jd44aya5","","<span style=""color:Black; font-size:50px;"">Agent A","null","","","","",""
"null","","","video-keyboard-response","385","746186","0.0-385.0","jd44aya5","","","null","","Agent A","veridical","FOR_REV_BLOBBY_STIM/1592727.bmp_pp59_L3_V1.0_veridical_freeview_isoFalse_fps144.mp4",""
"null","","","html-keyboard-response","386","747692","0.0-386.0","jd44aya5","","<span style=""color:Black; font-size:50px;"">Agent B","null","","","","",""
"null","","","video-keyboard-response","387","750396","0.0-387.0","jd44aya5","","","null","","Agent B","scrambled","FOR_REV_BLOBBY_STIM/1592727.bmp_pp59_L3_V1.0_veridical_freeview_isoFalse_fps144_reversed_REAL.mp4",""
"","","","call-function","388","750398","0.0-388.0","jd44aya5","","","","","","","",""
"2069.545000000042","{""judgement"":1}","[0]","survey-likert","389","752468","0.0-389.0","jd44aya5","","","","","","","","0"
"1286.8649999999907","{""confidence"":1}","[0]","survey-likert","390","753757","0.0-390.0","jd44aya5","","","","","","","",""
"","","","call-function","391","753759","0.0-391.0","jd44aya5","","","","","","","",""
"null","","","html-keyboard-response","392","755265","0.0-392.0","jd44aya5","","<span style=""color:Black; font-size:50px;"">Agent A","null","","","","",""
"null","","","video-keyboard-response","393","758146","0.0-393.0","jd44aya5","","","null","","Agent A","scrambled","FOR_REV_BLOBBY_STIM/1159572.bmp_pp71_L1_V1.0_veridical_freeview_isoFalse_fps144_reversed_REAL.mp4",""
"null","","","html-keyboard-response","394","759653","0.0-394.0","jd44aya5","","<span style=""color:Black; font-size:50px;"">Agent B","null","","","","",""
"null","","","video-keyboard-response","395","762542","0.0-395.0","jd44aya5","","","null","","Agent B","veridical","FOR_REV_BLOBBY_STIM/1159572.bmp_pp71_L1_V1.0_veridical_freeview_isoFalse_fps144.mp4",""
"","","","call-function","396","762543","0.0-396.0","jd44aya5","","","","","","","",""
"3294.3699999999953","{""judgement"":1}","[0]","survey-likert","397","765838","0.0-397.0","jd44aya5","","","","","","","","1"
"1582.2799999999115","{""confidence"":1}","[0]","survey-likert","398","767423","0.0-398.0","jd44aya5","","","","","","","",""
"","","","call-function","399","767425","0.0-399.0","jd44aya5","","","","","","","",""
"null","","","html-keyboard-response","400","768927","0.0-400.0","jd44aya5","","<span style=""color:Black; font-size:50px;"">Agent A","null","","","","",""
"null","","","video-keyboard-response","401","771736","0.0-401.0","jd44aya5","","","null","","Agent A","veridical","FOR_REV_BLOBBY_STIM/1159784.bmp_pp73_L3_V1.0_veridical_freeview_isoFalse_fps144.mp4",""
"null","","","html-keyboard-response","402","773244","0.0-402.0","jd44aya5","","<span style=""color:Black; font-size:50px;"">Agent B","null","","","","",""
"null","","","video-keyboard-response","403","776039","0.0-403.0","jd44aya5","","","null","","Agent B","scrambled","FOR_REV_BLOBBY_STIM/1159784.bmp_pp73_L3_V1.0_veridical_freeview_isoFalse_fps144_reversed_REAL.mp4",""
"","","","call-function","404","776042","0.0-404.0","jd44aya5","","","","","","","",""
"1913.4749999999767","{""judgement"":0}","[0]","survey-likert","405","777957","0.0-405.0","jd44aya5","","","","","","","","0"
"1513.5399999999208","{""confidence"":0}","[0]","survey-likert","406","779473","0.0-406.0","jd44aya5","","","","","","","",""
"","","","call-function","407","779475","0.0-407.0","jd44aya5","","","","","","","",""
"null","","","html-keyboard-response","408","780979","0.0-408.0","jd44aya5","","<span style=""color:Black; font-size:50px;"">Agent A","null","","","","",""
"null","","","video-keyboard-response","409","785774","0.0-409.0","jd44aya5","","","null","","Agent A","scrambled","FOR_REV_BLOBBY_STIM/1159447.bmp_pp70_L2_V1.0_veridical_freeview_isoFalse_fps144_reversed_REAL.mp4",""
"null","","","html-keyboard-response","410","787280","0.0-410.0","jd44aya5","","<span style=""color:Black; font-size:50px;"">Agent B","null","","","","",""
"null","","","video-keyboard-response","411","790152","0.0-411.0","jd44aya5","","","null","","Agent B","veridical","FOR_REV_BLOBBY_STIM/1159447.bmp_pp70_L2_V1.0_veridical_freeview_isoFalse_fps144.mp4",""
"","","","call-function","412","790154","0.0-412.0","jd44aya5","","","","","","","",""
"2472.390000000014","{""judgement"":1}","[0]","survey-likert","413","792628","0.0-413.0","jd44aya5","","","","","","","","1"
"1390.6350000000093","{""confidence"":3}","[0]","survey-likert","414","794021","0.0-414.0","jd44aya5","","","","","","","",""
"4336.665000000037","","","instructions","415","798360","0.0-415.0","jd44aya5","[{""page_index"":0,""viewing_time"":779.7199999999721},{""page_index"":1,""viewing_time"":2882.780000000028},{""page_index"":2,""viewing_time"":673.9450000000652}]","","","","","","",""
"9319.345000000088","","","instructions","416","807681","0.0-416.0","jd44aya5","[{""page_index"":0,""viewing_time"":6300.060000000056},{""page_index"":1,""viewing_time"":1683.0699999999488},{""page_index"":2,""viewing_time"":1336.1000000000931}]","","","","","","",""
"","","","call-function","417","807683","0.0-417.0","jd44aya5","","","","","","","",""
"null","","","html-keyboard-response","418","809187","0.0-418.0","jd44aya5","","<span style=""color:Black; font-size:50px;"">Agent A","null","","","","",""
"null","","","video-keyboard-response","419","811954","0.0-419.0","jd44aya5","","","null","","Agent A","veridical","FOR_REV_BLOBBY_STIM/498155.bmp_pp61_L2_V1.0_veridical_freeview_isoFalse_fps144.mp4",""
"null","","","html-keyboard-response","420","813461","0.0-420.0","jd44aya5","","<span style=""color:Black; font-size:50px;"">Agent B","null","","","","",""
"null","","","video-keyboard-response","421","816247","0.0-421.0","jd44aya5","","","null","","Agent B","scrambled","FOR_REV_BLOBBY_STIM/498155.bmp_pp61_L2_V1.0_veridical_freeview_isoFalse_fps144_reversed_REAL.mp4",""
"","","","call-function","422","816248","0.0-422.0","jd44aya5","","","","","","","",""
"1454.2899999999208","{""judgement"":1}","[0]","survey-likert","423","817704","0.0-423.0","jd44aya5","","","","","","","","0"
"1350.8699999999953","{""confidence"":1}","[0]","survey-likert","424","819057","0.0-424.0","jd44aya5","","","","","","","",""
"","","","call-function","425","819058","0.0-425.0","jd44aya5","","","","","","","",""
"null","","","html-keyboard-response","426","820560","0.0-426.0","jd44aya5","","<span style=""color:Black; font-size:50px;"">Agent A","null","","","","",""
"null","","","video-keyboard-response","427","823120","0.0-427.0","jd44aya5","","","null","","Agent A","scrambled","FOR_REV_BLOBBY_STIM/713796.bmp_pp84_L3_V1.0_veridical_freeview_isoFalse_fps144_reversed_REAL.mp4",""
"null","","","html-keyboard-response","428","824624","0.0-428.0","jd44aya5","","<span style=""color:Black; font-size:50px;"">Agent B","null","","","","",""
"null","","","video-keyboard-response","429","827186","0.0-429.0","jd44aya5","","","null","","Agent B","veridical","FOR_REV_BLOBBY_STIM/713796.bmp_pp84_L3_V1.0_veridical_freeview_isoFalse_fps144.mp4",""
"","","","call-function","430","827188","0.0-430.0","jd44aya5","","","","","","","",""
"3088.2050000000745","{""judgement"":1}","[0]","survey-likert","431","830277","0.0-431.0","jd44aya5","","","","","","","","1"
"1476.2699999999022","{""confidence"":2}","[0]","survey-likert","432","831758","0.0-432.0","jd44aya5","","","","","","","",""
"","","","call-function","433","831759","0.0-433.0","jd44aya5","","","","","","","",""
"null","","","html-keyboard-response","434","833261","0.0-434.0","jd44aya5","","<span style=""color:Black; font-size:50px;"">Agent A","null","","","","",""
"null","","","video-keyboard-response","435","836086","0.0-435.0","jd44aya5","","","null","","Agent A","veridical","FOR_REV_BLOBBY_STIM/1592890.bmp_pp82_L2_V1.0_veridical_freeview_isoFalse_fps144.mp4",""
"null","","","html-keyboard-response","436","837589","0.0-436.0","jd44aya5","","<span style=""color:Black; font-size:50px;"">Agent B","null","","","","",""
"null","","","video-keyboard-response","437","840423","0.0-437.0","jd44aya5","","","null","","Agent B","scrambled","FOR_REV_BLOBBY_STIM/1592890.bmp_pp82_L2_V1.0_veridical_freeview_isoFalse_fps144_reversed_REAL.mp4",""
"","","","call-function","438","840425","0.0-438.0","jd44aya5","","","","","","","",""
"1476.8850000000093","{""judgement"":0}","[0]","survey-likert","439","841903","0.0-439.0","jd44aya5","","","","","","","","0"
"2035.5899999999674","{""confidence"":3}","[0]","survey-likert","440","843941","0.0-440.0","jd44aya5","","","","","","","",""
"","","","call-function","441","843942","0.0-441.0","jd44aya5","","","","","","","",""
"null","","","html-keyboard-response","442","845445","0.0-442.0","jd44aya5","","<span style=""color:Black; font-size:50px;"">Agent A","null","","","","",""
"null","","","video-keyboard-response","443","848105","0.0-443.0","jd44aya5","","","null","","Agent A","scrambled","FOR_REV_BLOBBY_STIM/61537.bmp_pp73_L3_V1.0_veridical_freeview_isoFalse_fps144_reversed_REAL.mp4",""
"null","","","html-keyboard-response","444","849611","0.0-444.0","jd44aya5","","<span style=""color:Black; font-size:50px;"">Agent B","null","","","","",""
"null","","","video-keyboard-response","445","852234","0.0-445.0","jd44aya5","","","null","","Agent B","veridical","FOR_REV_BLOBBY_STIM/61537.bmp_pp73_L3_V1.0_veridical_freeview_isoFalse_fps144.mp4",""
"","","","call-function","446","852236","0.0-446.0","jd44aya5","","","","","","","",""
"2056.060000000056","{""judgement"":1}","[0]","survey-likert","447","854293","0.0-447.0","jd44aya5","","","","","","","","1"
"1734.5050000000047","{""confidence"":2}","[0]","survey-likert","448","856030","0.0-448.0","jd44aya5","","","","","","","",""
"","","","call-function","449","856031","0.0-449.0","jd44aya5","","","","","","","",""
"null","","","html-keyboard-response","450","857534","0.0-450.0","jd44aya5","","<span style=""color:Black; font-size:50px;"">Agent A","null","","","","",""
"null","","","video-keyboard-response","451","860419","0.0-451.0","jd44aya5","","","null","","Agent A","scrambled","FOR_REV_BLOBBY_STIM/713089.bmp_pp60_L3_V1.0_veridical_freeview_isoFalse_fps144_reversed_REAL.mp4",""
"null","","","html-keyboard-response","452","861926","0.0-452.0","jd44aya5","","<span style=""color:Black; font-size:50px;"">Agent B","null","","","","",""
"null","","","video-keyboard-response","453","864828","0.0-453.0","jd44aya5","","","null","","Agent B","veridical","FOR_REV_BLOBBY_STIM/713089.bmp_pp60_L3_V1.0_veridical_freeview_isoFalse_fps144.mp4",""
"","","","call-function","454","864830","0.0-454.0","jd44aya5","","","","","","","",""
"1454.2449999999953","{""judgement"":1}","[0]","survey-likert","455","866285","0.0-455.0","jd44aya5","","","","","","","","1"
"1987.3150000000605","{""confidence"":3}","[0]","survey-likert","456","868275","0.0-456.0","jd44aya5","","","","","","","",""
"","","","call-function","457","868276","0.0-457.0","jd44aya5","","","","","","","",""
"null","","","html-keyboard-response","458","869779","0.0-458.0","jd44aya5","","<span style=""color:Black; font-size:50px;"">Agent A","null","","","","",""
"null","","","video-keyboard-response","459","872342","0.0-459.0","jd44aya5","","","null","","Agent A","scrambled","FOR_REV_BLOBBY_STIM/1591876.bmp_pp63_L1_V1.0_veridical_freeview_isoFalse_fps144_reversed_REAL.mp4",""
"null","","","html-keyboard-response","460","873848","0.0-460.0","jd44aya5","","<span style=""color:Black; font-size:50px;"">Agent B","null","","","","",""
"null","","","video-keyboard-response","461","876383","0.0-461.0","jd44aya5","","","null","","Agent B","veridical","FOR_REV_BLOBBY_STIM/1591876.bmp_pp63_L1_V1.0_veridical_freeview_isoFalse_fps144.mp4",""
"","","","call-function","462","876385","0.0-462.0","jd44aya5","","","","","","","",""
"1326.8149999999441","{""judgement"":1}","[0]","survey-likert","463","877713","0.0-463.0","jd44aya5","","","","","","","","1"
"1627.9250000000466","{""confidence"":3}","[0]","survey-likert","464","879343","0.0-464.0","jd44aya5","","","","","","","",""
"","","","call-function","465","879345","0.0-465.0","jd44aya5","","","","","","","",""
"null","","","html-keyboard-response","466","880849","0.0-466.0","jd44aya5","","<span style=""color:Black; font-size:50px;"">Agent A","null","","","","",""
"null","","","video-keyboard-response","467","883524","0.0-467.0","jd44aya5","","","null","","Agent A","veridical","FOR_REV_BLOBBY_STIM/713707.bmp_pp154_L1_V1.0_veridical_freeview_isoFalse_fps144.mp4",""
"null","","","html-keyboard-response","468","885026","0.0-468.0","jd44aya5","","<span style=""color:Black; font-size:50px;"">Agent B","null","","","","",""
"null","","","video-keyboard-response","469","887691","0.0-469.0","jd44aya5","","","null","","Agent B","scrambled","FOR_REV_BLOBBY_STIM/713707.bmp_pp154_L1_V1.0_veridical_freeview_isoFalse_fps144_reversed_REAL.mp4",""
"","","","call-function","470","887693","0.0-470.0","jd44aya5","","","","","","","",""
"2010.4300000000512","{""judgement"":0}","[0]","survey-likert","471","889704","0.0-471.0","jd44aya5","","","","","","","","0"
"1651.25","{""confidence"":1}","[0]","survey-likert","472","891358","0.0-472.0","jd44aya5","","","","","","","",""
"","","","call-function","473","891359","0.0-473.0","jd44aya5","","","","","","","",""
"null","","","html-keyboard-response","474","892862","0.0-474.0","jd44aya5","","<span style=""color:Black; font-size:50px;"">Agent A","null","","","","",""
"null","","","video-keyboard-response","475","895717","0.0-475.0","jd44aya5","","","null","","Agent A","scrambled","FOR_REV_BLOBBY_STIM/1159882.bmp_pp61_L2_V1.0_veridical_freeview_isoFalse_fps144_reversed_REAL.mp4",""
"null","","","html-keyboard-response","476","897224","0.0-476.0","jd44aya5","","<span style=""color:Black; font-size:50px;"">Agent B","null","","","","",""
"null","","","video-keyboard-response","477","900098","0.0-477.0","jd44aya5","","","null","","Agent B","veridical","FOR_REV_BLOBBY_STIM/1159882.bmp_pp61_L2_V1.0_veridical_freeview_isoFalse_fps144.mp4",""
"","","","call-function","478","900100","0.0-478.0","jd44aya5","","","","","","","",""
"1889.9349999999395","{""judgement"":1}","[0]","survey-likert","479","901991","0.0-479.0","jd44aya5","","","","","","","","1"
"1662.670000000042","{""confidence"":1}","[0]","survey-likert","480","903657","0.0-480.0","jd44aya5","","","","","","","",""
"","","","call-function","481","903659","0.0-481.0","jd44aya5","","","","","","","",""
"null","","","html-keyboard-response","482","905162","0.0-482.0","jd44aya5","","<span style=""color:Black; font-size:50px;"">Agent A","null","","","","",""
"null","","","video-keyboard-response","483","907894","0.0-483.0","jd44aya5","","","null","","Agent A","scrambled","FOR_REV_BLOBBY_STIM/498170.bmp_pp153_L3_V1.0_veridical_freeview_isoFalse_fps144_reversed_REAL.mp4",""
"null","","","html-keyboard-response","484","909399","0.0-484.0","jd44aya5","","<span style=""color:Black; font-size:50px;"">Agent B","null","","","","",""
"null","","","video-keyboard-response","485","912132","0.0-485.0","jd44aya5","","","null","","Agent B","veridical","FOR_REV_BLOBBY_STIM/498170.bmp_pp153_L3_V1.0_veridical_freeview_isoFalse_fps144.mp4",""
"","","","call-function","486","912134","0.0-486.0","jd44aya5","","","","","","","",""
"3250.1600000000326","{""judgement"":1}","[0]","survey-likert","487","915385","0.0-487.0","jd44aya5","","","","","","","","1"
"1328.0899999999674","{""confidence"":1}","[0]","survey-likert","488","916715","0.0-488.0","jd44aya5","","","","","","","",""
"","","","call-function","489","916717","0.0-489.0","jd44aya5","","","","","","","",""
"null","","","html-keyboard-response","490","918219","0.0-490.0","jd44aya5","","<span style=""color:Black; font-size:50px;"">Agent A","null","","","","",""
"null","","","video-keyboard-response","491","921019","0.0-491.0","jd44aya5","","","null","","Agent A","scrambled","FOR_REV_BLOBBY_STIM/1159829.bmp_pp91_L3_V1.0_veridical_freeview_isoFalse_fps144_reversed_REAL.mp4",""
"null","","","html-keyboard-response","492","922527","0.0-492.0","jd44aya5","","<span style=""color:Black; font-size:50px;"">Agent B","null","","","","",""
"null","","","video-keyboard-response","493","925360","0.0-493.0","jd44aya5","","","null","","Agent B","veridical","FOR_REV_BLOBBY_STIM/1159829.bmp_pp91_L3_V1.0_veridical_freeview_isoFalse_fps144.mp4",""
"","","","call-function","494","925362","0.0-494.0","jd44aya5","","","","","","","",""
"1778.375","{""judgement"":1}","[0]","survey-likert","495","927141","0.0-495.0","jd44aya5","","","","","","","","1"
"1203.0699999999488","{""confidence"":2}","[0]","survey-likert","496","928346","0.0-496.0","jd44aya5","","","","","","","",""
"54797.159999999916","","","instructions","497","983145","0.0-497.0","jd44aya5","[{""page_index"":0,""viewing_time"":2000.704999999958},{""page_index"":1,""viewing_time"":51772.234999999986},{""page_index"":2,""viewing_time"":1024.0250000000233}]","","","","","","",""
"3196.045000000042","","","instructions","498","986343","0.0-498.0","jd44aya5","[{""page_index"":0,""viewing_time"":782.1550000000279},{""page_index"":1,""viewing_time"":1847.0350000000326},{""page_index"":2,""viewing_time"":566.7249999999767}]","","","","","","",""
"","","","call-function","499","986344","0.0-499.0","jd44aya5","","","","","","","",""
"null","","","html-keyboard-response","500","987851","0.0-500.0","jd44aya5","","<span style=""color:Black; font-size:50px;"">Agent A","null","","","","",""
"null","","","video-keyboard-response","501","990640","0.0-501.0","jd44aya5","","","null","","Agent A","veridical","FOR_REV_BLOBBY_STIM/713135.bmp_pp54_L2_V1.0_veridical_freeview_isoFalse_fps144.mp4",""
"null","","","html-keyboard-response","502","992143","0.0-502.0","jd44aya5","","<span style=""color:Black; font-size:50px;"">Agent B","null","","","","",""
"null","","","video-keyboard-response","503","994919","0.0-503.0","jd44aya5","","","null","","Agent B","scrambled","FOR_REV_BLOBBY_STIM/713135.bmp_pp54_L2_V1.0_veridical_freeview_isoFalse_fps144_reversed_REAL.mp4",""
"","","","call-function","504","994922","0.0-504.0","jd44aya5","","","","","","","",""
"2055.4400000000605","{""judgement"":0}","[0]","survey-likert","505","996978","0.0-505.0","jd44aya5","","","","","","","","0"
"1611.375","{""confidence"":3}","[0]","survey-likert","506","998592","0.0-506.0","jd44aya5","","","","","","","",""
"","","","call-function","507","998593","0.0-507.0","jd44aya5","","","","","","","",""
"null","","","html-keyboard-response","508","1000099","0.0-508.0","jd44aya5","","<span style=""color:Black; font-size:50px;"">Agent A","null","","","","",""
"null","","","video-keyboard-response","509","1002684","0.0-509.0","jd44aya5","","","null","","Agent A","veridical","FOR_REV_BLOBBY_STIM/1159813.bmp_pp79_L2_V1.0_veridical_freeview_isoFalse_fps144.mp4",""
"null","","","html-keyboard-response","510","1004188","0.0-510.0","jd44aya5","","<span style=""color:Black; font-size:50px;"">Agent B","null","","","","",""
"null","","","video-keyboard-response","511","1006744","0.0-511.0","jd44aya5","","","null","","Agent B","scrambled","FOR_REV_BLOBBY_STIM/1159813.bmp_pp79_L2_V1.0_veridical_freeview_isoFalse_fps144_reversed_REAL.mp4",""
"","","","call-function","512","1006746","0.0-512.0","jd44aya5","","","","","","","",""
"1326.6650000000373","{""judgement"":0}","[0]","survey-likert","513","1008073","0.0-513.0","jd44aya5","","","","","","","","0"
"1942.625","{""confidence"":2}","[0]","survey-likert","514","1010018","0.0-514.0","jd44aya5","","","","","","","",""
"","","","call-function","515","1010020","0.0-515.0","jd44aya5","","","","","","","",""
"null","","","html-keyboard-response","516","1011522","0.0-516.0","jd44aya5","","<span style=""color:Black; font-size:50px;"">Agent A","null","","","","",""
"null","","","video-keyboard-response","517","1014357","0.0-517.0","jd44aya5","","","null","","Agent A","scrambled","FOR_REV_BLOBBY_STIM/713681.bmp_pp86_L2_V1.0_veridical_freeview_isoFalse_fps144_reversed_REAL.mp4",""
"null","","","html-keyboard-response","518","1015863","0.0-518.0","jd44aya5","","<span style=""color:Black; font-size:50px;"">Agent B","null","","","","",""
"null","","","video-keyboard-response","519","1018695","0.0-519.0","jd44aya5","","","null","","Agent B","veridical","FOR_REV_BLOBBY_STIM/713681.bmp_pp86_L2_V1.0_veridical_freeview_isoFalse_fps144.mp4",""
"","","","call-function","520","1018697","0.0-520.0","jd44aya5","","","","","","","",""
"1380.0700000000652","{""judgement"":1}","[0]","survey-likert","521","1020078","0.0-521.0","jd44aya5","","","","","","","","1"
"1540.0900000000838","{""confidence"":3}","[0]","survey-likert","522","1021620","0.0-522.0","jd44aya5","","","","","","","",""
"","","","call-function","523","1021622","0.0-523.0","jd44aya5","","","","","","","",""
"null","","","html-keyboard-response","524","1023126","0.0-524.0","jd44aya5","","<span style=""color:Black; font-size:50px;"">Agent A","null","","","","",""
"null","","","video-keyboard-response","525","1025868","0.0-525.0","jd44aya5","","","null","","Agent A","scrambled","FOR_REV_BLOBBY_STIM/1592934.bmp_pp63_L1_V1.0_veridical_freeview_isoFalse_fps144_reversed_REAL.mp4",""
"null","","","html-keyboard-response","526","1027373","0.0-526.0","jd44aya5","","<span style=""color:Black; font-size:50px;"">Agent B","null","","","","",""
"null","","","video-keyboard-response","527","1030117","0.0-527.0","jd44aya5","","","null","","Agent B","veridical","FOR_REV_BLOBBY_STIM/1592934.bmp_pp63_L1_V1.0_veridical_freeview_isoFalse_fps144.mp4",""
"","","","call-function","528","1030118","0.0-528.0","jd44aya5","","","","","","","",""
"2073.890000000014","{""judgement"":1}","[0]","survey-likert","529","1032193","0.0-529.0","jd44aya5","","","","","","","","1"
"1313.5699999999488","{""confidence"":2}","[0]","survey-likert","530","1033509","0.0-530.0","jd44aya5","","","","","","","",""
"","","","call-function","531","1033511","0.0-531.0","jd44aya5","","","","","","","",""
"null","","","html-keyboard-response","532","1035014","0.0-532.0","jd44aya5","","<span style=""color:Black; font-size:50px;"">Agent A","null","","","","",""
"null","","","video-keyboard-response","533","1037706","0.0-533.0","jd44aya5","","","null","","Agent A","veridical","FOR_REV_BLOBBY_STIM/713211.bmp_pp100_L3_V1.0_veridical_freeview_isoFalse_fps144.mp4",""
"null","","","html-keyboard-response","534","1039212","0.0-534.0","jd44aya5","","<span style=""color:Black; font-size:50px;"">Agent B","null","","","","",""
"null","","","video-keyboard-response","535","1041906","0.0-535.0","jd44aya5","","","null","","Agent B","scrambled","FOR_REV_BLOBBY_STIM/713211.bmp_pp100_L3_V1.0_veridical_freeview_isoFalse_fps144_reversed_REAL.mp4",""
"","","","call-function","536","1041908","0.0-536.0","jd44aya5","","","","","","","",""
"2034.3100000000559","{""judgement"":0}","[0]","survey-likert","537","1043943","0.0-537.0","jd44aya5","","","","","","","","0"
"1444.5349999999162","{""confidence"":2}","[0]","survey-likert","538","1045390","0.0-538.0","jd44aya5","","","","","","","",""
"","","","call-function","539","1045392","0.0-539.0","jd44aya5","","","","","","","",""
"null","","","html-keyboard-response","540","1046894","0.0-540.0","jd44aya5","","<span style=""color:Black; font-size:50px;"">Agent A","null","","","","",""
"null","","","video-keyboard-response","541","1049738","0.0-541.0","jd44aya5","","","null","","Agent A","scrambled","FOR_REV_BLOBBY_STIM/498175.bmp_pp154_L1_V1.0_veridical_freeview_isoFalse_fps144_reversed_REAL.mp4",""
"null","","","html-keyboard-response","542","1051245","0.0-542.0","jd44aya5","","<span style=""color:Black; font-size:50px;"">Agent B","null","","","","",""
"null","","","video-keyboard-response","543","1054062","0.0-543.0","jd44aya5","","","null","","Agent B","veridical","FOR_REV_BLOBBY_STIM/498175.bmp_pp154_L1_V1.0_veridical_freeview_isoFalse_fps144.mp4",""
"","","","call-function","544","1054064","0.0-544.0","jd44aya5","","","","","","","",""
"2176.8549999999814","{""judgement"":1}","[0]","survey-likert","545","1056241","0.0-545.0","jd44aya5","","","","","","","","1"
"3566.5149999998976","{""confidence"":3}","[0]","survey-likert","546","1059810","0.0-546.0","jd44aya5","","","","","","","",""
"","","","call-function","547","1059812","0.0-547.0","jd44aya5","","","","","","","",""
"null","","","html-keyboard-response","548","1061316","0.0-548.0","jd44aya5","","<span style=""color:Black; font-size:50px;"">Agent A","null","","","","",""
"null","","","video-keyboard-response","549","1066832","0.0-549.0","jd44aya5","","","null","","Agent A","veridical","FOR_REV_BLOBBY_STIM/1160168.bmp_pp53_L2_V1.0_veridical_freeview_isoFalse_fps144.mp4",""
"null","","","html-keyboard-response","550","1068340","0.0-550.0","jd44aya5","","<span style=""color:Black; font-size:50px;"">Agent B","null","","","","",""
"null","","","video-keyboard-response","551","1071032","0.0-551.0","jd44aya5","","","null","","Agent B","scrambled","FOR_REV_BLOBBY_STIM/1160168.bmp_pp53_L2_V1.0_veridical_freeview_isoFalse_fps144_reversed_REAL.mp4",""
"","","","call-function","552","1071034","0.0-552.0","jd44aya5","","","","","","","",""
"2064.945000000065","{""judgement"":0}","[0]","survey-likert","553","1073101","0.0-553.0","jd44aya5","","","","","","","","0"
"2093.310000000056","{""confidence"":0}","[0]","survey-likert","554","1075198","0.0-554.0","jd44aya5","","","","","","","",""
"","","","call-function","555","1075200","0.0-555.0","jd44aya5","","","","","","","",""
"null","","","html-keyboard-response","556","1076710","0.0-556.0","jd44aya5","","<span style=""color:Black; font-size:50px;"">Agent A","null","","","","",""
"null","","","video-keyboard-response","557","1079304","0.0-557.0","jd44aya5","","","null","","Agent A","scrambled","FOR_REV_BLOBBY_STIM/286001.bmp_pp54_L2_V1.0_veridical_freeview_isoFalse_fps144_reversed_REAL.mp4",""
"null","","","html-keyboard-response","558","1080809","0.0-558.0","jd44aya5","","<span style=""color:Black; font-size:50px;"">Agent B","null","","","","",""
"null","","","video-keyboard-response","559","1083405","0.0-559.0","jd44aya5","","","null","","Agent B","veridical","FOR_REV_BLOBBY_STIM/286001.bmp_pp54_L2_V1.0_veridical_freeview_isoFalse_fps144.mp4",""
"","","","call-function","560","1083406","0.0-560.0","jd44aya5","","","","","","","",""
"1761.380000000121","{""judgement"":1}","[0]","survey-likert","561","1085169","0.0-561.0","jd44aya5","","","","","","","","1"
"1219.410000000149","{""confidence"":1}","[0]","survey-likert","562","1086391","0.0-562.0","jd44aya5","","","","","","","",""
"","","","call-function","563","1086393","0.0-563.0","jd44aya5","","","","","","","",""
"null","","","html-keyboard-response","564","1087896","0.0-564.0","jd44aya5","","<span style=""color:Black; font-size:50px;"">Agent A","null","","","","",""
"null","","","video-keyboard-response","565","1090628","0.0-565.0","jd44aya5","","","null","","Agent A","veridical","FOR_REV_BLOBBY_STIM/1592372.bmp_pp76_L1_V1.0_veridical_freeview_isoFalse_fps144.mp4",""
"null","","","html-keyboard-response","566","1092132","0.0-566.0","jd44aya5","","<span style=""color:Black; font-size:50px;"">Agent B","null","","","","",""
"null","","","video-keyboard-response","567","1094865","0.0-567.0","jd44aya5","","","null","","Agent B","scrambled","FOR_REV_BLOBBY_STIM/1592372.bmp_pp76_L1_V1.0_veridical_freeview_isoFalse_fps144_reversed_REAL.mp4",""
"","","","call-function","568","1094867","0.0-568.0","jd44aya5","","","","","","","",""
"2187.5800000000745","{""judgement"":1}","[0]","survey-likert","569","1097056","0.0-569.0","jd44aya5","","","","","","","","0"
"2509.6450000000186","{""confidence"":0}","[0]","survey-likert","570","1099568","0.0-570.0","jd44aya5","","","","","","","",""
"","","","call-function","571","1099569","0.0-571.0","jd44aya5","","","","","","","",""
"null","","","html-keyboard-response","572","1101073","0.0-572.0","jd44aya5","","<span style=""color:Black; font-size:50px;"">Agent A","null","","","","",""
"null","","","video-keyboard-response","573","1103920","0.0-573.0","jd44aya5","","","null","","Agent A","scrambled","FOR_REV_BLOBBY_STIM/285751.bmp_pp55_L3_V1.0_veridical_freeview_isoFalse_fps144_reversed_REAL.mp4",""
"null","","","html-keyboard-response","574","1105425","0.0-574.0","jd44aya5","","<span style=""color:Black; font-size:50px;"">Agent B","null","","","","",""
"null","","","video-keyboard-response","575","1108269","0.0-575.0","jd44aya5","","","null","","Agent B","veridical","FOR_REV_BLOBBY_STIM/285751.bmp_pp55_L3_V1.0_veridical_freeview_isoFalse_fps144.mp4",""
"","","","call-function","576","1108271","0.0-576.0","jd44aya5","","","","","","","",""
"1695.4350000000559","{""judgement"":1}","[0]","survey-likert","577","1109968","0.0-577.0","jd44aya5","","","","","","","","1"
"1335.7100000001956","{""confidence"":2}","[0]","survey-likert","578","1111306","0.0-578.0","jd44aya5","","","","","","","",""
"4554.685000000056","","","instructions","579","1115862","0.0-579.0","jd44aya5","[{""page_index"":0,""viewing_time"":4554.410000000149}]","","","","","","",""
"1919.005000000121","","","instructions","580","1117783","0.0-580.0","jd44aya5","[{""page_index"":0,""viewing_time"":1918.8950000000186}]","","","","","","",""
"6305.594999999972","{""post-1"":3}","[0]","survey-likert","581","1124090","0.0-581.0","jd44aya5","","","","","","","",""
"5818.784999999916","{""post-1"":1}","[0]","survey-likert","582","1129912","0.0-582.0","jd44aya5","","","","","","","",""
"3865.744999999879","{""post-2"":3}","[0]","survey-likert","583","1133780","0.0-583.0","jd44aya5","","","","","","","",""
"3644.600000000093","{""post-2"":0}","[0]","survey-likert","584","1137427","0.0-584.0","jd44aya5","","","","","","","",""
"3808.8549999999814","{""post-3"":3}","[0]","survey-likert","585","1141238","0.0-585.0","jd44aya5","","","","","","","",""
"1976.1750000000466","{""post-3"":0}","[0]","survey-likert","586","1143217","0.0-586.0","jd44aya5","","","","","","","",""
"5440.215000000084","{""post-4"":2}","[0]","survey-likert","587","1148660","0.0-587.0","jd44aya5","","","","","","","",""
"4405.459999999963","{""post-4"":1}","[0]","survey-likert","588","1153069","0.0-588.0","jd44aya5","","","","","","","",""
"2920.4300000001676","{""post-5"":1}","[0]","survey-likert","589","1155992","0.0-589.0","jd44aya5","","","","","","","",""
"4027.679999999935","{""post-5"":3}","[0]","survey-likert","590","1160023","0.0-590.0","jd44aya5","","","","","","","",""
"51397.37999999989","{""Q0"":""I felt this pictured version was a lot easier than the first one was. I felt that I was able to determine the right answer more often and I was able to think through a process of seeing more clearly. ""}","","survey-text","591","1211429","0.0-591.0","jd44aya5","","","","","","","",""
"110024.25500000012","{""Q0"":""The easiest part for me was pictures with people in them. I often strategized that most people would look at people or faces first and then analyze the rest of the picture. If the person wasn't the focal point of the photo, however, I strategized that the people would be the second thing to look at. Most of the time I felt it was easiest to assume that the person was the focal point and that I would often look there first as well. ""}","","survey-text","592","1321459","0.0-592.0","jd44aya5","","","","","","","",""
"98586.16999999993","{""Q0"":""I found it difficult when there were no focal objects or people in the pictures because then I had to blindly guess like in the non-pictured round. I often tried to form the strategies I did with the black background but found that it was a lot different because I was influenced by which items I felt were visually important or items I'd feel drawn to first. ""}","","survey-text","593","1420053","0.0-593.0","jd44aya5","","","","","","","",""
"971.3700000001118","","","instructions","594","1421028","0.0-594.0","jd44aya5","[{""page_index"":0,""viewing_time"":971.2199999999721}]","","","","","","",""
"38680.25","{""Experimenter_end"":[""Printed ID# jd44aya5 on consent form"",""Given subject SONA credit or payment"",""Given the subject debrief form""]}","[0]","survey-multi-select","595","1459712","0.0-595.0","jd44aya5","","","","","","","",""
