"rt","responses","question_order","trial_type","trial_index","time_elapsed","internal_node_id","ID","view_history","stimulus","key_press","value","agent","condition","image","correct_answer"
"14370.52","{""Experimenter"":[""Confirmed subject's identity (ID card)"",""Confirmed normal or corrected-to-normal vision"",""Obtained consent (signature and date)"",""Checked the test room lighting"",""Checked computer screen lighting"",""Checked distance from screen to chin rest (50cm)"",""Cleaned and adjusted chin rest"",""Counterbalanced the order of the tasks"",""Opened the experiment in Firefox"",""Made the experiment full screen"",""Encouraged subject to silence phone, put away distractors, etc.""]}","[0]","survey-multi-select","0","14380","0.0-0.0","k61ukkxc","","","","","","","",""
"1765866.275","","","instructions","1","1780253","0.0-1.0","k61ukkxc","[{""page_index"":0,""viewing_time"":1765866.055}]","","","","","","",""
"25243.27000000002","","","instructions","2","1805498","0.0-2.0","k61ukkxc","[{""page_index"":0,""viewing_time"":1473.7849999999162},{""page_index"":1,""viewing_time"":12112.370000000112},{""page_index"":2,""viewing_time"":11656.98999999999}]","","","","","","",""
"3469.310000000056","","","instructions","3","1808969","0.0-3.0","k61ukkxc","[{""page_index"":0,""viewing_time"":3469.1999999999534}]","","","","","","",""
"null","","","video-keyboard-response","4","1812048","0.0-4.0","k61ukkxc","","","null","","","","",""
"30380.25","","","instructions","5","1842430","0.0-5.0","k61ukkxc","[{""page_index"":0,""viewing_time"":3409.219999999972},{""page_index"":1,""viewing_time"":3257.8799999998882},{""page_index"":2,""viewing_time"":1246.0900000000838},{""page_index"":3,""viewing_time"":5393.050000000047},{""page_index"":4,""viewing_time"":17073.87999999989}]","","","","","","",""
"4895.239999999991","","","instructions","6","1847326","0.0-6.0","k61ukkxc","[{""page_index"":0,""viewing_time"":4895.10999999987}]","","","","","","",""
"","","","call-function","7","1847327","0.0-7.0","k61ukkxc","","","","","","","",""
"null","","","html-keyboard-response","8","1848830","0.0-8.0","k61ukkxc","","<span style=""color:Black; font-size:50px;"">Agent A","null","","","","",""
"null","","","video-keyboard-response","9","1851908","0.0-9.0","k61ukkxc","","","null","","Agent A","veridical","STIM_SET_1_REAL/61537.bmp_pp73_L3_V1.0_veridical_freeview_isoFalse_fps144.mp4",""
"null","","","html-keyboard-response","10","1853413","0.0-10.0","k61ukkxc","","<span style=""color:Black; font-size:50px;"">Agent B","null","","","","",""
"null","","","video-keyboard-response","11","1856508","0.0-11.0","k61ukkxc","","","null","","Agent B","scrambled","STIM_SET_3/713770.bmp_pp89_L1_V2_veridical_freeview_isoFalsemismatch_61537.bmp_L3_fps90.mp4",""
"","","","call-function","12","1856510","0.0-12.0","k61ukkxc","","","","","","","",""
"8319.429999999935","{""judgement"":0}","[0]","survey-likert","13","1864830","0.0-13.0","k61ukkxc","","","","","","","","0"
"5240.5800000000745","{""confidence"":0}","[0]","survey-likert","14","1870073","0.0-14.0","k61ukkxc","","","","","","","",""
"","","","call-function","15","1870074","0.0-15.0","k61ukkxc","","","","","","","",""
"null","","","html-keyboard-response","16","1871579","0.0-16.0","k61ukkxc","","<span style=""color:Black; font-size:50px;"">Agent A","null","","","","",""
"null","","","video-keyboard-response","17","1874660","0.0-17.0","k61ukkxc","","","null","","Agent A","veridical","STIM_SET_1_REAL/712977.bmp_pp51_L1_V1.0_veridical_freeview_isoFalse_fps144.mp4",""
"null","","","html-keyboard-response","18","1876167","0.0-18.0","k61ukkxc","","<span style=""color:Black; font-size:50px;"">Agent B","null","","","","",""
"null","","","video-keyboard-response","19","1879232","0.0-19.0","k61ukkxc","","","null","","Agent B","scrambled","STIM_SET_3/1592951.bmp_pp80_L3_V2_veridical_freeview_isoFalsemismatch_712977.bmp_L1_fps90.mp4",""
"","","","call-function","20","1879233","0.0-20.0","k61ukkxc","","","","","","","",""
"17737.13500000001","{""judgement"":0}","[0]","survey-likert","21","1896972","0.0-21.0","k61ukkxc","","","","","","","","0"
"1801.9199999999255","{""confidence"":0}","[0]","survey-likert","22","1898776","0.0-22.0","k61ukkxc","","","","","","","",""
"","","","call-function","23","1898777","0.0-23.0","k61ukkxc","","","","","","","",""
"null","","","html-keyboard-response","24","1900278","0.0-24.0","k61ukkxc","","<span style=""color:Black; font-size:50px;"">Agent A","null","","","","",""
"null","","","video-keyboard-response","25","1903366","0.0-25.0","k61ukkxc","","","null","","Agent A","veridical","STIM_SET_1_REAL/1159572.bmp_pp71_L1_V1.0_veridical_freeview_isoFalse_fps144.mp4",""
"null","","","html-keyboard-response","26","1904868","0.0-26.0","k61ukkxc","","<span style=""color:Black; font-size:50px;"">Agent B","null","","","","",""
"null","","","video-keyboard-response","27","1907971","0.0-27.0","k61ukkxc","","","null","","Agent B","scrambled","STIM_SET_3/713381.bmp_pp82_L2_V2_veridical_freeview_isoFalsemismatch_1159572.bmp_L1_fps90.mp4",""
"","","","call-function","28","1907972","0.0-28.0","k61ukkxc","","","","","","","",""
"2619.494999999879","{""judgement"":0}","[0]","survey-likert","29","1910592","0.0-29.0","k61ukkxc","","","","","","","","0"
"2681.5049999998882","{""confidence"":2}","[0]","survey-likert","30","1913275","0.0-30.0","k61ukkxc","","","","","","","",""
"","","","call-function","31","1913276","0.0-31.0","k61ukkxc","","","","","","","",""
"null","","","html-keyboard-response","32","1914781","0.0-32.0","k61ukkxc","","<span style=""color:Black; font-size:50px;"">Agent A","null","","","","",""
"null","","","video-keyboard-response","33","1917866","0.0-33.0","k61ukkxc","","","null","","Agent A","veridical","STIM_SET_1_REAL/1593041.bmp_pp58_L1_V1.0_veridical_freeview_isoFalse_fps144.mp4",""
"null","","","html-keyboard-response","34","1919370","0.0-34.0","k61ukkxc","","<span style=""color:Black; font-size:50px;"">Agent B","null","","","","",""
"null","","","video-keyboard-response","35","1922447","0.0-35.0","k61ukkxc","","","null","","Agent B","scrambled","STIM_SET_3/1591781.bmp_pp63_L1_V2_veridical_freeview_isoFalsemismatch_1593041.bmp_L1_fps90.mp4",""
"","","","call-function","36","1922448","0.0-36.0","k61ukkxc","","","","","","","",""
"5161.039999999804","{""judgement"":0}","[0]","survey-likert","37","1927610","0.0-37.0","k61ukkxc","","","","","","","","0"
"2860.3600000001024","{""confidence"":1}","[0]","survey-likert","38","1930472","0.0-38.0","k61ukkxc","","","","","","","",""
"","","","call-function","39","1930473","0.0-39.0","k61ukkxc","","","","","","","",""
"null","","","html-keyboard-response","40","1931978","0.0-40.0","k61ukkxc","","<span style=""color:Black; font-size:50px;"">Agent A","null","","","","",""
"null","","","video-keyboard-response","41","1935087","0.0-41.0","k61ukkxc","","","null","","Agent A","veridical","STIM_SET_1_REAL/1591994.bmp_pp69_L3_V1.0_veridical_freeview_isoFalse_fps144.mp4",""
"null","","","html-keyboard-response","42","1936592","0.0-42.0","k61ukkxc","","<span style=""color:Black; font-size:50px;"">Agent B","null","","","","",""
"null","","","video-keyboard-response","43","1939656","0.0-43.0","k61ukkxc","","","null","","Agent B","scrambled","STIM_SET_3/713328.bmp_pp86_L2_V2_veridical_freeview_isoFalsemismatch_1591994.bmp_L3_fps90.mp4",""
"","","","call-function","44","1939658","0.0-44.0","k61ukkxc","","","","","","","",""
"4646.699999999953","{""judgement"":0}","[0]","survey-likert","45","1944306","0.0-45.0","k61ukkxc","","","","","","","","0"
"4332.465000000084","{""confidence"":2}","[0]","survey-likert","46","1948640","0.0-46.0","k61ukkxc","","","","","","","",""
"","","","call-function","47","1948642","0.0-47.0","k61ukkxc","","","","","","","",""
"null","","","html-keyboard-response","48","1950144","0.0-48.0","k61ukkxc","","<span style=""color:Black; font-size:50px;"">Agent A","null","","","","",""
"null","","","video-keyboard-response","49","1953222","0.0-49.0","k61ukkxc","","","null","","Agent A","veridical","STIM_SET_1_REAL/713760.bmp_pp81_L1_V1.0_veridical_freeview_isoFalse_fps144.mp4",""
"null","","","html-keyboard-response","50","1954725","0.0-50.0","k61ukkxc","","<span style=""color:Black; font-size:50px;"">Agent B","null","","","","",""
"null","","","video-keyboard-response","51","1957787","0.0-51.0","k61ukkxc","","","null","","Agent B","scrambled","STIM_SET_3/285684.bmp_pp80_L3_V2_veridical_freeview_isoFalsemismatch_713760.bmp_L1_fps90.mp4",""
"","","","call-function","52","1957788","0.0-52.0","k61ukkxc","","","","","","","",""
"4615.375","{""judgement"":1}","[0]","survey-likert","53","1962404","0.0-53.0","k61ukkxc","","","","","","","","0"
"5909.380000000121","{""confidence"":0}","[0]","survey-likert","54","1968316","0.0-54.0","k61ukkxc","","","","","","","",""
"","","","call-function","55","1968317","0.0-55.0","k61ukkxc","","","","","","","",""
"null","","","html-keyboard-response","56","1969821","0.0-56.0","k61ukkxc","","<span style=""color:Black; font-size:50px;"">Agent A","null","","","","",""
"null","","","video-keyboard-response","57","1972891","0.0-57.0","k61ukkxc","","","null","","Agent A","scrambled","STIM_SET_3/1159508.bmp_pp151_L1_V2_veridical_freeview_isoFalsemismatch_1159675.bmp_L3_fps90.mp4",""
"null","","","html-keyboard-response","58","1974396","0.0-58.0","k61ukkxc","","<span style=""color:Black; font-size:50px;"">Agent B","null","","","","",""
"null","","","video-keyboard-response","59","1977503","0.0-59.0","k61ukkxc","","","null","","Agent B","veridical","STIM_SET_1_REAL/1159675.bmp_pp77_L3_V1.0_veridical_freeview_isoFalse_fps144.mp4",""
"","","","call-function","60","1977504","0.0-60.0","k61ukkxc","","","","","","","",""
"13855.754999999888","{""judgement"":1}","[0]","survey-likert","61","1991361","0.0-61.0","k61ukkxc","","","","","","","","1"
"2626.9000000001397","{""confidence"":1}","[0]","survey-likert","62","1993990","0.0-62.0","k61ukkxc","","","","","","","",""
"","","","call-function","63","1993991","0.0-63.0","k61ukkxc","","","","","","","",""
"null","","","html-keyboard-response","64","1995496","0.0-64.0","k61ukkxc","","<span style=""color:Black; font-size:50px;"">Agent A","null","","","","",""
"null","","","video-keyboard-response","65","1998592","0.0-65.0","k61ukkxc","","","null","","Agent A","veridical","STIM_SET_1_REAL/1592362.bmp_pp95_L2_V1.0_veridical_freeview_isoFalse_fps144.mp4",""
"null","","","html-keyboard-response","66","2000096","0.0-66.0","k61ukkxc","","<span style=""color:Black; font-size:50px;"">Agent B","null","","","","",""
"null","","","video-keyboard-response","67","2003168","0.0-67.0","k61ukkxc","","","null","","Agent B","scrambled","STIM_SET_3/150277.bmp_pp65_L3_V2_veridical_freeview_isoFalsemismatch_1592362.bmp_L2_fps90.mp4",""
"","","","call-function","68","2003169","0.0-68.0","k61ukkxc","","","","","","","",""
"3019.25","{""judgement"":0}","[0]","survey-likert","69","2006189","0.0-69.0","k61ukkxc","","","","","","","","0"
"2500.2950000001583","{""confidence"":3}","[0]","survey-likert","70","2008691","0.0-70.0","k61ukkxc","","","","","","","",""
"","","","call-function","71","2008692","0.0-71.0","k61ukkxc","","","","","","","",""
"null","","","html-keyboard-response","72","2010196","0.0-72.0","k61ukkxc","","<span style=""color:Black; font-size:50px;"">Agent A","null","","","","",""
"null","","","video-keyboard-response","73","2013300","0.0-73.0","k61ukkxc","","","null","","Agent A","scrambled","STIM_SET_3/285946.bmp_pp79_L2_V2_veridical_freeview_isoFalsemismatch_285751.bmp_L3_fps90.mp4",""
"null","","","html-keyboard-response","74","2014803","0.0-74.0","k61ukkxc","","<span style=""color:Black; font-size:50px;"">Agent B","null","","","","",""
"null","","","video-keyboard-response","75","2017881","0.0-75.0","k61ukkxc","","","null","","Agent B","veridical","STIM_SET_1_REAL/285751.bmp_pp55_L3_V1.0_veridical_freeview_isoFalse_fps144.mp4",""
"","","","call-function","76","2017882","0.0-76.0","k61ukkxc","","","","","","","",""
"13524.794999999925","{""judgement"":0}","[0]","survey-likert","77","2031408","0.0-77.0","k61ukkxc","","","","","","","","1"
"2125.434999999823","{""confidence"":0}","[0]","survey-likert","78","2033535","0.0-78.0","k61ukkxc","","","","","","","",""
"","","","call-function","79","2033536","0.0-79.0","k61ukkxc","","","","","","","",""
"null","","","html-keyboard-response","80","2035040","0.0-80.0","k61ukkxc","","<span style=""color:Black; font-size:50px;"">Agent A","null","","","","",""
"null","","","video-keyboard-response","81","2038104","0.0-81.0","k61ukkxc","","","null","","Agent A","scrambled","STIM_SET_3/286034.bmp_pp69_L3_V2_veridical_freeview_isoFalsemismatch_713403.bmp_L3_fps90.mp4",""
"null","","","html-keyboard-response","82","2039607","0.0-82.0","k61ukkxc","","<span style=""color:Black; font-size:50px;"">Agent B","null","","","","",""
"null","","","video-keyboard-response","83","2042671","0.0-83.0","k61ukkxc","","","null","","Agent B","veridical","STIM_SET_1_REAL/713403.bmp_pp80_L3_V1.0_veridical_freeview_isoFalse_fps144.mp4",""
"","","","call-function","84","2042672","0.0-84.0","k61ukkxc","","","","","","","",""
"2490.524999999907","{""judgement"":1}","[0]","survey-likert","85","2045164","0.0-85.0","k61ukkxc","","","","","","","","1"
"4501.789999999804","{""confidence"":3}","[0]","survey-likert","86","2049667","0.0-86.0","k61ukkxc","","","","","","","",""
"43636.32499999995","","","instructions","87","2093305","0.0-87.0","k61ukkxc","[{""page_index"":0,""viewing_time"":1694.0449999999255},{""page_index"":1,""viewing_time"":28118.17000000016},{""page_index"":2,""viewing_time"":13823.954999999842}]","","","","","","",""
"11134.229999999749","","","instructions","88","2104441","0.0-88.0","k61ukkxc","[{""page_index"":0,""viewing_time"":6949.08499999973},{""page_index"":1,""viewing_time"":3192.9000000003725},{""page_index"":2,""viewing_time"":992.1399999996647}]","","","","","","",""
"","","","call-function","89","2104443","0.0-89.0","k61ukkxc","","","","","","","",""
"null","","","html-keyboard-response","90","2105945","0.0-90.0","k61ukkxc","","<span style=""color:Black; font-size:50px;"">Agent A","null","","","","",""
"null","","","video-keyboard-response","91","2109016","0.0-91.0","k61ukkxc","","","null","","Agent A","scrambled","STIM_SET_3/498261.bmp_pp84_L3_V2_veridical_freeview_isoFalsemismatch_1592657.bmp_L1_fps90.mp4",""
"null","","","html-keyboard-response","92","2110522","0.0-92.0","k61ukkxc","","<span style=""color:Black; font-size:50px;"">Agent B","null","","","","",""
"null","","","video-keyboard-response","93","2113597","0.0-93.0","k61ukkxc","","","null","","Agent B","veridical","STIM_SET_1_REAL/1592657.bmp_pp98_L1_V1.0_veridical_freeview_isoFalse_fps144.mp4",""
"","","","call-function","94","2113599","0.0-94.0","k61ukkxc","","","","","","","",""
"2444.489999999758","{""judgement"":1}","[0]","survey-likert","95","2116044","0.0-95.0","k61ukkxc","","","","","","","","1"
"1957.2600000002421","{""confidence"":2}","[0]","survey-likert","96","2118003","0.0-96.0","k61ukkxc","","","","","","","",""
"","","","call-function","97","2118004","0.0-97.0","k61ukkxc","","","","","","","",""
"null","","","html-keyboard-response","98","2119506","0.0-98.0","k61ukkxc","","<span style=""color:Black; font-size:50px;"">Agent A","null","","","","",""
"null","","","video-keyboard-response","99","2122578","0.0-99.0","k61ukkxc","","","null","","Agent A","scrambled","STIM_SET_3/1592289.bmp_pp92_L3_V2_veridical_freeview_isoFalsemismatch_713666.bmp_L3_fps90.mp4",""
"null","","","html-keyboard-response","100","2124081","0.0-100.0","k61ukkxc","","<span style=""color:Black; font-size:50px;"">Agent B","null","","","","",""
"null","","","video-keyboard-response","101","2127159","0.0-101.0","k61ukkxc","","","null","","Agent B","veridical","STIM_SET_1_REAL/713666.bmp_pp97_L3_V1.0_veridical_freeview_isoFalse_fps144.mp4",""
"","","","call-function","102","2127160","0.0-102.0","k61ukkxc","","","","","","","",""
"2708.470000000205","{""judgement"":1}","[0]","survey-likert","103","2129869","0.0-103.0","k61ukkxc","","","","","","","","1"
"1674.7249999996275","{""confidence"":1}","[0]","survey-likert","104","2131545","0.0-104.0","k61ukkxc","","","","","","","",""
"","","","call-function","105","2131546","0.0-105.0","k61ukkxc","","","","","","","",""
"null","","","html-keyboard-response","106","2133048","0.0-106.0","k61ukkxc","","<span style=""color:Black; font-size:50px;"">Agent A","null","","","","",""
"null","","","video-keyboard-response","107","2136152","0.0-107.0","k61ukkxc","","","null","","Agent A","veridical","STIM_SET_1_REAL/1592372.bmp_pp76_L1_V1.0_veridical_freeview_isoFalse_fps144.mp4",""
"null","","","html-keyboard-response","108","2137655","0.0-108.0","k61ukkxc","","<span style=""color:Black; font-size:50px;"">Agent B","null","","","","",""
"null","","","video-keyboard-response","109","2140762","0.0-109.0","k61ukkxc","","","null","","Agent B","scrambled","STIM_SET_3/107909.bmp_pp95_L2_V2_veridical_freeview_isoFalsemismatch_1592372.bmp_L1_fps90.mp4",""
"","","","call-function","110","2140763","0.0-110.0","k61ukkxc","","","","","","","",""
"2579.7249999996275","{""judgement"":1}","[0]","survey-likert","111","2143344","0.0-111.0","k61ukkxc","","","","","","","","0"
"4199.25","{""confidence"":0}","[0]","survey-likert","112","2147544","0.0-112.0","k61ukkxc","","","","","","","",""
"","","","call-function","113","2147545","0.0-113.0","k61ukkxc","","","","","","","",""
"null","","","html-keyboard-response","114","2149050","0.0-114.0","k61ukkxc","","<span style=""color:Black; font-size:50px;"">Agent A","null","","","","",""
"null","","","video-keyboard-response","115","2152143","0.0-115.0","k61ukkxc","","","null","","Agent A","scrambled","STIM_SET_3/1592305.bmp_pp65_L3_V2_veridical_freeview_isoFalsemismatch_713779.bmp_L2_fps90.mp4",""
"null","","","html-keyboard-response","116","2153645","0.0-116.0","k61ukkxc","","<span style=""color:Black; font-size:50px;"">Agent B","null","","","","",""
"null","","","video-keyboard-response","117","2156732","0.0-117.0","k61ukkxc","","","null","","Agent B","veridical","STIM_SET_1_REAL/713779.bmp_pp152_L2_V1.0_veridical_freeview_isoFalse_fps144.mp4",""
"","","","call-function","118","2156733","0.0-118.0","k61ukkxc","","","","","","","",""
"2212.9799999999814","{""judgement"":1}","[0]","survey-likert","119","2158946","0.0-119.0","k61ukkxc","","","","","","","","1"
"1998.6299999998882","{""confidence"":2}","[0]","survey-likert","120","2160947","0.0-120.0","k61ukkxc","","","","","","","",""
"","","","call-function","121","2160948","0.0-121.0","k61ukkxc","","","","","","","",""
"null","","","html-keyboard-response","122","2162451","0.0-122.0","k61ukkxc","","<span style=""color:Black; font-size:50px;"">Agent A","null","","","","",""
"null","","","video-keyboard-response","123","2165559","0.0-123.0","k61ukkxc","","","null","","Agent A","scrambled","STIM_SET_3/1159874.bmp_pp96_L2_V2_veridical_freeview_isoFalsemismatch_1159515.bmp_L3_fps90.mp4",""
"null","","","html-keyboard-response","124","2167064","0.0-124.0","k61ukkxc","","<span style=""color:Black; font-size:50px;"">Agent B","null","","","","",""
"null","","","video-keyboard-response","125","2170161","0.0-125.0","k61ukkxc","","","null","","Agent B","veridical","STIM_SET_1_REAL/1159515.bmp_pp84_L3_V1.0_veridical_freeview_isoFalse_fps144.mp4",""
"","","","call-function","126","2170163","0.0-126.0","k61ukkxc","","","","","","","",""
"2311.1949999998324","{""judgement"":1}","[0]","survey-likert","127","2172475","0.0-127.0","k61ukkxc","","","","","","","","1"
"2133.4799999999814","{""confidence"":3}","[0]","survey-likert","128","2174611","0.0-128.0","k61ukkxc","","","","","","","",""
"","","","call-function","129","2174612","0.0-129.0","k61ukkxc","","","","","","","",""
"null","","","html-keyboard-response","130","2176115","0.0-130.0","k61ukkxc","","<span style=""color:Black; font-size:50px;"">Agent A","null","","","","",""
"null","","","video-keyboard-response","131","2179188","0.0-131.0","k61ukkxc","","","null","","Agent A","veridical","STIM_SET_1_REAL/1592727.bmp_pp59_L3_V1.0_veridical_freeview_isoFalse_fps144.mp4",""
"null","","","html-keyboard-response","132","2180692","0.0-132.0","k61ukkxc","","<span style=""color:Black; font-size:50px;"">Agent B","null","","","","",""
"null","","","video-keyboard-response","133","2183773","0.0-133.0","k61ukkxc","","","null","","Agent B","scrambled","STIM_SET_3/1592038.bmp_pp79_L2_V2_veridical_freeview_isoFalsemismatch_1592727.bmp_L3_fps90.mp4",""
"","","","call-function","134","2183774","0.0-134.0","k61ukkxc","","","","","","","",""
"3908.6400000001304","{""judgement"":0}","[0]","survey-likert","135","2187683","0.0-135.0","k61ukkxc","","","","","","","","0"
"2278.564999999944","{""confidence"":0}","[0]","survey-likert","136","2189964","0.0-136.0","k61ukkxc","","","","","","","",""
"","","","call-function","137","2189965","0.0-137.0","k61ukkxc","","","","","","","",""
"null","","","html-keyboard-response","138","2191470","0.0-138.0","k61ukkxc","","<span style=""color:Black; font-size:50px;"">Agent A","null","","","","",""
"null","","","video-keyboard-response","139","2194533","0.0-139.0","k61ukkxc","","","null","","Agent A","veridical","STIM_SET_1_REAL/1592351.bmp_pp51_L1_V1.0_veridical_freeview_isoFalse_fps144.mp4",""
"null","","","html-keyboard-response","140","2196039","0.0-140.0","k61ukkxc","","<span style=""color:Black; font-size:50px;"">Agent B","null","","","","",""
"null","","","video-keyboard-response","141","2199123","0.0-141.0","k61ukkxc","","","null","","Agent B","scrambled","STIM_SET_3/1592025.bmp_pp68_L1_V2_veridical_freeview_isoFalsemismatch_1592351.bmp_L1_fps90.mp4",""
"","","","call-function","142","2199124","0.0-142.0","k61ukkxc","","","","","","","",""
"1681.595000000205","{""judgement"":0}","[0]","survey-likert","143","2200807","0.0-143.0","k61ukkxc","","","","","","","","0"
"2497.5200000000186","{""confidence"":1}","[0]","survey-likert","144","2203306","0.0-144.0","k61ukkxc","","","","","","","",""
"","","","call-function","145","2203307","0.0-145.0","k61ukkxc","","","","","","","",""
"null","","","html-keyboard-response","146","2204812","0.0-146.0","k61ukkxc","","<span style=""color:Black; font-size:50px;"">Agent A","null","","","","",""
"null","","","video-keyboard-response","147","2207934","0.0-147.0","k61ukkxc","","","null","","Agent A","scrambled","STIM_SET_3/1592350.bmp_pp55_L3_V2_veridical_freeview_isoFalsemismatch_498111.bmp_L2_fps90.mp4",""
"null","","","html-keyboard-response","148","2209439","0.0-148.0","k61ukkxc","","<span style=""color:Black; font-size:50px;"">Agent B","null","","","","",""
"null","","","video-keyboard-response","149","2212546","0.0-149.0","k61ukkxc","","","null","","Agent B","veridical","STIM_SET_1_REAL/498111.bmp_pp88_L2_V1.0_veridical_freeview_isoFalse_fps144.mp4",""
"","","","call-function","150","2212548","0.0-150.0","k61ukkxc","","","","","","","",""
"2719.2349999998696","{""judgement"":1}","[0]","survey-likert","151","2215269","0.0-151.0","k61ukkxc","","","","","","","","1"
"2842.0250000003725","{""confidence"":2}","[0]","survey-likert","152","2218113","0.0-152.0","k61ukkxc","","","","","","","",""
"","","","call-function","153","2218115","0.0-153.0","k61ukkxc","","","","","","","",""
"null","","","html-keyboard-response","154","2219619","0.0-154.0","k61ukkxc","","<span style=""color:Black; font-size:50px;"">Agent A","null","","","","",""
"null","","","video-keyboard-response","155","2222691","0.0-155.0","k61ukkxc","","","null","","Agent A","scrambled","STIM_SET_3/498258.bmp_pp51_L1_V2_veridical_freeview_isoFalsemismatch_498155.bmp_L2_fps90.mp4",""
"null","","","html-keyboard-response","156","2224198","0.0-156.0","k61ukkxc","","<span style=""color:Black; font-size:50px;"">Agent B","null","","","","",""
"null","","","video-keyboard-response","157","2227274","0.0-157.0","k61ukkxc","","","null","","Agent B","veridical","STIM_SET_1_REAL/498155.bmp_pp61_L2_V1.0_veridical_freeview_isoFalse_fps144.mp4",""
"","","","call-function","158","2227276","0.0-158.0","k61ukkxc","","","","","","","",""
"2403.2099999999627","{""judgement"":1}","[0]","survey-likert","159","2229680","0.0-159.0","k61ukkxc","","","","","","","","1"
"1534.1850000000559","{""confidence"":3}","[0]","survey-likert","160","2231216","0.0-160.0","k61ukkxc","","","","","","","",""
"","","","call-function","161","2231217","0.0-161.0","k61ukkxc","","","","","","","",""
"null","","","html-keyboard-response","162","2232720","0.0-162.0","k61ukkxc","","<span style=""color:Black; font-size:50px;"">Agent A","null","","","","",""
"null","","","video-keyboard-response","163","2235798","0.0-163.0","k61ukkxc","","","null","","Agent A","veridical","STIM_SET_1_REAL/713371.bmp_pp68_L1_V1.0_veridical_freeview_isoFalse_fps144.mp4",""
"null","","","html-keyboard-response","164","2237305","0.0-164.0","k61ukkxc","","<span style=""color:Black; font-size:50px;"">Agent B","null","","","","",""
"null","","","video-keyboard-response","165","2240436","0.0-165.0","k61ukkxc","","","null","","Agent B","scrambled","STIM_SET_3/498396.bmp_pp99_L2_V2_veridical_freeview_isoFalsemismatch_713371.bmp_L1_fps90.mp4",""
"","","","call-function","166","2240438","0.0-166.0","k61ukkxc","","","","","","","",""
"2755.510000000242","{""judgement"":0}","[0]","survey-likert","167","2243194","0.0-167.0","k61ukkxc","","","","","","","","0"
"2144.5849999999627","{""confidence"":0}","[0]","survey-likert","168","2245340","0.0-168.0","k61ukkxc","","","","","","","",""
"38856.560000000056","","","instructions","169","2284198","0.0-169.0","k61ukkxc","[{""page_index"":0,""viewing_time"":1767.6400000001304},{""page_index"":1,""viewing_time"":35832.77499999991},{""page_index"":2,""viewing_time"":1255.9900000002235}]","","","","","","",""
"4734.014999999665","","","instructions","170","2288933","0.0-170.0","k61ukkxc","[{""page_index"":0,""viewing_time"":1224.894999999553},{""page_index"":1,""viewing_time"":2494.920000000391},{""page_index"":2,""viewing_time"":1013.9749999996275}]","","","","","","",""
"","","","call-function","171","2288934","0.0-171.0","k61ukkxc","","","","","","","",""
"null","","","html-keyboard-response","172","2290437","0.0-172.0","k61ukkxc","","<span style=""color:Black; font-size:50px;"">Agent A","null","","","","",""
"null","","","video-keyboard-response","173","2293516","0.0-173.0","k61ukkxc","","","null","","Agent A","scrambled","STIM_SET_3/1592857.bmp_pp52_L1_V2_veridical_freeview_isoFalsemismatch_1160168.bmp_L2_fps90.mp4",""
"null","","","html-keyboard-response","174","2295018","0.0-174.0","k61ukkxc","","<span style=""color:Black; font-size:50px;"">Agent B","null","","","","",""
"null","","","video-keyboard-response","175","2298087","0.0-175.0","k61ukkxc","","","null","","Agent B","veridical","STIM_SET_1_REAL/1160168.bmp_pp53_L2_V1.0_veridical_freeview_isoFalse_fps144.mp4",""
"","","","call-function","176","2298088","0.0-176.0","k61ukkxc","","","","","","","",""
"2633.6400000001304","{""judgement"":1}","[0]","survey-likert","177","2300722","0.0-177.0","k61ukkxc","","","","","","","","1"
"4134.694999999832","{""confidence"":2}","[0]","survey-likert","178","2304859","0.0-178.0","k61ukkxc","","","","","","","",""
"","","","call-function","179","2304860","0.0-179.0","k61ukkxc","","","","","","","",""
"null","","","html-keyboard-response","180","2306361","0.0-180.0","k61ukkxc","","<span style=""color:Black; font-size:50px;"">Agent A","null","","","","",""
"null","","","video-keyboard-response","181","2309427","0.0-181.0","k61ukkxc","","","null","","Agent A","veridical","STIM_SET_1_REAL/1159621.bmp_pp92_L3_V1.0_veridical_freeview_isoFalse_fps144.mp4",""
"null","","","html-keyboard-response","182","2310931","0.0-182.0","k61ukkxc","","<span style=""color:Black; font-size:50px;"">Agent B","null","","","","",""
"null","","","video-keyboard-response","183","2313993","0.0-183.0","k61ukkxc","","","null","","Agent B","scrambled","STIM_SET_3/1159860.bmp_pp152_L2_V2_veridical_freeview_isoFalsemismatch_1159621.bmp_L3_fps90.mp4",""
"","","","call-function","184","2313995","0.0-184.0","k61ukkxc","","","","","","","",""
"3562.149999999907","{""judgement"":0}","[0]","survey-likert","185","2317558","0.0-185.0","k61ukkxc","","","","","","","","0"
"1849.5250000003725","{""confidence"":1}","[0]","survey-likert","186","2319409","0.0-186.0","k61ukkxc","","","","","","","",""
"","","","call-function","187","2319410","0.0-187.0","k61ukkxc","","","","","","","",""
"null","","","html-keyboard-response","188","2320914","0.0-188.0","k61ukkxc","","<span style=""color:Black; font-size:50px;"">Agent A","null","","","","",""
"null","","","video-keyboard-response","189","2324024","0.0-189.0","k61ukkxc","","","null","","Agent A","veridical","STIM_SET_1_REAL/1592807.bmp_pp68_L1_V1.0_veridical_freeview_isoFalse_fps144.mp4",""
"null","","","html-keyboard-response","190","2325528","0.0-190.0","k61ukkxc","","<span style=""color:Black; font-size:50px;"">Agent B","null","","","","",""
"null","","","video-keyboard-response","191","2328638","0.0-191.0","k61ukkxc","","","null","","Agent B","scrambled","STIM_SET_3/713652.bmp_pp89_L1_V2_veridical_freeview_isoFalsemismatch_1592807.bmp_L1_fps90.mp4",""
"","","","call-function","192","2328640","0.0-192.0","k61ukkxc","","","","","","","",""
"3101.1650000000373","{""judgement"":0}","[0]","survey-likert","193","2331742","0.0-193.0","k61ukkxc","","","","","","","","0"
"2300.9950000001118","{""confidence"":1}","[0]","survey-likert","194","2334044","0.0-194.0","k61ukkxc","","","","","","","",""
"","","","call-function","195","2334046","0.0-195.0","k61ukkxc","","","","","","","",""
"null","","","html-keyboard-response","196","2335548","0.0-196.0","k61ukkxc","","<span style=""color:Black; font-size:50px;"">Agent A","null","","","","",""
"null","","","video-keyboard-response","197","2338638","0.0-197.0","k61ukkxc","","","null","","Agent A","veridical","STIM_SET_1_REAL/285994.bmp_pp92_L3_V1.0_veridical_freeview_isoFalse_fps144.mp4",""
"null","","","html-keyboard-response","198","2340141","0.0-198.0","k61ukkxc","","<span style=""color:Black; font-size:50px;"">Agent B","null","","","","",""
"null","","","video-keyboard-response","199","2343261","0.0-199.0","k61ukkxc","","","null","","Agent B","scrambled","STIM_SET_3/1159592.bmp_pp91_L3_V2_veridical_freeview_isoFalsemismatch_285994.bmp_L3_fps90.mp4",""
"","","","call-function","200","2343262","0.0-200.0","k61ukkxc","","","","","","","",""
"6289.910000000149","{""judgement"":1}","[0]","survey-likert","201","2349553","0.0-201.0","k61ukkxc","","","","","","","","0"
"1688.6350000002421","{""confidence"":1}","[0]","survey-likert","202","2351243","0.0-202.0","k61ukkxc","","","","","","","",""
"","","","call-function","203","2351244","0.0-203.0","k61ukkxc","","","","","","","",""
"null","","","html-keyboard-response","204","2352748","0.0-204.0","k61ukkxc","","<span style=""color:Black; font-size:50px;"">Agent A","null","","","","",""
"null","","","video-keyboard-response","205","2355859","0.0-205.0","k61ukkxc","","","null","","Agent A","scrambled","STIM_SET_3/1160049.bmp_pp53_L2_V2_veridical_freeview_isoFalsemismatch_1591954.bmp_L2_fps90.mp4",""
"null","","","html-keyboard-response","206","2357360","0.0-206.0","k61ukkxc","","<span style=""color:Black; font-size:50px;"">Agent B","null","","","","",""
"null","","","video-keyboard-response","207","2360435","0.0-207.0","k61ukkxc","","","null","","Agent B","veridical","STIM_SET_1_REAL/1591954.bmp_pp62_L2_V1.0_veridical_freeview_isoFalse_fps144.mp4",""
"","","","call-function","208","2360437","0.0-208.0","k61ukkxc","","","","","","","",""
"2473.0999999996275","{""judgement"":1}","[0]","survey-likert","209","2362912","0.0-209.0","k61ukkxc","","","","","","","","1"
"1356.5649999999441","{""confidence"":1}","[0]","survey-likert","210","2364270","0.0-210.0","k61ukkxc","","","","","","","",""
"","","","call-function","211","2364271","0.0-211.0","k61ukkxc","","","","","","","",""
"null","","","html-keyboard-response","212","2365775","0.0-212.0","k61ukkxc","","<span style=""color:Black; font-size:50px;"">Agent A","null","","","","",""
"null","","","video-keyboard-response","213","2368838","0.0-213.0","k61ukkxc","","","null","","Agent A","veridical","STIM_SET_1_REAL/713089.bmp_pp60_L3_V1.0_veridical_freeview_isoFalse_fps144.mp4",""
"null","","","html-keyboard-response","214","2370341","0.0-214.0","k61ukkxc","","<span style=""color:Black; font-size:50px;"">Agent B","null","","","","",""
"null","","","video-keyboard-response","215","2373414","0.0-215.0","k61ukkxc","","","null","","Agent B","scrambled","STIM_SET_3/1592201.bmp_pp97_L3_V2_veridical_freeview_isoFalsemismatch_713089.bmp_L3_fps90.mp4",""
"","","","call-function","216","2373415","0.0-216.0","k61ukkxc","","","","","","","",""
"1624.9599999999627","{""judgement"":0}","[0]","survey-likert","217","2375041","0.0-217.0","k61ukkxc","","","","","","","","0"
"1718.4349999995902","{""confidence"":3}","[0]","survey-likert","218","2376762","0.0-218.0","k61ukkxc","","","","","","","",""
"","","","call-function","219","2376763","0.0-219.0","k61ukkxc","","","","","","","",""
"null","","","html-keyboard-response","220","2378268","0.0-220.0","k61ukkxc","","<span style=""color:Black; font-size:50px;"">Agent A","null","","","","",""
"null","","","video-keyboard-response","221","2381330","0.0-221.0","k61ukkxc","","","null","","Agent A","veridical","STIM_SET_1_REAL/1159447.bmp_pp70_L2_V1.0_veridical_freeview_isoFalse_fps144.mp4",""
"null","","","html-keyboard-response","222","2382836","0.0-222.0","k61ukkxc","","<span style=""color:Black; font-size:50px;"">Agent B","null","","","","",""
"null","","","video-keyboard-response","223","2385934","0.0-223.0","k61ukkxc","","","null","","Agent B","scrambled","STIM_SET_3/1592150.bmp_pp77_L3_V2_veridical_freeview_isoFalsemismatch_1159447.bmp_L2_fps90.mp4",""
"","","","call-function","224","2385935","0.0-224.0","k61ukkxc","","","","","","","",""
"3363.8600000003353","{""judgement"":0}","[0]","survey-likert","225","2389300","0.0-225.0","k61ukkxc","","","","","","","","0"
"2261.3300000000745","{""confidence"":3}","[0]","survey-likert","226","2391563","0.0-226.0","k61ukkxc","","","","","","","",""
"","","","call-function","227","2391564","0.0-227.0","k61ukkxc","","","","","","","",""
"null","","","html-keyboard-response","228","2393066","0.0-228.0","k61ukkxc","","<span style=""color:Black; font-size:50px;"">Agent A","null","","","","",""
"null","","","video-keyboard-response","229","2396182","0.0-229.0","k61ukkxc","","","null","","Agent A","scrambled","STIM_SET_3/285959.bmp_pp93_L1_V2_veridical_freeview_isoFalsemismatch_498253.bmp_L2_fps90.mp4",""
"null","","","html-keyboard-response","230","2397687","0.0-230.0","k61ukkxc","","<span style=""color:Black; font-size:50px;"">Agent B","null","","","","",""
"null","","","video-keyboard-response","231","2400787","0.0-231.0","k61ukkxc","","","null","","Agent B","veridical","STIM_SET_1_REAL/498253.bmp_pp67_L2_V1.0_veridical_freeview_isoFalse_fps144.mp4",""
"","","","call-function","232","2400788","0.0-232.0","k61ukkxc","","","","","","","",""
"14378.595000000205","{""judgement"":0}","[0]","survey-likert","233","2415167","0.0-233.0","k61ukkxc","","","","","","","","1"
"2499.1099999998696","{""confidence"":1}","[0]","survey-likert","234","2417668","0.0-234.0","k61ukkxc","","","","","","","",""
"","","","call-function","235","2417669","0.0-235.0","k61ukkxc","","","","","","","",""
"null","","","html-keyboard-response","236","2419172","0.0-236.0","k61ukkxc","","<span style=""color:Black; font-size:50px;"">Agent A","null","","","","",""
"null","","","video-keyboard-response","237","2422264","0.0-237.0","k61ukkxc","","","null","","Agent A","veridical","STIM_SET_1_REAL/497950.bmp_pp151_L1_V1.0_veridical_freeview_isoFalse_fps144.mp4",""
"null","","","html-keyboard-response","238","2423770","0.0-238.0","k61ukkxc","","<span style=""color:Black; font-size:50px;"">Agent B","null","","","","",""
"null","","","video-keyboard-response","239","2426850","0.0-239.0","k61ukkxc","","","null","","Agent B","scrambled","STIM_SET_3/713274.bmp_pp73_L3_V2_veridical_freeview_isoFalsemismatch_497950.bmp_L1_fps90.mp4",""
"","","","call-function","240","2426852","0.0-240.0","k61ukkxc","","","","","","","",""
"1857.8100000000559","{""judgement"":0}","[0]","survey-likert","241","2428710","0.0-241.0","k61ukkxc","","","","","","","","0"
"5518.844999999739","{""confidence"":2}","[0]","survey-likert","242","2434231","0.0-242.0","k61ukkxc","","","","","","","",""
"","","","call-function","243","2434232","0.0-243.0","k61ukkxc","","","","","","","",""
"null","","","html-keyboard-response","244","2435737","0.0-244.0","k61ukkxc","","<span style=""color:Black; font-size:50px;"">Agent A","null","","","","",""
"null","","","video-keyboard-response","245","2438809","0.0-245.0","k61ukkxc","","","null","","Agent A","veridical","STIM_SET_1_REAL/713135.bmp_pp54_L2_V1.0_veridical_freeview_isoFalse_fps144.mp4",""
"null","","","html-keyboard-response","246","2440313","0.0-246.0","k61ukkxc","","<span style=""color:Black; font-size:50px;"">Agent B","null","","","","",""
"null","","","video-keyboard-response","247","2443391","0.0-247.0","k61ukkxc","","","null","","Agent B","scrambled","STIM_SET_3/1592567.bmp_pp70_L2_V2_veridical_freeview_isoFalsemismatch_713135.bmp_L2_fps90.mp4",""
"","","","call-function","248","2443393","0.0-248.0","k61ukkxc","","","","","","","",""
"3655.839999999851","{""judgement"":0}","[0]","survey-likert","249","2447049","0.0-249.0","k61ukkxc","","","","","","","","0"
"1863.1650000000373","{""confidence"":0}","[0]","survey-likert","250","2448915","0.0-250.0","k61ukkxc","","","","","","","",""
"69291.5","","","instructions","251","2518208","0.0-251.0","k61ukkxc","[{""page_index"":0,""viewing_time"":2130.4849999998696},{""page_index"":1,""viewing_time"":66761.79499999993},{""page_index"":2,""viewing_time"":399.05500000016764}]","","","","","","",""
"3617.3799999998882","","","instructions","252","2521827","0.0-252.0","k61ukkxc","[{""page_index"":0,""viewing_time"":938.1649999995716},{""page_index"":1,""viewing_time"":2069.935000000056},{""page_index"":2,""viewing_time"":609.070000000298}]","","","","","","",""
"","","","call-function","253","2521828","0.0-253.0","k61ukkxc","","","","","","","",""
"null","","","html-keyboard-response","254","2523329","0.0-254.0","k61ukkxc","","<span style=""color:Black; font-size:50px;"">Agent A","null","","","","",""
"null","","","video-keyboard-response","255","2526410","0.0-255.0","k61ukkxc","","","null","","Agent A","scrambled","STIM_SET_3/498398.bmp_pp81_L1_V2_veridical_freeview_isoFalsemismatch_713620.bmp_L3_fps90.mp4",""
"null","","","html-keyboard-response","256","2527915","0.0-256.0","k61ukkxc","","<span style=""color:Black; font-size:50px;"">Agent B","null","","","","",""
"null","","","video-keyboard-response","257","2530988","0.0-257.0","k61ukkxc","","","null","","Agent B","veridical","STIM_SET_1_REAL/713620.bmp_pp65_L3_V1.0_veridical_freeview_isoFalse_fps144.mp4",""
"","","","call-function","258","2530989","0.0-258.0","k61ukkxc","","","","","","","",""
"2747.8849999997765","{""judgement"":1}","[0]","survey-likert","259","2533738","0.0-259.0","k61ukkxc","","","","","","","","1"
"1817.7900000000373","{""confidence"":2}","[0]","survey-likert","260","2535558","0.0-260.0","k61ukkxc","","","","","","","",""
"","","","call-function","261","2535559","0.0-261.0","k61ukkxc","","","","","","","",""
"null","","","html-keyboard-response","262","2537062","0.0-262.0","k61ukkxc","","<span style=""color:Black; font-size:50px;"">Agent A","null","","","","",""
"null","","","video-keyboard-response","263","2540136","0.0-263.0","k61ukkxc","","","null","","Agent A","veridical","STIM_SET_1_REAL/1592286.bmp_pp52_L1_V1.0_veridical_freeview_isoFalse_fps144.mp4",""
"null","","","html-keyboard-response","264","2541642","0.0-264.0","k61ukkxc","","<span style=""color:Black; font-size:50px;"">Agent B","null","","","","",""
"null","","","video-keyboard-response","265","2544725","0.0-265.0","k61ukkxc","","","null","","Agent B","scrambled","STIM_SET_3/498326.bmp_pp57_L1_V2_veridical_freeview_isoFalsemismatch_1592286.bmp_L1_fps90.mp4",""
"","","","call-function","266","2544726","0.0-266.0","k61ukkxc","","","","","","","",""
"2474.310000000056","{""judgement"":0}","[0]","survey-likert","267","2547202","0.0-267.0","k61ukkxc","","","","","","","","0"
"2105.899999999907","{""confidence"":2}","[0]","survey-likert","268","2549311","0.0-268.0","k61ukkxc","","","","","","","",""
"","","","call-function","269","2549313","0.0-269.0","k61ukkxc","","","","","","","",""
"null","","","html-keyboard-response","270","2550816","0.0-270.0","k61ukkxc","","<span style=""color:Black; font-size:50px;"">Agent A","null","","","","",""
"null","","","video-keyboard-response","271","2553883","0.0-271.0","k61ukkxc","","","null","","Agent A","veridical","STIM_SET_1_REAL/498170.bmp_pp153_L3_V1.0_veridical_freeview_isoFalse_fps144.mp4",""
"null","","","html-keyboard-response","272","2555385","0.0-272.0","k61ukkxc","","<span style=""color:Black; font-size:50px;"">Agent B","null","","","","",""
"null","","","video-keyboard-response","273","2558478","0.0-273.0","k61ukkxc","","","null","","Agent B","scrambled","STIM_SET_3/713742.bmp_pp91_L3_V2_veridical_freeview_isoFalsemismatch_498170.bmp_L3_fps90.mp4",""
"","","","call-function","274","2558479","0.0-274.0","k61ukkxc","","","","","","","",""
"3721.6749999998137","{""judgement"":0}","[0]","survey-likert","275","2562202","0.0-275.0","k61ukkxc","","","","","","","","0"
"1722.2600000002421","{""confidence"":1}","[0]","survey-likert","276","2563927","0.0-276.0","k61ukkxc","","","","","","","",""
"","","","call-function","277","2563928","0.0-277.0","k61ukkxc","","","","","","","",""
"null","","","html-keyboard-response","278","2565429","0.0-278.0","k61ukkxc","","<span style=""color:Black; font-size:50px;"">Agent A","null","","","","",""
"null","","","video-keyboard-response","279","2568490","0.0-279.0","k61ukkxc","","","null","","Agent A","scrambled","STIM_SET_3/1159427.bmp_pp98_L1_V2_veridical_freeview_isoFalsemismatch_1591876.bmp_L1_fps90.mp4",""
"null","","","html-keyboard-response","280","2569991","0.0-280.0","k61ukkxc","","<span style=""color:Black; font-size:50px;"">Agent B","null","","","","",""
"null","","","video-keyboard-response","281","2573068","0.0-281.0","k61ukkxc","","","null","","Agent B","veridical","STIM_SET_1_REAL/1591876.bmp_pp63_L1_V1.0_veridical_freeview_isoFalse_fps144.mp4",""
"","","","call-function","282","2573069","0.0-282.0","k61ukkxc","","","","","","","",""
"2240.195000000298","{""judgement"":1}","[0]","survey-likert","283","2575310","0.0-283.0","k61ukkxc","","","","","","","","1"
"2171.5400000000373","{""confidence"":2}","[0]","survey-likert","284","2577483","0.0-284.0","k61ukkxc","","","","","","","",""
"","","","call-function","285","2577484","0.0-285.0","k61ukkxc","","","","","","","",""
"null","","","html-keyboard-response","286","2578987","0.0-286.0","k61ukkxc","","<span style=""color:Black; font-size:50px;"">Agent A","null","","","","",""
"null","","","video-keyboard-response","287","2582092","0.0-287.0","k61ukkxc","","","null","","Agent A","veridical","STIM_SET_1_REAL/1159768.bmp_pp89_L1_V1.0_veridical_freeview_isoFalse_fps144.mp4",""
"null","","","html-keyboard-response","288","2583595","0.0-288.0","k61ukkxc","","<span style=""color:Black; font-size:50px;"">Agent B","null","","","","",""
"null","","","video-keyboard-response","289","2586715","0.0-289.0","k61ukkxc","","","null","","Agent B","scrambled","STIM_SET_3/713788.bmp_pp52_L1_V2_veridical_freeview_isoFalsemismatch_1159768.bmp_L1_fps90.mp4",""
"","","","call-function","290","2586716","0.0-290.0","k61ukkxc","","","","","","","",""
"4235.780000000261","{""judgement"":0}","[0]","survey-likert","291","2590953","0.0-291.0","k61ukkxc","","","","","","","","0"
"2110.0850000004284","{""confidence"":1}","[0]","survey-likert","292","2593065","0.0-292.0","k61ukkxc","","","","","","","",""
"","","","call-function","293","2593066","0.0-293.0","k61ukkxc","","","","","","","",""
"null","","","html-keyboard-response","294","2594568","0.0-294.0","k61ukkxc","","<span style=""color:Black; font-size:50px;"">Agent A","null","","","","",""
"null","","","video-keyboard-response","295","2597673","0.0-295.0","k61ukkxc","","","null","","Agent A","veridical","STIM_SET_1_REAL/1591961.bmp_pp67_L2_V1.0_veridical_freeview_isoFalse_fps144.mp4",""
"null","","","html-keyboard-response","296","2599177","0.0-296.0","k61ukkxc","","<span style=""color:Black; font-size:50px;"">Agent B","null","","","","",""
"null","","","video-keyboard-response","297","2602298","0.0-297.0","k61ukkxc","","","null","","Agent B","scrambled","STIM_SET_3/1592530.bmp_pp75_L1_V2_veridical_freeview_isoFalsemismatch_1591961.bmp_L2_fps90.mp4",""
"","","","call-function","298","2602299","0.0-298.0","k61ukkxc","","","","","","","",""
"2087.9850000003353","{""judgement"":0}","[0]","survey-likert","299","2604388","0.0-299.0","k61ukkxc","","","","","","","","0"
"2319.0150000001304","{""confidence"":2}","[0]","survey-likert","300","2606709","0.0-300.0","k61ukkxc","","","","","","","",""
"","","","call-function","301","2606710","0.0-301.0","k61ukkxc","","","","","","","",""
"null","","","html-keyboard-response","302","2608211","0.0-302.0","k61ukkxc","","<span style=""color:Black; font-size:50px;"">Agent A","null","","","","",""
"null","","","video-keyboard-response","303","2611317","0.0-303.0","k61ukkxc","","","null","","Agent A","veridical","STIM_SET_1_REAL/713017.bmp_pp152_L2_V1.0_veridical_freeview_isoFalse_fps144.mp4",""
"null","","","html-keyboard-response","304","2612819","0.0-304.0","k61ukkxc","","<span style=""color:Black; font-size:50px;"">Agent B","null","","","","",""
"null","","","video-keyboard-response","305","2615928","0.0-305.0","k61ukkxc","","","null","","Agent B","scrambled","STIM_SET_3/1591975.bmp_pp88_L2_V2_veridical_freeview_isoFalsemismatch_713017.bmp_L2_fps90.mp4",""
"","","","call-function","306","2615929","0.0-306.0","k61ukkxc","","","","","","","",""
"2194.6949999998324","{""judgement"":0}","[0]","survey-likert","307","2618125","0.0-307.0","k61ukkxc","","","","","","","","0"
"1903.8599999998696","{""confidence"":3}","[0]","survey-likert","308","2620031","0.0-308.0","k61ukkxc","","","","","","","",""
"","","","call-function","309","2620032","0.0-309.0","k61ukkxc","","","","","","","",""
"null","","","html-keyboard-response","310","2621538","0.0-310.0","k61ukkxc","","<span style=""color:Black; font-size:50px;"">Agent A","null","","","","",""
"null","","","video-keyboard-response","311","2624618","0.0-311.0","k61ukkxc","","","null","","Agent A","veridical","STIM_SET_1_REAL/713749.bmp_pp88_L2_V1.0_veridical_freeview_isoFalse_fps144.mp4",""
"null","","","html-keyboard-response","312","2626122","0.0-312.0","k61ukkxc","","<span style=""color:Black; font-size:50px;"">Agent B","null","","","","",""
"null","","","video-keyboard-response","313","2629247","0.0-313.0","k61ukkxc","","","null","","Agent B","scrambled","STIM_SET_3/713858.bmp_pp57_L1_V2_veridical_freeview_isoFalsemismatch_713749.bmp_L2_fps90.mp4",""
"","","","call-function","314","2629248","0.0-314.0","k61ukkxc","","","","","","","",""
"1871.4449999998324","{""judgement"":0}","[0]","survey-likert","315","2631120","0.0-315.0","k61ukkxc","","","","","","","","0"
"1412.0499999998137","{""confidence"":2}","[0]","survey-likert","316","2632534","0.0-316.0","k61ukkxc","","","","","","","",""
"","","","call-function","317","2632535","0.0-317.0","k61ukkxc","","","","","","","",""
"null","","","html-keyboard-response","318","2634037","0.0-318.0","k61ukkxc","","<span style=""color:Black; font-size:50px;"">Agent A","null","","","","",""
"null","","","video-keyboard-response","319","2637133","0.0-319.0","k61ukkxc","","","null","","Agent A","scrambled","STIM_SET_3/1160247.bmp_pp54_L2_V2_veridical_freeview_isoFalsemismatch_1592133.bmp_L1_fps90.mp4",""
"null","","","html-keyboard-response","320","2638637","0.0-320.0","k61ukkxc","","<span style=""color:Black; font-size:50px;"">Agent B","null","","","","",""
"null","","","video-keyboard-response","321","2641701","0.0-321.0","k61ukkxc","","","null","","Agent B","veridical","STIM_SET_1_REAL/1592133.bmp_pp75_L1_V1.0_veridical_freeview_isoFalse_fps144.mp4",""
"","","","call-function","322","2641702","0.0-322.0","k61ukkxc","","","","","","","",""
"3445.070000000298","{""judgement"":1}","[0]","survey-likert","323","2645148","0.0-323.0","k61ukkxc","","","","","","","","1"
"1493.6999999997206","{""confidence"":1}","[0]","survey-likert","324","2646643","0.0-324.0","k61ukkxc","","","","","","","",""
"","","","call-function","325","2646644","0.0-325.0","k61ukkxc","","","","","","","",""
"null","","","html-keyboard-response","326","2648146","0.0-326.0","k61ukkxc","","<span style=""color:Black; font-size:50px;"">Agent A","null","","","","",""
"null","","","video-keyboard-response","327","2651252","0.0-327.0","k61ukkxc","","","null","","Agent A","scrambled","STIM_SET_3/1592017.bmp_pp154_L1_V2_veridical_freeview_isoFalsemismatch_1159777.bmp_L3_fps90.mp4",""
"null","","","html-keyboard-response","328","2652758","0.0-328.0","k61ukkxc","","<span style=""color:Black; font-size:50px;"">Agent B","null","","","","",""
"null","","","video-keyboard-response","329","2655837","0.0-329.0","k61ukkxc","","","null","","Agent B","veridical","STIM_SET_1_REAL/1159777.bmp_pp77_L3_V1.0_veridical_freeview_isoFalse_fps144.mp4",""
"","","","call-function","330","2655839","0.0-330.0","k61ukkxc","","","","","","","",""
"1971.3349999999627","{""judgement"":1}","[0]","survey-likert","331","2657812","0.0-331.0","k61ukkxc","","","","","","","","1"
"1339.195000000298","{""confidence"":2}","[0]","survey-likert","332","2659152","0.0-332.0","k61ukkxc","","","","","","","",""
"43448.60000000009","","","instructions","333","2702602","0.0-333.0","k61ukkxc","[{""page_index"":0,""viewing_time"":1634.4300000001676},{""page_index"":1,""viewing_time"":38849.294999999925},{""page_index"":2,""viewing_time"":2964.7099999999627}]","","","","","","",""
"6309.895000000019","","","instructions","334","2708913","0.0-334.0","k61ukkxc","[{""page_index"":0,""viewing_time"":794.6200000001118},{""page_index"":1,""viewing_time"":3313.3950000000186},{""page_index"":2,""viewing_time"":2201.774999999907}]","","","","","","",""
"","","","call-function","335","2708914","0.0-335.0","k61ukkxc","","","","","","","",""
"null","","","html-keyboard-response","336","2710416","0.0-336.0","k61ukkxc","","<span style=""color:Black; font-size:50px;"">Agent A","null","","","","",""
"null","","","video-keyboard-response","337","2713496","0.0-337.0","k61ukkxc","","","null","","Agent A","veridical","STIM_SET_1_REAL/1592804.bmp_pp91_L3_V1.0_veridical_freeview_isoFalse_fps144.mp4",""
"null","","","html-keyboard-response","338","2715001","0.0-338.0","k61ukkxc","","<span style=""color:Black; font-size:50px;"">Agent B","null","","","","",""
"null","","","video-keyboard-response","339","2718144","0.0-339.0","k61ukkxc","","","null","","Agent B","scrambled","STIM_SET_3/1591920.bmp_pp97_L3_V2_veridical_freeview_isoFalsemismatch_1592804.bmp_L3_fps90.mp4",""
"","","","call-function","340","2718146","0.0-340.0","k61ukkxc","","","","","","","",""
"2032.6200000001118","{""judgement"":0}","[0]","survey-likert","341","2720179","0.0-341.0","k61ukkxc","","","","","","","","0"
"2470.489999999758","{""confidence"":1}","[0]","survey-likert","342","2722652","0.0-342.0","k61ukkxc","","","","","","","",""
"","","","call-function","343","2722653","0.0-343.0","k61ukkxc","","","","","","","",""
"null","","","html-keyboard-response","344","2724156","0.0-344.0","k61ukkxc","","<span style=""color:Black; font-size:50px;"">Agent A","null","","","","",""
"null","","","video-keyboard-response","345","2727228","0.0-345.0","k61ukkxc","","","null","","Agent A","veridical","STIM_SET_1_REAL/285933.bmp_pp81_L1_V1.0_veridical_freeview_isoFalse_fps144.mp4",""
"null","","","html-keyboard-response","346","2728734","0.0-346.0","k61ukkxc","","<span style=""color:Black; font-size:50px;"">Agent B","null","","","","",""
"null","","","video-keyboard-response","347","2731819","0.0-347.0","k61ukkxc","","","null","","Agent B","scrambled","STIM_SET_3/1159973.bmp_pp98_L1_V2_veridical_freeview_isoFalsemismatch_285933.bmp_L1_fps90.mp4",""
"","","","call-function","348","2731820","0.0-348.0","k61ukkxc","","","","","","","",""
"1882.0099999997765","{""judgement"":0}","[0]","survey-likert","349","2733703","0.0-349.0","k61ukkxc","","","","","","","","0"
"1530.8100000000559","{""confidence"":2}","[0]","survey-likert","350","2735235","0.0-350.0","k61ukkxc","","","","","","","",""
"","","","call-function","351","2735236","0.0-351.0","k61ukkxc","","","","","","","",""
"null","","","html-keyboard-response","352","2736737","0.0-352.0","k61ukkxc","","<span style=""color:Black; font-size:50px;"">Agent A","null","","","","",""
"null","","","video-keyboard-response","353","2739830","0.0-353.0","k61ukkxc","","","null","","Agent A","veridical","STIM_SET_1_REAL/1159446.bmp_pp60_L3_V1.0_veridical_freeview_isoFalse_fps144.mp4",""
"null","","","html-keyboard-response","354","2741333","0.0-354.0","k61ukkxc","","<span style=""color:Black; font-size:50px;"">Agent B","null","","","","",""
"null","","","video-keyboard-response","355","2744434","0.0-355.0","k61ukkxc","","","null","","Agent B","scrambled","STIM_SET_3/1592044.bmp_pp94_L2_V2_veridical_freeview_isoFalsemismatch_1159446.bmp_L3_fps90.mp4",""
"","","","call-function","356","2744435","0.0-356.0","k61ukkxc","","","","","","","",""
"1913.5100000002421","{""judgement"":0}","[0]","survey-likert","357","2746349","0.0-357.0","k61ukkxc","","","","","","","","0"
"1806.8649999997579","{""confidence"":2}","[0]","survey-likert","358","2748157","0.0-358.0","k61ukkxc","","","","","","","",""
"","","","call-function","359","2748158","0.0-359.0","k61ukkxc","","","","","","","",""
"null","","","html-keyboard-response","360","2749661","0.0-360.0","k61ukkxc","","<span style=""color:Black; font-size:50px;"">Agent A","null","","","","",""
"null","","","video-keyboard-response","361","2752766","0.0-361.0","k61ukkxc","","","null","","Agent A","scrambled","STIM_SET_3/1159325.bmp_pp67_L2_V2_veridical_freeview_isoFalsemismatch_1593035.bmp_L2_fps90.mp4",""
"null","","","html-keyboard-response","362","2754270","0.0-362.0","k61ukkxc","","<span style=""color:Black; font-size:50px;"">Agent B","null","","","","",""
"null","","","video-keyboard-response","363","2757356","0.0-363.0","k61ukkxc","","","null","","Agent B","veridical","STIM_SET_1_REAL/1593035.bmp_pp94_L2_V1.0_veridical_freeview_isoFalse_fps144.mp4",""
"","","","call-function","364","2757357","0.0-364.0","k61ukkxc","","","","","","","",""
"2096.089999999851","{""judgement"":1}","[0]","survey-likert","365","2759454","0.0-365.0","k61ukkxc","","","","","","","","1"
"3447.5099999997765","{""confidence"":2}","[0]","survey-likert","366","2762903","0.0-366.0","k61ukkxc","","","","","","","",""
"","","","call-function","367","2762904","0.0-367.0","k61ukkxc","","","","","","","",""
"null","","","html-keyboard-response","368","2764407","0.0-368.0","k61ukkxc","","<span style=""color:Black; font-size:50px;"">Agent A","null","","","","",""
"null","","","video-keyboard-response","369","2767499","0.0-369.0","k61ukkxc","","","null","","Agent A","veridical","STIM_SET_1_REAL/1592499.bmp_pp96_L2_V1.0_veridical_freeview_isoFalse_fps144.mp4",""
"null","","","html-keyboard-response","370","2769006","0.0-370.0","k61ukkxc","","<span style=""color:Black; font-size:50px;"">Agent B","null","","","","",""
"null","","","video-keyboard-response","371","2772121","0.0-371.0","k61ukkxc","","","null","","Agent B","scrambled","STIM_SET_3/1159819.bmp_pp151_L1_V2_veridical_freeview_isoFalsemismatch_1592499.bmp_L2_fps90.mp4",""
"","","","call-function","372","2772123","0.0-372.0","k61ukkxc","","","","","","","",""
"3138.089999999851","{""judgement"":0}","[0]","survey-likert","373","2775262","0.0-373.0","k61ukkxc","","","","","","","","0"
"1803.8700000001118","{""confidence"":1}","[0]","survey-likert","374","2777067","0.0-374.0","k61ukkxc","","","","","","","",""
"","","","call-function","375","2777068","0.0-375.0","k61ukkxc","","","","","","","",""
"null","","","html-keyboard-response","376","2778572","0.0-376.0","k61ukkxc","","<span style=""color:Black; font-size:50px;"">Agent A","null","","","","",""
"null","","","video-keyboard-response","377","2781635","0.0-377.0","k61ukkxc","","","null","","Agent A","veridical","STIM_SET_1_REAL/713681.bmp_pp86_L2_V1.0_veridical_freeview_isoFalse_fps144.mp4",""
"null","","","html-keyboard-response","378","2783143","0.0-378.0","k61ukkxc","","<span style=""color:Black; font-size:50px;"">Agent B","null","","","","",""
"null","","","video-keyboard-response","379","2786244","0.0-379.0","k61ukkxc","","","null","","Agent B","scrambled","STIM_SET_3/498025.bmp_pp81_L1_V2_veridical_freeview_isoFalsemismatch_713681.bmp_L2_fps90.mp4",""
"","","","call-function","380","2786245","0.0-380.0","k61ukkxc","","","","","","","",""
"5358.004999999888","{""judgement"":1}","[0]","survey-likert","381","2791604","0.0-381.0","k61ukkxc","","","","","","","","0"
"3994.239999999758","{""confidence"":1}","[0]","survey-likert","382","2795600","0.0-382.0","k61ukkxc","","","","","","","",""
"","","","call-function","383","2795601","0.0-383.0","k61ukkxc","","","","","","","",""
"null","","","html-keyboard-response","384","2797104","0.0-384.0","k61ukkxc","","<span style=""color:Black; font-size:50px;"">Agent A","null","","","","",""
"null","","","video-keyboard-response","385","2800183","0.0-385.0","k61ukkxc","","","null","","Agent A","veridical","STIM_SET_1_REAL/713593.bmp_pp64_L1_V1.0_veridical_freeview_isoFalse_fps144.mp4",""
"null","","","html-keyboard-response","386","2801685","0.0-386.0","k61ukkxc","","<span style=""color:Black; font-size:50px;"">Agent B","null","","","","",""
"null","","","video-keyboard-response","387","2804882","0.0-387.0","k61ukkxc","","","null","","Agent B","scrambled","STIM_SET_3/1592747.bmp_pp53_L2_V2_veridical_freeview_isoFalsemismatch_713593.bmp_L1_fps90.mp4",""
"","","","call-function","388","2804883","0.0-388.0","k61ukkxc","","","","","","","",""
"2550","{""judgement"":1}","[0]","survey-likert","389","2807434","0.0-389.0","k61ukkxc","","","","","","","","0"
"1707.4199999999255","{""confidence"":2}","[0]","survey-likert","390","2809143","0.0-390.0","k61ukkxc","","","","","","","",""
"","","","call-function","391","2809144","0.0-391.0","k61ukkxc","","","","","","","",""
"null","","","html-keyboard-response","392","2810649","0.0-392.0","k61ukkxc","","<span style=""color:Black; font-size:50px;"">Agent A","null","","","","",""
"null","","","video-keyboard-response","393","2813756","0.0-393.0","k61ukkxc","","","null","","Agent A","scrambled","STIM_SET_3/713920.bmp_pp76_L1_V2_veridical_freeview_isoFalsemismatch_713684.bmp_L3_fps90.mp4",""
"null","","","html-keyboard-response","394","2815260","0.0-394.0","k61ukkxc","","<span style=""color:Black; font-size:50px;"">Agent B","null","","","","",""
"null","","","video-keyboard-response","395","2818338","0.0-395.0","k61ukkxc","","","null","","Agent B","veridical","STIM_SET_1_REAL/713684.bmp_pp85_L3_V1.0_veridical_freeview_isoFalse_fps144.mp4",""
"","","","call-function","396","2818339","0.0-396.0","k61ukkxc","","","","","","","",""
"7207.85999999987","{""judgement"":1}","[0]","survey-likert","397","2825548","0.0-397.0","k61ukkxc","","","","","","","","1"
"1523.6699999999255","{""confidence"":1}","[0]","survey-likert","398","2827075","0.0-398.0","k61ukkxc","","","","","","","",""
"","","","call-function","399","2827076","0.0-399.0","k61ukkxc","","","","","","","",""
"null","","","html-keyboard-response","400","2828579","0.0-400.0","k61ukkxc","","<span style=""color:Black; font-size:50px;"">Agent A","null","","","","",""
"null","","","video-keyboard-response","401","2831671","0.0-401.0","k61ukkxc","","","null","","Agent A","veridical","STIM_SET_1_REAL/1159813.bmp_pp79_L2_V1.0_veridical_freeview_isoFalse_fps144.mp4",""
"null","","","html-keyboard-response","402","2833175","0.0-402.0","k61ukkxc","","<span style=""color:Black; font-size:50px;"">Agent B","null","","","","",""
"null","","","video-keyboard-response","403","2836249","0.0-403.0","k61ukkxc","","","null","","Agent B","scrambled","STIM_SET_3/1592129.bmp_pp153_L3_V2_veridical_freeview_isoFalsemismatch_1159813.bmp_L2_fps90.mp4",""
"","","","call-function","404","2836250","0.0-404.0","k61ukkxc","","","","","","","",""
"3989.6299999998882","{""judgement"":0}","[0]","survey-likert","405","2840241","0.0-405.0","k61ukkxc","","","","","","","","0"
"3693.9150000000373","{""confidence"":1}","[0]","survey-likert","406","2843937","0.0-406.0","k61ukkxc","","","","","","","",""
"","","","call-function","407","2843938","0.0-407.0","k61ukkxc","","","","","","","",""
"null","","","html-keyboard-response","408","2845442","0.0-408.0","k61ukkxc","","<span style=""color:Black; font-size:50px;"">Agent A","null","","","","",""
"null","","","video-keyboard-response","409","2848526","0.0-409.0","k61ukkxc","","","null","","Agent A","scrambled","STIM_SET_3/1592921.bmp_pp69_L3_V2_veridical_freeview_isoFalsemismatch_713211.bmp_L3_fps90.mp4",""
"null","","","html-keyboard-response","410","2850028","0.0-410.0","k61ukkxc","","<span style=""color:Black; font-size:50px;"">Agent B","null","","","","",""
"null","","","video-keyboard-response","411","2853104","0.0-411.0","k61ukkxc","","","null","","Agent B","veridical","STIM_SET_1_REAL/713211.bmp_pp100_L3_V1.0_veridical_freeview_isoFalse_fps144.mp4",""
"","","","call-function","412","2853105","0.0-412.0","k61ukkxc","","","","","","","",""
"2268.725000000093","{""judgement"":1}","[0]","survey-likert","413","2855375","0.0-413.0","k61ukkxc","","","","","","","","1"
"2251.964999999851","{""confidence"":2}","[0]","survey-likert","414","2857629","0.0-414.0","k61ukkxc","","","","","","","",""
"78161.70500000007","","","instructions","415","2935792","0.0-415.0","k61ukkxc","[{""page_index"":0,""viewing_time"":1668.8349999999627},{""page_index"":1,""viewing_time"":75074.57499999972},{""page_index"":2,""viewing_time"":1418.1400000001304}]","","","","","","",""
"5762.895000000019","","","instructions","416","2941556","0.0-416.0","k61ukkxc","[{""page_index"":0,""viewing_time"":1384.9799999999814},{""page_index"":1,""viewing_time"":2735.5800000000745},{""page_index"":2,""viewing_time"":1642.1149999997579}]","","","","","","",""
"","","","call-function","417","2941557","0.0-417.0","k61ukkxc","","","","","","","",""
"null","","","html-keyboard-response","418","2943058","0.0-418.0","k61ukkxc","","<span style=""color:Black; font-size:50px;"">Agent A","null","","","","",""
"null","","","video-keyboard-response","419","2946146","0.0-419.0","k61ukkxc","","","null","","Agent A","scrambled","STIM_SET_3/1159956.bmp_pp59_L3_V2_veridical_freeview_isoFalsemismatch_1159829.bmp_L3_fps90.mp4",""
"null","","","html-keyboard-response","420","2947649","0.0-420.0","k61ukkxc","","<span style=""color:Black; font-size:50px;"">Agent B","null","","","","",""
"null","","","video-keyboard-response","421","2950718","0.0-421.0","k61ukkxc","","","null","","Agent B","veridical","STIM_SET_1_REAL/1159829.bmp_pp91_L3_V1.0_veridical_freeview_isoFalse_fps144.mp4",""
"","","","call-function","422","2950719","0.0-422.0","k61ukkxc","","","","","","","",""
"2064.9799999999814","{""judgement"":1}","[0]","survey-likert","423","2952785","0.0-423.0","k61ukkxc","","","","","","","","1"
"1560.8500000000931","{""confidence"":2}","[0]","survey-likert","424","2954348","0.0-424.0","k61ukkxc","","","","","","","",""
"","","","call-function","425","2954349","0.0-425.0","k61ukkxc","","","","","","","",""
"null","","","html-keyboard-response","426","2955850","0.0-426.0","k61ukkxc","","<span style=""color:Black; font-size:50px;"">Agent A","null","","","","",""
"null","","","video-keyboard-response","427","2958925","0.0-427.0","k61ukkxc","","","null","","Agent A","veridical","STIM_SET_1_REAL/1592934.bmp_pp63_L1_V1.0_veridical_freeview_isoFalse_fps144.mp4",""
"null","","","html-keyboard-response","428","2960426","0.0-428.0","k61ukkxc","","<span style=""color:Black; font-size:50px;"">Agent B","null","","","","",""
"null","","","video-keyboard-response","429","2963501","0.0-429.0","k61ukkxc","","","null","","Agent B","scrambled","STIM_SET_3/1159392.bmp_pp96_L2_V2_veridical_freeview_isoFalsemismatch_1592934.bmp_L1_fps90.mp4",""
"","","","call-function","430","2963503","0.0-430.0","k61ukkxc","","","","","","","",""
"2484.2599999997765","{""judgement"":1}","[0]","survey-likert","431","2965988","0.0-431.0","k61ukkxc","","","","","","","","0"
"1619.3799999998882","{""confidence"":1}","[0]","survey-likert","432","2967609","0.0-432.0","k61ukkxc","","","","","","","",""
"","","","call-function","433","2967610","0.0-433.0","k61ukkxc","","","","","","","",""
"null","","","html-keyboard-response","434","2969111","0.0-434.0","k61ukkxc","","<span style=""color:Black; font-size:50px;"">Agent A","null","","","","",""
"null","","","video-keyboard-response","435","2972214","0.0-435.0","k61ukkxc","","","null","","Agent A","scrambled","STIM_SET_3/1160204.bmp_pp54_L2_V2_veridical_freeview_isoFalsemismatch_286001.bmp_L2_fps90.mp4",""
"null","","","html-keyboard-response","436","2973717","0.0-436.0","k61ukkxc","","<span style=""color:Black; font-size:50px;"">Agent B","null","","","","",""
"null","","","video-keyboard-response","437","2976806","0.0-437.0","k61ukkxc","","","null","","Agent B","veridical","STIM_SET_1_REAL/286001.bmp_pp54_L2_V1.0_veridical_freeview_isoFalse_fps144.mp4",""
"","","","call-function","438","2976808","0.0-438.0","k61ukkxc","","","","","","","",""
"2223.1999999997206","{""judgement"":0}","[0]","survey-likert","439","2979032","0.0-439.0","k61ukkxc","","","","","","","","1"
"2636.195000000298","{""confidence"":1}","[0]","survey-likert","440","2981670","0.0-440.0","k61ukkxc","","","","","","","",""
"","","","call-function","441","2981671","0.0-441.0","k61ukkxc","","","","","","","",""
"null","","","html-keyboard-response","442","2983172","0.0-442.0","k61ukkxc","","<span style=""color:Black; font-size:50px;"">Agent A","null","","","","",""
"null","","","video-keyboard-response","443","2986264","0.0-443.0","k61ukkxc","","","null","","Agent A","veridical","STIM_SET_1_REAL/1159882.bmp_pp61_L2_V1.0_veridical_freeview_isoFalse_fps144.mp4",""
"null","","","html-keyboard-response","444","2987767","0.0-444.0","k61ukkxc","","<span style=""color:Black; font-size:50px;"">Agent B","null","","","","",""
"null","","","video-keyboard-response","445","2990887","0.0-445.0","k61ukkxc","","","null","","Agent B","scrambled","STIM_SET_3/285715.bmp_pp67_L2_V2_veridical_freeview_isoFalsemismatch_1159882.bmp_L2_fps90.mp4",""
"","","","call-function","446","2990890","0.0-446.0","k61ukkxc","","","","","","","",""
"3779.170000000391","{""judgement"":0}","[0]","survey-likert","447","2994671","0.0-447.0","k61ukkxc","","","","","","","","0"
"2741.839999999851","{""confidence"":1}","[0]","survey-likert","448","2997415","0.0-448.0","k61ukkxc","","","","","","","",""
"","","","call-function","449","2997417","0.0-449.0","k61ukkxc","","","","","","","",""
"null","","","html-keyboard-response","450","2998924","0.0-450.0","k61ukkxc","","<span style=""color:Black; font-size:50px;"">Agent A","null","","","","",""
"null","","","video-keyboard-response","451","3001999","0.0-451.0","k61ukkxc","","","null","","Agent A","veridical","STIM_SET_1_REAL/498175.bmp_pp154_L1_V1.0_veridical_freeview_isoFalse_fps144.mp4",""
"null","","","html-keyboard-response","452","3003503","0.0-452.0","k61ukkxc","","<span style=""color:Black; font-size:50px;"">Agent B","null","","","","",""
"null","","","video-keyboard-response","453","3006568","0.0-453.0","k61ukkxc","","","null","","Agent B","scrambled","STIM_SET_3/713689.bmp_pp153_L3_V2_veridical_freeview_isoFalsemismatch_498175.bmp_L1_fps90.mp4",""
"","","","call-function","454","3006569","0.0-454.0","k61ukkxc","","","","","","","",""
"2110.8899999996647","{""judgement"":0}","[0]","survey-likert","455","3008681","0.0-455.0","k61ukkxc","","","","","","","","0"
"1375.9950000001118","{""confidence"":3}","[0]","survey-likert","456","3010059","0.0-456.0","k61ukkxc","","","","","","","",""
"","","","call-function","457","3010060","0.0-457.0","k61ukkxc","","","","","","","",""
"null","","","html-keyboard-response","458","3011566","0.0-458.0","k61ukkxc","","<span style=""color:Black; font-size:50px;"">Agent A","null","","","","",""
"null","","","video-keyboard-response","459","3014665","0.0-459.0","k61ukkxc","","","null","","Agent A","scrambled","STIM_SET_3/1592314.bmp_pp100_L3_V2_veridical_freeview_isoFalsemismatch_713707.bmp_L1_fps90.mp4",""
"null","","","html-keyboard-response","460","3016170","0.0-460.0","k61ukkxc","","<span style=""color:Black; font-size:50px;"">Agent B","null","","","","",""
"null","","","video-keyboard-response","461","3019246","0.0-461.0","k61ukkxc","","","null","","Agent B","veridical","STIM_SET_1_REAL/713707.bmp_pp154_L1_V1.0_veridical_freeview_isoFalse_fps144.mp4",""
"","","","call-function","462","3019247","0.0-462.0","k61ukkxc","","","","","","","",""
"2210.1049999999814","{""judgement"":1}","[0]","survey-likert","463","3021458","0.0-463.0","k61ukkxc","","","","","","","","1"
"1904.2250000000931","{""confidence"":2}","[0]","survey-likert","464","3023364","0.0-464.0","k61ukkxc","","","","","","","",""
"","","","call-function","465","3023365","0.0-465.0","k61ukkxc","","","","","","","",""
"null","","","html-keyboard-response","466","3024866","0.0-466.0","k61ukkxc","","<span style=""color:Black; font-size:50px;"">Agent A","null","","","","",""
"null","","","video-keyboard-response","467","3027975","0.0-467.0","k61ukkxc","","","null","","Agent A","scrambled","STIM_SET_3/107955.bmp_pp90_L2_V2_veridical_freeview_isoFalsemismatch_498149.bmp_L2_fps90.mp4",""
"null","","","html-keyboard-response","468","3029479","0.0-468.0","k61ukkxc","","<span style=""color:Black; font-size:50px;"">Agent B","null","","","","",""
"null","","","video-keyboard-response","469","3032566","0.0-469.0","k61ukkxc","","","null","","Agent B","veridical","STIM_SET_1_REAL/498149.bmp_pp99_L2_V1.0_veridical_freeview_isoFalse_fps144.mp4",""
"","","","call-function","470","3032567","0.0-470.0","k61ukkxc","","","","","","","",""
"3169.010000000242","{""judgement"":1}","[0]","survey-likert","471","3035737","0.0-471.0","k61ukkxc","","","","","","","","1"
"1303.8700000001118","{""confidence"":2}","[0]","survey-likert","472","3037043","0.0-472.0","k61ukkxc","","","","","","","",""
"","","","call-function","473","3037044","0.0-473.0","k61ukkxc","","","","","","","",""
"null","","","html-keyboard-response","474","3038546","0.0-474.0","k61ukkxc","","<span style=""color:Black; font-size:50px;"">Agent A","null","","","","",""
"null","","","video-keyboard-response","475","3041644","0.0-475.0","k61ukkxc","","","null","","Agent A","veridical","STIM_SET_1_REAL/713796.bmp_pp84_L3_V1.0_veridical_freeview_isoFalse_fps144.mp4",""
"null","","","html-keyboard-response","476","3043145","0.0-476.0","k61ukkxc","","<span style=""color:Black; font-size:50px;"">Agent B","null","","","","",""
"null","","","video-keyboard-response","477","3046268","0.0-477.0","k61ukkxc","","","null","","Agent B","scrambled","STIM_SET_3/713633.bmp_pp58_L1_V2_veridical_freeview_isoFalsemismatch_713796.bmp_L3_fps90.mp4",""
"","","","call-function","478","3046269","0.0-478.0","k61ukkxc","","","","","","","",""
"3962.0150000001304","{""judgement"":0}","[0]","survey-likert","479","3050232","0.0-479.0","k61ukkxc","","","","","","","","0"
"1817.5499999998137","{""confidence"":1}","[0]","survey-likert","480","3052051","0.0-480.0","k61ukkxc","","","","","","","",""
"","","","call-function","481","3052052","0.0-481.0","k61ukkxc","","","","","","","",""
"null","","","html-keyboard-response","482","3053558","0.0-482.0","k61ukkxc","","<span style=""color:Black; font-size:50px;"">Agent A","null","","","","",""
"null","","","video-keyboard-response","483","3056662","0.0-483.0","k61ukkxc","","","null","","Agent A","scrambled","STIM_SET_3/285932.bmp_pp64_L1_V2_veridical_freeview_isoFalsemismatch_1159855.bmp_L2_fps90.mp4",""
"null","","","html-keyboard-response","484","3058164","0.0-484.0","k61ukkxc","","<span style=""color:Black; font-size:50px;"">Agent B","null","","","","",""
"null","","","video-keyboard-response","485","3061265","0.0-485.0","k61ukkxc","","","null","","Agent B","veridical","STIM_SET_1_REAL/1159855.bmp_pp99_L2_V1.0_veridical_freeview_isoFalse_fps144.mp4",""
"","","","call-function","486","3061266","0.0-486.0","k61ukkxc","","","","","","","",""
"1609.2700000000186","{""judgement"":1}","[0]","survey-likert","487","3062877","0.0-487.0","k61ukkxc","","","","","","","","1"
"2341.3900000001304","{""confidence"":3}","[0]","survey-likert","488","3065220","0.0-488.0","k61ukkxc","","","","","","","",""
"","","","call-function","489","3065221","0.0-489.0","k61ukkxc","","","","","","","",""
"null","","","html-keyboard-response","490","3066725","0.0-490.0","k61ukkxc","","<span style=""color:Black; font-size:50px;"">Agent A","null","","","","",""
"null","","","video-keyboard-response","491","3069813","0.0-491.0","k61ukkxc","","","null","","Agent A","scrambled","STIM_SET_3/1592168.bmp_pp71_L1_V2_veridical_freeview_isoFalsemismatch_1592890.bmp_L2_fps90.mp4",""
"null","","","html-keyboard-response","492","3071315","0.0-492.0","k61ukkxc","","<span style=""color:Black; font-size:50px;"">Agent B","null","","","","",""
"null","","","video-keyboard-response","493","3074378","0.0-493.0","k61ukkxc","","","null","","Agent B","veridical","STIM_SET_1_REAL/1592890.bmp_pp82_L2_V1.0_veridical_freeview_isoFalse_fps144.mp4",""
"","","","call-function","494","3074379","0.0-494.0","k61ukkxc","","","","","","","",""
"2372.189999999944","{""judgement"":1}","[0]","survey-likert","495","3076752","0.0-495.0","k61ukkxc","","","","","","","","1"
"1690.154999999795","{""confidence"":2}","[0]","survey-likert","496","3078444","0.0-496.0","k61ukkxc","","","","","","","",""
"102470.96499999985","","","instructions","497","3180916","0.0-497.0","k61ukkxc","[{""page_index"":0,""viewing_time"":1490.2649999996647},{""page_index"":1,""viewing_time"":99757.56500000041},{""page_index"":2,""viewing_time"":1222.9799999999814}]","","","","","","",""
"3198.024999999907","","","instructions","498","3184115","0.0-498.0","k61ukkxc","[{""page_index"":0,""viewing_time"":956.9150000000373},{""page_index"":1,""viewing_time"":1060.8149999999441},{""page_index"":2,""viewing_time"":1180.1899999999441}]","","","","","","",""
"","","","call-function","499","3184116","0.0-499.0","k61ukkxc","","","","","","","",""
"null","","","html-keyboard-response","500","3185619","0.0-500.0","k61ukkxc","","<span style=""color:Black; font-size:50px;"">Agent A","null","","","","",""
"null","","","video-keyboard-response","501","3188690","0.0-501.0","k61ukkxc","","","null","","Agent A","scrambled","STIM_SET_3/1159329.bmp_pp61_L2_V2_veridical_freeview_isoFalsemismatch_1592817.bmp_L3_fps90.mp4",""
"null","","","html-keyboard-response","502","3190192","0.0-502.0","k61ukkxc","","<span style=""color:Black; font-size:50px;"">Agent B","null","","","","",""
"null","","","video-keyboard-response","503","3193254","0.0-503.0","k61ukkxc","","","null","","Agent B","veridical","STIM_SET_1_REAL/1592817.bmp_pp55_L3_V1.0_veridical_freeview_isoFalse_fps144.mp4",""
"","","","call-function","504","3193255","0.0-504.0","k61ukkxc","","","","","","","",""
"1702.445000000298","{""judgement"":1}","[0]","survey-likert","505","3194958","0.0-505.0","k61ukkxc","","","","","","","","1"
"1083.6400000001304","{""confidence"":2}","[0]","survey-likert","506","3196044","0.0-506.0","k61ukkxc","","","","","","","",""
"","","","call-function","507","3196045","0.0-507.0","k61ukkxc","","","","","","","",""
"null","","","html-keyboard-response","508","3197549","0.0-508.0","k61ukkxc","","<span style=""color:Black; font-size:50px;"">Agent A","null","","","","",""
"null","","","video-keyboard-response","509","3200621","0.0-509.0","k61ukkxc","","","null","","Agent A","veridical","STIM_SET_1_REAL/1159440.bmp_pp98_L1_V1.0_veridical_freeview_isoFalse_fps144.mp4",""
"null","","","html-keyboard-response","510","3202125","0.0-510.0","k61ukkxc","","<span style=""color:Black; font-size:50px;"">Agent B","null","","","","",""
"null","","","video-keyboard-response","511","3205206","0.0-511.0","k61ukkxc","","","null","","Agent B","scrambled","STIM_SET_3/713829.bmp_pp60_L3_V2_veridical_freeview_isoFalsemismatch_1159440.bmp_L1_fps90.mp4",""
"","","","call-function","512","3205207","0.0-512.0","k61ukkxc","","","","","","","",""
"1640.8999999999069","{""judgement"":0}","[0]","survey-likert","513","3206850","0.0-513.0","k61ukkxc","","","","","","","","0"
"1572.5","{""confidence"":3}","[0]","survey-likert","514","3208425","0.0-514.0","k61ukkxc","","","","","","","",""
"","","","call-function","515","3208427","0.0-515.0","k61ukkxc","","","","","","","",""
"null","","","html-keyboard-response","516","3209929","0.0-516.0","k61ukkxc","","<span style=""color:Black; font-size:50px;"">Agent A","null","","","","",""
"null","","","video-keyboard-response","517","3213001","0.0-517.0","k61ukkxc","","","null","","Agent A","veridical","STIM_SET_1_REAL/1592581.bmp_pp100_L3_V1.0_veridical_freeview_isoFalse_fps144.mp4",""
"null","","","html-keyboard-response","518","3214503","0.0-518.0","k61ukkxc","","<span style=""color:Black; font-size:50px;"">Agent B","null","","","","",""
"null","","","video-keyboard-response","519","3217574","0.0-519.0","k61ukkxc","","","null","","Agent B","scrambled","STIM_SET_3/1160189.bmp_pp64_L1_V2_veridical_freeview_isoFalsemismatch_1592581.bmp_L3_fps90.mp4",""
"","","","call-function","520","3217576","0.0-520.0","k61ukkxc","","","","","","","",""
"2223.9150000000373","{""judgement"":0}","[0]","survey-likert","521","3219801","0.0-521.0","k61ukkxc","","","","","","","","0"
"1274.5849999999627","{""confidence"":2}","[0]","survey-likert","522","3221077","0.0-522.0","k61ukkxc","","","","","","","",""
"","","","call-function","523","3221078","0.0-523.0","k61ukkxc","","","","","","","",""
"null","","","html-keyboard-response","524","3222584","0.0-524.0","k61ukkxc","","<span style=""color:Black; font-size:50px;"">Agent A","null","","","","",""
"null","","","video-keyboard-response","525","3225660","0.0-525.0","k61ukkxc","","","null","","Agent A","veridical","STIM_SET_1_REAL/1593146.bmp_pp93_L1_V1.0_veridical_freeview_isoFalse_fps144.mp4",""
"null","","","html-keyboard-response","526","3227163","0.0-526.0","k61ukkxc","","<span style=""color:Black; font-size:50px;"">Agent B","null","","","","",""
"null","","","video-keyboard-response","527","3230233","0.0-527.0","k61ukkxc","","","null","","Agent B","scrambled","STIM_SET_3/1592298.bmp_pp56_L3_V2_veridical_freeview_isoFalsemismatch_1593146.bmp_L1_fps90.mp4",""
"","","","call-function","528","3230235","0.0-528.0","k61ukkxc","","","","","","","",""
"2134.7900000000373","{""judgement"":0}","[0]","survey-likert","529","3232370","0.0-529.0","k61ukkxc","","","","","","","","0"
"1772.4750000000931","{""confidence"":2}","[0]","survey-likert","530","3234145","0.0-530.0","k61ukkxc","","","","","","","",""
"","","","call-function","531","3234146","0.0-531.0","k61ukkxc","","","","","","","",""
"null","","","html-keyboard-response","532","3235652","0.0-532.0","k61ukkxc","","<span style=""color:Black; font-size:50px;"">Agent A","null","","","","",""
"null","","","video-keyboard-response","533","3238751","0.0-533.0","k61ukkxc","","","null","","Agent A","scrambled","STIM_SET_3/1592047.bmp_pp51_L1_V2_veridical_freeview_isoFalsemismatch_713513.bmp_L2_fps90.mp4",""
"null","","","html-keyboard-response","534","3240254","0.0-534.0","k61ukkxc","","<span style=""color:Black; font-size:50px;"">Agent B","null","","","","",""
"null","","","video-keyboard-response","535","3243350","0.0-535.0","k61ukkxc","","","null","","Agent B","veridical","STIM_SET_1_REAL/713513.bmp_pp62_L2_V1.0_veridical_freeview_isoFalse_fps144.mp4",""
"","","","call-function","536","3243351","0.0-536.0","k61ukkxc","","","","","","","",""
"5706.985000000335","{""judgement"":0}","[0]","survey-likert","537","3249059","0.0-537.0","k61ukkxc","","","","","","","","1"
"2155.1750000002794","{""confidence"":1}","[0]","survey-likert","538","3251215","0.0-538.0","k61ukkxc","","","","","","","",""
"","","","call-function","539","3251217","0.0-539.0","k61ukkxc","","","","","","","",""
"null","","","html-keyboard-response","540","3252717","0.0-540.0","k61ukkxc","","<span style=""color:Black; font-size:50px;"">Agent A","null","","","","",""
"null","","","video-keyboard-response","541","3255819","0.0-541.0","k61ukkxc","","","null","","Agent A","veridical","STIM_SET_1_REAL/285905.bmp_pp57_L1_V1.0_veridical_freeview_isoFalse_fps144.mp4",""
"null","","","html-keyboard-response","542","3257322","0.0-542.0","k61ukkxc","","<span style=""color:Black; font-size:50px;"">Agent B","null","","","","",""
"null","","","video-keyboard-response","543","3260463","0.0-543.0","k61ukkxc","","","null","","Agent B","scrambled","STIM_SET_3/1592568.bmp_pp71_L1_V2_veridical_freeview_isoFalsemismatch_285905.bmp_L1_fps90.mp4",""
"","","","call-function","544","3260464","0.0-544.0","k61ukkxc","","","","","","","",""
"1749.2099999999627","{""judgement"":0}","[0]","survey-likert","545","3262215","0.0-545.0","k61ukkxc","","","","","","","","0"
"1403.3650000002235","{""confidence"":3}","[0]","survey-likert","546","3263620","0.0-546.0","k61ukkxc","","","","","","","",""
"","","","call-function","547","3263621","0.0-547.0","k61ukkxc","","","","","","","",""
"null","","","html-keyboard-response","548","3265125","0.0-548.0","k61ukkxc","","<span style=""color:Black; font-size:50px;"">Agent A","null","","","","",""
"null","","","video-keyboard-response","549","3268215","0.0-549.0","k61ukkxc","","","null","","Agent A","veridical","STIM_SET_1_REAL/1592619.bmp_pp56_L3_V1.0_veridical_freeview_isoFalse_fps144.mp4",""
"null","","","html-keyboard-response","550","3269721","0.0-550.0","k61ukkxc","","<span style=""color:Black; font-size:50px;"">Agent B","null","","","","",""
"null","","","video-keyboard-response","551","3272833","0.0-551.0","k61ukkxc","","","null","","Agent B","scrambled","STIM_SET_3/150463.bmp_pp55_L3_V2_veridical_freeview_isoFalsemismatch_1592619.bmp_L3_fps90.mp4",""
"","","","call-function","552","3272834","0.0-552.0","k61ukkxc","","","","","","","",""
"2597.3300000000745","{""judgement"":0}","[0]","survey-likert","553","3275433","0.0-553.0","k61ukkxc","","","","","","","","0"
"1939.9449999998324","{""confidence"":2}","[0]","survey-likert","554","3277375","0.0-554.0","k61ukkxc","","","","","","","",""
"","","","call-function","555","3277376","0.0-555.0","k61ukkxc","","","","","","","",""
"null","","","html-keyboard-response","556","3278881","0.0-556.0","k61ukkxc","","<span style=""color:Black; font-size:50px;"">Agent A","null","","","","",""
"null","","","video-keyboard-response","557","3281957","0.0-557.0","k61ukkxc","","","null","","Agent A","veridical","STIM_SET_1_REAL/1159784.bmp_pp73_L3_V1.0_veridical_freeview_isoFalse_fps144.mp4",""
"null","","","html-keyboard-response","558","3283462","0.0-558.0","k61ukkxc","","<span style=""color:Black; font-size:50px;"">Agent B","null","","","","",""
"null","","","video-keyboard-response","559","3286549","0.0-559.0","k61ukkxc","","","null","","Agent B","scrambled","STIM_SET_3/61513.bmp_pp75_L1_V2_veridical_freeview_isoFalsemismatch_1159784.bmp_L3_fps90.mp4",""
"","","","call-function","560","3286551","0.0-560.0","k61ukkxc","","","","","","","",""
"3051.6099999998696","{""judgement"":0}","[0]","survey-likert","561","3289603","0.0-561.0","k61ukkxc","","","","","","","","0"
"1907.904999999795","{""confidence"":1}","[0]","survey-likert","562","3291513","0.0-562.0","k61ukkxc","","","","","","","",""
"","","","call-function","563","3291514","0.0-563.0","k61ukkxc","","","","","","","",""
"null","","","html-keyboard-response","564","3293020","0.0-564.0","k61ukkxc","","<span style=""color:Black; font-size:50px;"">Agent A","null","","","","",""
"null","","","video-keyboard-response","565","3296111","0.0-565.0","k61ukkxc","","","null","","Agent A","scrambled","STIM_SET_3/713790.bmp_pp100_L3_V2_veridical_freeview_isoFalsemismatch_1592397.bmp_L3_fps90.mp4",""
"null","","","html-keyboard-response","566","3297614","0.0-566.0","k61ukkxc","","<span style=""color:Black; font-size:50px;"">Agent B","null","","","","",""
"null","","","video-keyboard-response","567","3300684","0.0-567.0","k61ukkxc","","","null","","Agent B","veridical","STIM_SET_1_REAL/1592397.bmp_pp85_L3_V1.0_veridical_freeview_isoFalse_fps144.mp4",""
"","","","call-function","568","3300685","0.0-568.0","k61ukkxc","","","","","","","",""
"3432.9599999999627","{""judgement"":1}","[0]","survey-likert","569","3304119","0.0-569.0","k61ukkxc","","","","","","","","1"
"2934.5","{""confidence"":2}","[0]","survey-likert","570","3307054","0.0-570.0","k61ukkxc","","","","","","","",""
"","","","call-function","571","3307055","0.0-571.0","k61ukkxc","","","","","","","",""
"null","","","html-keyboard-response","572","3308558","0.0-572.0","k61ukkxc","","<span style=""color:Black; font-size:50px;"">Agent A","null","","","","",""
"null","","","video-keyboard-response","573","3311678","0.0-573.0","k61ukkxc","","","null","","Agent A","scrambled","STIM_SET_3/498372.bmp_pp95_L2_V2_veridical_freeview_isoFalsemismatch_1160127.bmp_L2_fps90.mp4",""
"null","","","html-keyboard-response","574","3313185","0.0-574.0","k61ukkxc","","<span style=""color:Black; font-size:50px;"">Agent B","null","","","","",""
"null","","","video-keyboard-response","575","3316266","0.0-575.0","k61ukkxc","","","null","","Agent B","veridical","STIM_SET_1_REAL/1160127.bmp_pp90_L2_V1.0_veridical_freeview_isoFalse_fps144.mp4",""
"","","","call-function","576","3316268","0.0-576.0","k61ukkxc","","","","","","","",""
"2932.260000000242","{""judgement"":1}","[0]","survey-likert","577","3319202","0.0-577.0","k61ukkxc","","","","","","","","1"
"1690.5200000000186","{""confidence"":1}","[0]","survey-likert","578","3320895","0.0-578.0","k61ukkxc","","","","","","","",""
"3613.855000000447","","","instructions","579","3324510","0.0-579.0","k61ukkxc","[{""page_index"":0,""viewing_time"":3613.6450000000186}]","","","","","","",""
"4460.504999999888","","","instructions","580","3328972","0.0-580.0","k61ukkxc","[{""page_index"":0,""viewing_time"":4460.379999999888}]","","","","","","",""
"24912.03500000015","{""post-1"":1}","[0]","survey-likert","581","3353886","0.0-581.0","k61ukkxc","","","","","","","",""
"21471.46499999985","{""post-1"":0}","[0]","survey-likert","582","3375359","0.0-582.0","k61ukkxc","","","","","","","",""
"14185.28000000026","{""post-2"":1}","[0]","survey-likert","583","3389547","0.0-583.0","k61ukkxc","","","","","","","",""
"4954.424999999814","{""post-2"":2}","[0]","survey-likert","584","3394503","0.0-584.0","k61ukkxc","","","","","","","",""
"8635.05000000028","{""post-3"":2}","[0]","survey-likert","585","3403140","0.0-585.0","k61ukkxc","","","","","","","",""
"7333.430000000168","{""post-3"":0}","[0]","survey-likert","586","3410476","0.0-586.0","k61ukkxc","","","","","","","",""
"7295.439999999944","{""post-4"":2}","[0]","survey-likert","587","3417773","0.0-587.0","k61ukkxc","","","","","","","",""
"6682.674999999814","{""post-4"":0}","[0]","survey-likert","588","3424458","0.0-588.0","k61ukkxc","","","","","","","",""
"8740.25","{""post-5"":0}","[0]","survey-likert","589","3433201","0.0-589.0","k61ukkxc","","","","","","","",""
"3096.6800000001676","{""post-5"":3}","[0]","survey-likert","590","3436300","0.0-590.0","k61ukkxc","","","","","","","",""
"76047.99500000011","{""Q0"":""I felt slightly motion sick following some of the pictures that seemed fake.""}","","survey-text","591","3512355","0.0-591.0","k61ukkxc","","","","","","","",""
"129983.24000000022","{""Q0"":""I found that the easiest part of the experiment was the selection process. Some strategies I used were to notice if the target looked in the same spots I was looking at and if it focused on words or people.""}","","survey-text","592","3642343","0.0-592.0","k61ukkxc","","","","","","","",""
"28301.909999999683","{""Q0"":""Feeling motion sick/the head rest""}","","survey-text","593","3670650","0.0-593.0","k61ukkxc","","","","","","","",""
"4693.950000000186","","","instructions","594","3675346","0.0-594.0","k61ukkxc","[{""page_index"":0,""viewing_time"":4693.310000000056}]","","","","","","",""
"53199.46499999985","{""Experimenter_end"":[""Printed ID# k61ukkxc on consent form"",""Given subject SONA credit or payment"",""Given the subject debrief form""]}","[0]","survey-multi-select","595","3728548","0.0-595.0","k61ukkxc","","","","","","","",""
