"rt","responses","question_order","trial_type","trial_index","time_elapsed","internal_node_id","ID","view_history","stimulus","key_press","value","agent","condition","image","correct_answer"
"8154.265000000001","{""Experimenter"":[""Confirmed subject's identity (ID card)"",""Confirmed normal or corrected-to-normal vision"",""Obtained consent (signature and date)"",""Checked the test room lighting"",""Checked computer screen lighting"",""Checked distance from screen to chin rest (50cm)"",""Cleaned and adjusted chin rest"",""Counterbalanced the order of the tasks"",""Opened the experiment in Firefox"",""Made the experiment full screen"",""Encouraged subject to silence phone, put away distractors, etc.""]}","[0]","survey-multi-select","0","8162","0.0-0.0","ka742usk","","","","","","","",""
"16995.94","","","instructions","1","25160","0.0-1.0","ka742usk","[{""page_index"":0,""viewing_time"":16995.39}]","","","","","","",""
"12284.015","","","instructions","2","37445","0.0-2.0","ka742usk","[{""page_index"":0,""viewing_time"":742.9400000000023},{""page_index"":1,""viewing_time"":6845.940000000002},{""page_index"":2,""viewing_time"":4695.014999999999}]","","","","","","",""
"1765.0400000000009","","","instructions","3","39211","0.0-3.0","ka742usk","[{""page_index"":0,""viewing_time"":1764.935000000005}]","","","","","","",""
"null","","","video-keyboard-response","4","42285","0.0-4.0","ka742usk","","","null","","","","",""
"14735.845000000001","","","instructions","5","57022","0.0-5.0","ka742usk","[{""page_index"":0,""viewing_time"":3174.760000000002},{""page_index"":1,""viewing_time"":2572.8699999999953},{""page_index"":2,""viewing_time"":1289.0149999999994},{""page_index"":3,""viewing_time"":5156.955000000002},{""page_index"":4,""viewing_time"":2542.1200000000026}]","","","","","","",""
"2195.7750000000015","","","instructions","6","59218","0.0-6.0","ka742usk","[{""page_index"":0,""viewing_time"":2195.6500000000015}]","","","","","","",""
"","","","call-function","7","59218","0.0-7.0","ka742usk","","","","","","","",""
"null","","","html-keyboard-response","8","60724","0.0-8.0","ka742usk","","<span style=""color:Black; font-size:50px;"">Agent A","null","","","","",""
"null","","","video-keyboard-response","9","63807","0.0-9.0","ka742usk","","","null","","Agent A","veridical","STIM_SET_1/1591994.bmp_pp69_L3_V1.0_veridical_freeview_isoFalse.mp4",""
"null","","","html-keyboard-response","10","65310","0.0-10.0","ka742usk","","<span style=""color:Black; font-size:50px;"">Agent B","null","","","","",""
"null","","","video-keyboard-response","11","68392","0.0-11.0","ka742usk","","","null","","Agent B","scrambled","STIM_SET_1/1591994.bmp_pp69_L3_V1.0_scrambled_freeview_isoFalse.mp4",""
"","","","call-function","12","68393","0.0-12.0","ka742usk","","","","","","","",""
"1849.8999999999942","{""judgement"":0}","[0]","survey-likert","13","70244","0.0-13.0","ka742usk","","","","","","","","0"
"1664.4850000000006","{""confidence"":3}","[0]","survey-likert","14","71910","0.0-14.0","ka742usk","","","","","","","",""
"","","","call-function","15","71910","0.0-15.0","ka742usk","","","","","","","",""
"null","","","html-keyboard-response","16","73414","0.0-16.0","ka742usk","","<span style=""color:Black; font-size:50px;"">Agent A","null","","","","",""
"null","","","video-keyboard-response","17","76490","0.0-17.0","ka742usk","","","null","","Agent A","veridical","STIM_SET_1/498111.bmp_pp88_L2_V1.0_veridical_freeview_isoFalse.mp4",""
"null","","","html-keyboard-response","18","77996","0.0-18.0","ka742usk","","<span style=""color:Black; font-size:50px;"">Agent B","null","","","","",""
"null","","","video-keyboard-response","19","81102","0.0-19.0","ka742usk","","","null","","Agent B","scrambled","STIM_SET_1/498111.bmp_pp88_L2_V1.0_scrambled_freeview_isoFalse.mp4",""
"","","","call-function","20","81102","0.0-20.0","ka742usk","","","","","","","",""
"2360.0350000000035","{""judgement"":1}","[0]","survey-likert","21","83464","0.0-21.0","ka742usk","","","","","","","","0"
"2909.1149999999907","{""confidence"":3}","[0]","survey-likert","22","86374","0.0-22.0","ka742usk","","","","","","","",""
"","","","call-function","23","86374","0.0-23.0","ka742usk","","","","","","","",""
"null","","","html-keyboard-response","24","87879","0.0-24.0","ka742usk","","<span style=""color:Black; font-size:50px;"">Agent A","null","","","","",""
"null","","","video-keyboard-response","25","90992","0.0-25.0","ka742usk","","","null","","Agent A","veridical","STIM_SET_1/1592362.bmp_pp95_L2_V1.0_veridical_freeview_isoFalse.mp4",""
"null","","","html-keyboard-response","26","92494","0.0-26.0","ka742usk","","<span style=""color:Black; font-size:50px;"">Agent B","null","","","","",""
"null","","","video-keyboard-response","27","95606","0.0-27.0","ka742usk","","","null","","Agent B","scrambled","STIM_SET_1/1592362.bmp_pp95_L2_V1.0_scrambled_freeview_isoFalse.mp4",""
"","","","call-function","28","95607","0.0-28.0","ka742usk","","","","","","","",""
"2050.3499999999913","{""judgement"":1}","[0]","survey-likert","29","97658","0.0-29.0","ka742usk","","","","","","","","0"
"1218.7649999999994","{""confidence"":2}","[0]","survey-likert","30","98878","0.0-30.0","ka742usk","","","","","","","",""
"","","","call-function","31","98878","0.0-31.0","ka742usk","","","","","","","",""
"null","","","html-keyboard-response","32","100381","0.0-32.0","ka742usk","","<span style=""color:Black; font-size:50px;"">Agent A","null","","","","",""
"null","","","video-keyboard-response","33","103490","0.0-33.0","ka742usk","","","null","","Agent A","scrambled","STIM_SET_1/285994.bmp_pp92_L3_V1.0_scrambled_freeview_isoFalse.mp4",""
"null","","","html-keyboard-response","34","104996","0.0-34.0","ka742usk","","<span style=""color:Black; font-size:50px;"">Agent B","null","","","","",""
"null","","","video-keyboard-response","35","108062","0.0-35.0","ka742usk","","","null","","Agent B","veridical","STIM_SET_1/285994.bmp_pp92_L3_V1.0_veridical_freeview_isoFalse.mp4",""
"","","","call-function","36","108062","0.0-36.0","ka742usk","","","","","","","",""
"1508.6199999999953","{""judgement"":0}","[0]","survey-likert","37","109572","0.0-37.0","ka742usk","","","","","","","","1"
"1210.9699999999866","{""confidence"":2}","[0]","survey-likert","38","110784","0.0-38.0","ka742usk","","","","","","","",""
"","","","call-function","39","110784","0.0-39.0","ka742usk","","","","","","","",""
"null","","","html-keyboard-response","40","112286","0.0-40.0","ka742usk","","<span style=""color:Black; font-size:50px;"">Agent A","null","","","","",""
"null","","","video-keyboard-response","41","115404","0.0-41.0","ka742usk","","","null","","Agent A","scrambled","STIM_SET_1/285905.bmp_pp57_L1_V1.0_scrambled_freeview_isoFalse.mp4",""
"null","","","html-keyboard-response","42","116907","0.0-42.0","ka742usk","","<span style=""color:Black; font-size:50px;"">Agent B","null","","","","",""
"null","","","video-keyboard-response","43","120029","0.0-43.0","ka742usk","","","null","","Agent B","veridical","STIM_SET_1/285905.bmp_pp57_L1_V1.0_veridical_freeview_isoFalse.mp4",""
"","","","call-function","44","120030","0.0-44.0","ka742usk","","","","","","","",""
"2357.395000000004","{""judgement"":1}","[0]","survey-likert","45","122388","0.0-45.0","ka742usk","","","","","","","","1"
"3272.7149999999965","{""confidence"":3}","[0]","survey-likert","46","125662","0.0-46.0","ka742usk","","","","","","","",""
"","","","call-function","47","125662","0.0-47.0","ka742usk","","","","","","","",""
"null","","","html-keyboard-response","48","127163","0.0-48.0","ka742usk","","<span style=""color:Black; font-size:50px;"">Agent A","null","","","","",""
"null","","","video-keyboard-response","49","130242","0.0-49.0","ka742usk","","","null","","Agent A","veridical","STIM_SET_1/61537.bmp_pp73_L3_V1.0_veridical_freeview_isoFalse.mp4",""
"null","","","html-keyboard-response","50","131744","0.0-50.0","ka742usk","","<span style=""color:Black; font-size:50px;"">Agent B","null","","","","",""
"null","","","video-keyboard-response","51","134826","0.0-51.0","ka742usk","","","null","","Agent B","scrambled","STIM_SET_1/61537.bmp_pp73_L3_V1.0_scrambled_freeview_isoFalse.mp4",""
"","","","call-function","52","134826","0.0-52.0","ka742usk","","","","","","","",""
"1620.625","{""judgement"":1}","[0]","survey-likert","53","136448","0.0-53.0","ka742usk","","","","","","","","0"
"2073.975000000006","{""confidence"":1}","[0]","survey-likert","54","138524","0.0-54.0","ka742usk","","","","","","","",""
"","","","call-function","55","138524","0.0-55.0","ka742usk","","","","","","","",""
"null","","","html-keyboard-response","56","140026","0.0-56.0","ka742usk","","<span style=""color:Black; font-size:50px;"">Agent A","null","","","","",""
"null","","","video-keyboard-response","57","143096","0.0-57.0","ka742usk","","","null","","Agent A","scrambled","STIM_SET_1/1592619.bmp_pp56_L3_V1.0_scrambled_freeview_isoFalse.mp4",""
"null","","","html-keyboard-response","58","144598","0.0-58.0","ka742usk","","<span style=""color:Black; font-size:50px;"">Agent B","null","","","","",""
"null","","","video-keyboard-response","59","147667","0.0-59.0","ka742usk","","","null","","Agent B","veridical","STIM_SET_1/1592619.bmp_pp56_L3_V1.0_veridical_freeview_isoFalse.mp4",""
"","","","call-function","60","147668","0.0-60.0","ka742usk","","","","","","","",""
"3763.4950000000244","{""judgement"":1}","[0]","survey-likert","61","151432","0.0-61.0","ka742usk","","","","","","","","1"
"3449.8399999999965","{""confidence"":0}","[0]","survey-likert","62","154884","0.0-62.0","ka742usk","","","","","","","",""
"","","","call-function","63","154884","0.0-63.0","ka742usk","","","","","","","",""
"null","","","html-keyboard-response","64","156388","0.0-64.0","ka742usk","","<span style=""color:Black; font-size:50px;"">Agent A","null","","","","",""
"null","","","video-keyboard-response","65","159465","0.0-65.0","ka742usk","","","null","","Agent A","veridical","STIM_SET_1/1591961.bmp_pp67_L2_V1.0_veridical_freeview_isoFalse.mp4",""
"null","","","html-keyboard-response","66","160971","0.0-66.0","ka742usk","","<span style=""color:Black; font-size:50px;"">Agent B","null","","","","",""
"null","","","video-keyboard-response","67","164046","0.0-67.0","ka742usk","","","null","","Agent B","scrambled","STIM_SET_1/1591961.bmp_pp67_L2_V1.0_scrambled_freeview_isoFalse.mp4",""
"","","","call-function","68","164046","0.0-68.0","ka742usk","","","","","","","",""
"1503.375","{""judgement"":0}","[0]","survey-likert","69","165550","0.0-69.0","ka742usk","","","","","","","","0"
"2764.149999999994","{""confidence"":3}","[0]","survey-likert","70","168315","0.0-70.0","ka742usk","","","","","","","",""
"","","","call-function","71","168316","0.0-71.0","ka742usk","","","","","","","",""
"null","","","html-keyboard-response","72","169819","0.0-72.0","ka742usk","","<span style=""color:Black; font-size:50px;"">Agent A","null","","","","",""
"null","","","video-keyboard-response","73","172949","0.0-73.0","ka742usk","","","null","","Agent A","scrambled","STIM_SET_1/1591954.bmp_pp62_L2_V1.0_scrambled_freeview_isoFalse.mp4",""
"null","","","html-keyboard-response","74","174456","0.0-74.0","ka742usk","","<span style=""color:Black; font-size:50px;"">Agent B","null","","","","",""
"null","","","video-keyboard-response","75","177579","0.0-75.0","ka742usk","","","null","","Agent B","veridical","STIM_SET_1/1591954.bmp_pp62_L2_V1.0_veridical_freeview_isoFalse.mp4",""
"","","","call-function","76","177580","0.0-76.0","ka742usk","","","","","","","",""
"1764.9400000000023","{""judgement"":0}","[0]","survey-likert","77","179346","0.0-77.0","ka742usk","","","","","","","","1"
"2462.2600000000093","{""confidence"":1}","[0]","survey-likert","78","181809","0.0-78.0","ka742usk","","","","","","","",""
"","","","call-function","79","181810","0.0-79.0","ka742usk","","","","","","","",""
"null","","","html-keyboard-response","80","183312","0.0-80.0","ka742usk","","<span style=""color:Black; font-size:50px;"">Agent A","null","","","","",""
"null","","","video-keyboard-response","81","186422","0.0-81.0","ka742usk","","","null","","Agent A","scrambled","STIM_SET_1/713760.bmp_pp81_L1_V1.0_scrambled_freeview_isoFalse.mp4",""
"null","","","html-keyboard-response","82","187929","0.0-82.0","ka742usk","","<span style=""color:Black; font-size:50px;"">Agent B","null","","","","",""
"null","","","video-keyboard-response","83","191039","0.0-83.0","ka742usk","","","null","","Agent B","veridical","STIM_SET_1/713760.bmp_pp81_L1_V1.0_veridical_freeview_isoFalse.mp4",""
"","","","call-function","84","191039","0.0-84.0","ka742usk","","","","","","","",""
"2212.984999999986","{""judgement"":1}","[0]","survey-likert","85","193253","0.0-85.0","ka742usk","","","","","","","","1"
"1349.7350000000151","{""confidence"":2}","[0]","survey-likert","86","194604","0.0-86.0","ka742usk","","","","","","","",""
"72745.61499999999","","","instructions","87","267350","0.0-87.0","ka742usk","[{""page_index"":0,""viewing_time"":763.3600000000151},{""page_index"":1,""viewing_time"":71441.035},{""page_index"":2,""viewing_time"":541.0349999999744}]","","","","","","",""
"1631.4700000000303","","","instructions","88","268982","0.0-88.0","ka742usk","[{""page_index"":0,""viewing_time"":546.625},{""page_index"":1,""viewing_time"":565.9050000000279},{""page_index"":2,""viewing_time"":518.8150000000023}]","","","","","","",""
"","","","call-function","89","268982","0.0-89.0","ka742usk","","","","","","","",""
"null","","","html-keyboard-response","90","270486","0.0-90.0","ka742usk","","<span style=""color:Black; font-size:50px;"">Agent A","null","","","","",""
"null","","","video-keyboard-response","91","273555","0.0-91.0","ka742usk","","","null","","Agent A","veridical","STIM_SET_1/497950.bmp_pp151_L1_V1.0_veridical_freeview_isoFalse.mp4",""
"null","","","html-keyboard-response","92","275056","0.0-92.0","ka742usk","","<span style=""color:Black; font-size:50px;"">Agent B","null","","","","",""
"null","","","video-keyboard-response","93","278127","0.0-93.0","ka742usk","","","null","","Agent B","scrambled","STIM_SET_1/497950.bmp_pp151_L1_V1.0_scrambled_freeview_isoFalse.mp4",""
"","","","call-function","94","278128","0.0-94.0","ka742usk","","","","","","","",""
"2036.8250000000116","{""judgement"":0}","[0]","survey-likert","95","280165","0.0-95.0","ka742usk","","","","","","","","0"
"1538.0599999999977","{""confidence"":3}","[0]","survey-likert","96","281704","0.0-96.0","ka742usk","","","","","","","",""
"","","","call-function","97","281705","0.0-97.0","ka742usk","","","","","","","",""
"null","","","html-keyboard-response","98","283209","0.0-98.0","ka742usk","","<span style=""color:Black; font-size:50px;"">Agent A","null","","","","",""
"null","","","video-keyboard-response","99","286284","0.0-99.0","ka742usk","","","null","","Agent A","scrambled","STIM_SET_1/713513.bmp_pp62_L2_V1.0_scrambled_freeview_isoFalse.mp4",""
"null","","","html-keyboard-response","100","287787","0.0-100.0","ka742usk","","<span style=""color:Black; font-size:50px;"">Agent B","null","","","","",""
"null","","","video-keyboard-response","101","290862","0.0-101.0","ka742usk","","","null","","Agent B","veridical","STIM_SET_1/713513.bmp_pp62_L2_V1.0_veridical_freeview_isoFalse.mp4",""
"","","","call-function","102","290863","0.0-102.0","ka742usk","","","","","","","",""
"1715.679999999993","{""judgement"":1}","[0]","survey-likert","103","292581","0.0-103.0","ka742usk","","","","","","","","1"
"1510.390000000014","{""confidence"":0}","[0]","survey-likert","104","294093","0.0-104.0","ka742usk","","","","","","","",""
"","","","call-function","105","294093","0.0-105.0","ka742usk","","","","","","","",""
"null","","","html-keyboard-response","106","295598","0.0-106.0","ka742usk","","<span style=""color:Black; font-size:50px;"">Agent A","null","","","","",""
"null","","","video-keyboard-response","107","298681","0.0-107.0","ka742usk","","","null","","Agent A","scrambled","STIM_SET_1/713211.bmp_pp100_L3_V1.0_scrambled_freeview_isoFalse.mp4",""
"null","","","html-keyboard-response","108","300183","0.0-108.0","ka742usk","","<span style=""color:Black; font-size:50px;"">Agent B","null","","","","",""
"null","","","video-keyboard-response","109","303263","0.0-109.0","ka742usk","","","null","","Agent B","veridical","STIM_SET_1/713211.bmp_pp100_L3_V1.0_veridical_freeview_isoFalse.mp4",""
"","","","call-function","110","303264","0.0-110.0","ka742usk","","","","","","","",""
"2916.0800000000163","{""judgement"":1}","[0]","survey-likert","111","306181","0.0-111.0","ka742usk","","","","","","","","1"
"1770.8800000000047","{""confidence"":0}","[0]","survey-likert","112","307953","0.0-112.0","ka742usk","","","","","","","",""
"","","","call-function","113","307953","0.0-113.0","ka742usk","","","","","","","",""
"null","","","html-keyboard-response","114","309457","0.0-114.0","ka742usk","","<span style=""color:Black; font-size:50px;"">Agent A","null","","","","",""
"null","","","video-keyboard-response","115","312515","0.0-115.0","ka742usk","","","null","","Agent A","veridical","STIM_SET_1/713684.bmp_pp85_L3_V1.0_veridical_freeview_isoFalse.mp4",""
"null","","","html-keyboard-response","116","314020","0.0-116.0","ka742usk","","<span style=""color:Black; font-size:50px;"">Agent B","null","","","","",""
"null","","","video-keyboard-response","117","317081","0.0-117.0","ka742usk","","","null","","Agent B","scrambled","STIM_SET_1/713684.bmp_pp85_L3_V1.0_scrambled_freeview_isoFalse.mp4",""
"","","","call-function","118","317082","0.0-118.0","ka742usk","","","","","","","",""
"8064.619999999995","{""judgement"":0}","[0]","survey-likert","119","325147","0.0-119.0","ka742usk","","","","","","","","0"
"2846.1399999999558","{""confidence"":0}","[0]","survey-likert","120","327994","0.0-120.0","ka742usk","","","","","","","",""
"","","","call-function","121","327995","0.0-121.0","ka742usk","","","","","","","",""
"null","","","html-keyboard-response","122","329497","0.0-122.0","ka742usk","","<span style=""color:Black; font-size:50px;"">Agent A","null","","","","",""
"null","","","video-keyboard-response","123","332609","0.0-123.0","ka742usk","","","null","","Agent A","veridical","STIM_SET_1/1159515.bmp_pp84_L3_V1.0_veridical_freeview_isoFalse.mp4",""
"null","","","html-keyboard-response","124","334113","0.0-124.0","ka742usk","","<span style=""color:Black; font-size:50px;"">Agent B","null","","","","",""
"null","","","video-keyboard-response","125","337222","0.0-125.0","ka742usk","","","null","","Agent B","scrambled","STIM_SET_1/1159515.bmp_pp84_L3_V1.0_scrambled_freeview_isoFalse.mp4",""
"","","","call-function","126","337223","0.0-126.0","ka742usk","","","","","","","",""
"1646.945000000007","{""judgement"":1}","[0]","survey-likert","127","338870","0.0-127.0","ka742usk","","","","","","","","0"
"2538.2099999999627","{""confidence"":3}","[0]","survey-likert","128","341410","0.0-128.0","ka742usk","","","","","","","",""
"","","","call-function","129","341411","0.0-129.0","ka742usk","","","","","","","",""
"null","","","html-keyboard-response","130","342916","0.0-130.0","ka742usk","","<span style=""color:Black; font-size:50px;"">Agent A","null","","","","",""
"null","","","video-keyboard-response","131","346018","0.0-131.0","ka742usk","","","null","","Agent A","scrambled","STIM_SET_1/1592817.bmp_pp55_L3_V1.0_scrambled_freeview_isoFalse.mp4",""
"null","","","html-keyboard-response","132","347524","0.0-132.0","ka742usk","","<span style=""color:Black; font-size:50px;"">Agent B","null","","","","",""
"null","","","video-keyboard-response","133","350631","0.0-133.0","ka742usk","","","null","","Agent B","veridical","STIM_SET_1/1592817.bmp_pp55_L3_V1.0_veridical_freeview_isoFalse.mp4",""
"","","","call-function","134","350631","0.0-134.0","ka742usk","","","","","","","",""
"4707.799999999988","{""judgement"":0}","[0]","survey-likert","135","355340","0.0-135.0","ka742usk","","","","","","","","1"
"1550.1350000000093","{""confidence"":0}","[0]","survey-likert","136","356891","0.0-136.0","ka742usk","","","","","","","",""
"","","","call-function","137","356891","0.0-137.0","ka742usk","","","","","","","",""
"null","","","html-keyboard-response","138","358393","0.0-138.0","ka742usk","","<span style=""color:Black; font-size:50px;"">Agent A","null","","","","",""
"null","","","video-keyboard-response","139","361466","0.0-139.0","ka742usk","","","null","","Agent A","scrambled","STIM_SET_1/1592581.bmp_pp100_L3_V1.0_scrambled_freeview_isoFalse.mp4",""
"null","","","html-keyboard-response","140","362969","0.0-140.0","ka742usk","","<span style=""color:Black; font-size:50px;"">Agent B","null","","","","",""
"null","","","video-keyboard-response","141","366045","0.0-141.0","ka742usk","","","null","","Agent B","veridical","STIM_SET_1/1592581.bmp_pp100_L3_V1.0_veridical_freeview_isoFalse.mp4",""
"","","","call-function","142","366045","0.0-142.0","ka742usk","","","","","","","",""
"2821.3300000000163","{""judgement"":1}","[0]","survey-likert","143","368868","0.0-143.0","ka742usk","","","","","","","","1"
"1604.9899999999907","{""confidence"":1}","[0]","survey-likert","144","370474","0.0-144.0","ka742usk","","","","","","","",""
"","","","call-function","145","370474","0.0-145.0","ka742usk","","","","","","","",""
"null","","","html-keyboard-response","146","371981","0.0-146.0","ka742usk","","<span style=""color:Black; font-size:50px;"">Agent A","null","","","","",""
"null","","","video-keyboard-response","147","375050","0.0-147.0","ka742usk","","","null","","Agent A","scrambled","STIM_SET_1/1159447.bmp_pp70_L2_V1.0_scrambled_freeview_isoFalse.mp4",""
"null","","","html-keyboard-response","148","376556","0.0-148.0","ka742usk","","<span style=""color:Black; font-size:50px;"">Agent B","null","","","","",""
"null","","","video-keyboard-response","149","379628","0.0-149.0","ka742usk","","","null","","Agent B","veridical","STIM_SET_1/1159447.bmp_pp70_L2_V1.0_veridical_freeview_isoFalse.mp4",""
"","","","call-function","150","379629","0.0-150.0","ka742usk","","","","","","","",""
"2372.015000000014","{""judgement"":1}","[0]","survey-likert","151","382002","0.0-151.0","ka742usk","","","","","","","","1"
"2529.9049999999697","{""confidence"":3}","[0]","survey-likert","152","384533","0.0-152.0","ka742usk","","","","","","","",""
"","","","call-function","153","384533","0.0-153.0","ka742usk","","","","","","","",""
"null","","","html-keyboard-response","154","386037","0.0-154.0","ka742usk","","<span style=""color:Black; font-size:50px;"">Agent A","null","","","","",""
"null","","","video-keyboard-response","155","389106","0.0-155.0","ka742usk","","","null","","Agent A","veridical","STIM_SET_1/713681.bmp_pp86_L2_V1.0_veridical_freeview_isoFalse.mp4",""
"null","","","html-keyboard-response","156","390608","0.0-156.0","ka742usk","","<span style=""color:Black; font-size:50px;"">Agent B","null","","","","",""
"null","","","video-keyboard-response","157","393678","0.0-157.0","ka742usk","","","null","","Agent B","scrambled","STIM_SET_1/713681.bmp_pp86_L2_V1.0_scrambled_freeview_isoFalse.mp4",""
"","","","call-function","158","393678","0.0-158.0","ka742usk","","","","","","","",""
"2353.945000000007","{""judgement"":1}","[0]","survey-likert","159","396033","0.0-159.0","ka742usk","","","","","","","","0"
"3501.1399999999558","{""confidence"":0}","[0]","survey-likert","160","399536","0.0-160.0","ka742usk","","","","","","","",""
"","","","call-function","161","399536","0.0-161.0","ka742usk","","","","","","","",""
"null","","","html-keyboard-response","162","401038","0.0-162.0","ka742usk","","<span style=""color:Black; font-size:50px;"">Agent A","null","","","","",""
"null","","","video-keyboard-response","163","404108","0.0-163.0","ka742usk","","","null","","Agent A","scrambled","STIM_SET_1/713135.bmp_pp54_L2_V1.0_scrambled_freeview_isoFalse.mp4",""
"null","","","html-keyboard-response","164","405611","0.0-164.0","ka742usk","","<span style=""color:Black; font-size:50px;"">Agent B","null","","","","",""
"null","","","video-keyboard-response","165","408723","0.0-165.0","ka742usk","","","null","","Agent B","veridical","STIM_SET_1/713135.bmp_pp54_L2_V1.0_veridical_freeview_isoFalse.mp4",""
"","","","call-function","166","408723","0.0-166.0","ka742usk","","","","","","","",""
"4338.479999999981","{""judgement"":0}","[0]","survey-likert","167","413062","0.0-167.0","ka742usk","","","","","","","","1"
"2085.7699999999604","{""confidence"":1}","[0]","survey-likert","168","415150","0.0-168.0","ka742usk","","","","","","","",""
"2218.3649999999907","","","instructions","169","417369","0.0-169.0","ka742usk","[{""page_index"":0,""viewing_time"":1293.1199999999953},{""page_index"":1,""viewing_time"":488.09500000003027},{""page_index"":2,""viewing_time"":436.8549999999814}]","","","","","","",""
"2115.469999999972","","","instructions","170","419484","0.0-170.0","ka742usk","[{""page_index"":0,""viewing_time"":419.4000000000233},{""page_index"":1,""viewing_time"":1242.1449999999604},{""page_index"":2,""viewing_time"":453.820000000007}]","","","","","","",""
"","","","call-function","171","419485","0.0-171.0","ka742usk","","","","","","","",""
"null","","","html-keyboard-response","172","420986","0.0-172.0","ka742usk","","<span style=""color:Black; font-size:50px;"">Agent A","null","","","","",""
"null","","","video-keyboard-response","173","424104","0.0-173.0","ka742usk","","","null","","Agent A","scrambled","STIM_SET_1/713593.bmp_pp64_L1_V1.0_scrambled_freeview_isoFalse.mp4",""
"null","","","html-keyboard-response","174","425608","0.0-174.0","ka742usk","","<span style=""color:Black; font-size:50px;"">Agent B","null","","","","",""
"null","","","video-keyboard-response","175","428731","0.0-175.0","ka742usk","","","null","","Agent B","veridical","STIM_SET_1/713593.bmp_pp64_L1_V1.0_veridical_freeview_isoFalse.mp4",""
"","","","call-function","176","428731","0.0-176.0","ka742usk","","","","","","","",""
"1979.975000000035","{""judgement"":1}","[0]","survey-likert","177","430712","0.0-177.0","ka742usk","","","","","","","","1"
"1806.9949999999953","{""confidence"":3}","[0]","survey-likert","178","432520","0.0-178.0","ka742usk","","","","","","","",""
"","","","call-function","179","432520","0.0-179.0","ka742usk","","","","","","","",""
"null","","","html-keyboard-response","180","434022","0.0-180.0","ka742usk","","<span style=""color:Black; font-size:50px;"">Agent A","null","","","","",""
"null","","","video-keyboard-response","181","437137","0.0-181.0","ka742usk","","","null","","Agent A","scrambled","STIM_SET_1/498175.bmp_pp154_L1_V1.0_scrambled_freeview_isoFalse.mp4",""
"null","","","html-keyboard-response","182","438641","0.0-182.0","ka742usk","","<span style=""color:Black; font-size:50px;"">Agent B","null","","","","",""
"null","","","video-keyboard-response","183","441755","0.0-183.0","ka742usk","","","null","","Agent B","veridical","STIM_SET_1/498175.bmp_pp154_L1_V1.0_veridical_freeview_isoFalse.mp4",""
"","","","call-function","184","441755","0.0-184.0","ka742usk","","","","","","","",""
"1799.054999999993","{""judgement"":1}","[0]","survey-likert","185","443555","0.0-185.0","ka742usk","","","","","","","","1"
"2585.75","{""confidence"":2}","[0]","survey-likert","186","446142","0.0-186.0","ka742usk","","","","","","","",""
"","","","call-function","187","446142","0.0-187.0","ka742usk","","","","","","","",""
"null","","","html-keyboard-response","188","447645","0.0-188.0","ka742usk","","<span style=""color:Black; font-size:50px;"">Agent A","null","","","","",""
"null","","","video-keyboard-response","189","450718","0.0-189.0","ka742usk","","","null","","Agent A","scrambled","STIM_SET_1/1159829.bmp_pp91_L3_V1.0_scrambled_freeview_isoFalse.mp4",""
"null","","","html-keyboard-response","190","452220","0.0-190.0","ka742usk","","<span style=""color:Black; font-size:50px;"">Agent B","null","","","","",""
"null","","","video-keyboard-response","191","455293","0.0-191.0","ka742usk","","","null","","Agent B","veridical","STIM_SET_1/1159829.bmp_pp91_L3_V1.0_veridical_freeview_isoFalse.mp4",""
"","","","call-function","192","455294","0.0-192.0","ka742usk","","","","","","","",""
"2795.695000000007","{""judgement"":1}","[0]","survey-likert","193","458090","0.0-193.0","ka742usk","","","","","","","","1"
"1463.5200000000186","{""confidence"":0}","[0]","survey-likert","194","459555","0.0-194.0","ka742usk","","","","","","","",""
"","","","call-function","195","459555","0.0-195.0","ka742usk","","","","","","","",""
"null","","","html-keyboard-response","196","461061","0.0-196.0","ka742usk","","<span style=""color:Black; font-size:50px;"">Agent A","null","","","","",""
"null","","","video-keyboard-response","197","464137","0.0-197.0","ka742usk","","","null","","Agent A","veridical","STIM_SET_1/1159440.bmp_pp98_L1_V1.0_veridical_freeview_isoFalse.mp4",""
"null","","","html-keyboard-response","198","465642","0.0-198.0","ka742usk","","<span style=""color:Black; font-size:50px;"">Agent B","null","","","","",""
"null","","","video-keyboard-response","199","468724","0.0-199.0","ka742usk","","","null","","Agent B","scrambled","STIM_SET_1/1159440.bmp_pp98_L1_V1.0_scrambled_freeview_isoFalse.mp4",""
"","","","call-function","200","468725","0.0-200.0","ka742usk","","","","","","","",""
"2012.2050000000163","{""judgement"":0}","[0]","survey-likert","201","470739","0.0-201.0","ka742usk","","","","","","","","0"
"2695.954999999958","{""confidence"":2}","[0]","survey-likert","202","473436","0.0-202.0","ka742usk","","","","","","","",""
"","","","call-function","203","473437","0.0-203.0","ka742usk","","","","","","","",""
"null","","","html-keyboard-response","204","474941","0.0-204.0","ka742usk","","<span style=""color:Black; font-size:50px;"">Agent A","null","","","","",""
"null","","","video-keyboard-response","205","478018","0.0-205.0","ka742usk","","","null","","Agent A","veridical","STIM_SET_1/1592499.bmp_pp96_L2_V1.0_veridical_freeview_isoFalse.mp4",""
"null","","","html-keyboard-response","206","479525","0.0-206.0","ka742usk","","<span style=""color:Black; font-size:50px;"">Agent B","null","","","","",""
"null","","","video-keyboard-response","207","482601","0.0-207.0","ka742usk","","","null","","Agent B","scrambled","STIM_SET_1/1592499.bmp_pp96_L2_V1.0_scrambled_freeview_isoFalse.mp4",""
"","","","call-function","208","482602","0.0-208.0","ka742usk","","","","","","","",""
"2855.5650000000023","{""judgement"":0}","[0]","survey-likert","209","485458","0.0-209.0","ka742usk","","","","","","","","0"
"2064.5800000000163","{""confidence"":1}","[0]","survey-likert","210","487524","0.0-210.0","ka742usk","","","","","","","",""
"","","","call-function","211","487525","0.0-211.0","ka742usk","","","","","","","",""
"null","","","html-keyboard-response","212","489031","0.0-212.0","ka742usk","","<span style=""color:Black; font-size:50px;"">Agent A","null","","","","",""
"null","","","video-keyboard-response","213","492108","0.0-213.0","ka742usk","","","null","","Agent A","veridical","STIM_SET_1/1159855.bmp_pp99_L2_V1.0_veridical_freeview_isoFalse.mp4",""
"null","","","html-keyboard-response","214","493614","0.0-214.0","ka742usk","","<span style=""color:Black; font-size:50px;"">Agent B","null","","","","",""
"null","","","video-keyboard-response","215","496738","0.0-215.0","ka742usk","","","null","","Agent B","scrambled","STIM_SET_1/1159855.bmp_pp99_L2_V1.0_scrambled_freeview_isoFalse.mp4",""
"","","","call-function","216","496738","0.0-216.0","ka742usk","","","","","","","",""
"2520.8499999999767","{""judgement"":1}","[0]","survey-likert","217","499260","0.0-217.0","ka742usk","","","","","","","","0"
"2153.289999999979","{""confidence"":0}","[0]","survey-likert","218","501414","0.0-218.0","ka742usk","","","","","","","",""
"","","","call-function","219","501415","0.0-219.0","ka742usk","","","","","","","",""
"null","","","html-keyboard-response","220","502920","0.0-220.0","ka742usk","","<span style=""color:Black; font-size:50px;"">Agent A","null","","","","",""
"null","","","video-keyboard-response","221","506037","0.0-221.0","ka742usk","","","null","","Agent A","veridical","STIM_SET_1/1592657.bmp_pp98_L1_V1.0_veridical_freeview_isoFalse.mp4",""
"null","","","html-keyboard-response","222","507543","0.0-222.0","ka742usk","","<span style=""color:Black; font-size:50px;"">Agent B","null","","","","",""
"null","","","video-keyboard-response","223","510658","0.0-223.0","ka742usk","","","null","","Agent B","scrambled","STIM_SET_1/1592657.bmp_pp98_L1_V1.0_scrambled_freeview_isoFalse.mp4",""
"","","","call-function","224","510659","0.0-224.0","ka742usk","","","","","","","",""
"2674.9899999999907","{""judgement"":0}","[0]","survey-likert","225","513334","0.0-225.0","ka742usk","","","","","","","","0"
"1309.4249999999884","{""confidence"":2}","[0]","survey-likert","226","514645","0.0-226.0","ka742usk","","","","","","","",""
"","","","call-function","227","514645","0.0-227.0","ka742usk","","","","","","","",""
"null","","","html-keyboard-response","228","516148","0.0-228.0","ka742usk","","<span style=""color:Black; font-size:50px;"">Agent A","null","","","","",""
"null","","","video-keyboard-response","229","519266","0.0-229.0","ka742usk","","","null","","Agent A","veridical","STIM_SET_1/285751.bmp_pp55_L3_V1.0_veridical_freeview_isoFalse.mp4",""
"null","","","html-keyboard-response","230","520770","0.0-230.0","ka742usk","","<span style=""color:Black; font-size:50px;"">Agent B","null","","","","",""
"null","","","video-keyboard-response","231","523887","0.0-231.0","ka742usk","","","null","","Agent B","scrambled","STIM_SET_1/285751.bmp_pp55_L3_V1.0_scrambled_freeview_isoFalse.mp4",""
"","","","call-function","232","523887","0.0-232.0","ka742usk","","","","","","","",""
"1529","{""judgement"":1}","[0]","survey-likert","233","525417","0.0-233.0","ka742usk","","","","","","","","0"
"1690.170000000042","{""confidence"":2}","[0]","survey-likert","234","527108","0.0-234.0","ka742usk","","","","","","","",""
"","","","call-function","235","527109","0.0-235.0","ka742usk","","","","","","","",""
"null","","","html-keyboard-response","236","528613","0.0-236.0","ka742usk","","<span style=""color:Black; font-size:50px;"">Agent A","null","","","","",""
"null","","","video-keyboard-response","237","531693","0.0-237.0","ka742usk","","","null","","Agent A","veridical","STIM_SET_1/1159777.bmp_pp77_L3_V1.0_veridical_freeview_isoFalse.mp4",""
"null","","","html-keyboard-response","238","533196","0.0-238.0","ka742usk","","<span style=""color:Black; font-size:50px;"">Agent B","null","","","","",""
"null","","","video-keyboard-response","239","536273","0.0-239.0","ka742usk","","","null","","Agent B","scrambled","STIM_SET_1/1159777.bmp_pp77_L3_V1.0_scrambled_freeview_isoFalse.mp4",""
"","","","call-function","240","536274","0.0-240.0","ka742usk","","","","","","","",""
"1629.7449999999953","{""judgement"":0}","[0]","survey-likert","241","537904","0.0-241.0","ka742usk","","","","","","","","0"
"2007.7299999999814","{""confidence"":3}","[0]","survey-likert","242","539913","0.0-242.0","ka742usk","","","","","","","",""
"","","","call-function","243","539913","0.0-243.0","ka742usk","","","","","","","",""
"null","","","html-keyboard-response","244","541416","0.0-244.0","ka742usk","","<span style=""color:Black; font-size:50px;"">Agent A","null","","","","",""
"null","","","video-keyboard-response","245","544489","0.0-245.0","ka742usk","","","null","","Agent A","veridical","STIM_SET_1/713017.bmp_pp152_L2_V1.0_veridical_freeview_isoFalse.mp4",""
"null","","","html-keyboard-response","246","545994","0.0-246.0","ka742usk","","<span style=""color:Black; font-size:50px;"">Agent B","null","","","","",""
"null","","","video-keyboard-response","247","549068","0.0-247.0","ka742usk","","","null","","Agent B","scrambled","STIM_SET_1/713017.bmp_pp152_L2_V1.0_scrambled_freeview_isoFalse.mp4",""
"","","","call-function","248","549068","0.0-248.0","ka742usk","","","","","","","",""
"1639.4099999999162","{""judgement"":0}","[0]","survey-likert","249","550708","0.0-249.0","ka742usk","","","","","","","","0"
"1809.8399999999674","{""confidence"":1}","[0]","survey-likert","250","552519","0.0-250.0","ka742usk","","","","","","","",""
"168506.43999999994","","","instructions","251","721026","0.0-251.0","ka742usk","[{""page_index"":0,""viewing_time"":167507.42499999993},{""page_index"":1,""viewing_time"":464.96000000007916},{""page_index"":2,""viewing_time"":533.8999999999069}]","","","","","","",""
"1595.6049999999814","","","instructions","252","722622","0.0-252.0","ka742usk","[{""page_index"":0,""viewing_time"":526.4899999999907},{""page_index"":1,""viewing_time"":556.1149999999907},{""page_index"":2,""viewing_time"":512.890000000014}]","","","","","","",""
"","","","call-function","253","722623","0.0-253.0","ka742usk","","","","","","","",""
"null","","","html-keyboard-response","254","724126","0.0-254.0","ka742usk","","<span style=""color:Black; font-size:50px;"">Agent A","null","","","","",""
"null","","","video-keyboard-response","255","727204","0.0-255.0","ka742usk","","","null","","Agent A","veridical","STIM_SET_1/713666.bmp_pp97_L3_V1.0_veridical_freeview_isoFalse.mp4",""
"null","","","html-keyboard-response","256","728707","0.0-256.0","ka742usk","","<span style=""color:Black; font-size:50px;"">Agent B","null","","","","",""
"null","","","video-keyboard-response","257","731786","0.0-257.0","ka742usk","","","null","","Agent B","scrambled","STIM_SET_1/713666.bmp_pp97_L3_V1.0_scrambled_freeview_isoFalse.mp4",""
"","","","call-function","258","731787","0.0-258.0","ka742usk","","","","","","","",""
"2874.2449999999953","{""judgement"":0}","[0]","survey-likert","259","734662","0.0-259.0","ka742usk","","","","","","","","0"
"2190.515000000014","{""confidence"":2}","[0]","survey-likert","260","736853","0.0-260.0","ka742usk","","","","","","","",""
"","","","call-function","261","736854","0.0-261.0","ka742usk","","","","","","","",""
"null","","","html-keyboard-response","262","738357","0.0-262.0","ka742usk","","<span style=""color:Black; font-size:50px;"">Agent A","null","","","","",""
"null","","","video-keyboard-response","263","741440","0.0-263.0","ka742usk","","","null","","Agent A","scrambled","STIM_SET_1/713749.bmp_pp88_L2_V1.0_scrambled_freeview_isoFalse.mp4",""
"null","","","html-keyboard-response","264","742942","0.0-264.0","ka742usk","","<span style=""color:Black; font-size:50px;"">Agent B","null","","","","",""
"null","","","video-keyboard-response","265","746021","0.0-265.0","ka742usk","","","null","","Agent B","veridical","STIM_SET_1/713749.bmp_pp88_L2_V1.0_veridical_freeview_isoFalse.mp4",""
"","","","call-function","266","746022","0.0-266.0","ka742usk","","","","","","","",""
"2864.3800000000047","{""judgement"":0}","[0]","survey-likert","267","748888","0.0-267.0","ka742usk","","","","","","","","1"
"1233.3399999999674","{""confidence"":2}","[0]","survey-likert","268","750124","0.0-268.0","ka742usk","","","","","","","",""
"","","","call-function","269","750125","0.0-269.0","ka742usk","","","","","","","",""
"null","","","html-keyboard-response","270","751630","0.0-270.0","ka742usk","","<span style=""color:Black; font-size:50px;"">Agent A","null","","","","",""
"null","","","video-keyboard-response","271","754703","0.0-271.0","ka742usk","","","null","","Agent A","scrambled","STIM_SET_1/1159621.bmp_pp92_L3_V1.0_scrambled_freeview_isoFalse.mp4",""
"null","","","html-keyboard-response","272","756207","0.0-272.0","ka742usk","","<span style=""color:Black; font-size:50px;"">Agent B","null","","","","",""
"null","","","video-keyboard-response","273","759277","0.0-273.0","ka742usk","","","null","","Agent B","veridical","STIM_SET_1/1159621.bmp_pp92_L3_V1.0_veridical_freeview_isoFalse.mp4",""
"","","","call-function","274","759278","0.0-274.0","ka742usk","","","","","","","",""
"2247.32500000007","{""judgement"":1}","[0]","survey-likert","275","761526","0.0-275.0","ka742usk","","","","","","","","1"
"1418.670000000042","{""confidence"":2}","[0]","survey-likert","276","762946","0.0-276.0","ka742usk","","","","","","","",""
"","","","call-function","277","762946","0.0-277.0","ka742usk","","","","","","","",""
"null","","","html-keyboard-response","278","764448","0.0-278.0","ka742usk","","<span style=""color:Black; font-size:50px;"">Agent A","null","","","","",""
"null","","","video-keyboard-response","279","767520","0.0-279.0","ka742usk","","","null","","Agent A","scrambled","STIM_SET_1/1159768.bmp_pp89_L1_V1.0_scrambled_freeview_isoFalse.mp4",""
"null","","","html-keyboard-response","280","769022","0.0-280.0","ka742usk","","<span style=""color:Black; font-size:50px;"">Agent B","null","","","","",""
"null","","","video-keyboard-response","281","772090","0.0-281.0","ka742usk","","","null","","Agent B","veridical","STIM_SET_1/1159768.bmp_pp89_L1_V1.0_veridical_freeview_isoFalse.mp4",""
"","","","call-function","282","772091","0.0-282.0","ka742usk","","","","","","","",""
"1952.625","{""judgement"":1}","[0]","survey-likert","283","774044","0.0-283.0","ka742usk","","","","","","","","1"
"2794.734999999986","{""confidence"":1}","[0]","survey-likert","284","776840","0.0-284.0","ka742usk","","","","","","","",""
"","","","call-function","285","776840","0.0-285.0","ka742usk","","","","","","","",""
"null","","","html-keyboard-response","286","778343","0.0-286.0","ka742usk","","<span style=""color:Black; font-size:50px;"">Agent A","null","","","","",""
"null","","","video-keyboard-response","287","781466","0.0-287.0","ka742usk","","","null","","Agent A","veridical","STIM_SET_1/498253.bmp_pp67_L2_V1.0_veridical_freeview_isoFalse.mp4",""
"null","","","html-keyboard-response","288","782968","0.0-288.0","ka742usk","","<span style=""color:Black; font-size:50px;"">Agent B","null","","","","",""
"null","","","video-keyboard-response","289","786084","0.0-289.0","ka742usk","","","null","","Agent B","scrambled","STIM_SET_1/498253.bmp_pp67_L2_V1.0_scrambled_freeview_isoFalse.mp4",""
"","","","call-function","290","786085","0.0-290.0","ka742usk","","","","","","","",""
"2274.2550000000047","{""judgement"":1}","[0]","survey-likert","291","788360","0.0-291.0","ka742usk","","","","","","","","0"
"2489.1600000000326","{""confidence"":2}","[0]","survey-likert","292","790850","0.0-292.0","ka742usk","","","","","","","",""
"","","","call-function","293","790850","0.0-293.0","ka742usk","","","","","","","",""
"null","","","html-keyboard-response","294","792353","0.0-294.0","ka742usk","","<span style=""color:Black; font-size:50px;"">Agent A","null","","","","",""
"null","","","video-keyboard-response","295","795474","0.0-295.0","ka742usk","","","null","","Agent A","veridical","STIM_SET_1/1159784.bmp_pp73_L3_V1.0_veridical_freeview_isoFalse.mp4",""
"null","","","html-keyboard-response","296","796976","0.0-296.0","ka742usk","","<span style=""color:Black; font-size:50px;"">Agent B","null","","","","",""
"null","","","video-keyboard-response","297","800092","0.0-297.0","ka742usk","","","null","","Agent B","scrambled","STIM_SET_1/1159784.bmp_pp73_L3_V1.0_scrambled_freeview_isoFalse.mp4",""
"","","","call-function","298","800092","0.0-298.0","ka742usk","","","","","","","",""
"3691.6199999999953","{""judgement"":0}","[0]","survey-likert","299","803785","0.0-299.0","ka742usk","","","","","","","","0"
"2672.0500000000466","{""confidence"":0}","[0]","survey-likert","300","806458","0.0-300.0","ka742usk","","","","","","","",""
"","","","call-function","301","806458","0.0-301.0","ka742usk","","","","","","","",""
"null","","","html-keyboard-response","302","807960","0.0-302.0","ka742usk","","<span style=""color:Black; font-size:50px;"">Agent A","null","","","","",""
"null","","","video-keyboard-response","303","811045","0.0-303.0","ka742usk","","","null","","Agent A","veridical","STIM_SET_1/713779.bmp_pp152_L2_V1.0_veridical_freeview_isoFalse.mp4",""
"null","","","html-keyboard-response","304","812547","0.0-304.0","ka742usk","","<span style=""color:Black; font-size:50px;"">Agent B","null","","","","",""
"null","","","video-keyboard-response","305","815633","0.0-305.0","ka742usk","","","null","","Agent B","scrambled","STIM_SET_1/713779.bmp_pp152_L2_V1.0_scrambled_freeview_isoFalse.mp4",""
"","","","call-function","306","815633","0.0-306.0","ka742usk","","","","","","","",""
"2827.929999999935","{""judgement"":0}","[0]","survey-likert","307","818462","0.0-307.0","ka742usk","","","","","","","","0"
"5837.4199999999255","{""confidence"":2}","[0]","survey-likert","308","824301","0.0-308.0","ka742usk","","","","","","","",""
"","","","call-function","309","824301","0.0-309.0","ka742usk","","","","","","","",""
"null","","","html-keyboard-response","310","825806","0.0-310.0","ka742usk","","<span style=""color:Black; font-size:50px;"">Agent A","null","","","","",""
"null","","","video-keyboard-response","311","828875","0.0-311.0","ka742usk","","","null","","Agent A","veridical","STIM_SET_1/498170.bmp_pp153_L3_V1.0_veridical_freeview_isoFalse.mp4",""
"null","","","html-keyboard-response","312","830378","0.0-312.0","ka742usk","","<span style=""color:Black; font-size:50px;"">Agent B","null","","","","",""
"null","","","video-keyboard-response","313","833446","0.0-313.0","ka742usk","","","null","","Agent B","scrambled","STIM_SET_1/498170.bmp_pp153_L3_V1.0_scrambled_freeview_isoFalse.mp4",""
"","","","call-function","314","833446","0.0-314.0","ka742usk","","","","","","","",""
"2447.8300000000745","{""judgement"":1}","[0]","survey-likert","315","835895","0.0-315.0","ka742usk","","","","","","","","0"
"1318.6449999999022","{""confidence"":0}","[0]","survey-likert","316","837215","0.0-316.0","ka742usk","","","","","","","",""
"","","","call-function","317","837216","0.0-317.0","ka742usk","","","","","","","",""
"null","","","html-keyboard-response","318","838719","0.0-318.0","ka742usk","","<span style=""color:Black; font-size:50px;"">Agent A","null","","","","",""
"null","","","video-keyboard-response","319","841798","0.0-319.0","ka742usk","","","null","","Agent A","veridical","STIM_SET_1/1160127.bmp_pp90_L2_V1.0_veridical_freeview_isoFalse.mp4",""
"null","","","html-keyboard-response","320","843302","0.0-320.0","ka742usk","","<span style=""color:Black; font-size:50px;"">Agent B","null","","","","",""
"null","","","video-keyboard-response","321","846380","0.0-321.0","ka742usk","","","null","","Agent B","scrambled","STIM_SET_1/1160127.bmp_pp90_L2_V1.0_scrambled_freeview_isoFalse.mp4",""
"","","","call-function","322","846381","0.0-322.0","ka742usk","","","","","","","",""
"1951.3649999999907","{""judgement"":1}","[0]","survey-likert","323","848333","0.0-323.0","ka742usk","","","","","","","","0"
"2524.079999999958","{""confidence"":2}","[0]","survey-likert","324","850858","0.0-324.0","ka742usk","","","","","","","",""
"","","","call-function","325","850858","0.0-325.0","ka742usk","","","","","","","",""
"null","","","html-keyboard-response","326","852360","0.0-326.0","ka742usk","","<span style=""color:Black; font-size:50px;"">Agent A","null","","","","",""
"null","","","video-keyboard-response","327","855484","0.0-327.0","ka742usk","","","null","","Agent A","veridical","STIM_SET_1/1592372.bmp_pp76_L1_V1.0_veridical_freeview_isoFalse.mp4",""
"null","","","html-keyboard-response","328","856990","0.0-328.0","ka742usk","","<span style=""color:Black; font-size:50px;"">Agent B","null","","","","",""
"null","","","video-keyboard-response","329","860070","0.0-329.0","ka742usk","","","null","","Agent B","scrambled","STIM_SET_1/1592372.bmp_pp76_L1_V1.0_scrambled_freeview_isoFalse.mp4",""
"","","","call-function","330","860071","0.0-330.0","ka742usk","","","","","","","",""
"1929.2900000000373","{""judgement"":0}","[0]","survey-likert","331","862001","0.0-331.0","ka742usk","","","","","","","","0"
"1992.9600000000792","{""confidence"":2}","[0]","survey-likert","332","863996","0.0-332.0","ka742usk","","","","","","","",""
"269630.67000000004","","","instructions","333","1133628","0.0-333.0","ka742usk","[{""page_index"":0,""viewing_time"":268301.0299999999},{""page_index"":1,""viewing_time"":638.315000000177},{""page_index"":2,""viewing_time"":691.1449999997858}]","","","","","","",""
"1445.6850000000559","","","instructions","334","1135074","0.0-334.0","ka742usk","[{""page_index"":0,""viewing_time"":445.45999999996275},{""page_index"":1,""viewing_time"":454.17500000004657},{""page_index"":2,""viewing_time"":545.9399999999441}]","","","","","","",""
"","","","call-function","335","1135074","0.0-335.0","ka742usk","","","","","","","",""
"null","","","html-keyboard-response","336","1136578","0.0-336.0","ka742usk","","<span style=""color:Black; font-size:50px;"">Agent A","null","","","","",""
"null","","","video-keyboard-response","337","1139645","0.0-337.0","ka742usk","","","null","","Agent A","veridical","STIM_SET_1/1593035.bmp_pp94_L2_V1.0_veridical_freeview_isoFalse.mp4",""
"null","","","html-keyboard-response","338","1141151","0.0-338.0","ka742usk","","<span style=""color:Black; font-size:50px;"">Agent B","null","","","","",""
"null","","","video-keyboard-response","339","1144222","0.0-339.0","ka742usk","","","null","","Agent B","scrambled","STIM_SET_1/1593035.bmp_pp94_L2_V1.0_scrambled_freeview_isoFalse.mp4",""
"","","","call-function","340","1144222","0.0-340.0","ka742usk","","","","","","","",""
"2524.320000000065","{""judgement"":0}","[0]","survey-likert","341","1146747","0.0-341.0","ka742usk","","","","","","","","0"
"1518.6350000000093","{""confidence"":3}","[0]","survey-likert","342","1148267","0.0-342.0","ka742usk","","","","","","","",""
"","","","call-function","343","1148267","0.0-343.0","ka742usk","","","","","","","",""
"null","","","html-keyboard-response","344","1149769","0.0-344.0","ka742usk","","<span style=""color:Black; font-size:50px;"">Agent A","null","","","","",""
"null","","","video-keyboard-response","345","1152844","0.0-345.0","ka742usk","","","null","","Agent A","scrambled","STIM_SET_1/1593041.bmp_pp58_L1_V1.0_scrambled_freeview_isoFalse.mp4",""
"null","","","html-keyboard-response","346","1154349","0.0-346.0","ka742usk","","<span style=""color:Black; font-size:50px;"">Agent B","null","","","","",""
"null","","","video-keyboard-response","347","1157423","0.0-347.0","ka742usk","","","null","","Agent B","veridical","STIM_SET_1/1593041.bmp_pp58_L1_V1.0_veridical_freeview_isoFalse.mp4",""
"","","","call-function","348","1157423","0.0-348.0","ka742usk","","","","","","","",""
"2489.7100000001956","{""judgement"":1}","[0]","survey-likert","349","1159914","0.0-349.0","ka742usk","","","","","","","","1"
"1281.2349999998696","{""confidence"":1}","[0]","survey-likert","350","1161196","0.0-350.0","ka742usk","","","","","","","",""
"","","","call-function","351","1161196","0.0-351.0","ka742usk","","","","","","","",""
"null","","","html-keyboard-response","352","1162699","0.0-352.0","ka742usk","","<span style=""color:Black; font-size:50px;"">Agent A","null","","","","",""
"null","","","video-keyboard-response","353","1165781","0.0-353.0","ka742usk","","","null","","Agent A","scrambled","STIM_SET_1/713371.bmp_pp68_L1_V1.0_scrambled_freeview_isoFalse.mp4",""
"null","","","html-keyboard-response","354","1167285","0.0-354.0","ka742usk","","<span style=""color:Black; font-size:50px;"">Agent B","null","","","","",""
"null","","","video-keyboard-response","355","1170366","0.0-355.0","ka742usk","","","null","","Agent B","veridical","STIM_SET_1/713371.bmp_pp68_L1_V1.0_veridical_freeview_isoFalse.mp4",""
"","","","call-function","356","1170366","0.0-356.0","ka742usk","","","","","","","",""
"2248.8249999999534","{""judgement"":0}","[0]","survey-likert","357","1172616","0.0-357.0","ka742usk","","","","","","","","1"
"1914.6400000001304","{""confidence"":2}","[0]","survey-likert","358","1174532","0.0-358.0","ka742usk","","","","","","","",""
"","","","call-function","359","1174532","0.0-359.0","ka742usk","","","","","","","",""
"null","","","html-keyboard-response","360","1176038","0.0-360.0","ka742usk","","<span style=""color:Black; font-size:50px;"">Agent A","null","","","","",""
"null","","","video-keyboard-response","361","1179149","0.0-361.0","ka742usk","","","null","","Agent A","scrambled","STIM_SET_1/1593146.bmp_pp93_L1_V1.0_scrambled_freeview_isoFalse.mp4",""
"null","","","html-keyboard-response","362","1180655","0.0-362.0","ka742usk","","<span style=""color:Black; font-size:50px;"">Agent B","null","","","","",""
"null","","","video-keyboard-response","363","1183765","0.0-363.0","ka742usk","","","null","","Agent B","veridical","STIM_SET_1/1593146.bmp_pp93_L1_V1.0_veridical_freeview_isoFalse.mp4",""
"","","","call-function","364","1183765","0.0-364.0","ka742usk","","","","","","","",""
"3066.3950000000186","{""judgement"":1}","[0]","survey-likert","365","1186833","0.0-365.0","ka742usk","","","","","","","","1"
"2355.7700000000186","{""confidence"":2}","[0]","survey-likert","366","1189190","0.0-366.0","ka742usk","","","","","","","",""
"","","","call-function","367","1189190","0.0-367.0","ka742usk","","","","","","","",""
"null","","","html-keyboard-response","368","1190694","0.0-368.0","ka742usk","","<span style=""color:Black; font-size:50px;"">Agent A","null","","","","",""
"null","","","video-keyboard-response","369","1193801","0.0-369.0","ka742usk","","","null","","Agent A","scrambled","STIM_SET_1/713403.bmp_pp80_L3_V1.0_scrambled_freeview_isoFalse.mp4",""
"null","","","html-keyboard-response","370","1195308","0.0-370.0","ka742usk","","<span style=""color:Black; font-size:50px;"">Agent B","null","","","","",""
"null","","","video-keyboard-response","371","1198419","0.0-371.0","ka742usk","","","null","","Agent B","veridical","STIM_SET_1/713403.bmp_pp80_L3_V1.0_veridical_freeview_isoFalse.mp4",""
"","","","call-function","372","1198420","0.0-372.0","ka742usk","","","","","","","",""
"2404.0500000000466","{""judgement"":1}","[0]","survey-likert","373","1200826","0.0-373.0","ka742usk","","","","","","","","1"
"1892.375","{""confidence"":3}","[0]","survey-likert","374","1202719","0.0-374.0","ka742usk","","","","","","","",""
"","","","call-function","375","1202720","0.0-375.0","ka742usk","","","","","","","",""
"null","","","html-keyboard-response","376","1204224","0.0-376.0","ka742usk","","<span style=""color:Black; font-size:50px;"">Agent A","null","","","","",""
"null","","","video-keyboard-response","377","1207293","0.0-377.0","ka742usk","","","null","","Agent A","veridical","STIM_SET_1/1592351.bmp_pp51_L1_V1.0_veridical_freeview_isoFalse.mp4",""
"null","","","html-keyboard-response","378","1208795","0.0-378.0","ka742usk","","<span style=""color:Black; font-size:50px;"">Agent B","null","","","","",""
"null","","","video-keyboard-response","379","1211866","0.0-379.0","ka742usk","","","null","","Agent B","scrambled","STIM_SET_1/1592351.bmp_pp51_L1_V1.0_scrambled_freeview_isoFalse.mp4",""
"","","","call-function","380","1211867","0.0-380.0","ka742usk","","","","","","","",""
"3090.4000000001397","{""judgement"":0}","[0]","survey-likert","381","1214958","0.0-381.0","ka742usk","","","","","","","","0"
"1865.9350000000559","{""confidence"":2}","[0]","survey-likert","382","1216825","0.0-382.0","ka742usk","","","","","","","",""
"","","","call-function","383","1216826","0.0-383.0","ka742usk","","","","","","","",""
"null","","","html-keyboard-response","384","1218328","0.0-384.0","ka742usk","","<span style=""color:Black; font-size:50px;"">Agent A","null","","","","",""
"null","","","video-keyboard-response","385","1221405","0.0-385.0","ka742usk","","","null","","Agent A","veridical","STIM_SET_1/1160168.bmp_pp53_L2_V1.0_veridical_freeview_isoFalse.mp4",""
"null","","","html-keyboard-response","386","1222911","0.0-386.0","ka742usk","","<span style=""color:Black; font-size:50px;"">Agent B","null","","","","",""
"null","","","video-keyboard-response","387","1225983","0.0-387.0","ka742usk","","","null","","Agent B","scrambled","STIM_SET_1/1160168.bmp_pp53_L2_V1.0_scrambled_freeview_isoFalse.mp4",""
"","","","call-function","388","1225984","0.0-388.0","ka742usk","","","","","","","",""
"2175.464999999851","{""judgement"":1}","[0]","survey-likert","389","1228160","0.0-389.0","ka742usk","","","","","","","","0"
"1960.1850000000559","{""confidence"":0}","[0]","survey-likert","390","1230122","0.0-390.0","ka742usk","","","","","","","",""
"","","","call-function","391","1230122","0.0-391.0","ka742usk","","","","","","","",""
"null","","","html-keyboard-response","392","1231626","0.0-392.0","ka742usk","","<span style=""color:Black; font-size:50px;"">Agent A","null","","","","",""
"null","","","video-keyboard-response","393","1234703","0.0-393.0","ka742usk","","","null","","Agent A","scrambled","STIM_SET_1/1592890.bmp_pp82_L2_V1.0_scrambled_freeview_isoFalse.mp4",""
"null","","","html-keyboard-response","394","1236206","0.0-394.0","ka742usk","","<span style=""color:Black; font-size:50px;"">Agent B","null","","","","",""
"null","","","video-keyboard-response","395","1239281","0.0-395.0","ka742usk","","","null","","Agent B","veridical","STIM_SET_1/1592890.bmp_pp82_L2_V1.0_veridical_freeview_isoFalse.mp4",""
"","","","call-function","396","1239282","0.0-396.0","ka742usk","","","","","","","",""
"3306.5400000000373","{""judgement"":0}","[0]","survey-likert","397","1242589","0.0-397.0","ka742usk","","","","","","","","1"
"1371.1700000001583","{""confidence"":0}","[0]","survey-likert","398","1243961","0.0-398.0","ka742usk","","","","","","","",""
"","","","call-function","399","1243962","0.0-399.0","ka742usk","","","","","","","",""
"null","","","html-keyboard-response","400","1245465","0.0-400.0","ka742usk","","<span style=""color:Black; font-size:50px;"">Agent A","null","","","","",""
"null","","","video-keyboard-response","401","1248576","0.0-401.0","ka742usk","","","null","","Agent A","veridical","STIM_SET_1/713089.bmp_pp60_L3_V1.0_veridical_freeview_isoFalse.mp4",""
"null","","","html-keyboard-response","402","1250077","0.0-402.0","ka742usk","","<span style=""color:Black; font-size:50px;"">Agent B","null","","","","",""
"null","","","video-keyboard-response","403","1253187","0.0-403.0","ka742usk","","","null","","Agent B","scrambled","STIM_SET_1/713089.bmp_pp60_L3_V1.0_scrambled_freeview_isoFalse.mp4",""
"","","","call-function","404","1253187","0.0-404.0","ka742usk","","","","","","","",""
"2864.089999999851","{""judgement"":1}","[0]","survey-likert","405","1256052","0.0-405.0","ka742usk","","","","","","","","0"
"1871.8850000000093","{""confidence"":2}","[0]","survey-likert","406","1257925","0.0-406.0","ka742usk","","","","","","","",""
"","","","call-function","407","1257926","0.0-407.0","ka742usk","","","","","","","",""
"null","","","html-keyboard-response","408","1259431","0.0-408.0","ka742usk","","<span style=""color:Black; font-size:50px;"">Agent A","null","","","","",""
"null","","","video-keyboard-response","409","1262526","0.0-409.0","ka742usk","","","null","","Agent A","scrambled","STIM_SET_1/286001.bmp_pp54_L2_V1.0_scrambled_freeview_isoFalse.mp4",""
"null","","","html-keyboard-response","410","1264033","0.0-410.0","ka742usk","","<span style=""color:Black; font-size:50px;"">Agent B","null","","","","",""
"null","","","video-keyboard-response","411","1267129","0.0-411.0","ka742usk","","","null","","Agent B","veridical","STIM_SET_1/286001.bmp_pp54_L2_V1.0_veridical_freeview_isoFalse.mp4",""
"","","","call-function","412","1267129","0.0-412.0","ka742usk","","","","","","","",""
"1877.4599999999627","{""judgement"":1}","[0]","survey-likert","413","1269008","0.0-413.0","ka742usk","","","","","","","","1"
"1484.964999999851","{""confidence"":0}","[0]","survey-likert","414","1270494","0.0-414.0","ka742usk","","","","","","","",""
"1895.3000000000466","","","instructions","415","1272390","0.0-415.0","ka742usk","[{""page_index"":0,""viewing_time"":1014.0100000000093},{""page_index"":1,""viewing_time"":459.16500000003725},{""page_index"":2,""viewing_time"":421.9650000000838}]","","","","","","",""
"1272.6000000000931","","","instructions","416","1273663","0.0-416.0","ka742usk","[{""page_index"":0,""viewing_time"":432.4350000000559},{""page_index"":1,""viewing_time"":397.47500000009313},{""page_index"":2,""viewing_time"":442.4949999998789}]","","","","","","",""
"","","","call-function","417","1273663","0.0-417.0","ka742usk","","","","","","","",""
"null","","","html-keyboard-response","418","1275169","0.0-418.0","ka742usk","","<span style=""color:Black; font-size:50px;"">Agent A","null","","","","",""
"null","","","video-keyboard-response","419","1278248","0.0-419.0","ka742usk","","","null","","Agent A","veridical","STIM_SET_1/498155.bmp_pp61_L2_V1.0_veridical_freeview_isoFalse.mp4",""
"null","","","html-keyboard-response","420","1279755","0.0-420.0","ka742usk","","<span style=""color:Black; font-size:50px;"">Agent B","null","","","","",""
"null","","","video-keyboard-response","421","1282835","0.0-421.0","ka742usk","","","null","","Agent B","scrambled","STIM_SET_1/498155.bmp_pp61_L2_V1.0_scrambled_freeview_isoFalse.mp4",""
"","","","call-function","422","1282836","0.0-422.0","ka742usk","","","","","","","",""
"2441.7949999999255","{""judgement"":1}","[0]","survey-likert","423","1285279","0.0-423.0","ka742usk","","","","","","","","0"
"1977.9899999999907","{""confidence"":0}","[0]","survey-likert","424","1287258","0.0-424.0","ka742usk","","","","","","","",""
"","","","call-function","425","1287258","0.0-425.0","ka742usk","","","","","","","",""
"null","","","html-keyboard-response","426","1288764","0.0-426.0","ka742usk","","<span style=""color:Black; font-size:50px;"">Agent A","null","","","","",""
"null","","","video-keyboard-response","427","1291837","0.0-427.0","ka742usk","","","null","","Agent A","veridical","STIM_SET_1/713796.bmp_pp84_L3_V1.0_veridical_freeview_isoFalse.mp4",""
"null","","","html-keyboard-response","428","1293343","0.0-428.0","ka742usk","","<span style=""color:Black; font-size:50px;"">Agent B","null","","","","",""
"null","","","video-keyboard-response","429","1296414","0.0-429.0","ka742usk","","","null","","Agent B","scrambled","STIM_SET_1/713796.bmp_pp84_L3_V1.0_scrambled_freeview_isoFalse.mp4",""
"","","","call-function","430","1296414","0.0-430.0","ka742usk","","","","","","","",""
"2522.6500000001397","{""judgement"":1}","[0]","survey-likert","431","1298938","0.0-431.0","ka742usk","","","","","","","","0"
"1945.529999999795","{""confidence"":3}","[0]","survey-likert","432","1300884","0.0-432.0","ka742usk","","","","","","","",""
"","","","call-function","433","1300885","0.0-433.0","ka742usk","","","","","","","",""
"null","","","html-keyboard-response","434","1302386","0.0-434.0","ka742usk","","<span style=""color:Black; font-size:50px;"">Agent A","null","","","","",""
"null","","","video-keyboard-response","435","1305496","0.0-435.0","ka742usk","","","null","","Agent A","veridical","STIM_SET_1/1592133.bmp_pp75_L1_V1.0_veridical_freeview_isoFalse.mp4",""
"null","","","html-keyboard-response","436","1307001","0.0-436.0","ka742usk","","<span style=""color:Black; font-size:50px;"">Agent B","null","","","","",""
"null","","","video-keyboard-response","437","1310114","0.0-437.0","ka742usk","","","null","","Agent B","scrambled","STIM_SET_1/1592133.bmp_pp75_L1_V1.0_scrambled_freeview_isoFalse.mp4",""
"","","","call-function","438","1310115","0.0-438.0","ka742usk","","","","","","","",""
"2562.314999999944","{""judgement"":1}","[0]","survey-likert","439","1312678","0.0-439.0","ka742usk","","","","","","","","0"
"1664.094999999972","{""confidence"":0}","[0]","survey-likert","440","1314344","0.0-440.0","ka742usk","","","","","","","",""
"","","","call-function","441","1314344","0.0-441.0","ka742usk","","","","","","","",""
"null","","","html-keyboard-response","442","1315850","0.0-442.0","ka742usk","","<span style=""color:Black; font-size:50px;"">Agent A","null","","","","",""
"null","","","video-keyboard-response","443","1318918","0.0-443.0","ka742usk","","","null","","Agent A","scrambled","STIM_SET_1/498149.bmp_pp99_L2_V1.0_scrambled_freeview_isoFalse.mp4",""
"null","","","html-keyboard-response","444","1320423","0.0-444.0","ka742usk","","<span style=""color:Black; font-size:50px;"">Agent B","null","","","","",""
"null","","","video-keyboard-response","445","1323490","0.0-445.0","ka742usk","","","null","","Agent B","veridical","STIM_SET_1/498149.bmp_pp99_L2_V1.0_veridical_freeview_isoFalse.mp4",""
"","","","call-function","446","1323491","0.0-446.0","ka742usk","","","","","","","",""
"2505.2249999998603","{""judgement"":1}","[0]","survey-likert","447","1325997","0.0-447.0","ka742usk","","","","","","","","1"
"2201.445000000065","{""confidence"":0}","[0]","survey-likert","448","1328200","0.0-448.0","ka742usk","","","","","","","",""
"","","","call-function","449","1328200","0.0-449.0","ka742usk","","","","","","","",""
"null","","","html-keyboard-response","450","1329701","0.0-450.0","ka742usk","","<span style=""color:Black; font-size:50px;"">Agent A","null","","","","",""
"null","","","video-keyboard-response","451","1332784","0.0-451.0","ka742usk","","","null","","Agent A","scrambled","STIM_SET_1/713707.bmp_pp154_L1_V1.0_scrambled_freeview_isoFalse.mp4",""
"null","","","html-keyboard-response","452","1334285","0.0-452.0","ka742usk","","<span style=""color:Black; font-size:50px;"">Agent B","null","","","","",""
"null","","","video-keyboard-response","453","1337363","0.0-453.0","ka742usk","","","null","","Agent B","veridical","STIM_SET_1/713707.bmp_pp154_L1_V1.0_veridical_freeview_isoFalse.mp4",""
"","","","call-function","454","1337364","0.0-454.0","ka742usk","","","","","","","",""
"2420.7750000001397","{""judgement"":0}","[0]","survey-likert","455","1339785","0.0-455.0","ka742usk","","","","","","","","1"
"2552.9799999999814","{""confidence"":0}","[0]","survey-likert","456","1342339","0.0-456.0","ka742usk","","","","","","","",""
"","","","call-function","457","1342340","0.0-457.0","ka742usk","","","","","","","",""
"null","","","html-keyboard-response","458","1343842","0.0-458.0","ka742usk","","<span style=""color:Black; font-size:50px;"">Agent A","null","","","","",""
"null","","","video-keyboard-response","459","1346967","0.0-459.0","ka742usk","","","null","","Agent A","scrambled","STIM_SET_1/1592807.bmp_pp68_L1_V1.0_scrambled_freeview_isoFalse.mp4",""
"null","","","html-keyboard-response","460","1348468","0.0-460.0","ka742usk","","<span style=""color:Black; font-size:50px;"">Agent B","null","","","","",""
"null","","","video-keyboard-response","461","1351589","0.0-461.0","ka742usk","","","null","","Agent B","veridical","STIM_SET_1/1592807.bmp_pp68_L1_V1.0_veridical_freeview_isoFalse.mp4",""
"","","","call-function","462","1351589","0.0-462.0","ka742usk","","","","","","","",""
"4643.689999999944","{""judgement"":0}","[0]","survey-likert","463","1356234","0.0-463.0","ka742usk","","","","","","","","1"
"1268.505000000121","{""confidence"":2}","[0]","survey-likert","464","1357503","0.0-464.0","ka742usk","","","","","","","",""
"","","","call-function","465","1357504","0.0-465.0","ka742usk","","","","","","","",""
"null","","","html-keyboard-response","466","1359008","0.0-466.0","ka742usk","","<span style=""color:Black; font-size:50px;"">Agent A","null","","","","",""
"null","","","video-keyboard-response","467","1362125","0.0-467.0","ka742usk","","","null","","Agent A","scrambled","STIM_SET_1/1592286.bmp_pp52_L1_V1.0_scrambled_freeview_isoFalse.mp4",""
"null","","","html-keyboard-response","468","1363628","0.0-468.0","ka742usk","","<span style=""color:Black; font-size:50px;"">Agent B","null","","","","",""
"null","","","video-keyboard-response","469","1366743","0.0-469.0","ka742usk","","","null","","Agent B","veridical","STIM_SET_1/1592286.bmp_pp52_L1_V1.0_veridical_freeview_isoFalse.mp4",""
"","","","call-function","470","1366743","0.0-470.0","ka742usk","","","","","","","",""
"3020.600000000093","{""judgement"":1}","[0]","survey-likert","471","1369765","0.0-471.0","ka742usk","","","","","","","","1"
"1599.5150000001304","{""confidence"":2}","[0]","survey-likert","472","1371365","0.0-472.0","ka742usk","","","","","","","",""
"","","","call-function","473","1371366","0.0-473.0","ka742usk","","","","","","","",""
"null","","","html-keyboard-response","474","1372869","0.0-474.0","ka742usk","","<span style=""color:Black; font-size:50px;"">Agent A","null","","","","",""
"null","","","video-keyboard-response","475","1375965","0.0-475.0","ka742usk","","","null","","Agent A","veridical","STIM_SET_1/1592727.bmp_pp59_L3_V1.0_veridical_freeview_isoFalse.mp4",""
"null","","","html-keyboard-response","476","1377468","0.0-476.0","ka742usk","","<span style=""color:Black; font-size:50px;"">Agent B","null","","","","",""
"null","","","video-keyboard-response","477","1380566","0.0-477.0","ka742usk","","","null","","Agent B","scrambled","STIM_SET_1/1592727.bmp_pp59_L3_V1.0_scrambled_freeview_isoFalse.mp4",""
"","","","call-function","478","1380566","0.0-478.0","ka742usk","","","","","","","",""
"1514.2950000001583","{""judgement"":0}","[0]","survey-likert","479","1382082","0.0-479.0","ka742usk","","","","","","","","0"
"1389.8349999999627","{""confidence"":2}","[0]","survey-likert","480","1383472","0.0-480.0","ka742usk","","","","","","","",""
"","","","call-function","481","1383473","0.0-481.0","ka742usk","","","","","","","",""
"null","","","html-keyboard-response","482","1384975","0.0-482.0","ka742usk","","<span style=""color:Black; font-size:50px;"">Agent A","null","","","","",""
"null","","","video-keyboard-response","483","1388053","0.0-483.0","ka742usk","","","null","","Agent A","scrambled","STIM_SET_1/1159675.bmp_pp77_L3_V1.0_scrambled_freeview_isoFalse.mp4",""
"null","","","html-keyboard-response","484","1389559","0.0-484.0","ka742usk","","<span style=""color:Black; font-size:50px;"">Agent B","null","","","","",""
"null","","","video-keyboard-response","485","1392638","0.0-485.0","ka742usk","","","null","","Agent B","veridical","STIM_SET_1/1159675.bmp_pp77_L3_V1.0_veridical_freeview_isoFalse.mp4",""
"","","","call-function","486","1392638","0.0-486.0","ka742usk","","","","","","","",""
"1927.8049999999348","{""judgement"":0}","[0]","survey-likert","487","1394567","0.0-487.0","ka742usk","","","","","","","","1"
"1633.3400000000838","{""confidence"":2}","[0]","survey-likert","488","1396201","0.0-488.0","ka742usk","","","","","","","",""
"","","","call-function","489","1396202","0.0-489.0","ka742usk","","","","","","","",""
"null","","","html-keyboard-response","490","1397707","0.0-490.0","ka742usk","","<span style=""color:Black; font-size:50px;"">Agent A","null","","","","",""
"null","","","video-keyboard-response","491","1400774","0.0-491.0","ka742usk","","","null","","Agent A","veridical","STIM_SET_1/1159446.bmp_pp60_L3_V1.0_veridical_freeview_isoFalse.mp4",""
"null","","","html-keyboard-response","492","1402280","0.0-492.0","ka742usk","","<span style=""color:Black; font-size:50px;"">Agent B","null","","","","",""
"null","","","video-keyboard-response","493","1405345","0.0-493.0","ka742usk","","","null","","Agent B","scrambled","STIM_SET_1/1159446.bmp_pp60_L3_V1.0_scrambled_freeview_isoFalse.mp4",""
"","","","call-function","494","1405345","0.0-494.0","ka742usk","","","","","","","",""
"1632.9750000000931","{""judgement"":0}","[0]","survey-likert","495","1406979","0.0-495.0","ka742usk","","","","","","","","0"
"1554.280000000028","{""confidence"":3}","[0]","survey-likert","496","1408534","0.0-496.0","ka742usk","","","","","","","",""
"168803.3600000001","","","instructions","497","1577339","0.0-497.0","ka742usk","[{""page_index"":0,""viewing_time"":166315.26},{""page_index"":1,""viewing_time"":2124.969999999972},{""page_index"":2,""viewing_time"":362.9650000000838}]","","","","","","",""
"1709.5849999999627","","","instructions","498","1579050","0.0-498.0","ka742usk","[{""page_index"":0,""viewing_time"":295.64999999990687},{""page_index"":1,""viewing_time"":923.2099999999627},{""page_index"":2,""viewing_time"":490.62000000011176}]","","","","","","",""
"","","","call-function","499","1579051","0.0-499.0","ka742usk","","","","","","","",""
"null","","","html-keyboard-response","500","1580558","0.0-500.0","ka742usk","","<span style=""color:Black; font-size:50px;"">Agent A","null","","","","",""
"null","","","video-keyboard-response","501","1583629","0.0-501.0","ka742usk","","","null","","Agent A","veridical","STIM_SET_1/1592934.bmp_pp63_L1_V1.0_veridical_freeview_isoFalse.mp4",""
"null","","","html-keyboard-response","502","1585133","0.0-502.0","ka742usk","","<span style=""color:Black; font-size:50px;"">Agent B","null","","","","",""
"null","","","video-keyboard-response","503","1588211","0.0-503.0","ka742usk","","","null","","Agent B","scrambled","STIM_SET_1/1592934.bmp_pp63_L1_V1.0_scrambled_freeview_isoFalse.mp4",""
"","","","call-function","504","1588212","0.0-504.0","ka742usk","","","","","","","",""
"4512.459999999963","{""judgement"":1}","[0]","survey-likert","505","1592725","0.0-505.0","ka742usk","","","","","","","","0"
"2318.3000000000466","{""confidence"":2}","[0]","survey-likert","506","1595045","0.0-506.0","ka742usk","","","","","","","",""
"","","","call-function","507","1595045","0.0-507.0","ka742usk","","","","","","","",""
"null","","","html-keyboard-response","508","1596548","0.0-508.0","ka742usk","","<span style=""color:Black; font-size:50px;"">Agent A","null","","","","",""
"null","","","video-keyboard-response","509","1599622","0.0-509.0","ka742usk","","","null","","Agent A","veridical","STIM_SET_1/1159813.bmp_pp79_L2_V1.0_veridical_freeview_isoFalse.mp4",""
"null","","","html-keyboard-response","510","1601124","0.0-510.0","ka742usk","","<span style=""color:Black; font-size:50px;"">Agent B","null","","","","",""
"null","","","video-keyboard-response","511","1604196","0.0-511.0","ka742usk","","","null","","Agent B","scrambled","STIM_SET_1/1159813.bmp_pp79_L2_V1.0_scrambled_freeview_isoFalse.mp4",""
"","","","call-function","512","1604197","0.0-512.0","ka742usk","","","","","","","",""
"2725.659999999916","{""judgement"":1}","[0]","survey-likert","513","1606924","0.0-513.0","ka742usk","","","","","","","","0"
"2011.405000000028","{""confidence"":1}","[0]","survey-likert","514","1608936","0.0-514.0","ka742usk","","","","","","","",""
"","","","call-function","515","1608937","0.0-515.0","ka742usk","","","","","","","",""
"null","","","html-keyboard-response","516","1610439","0.0-516.0","ka742usk","","<span style=""color:Black; font-size:50px;"">Agent A","null","","","","",""
"null","","","video-keyboard-response","517","1613554","0.0-517.0","ka742usk","","","null","","Agent A","scrambled","STIM_SET_1/1591876.bmp_pp63_L1_V1.0_scrambled_freeview_isoFalse.mp4",""
"null","","","html-keyboard-response","518","1615056","0.0-518.0","ka742usk","","<span style=""color:Black; font-size:50px;"">Agent B","null","","","","",""
"null","","","video-keyboard-response","519","1618175","0.0-519.0","ka742usk","","","null","","Agent B","veridical","STIM_SET_1/1591876.bmp_pp63_L1_V1.0_veridical_freeview_isoFalse.mp4",""
"","","","call-function","520","1618175","0.0-520.0","ka742usk","","","","","","","",""
"35059.99499999988","{""judgement"":1}","[0]","survey-likert","521","1653236","0.0-521.0","ka742usk","","","","","","","","1"
"3838.1200000001118","{""confidence"":2}","[0]","survey-likert","522","1657075","0.0-522.0","ka742usk","","","","","","","",""
"","","","call-function","523","1657076","0.0-523.0","ka742usk","","","","","","","",""
"null","","","html-keyboard-response","524","1658580","0.0-524.0","ka742usk","","<span style=""color:Black; font-size:50px;"">Agent A","null","","","","",""
"null","","","video-keyboard-response","525","1661659","0.0-525.0","ka742usk","","","null","","Agent A","scrambled","STIM_SET_1/712977.bmp_pp51_L1_V1.0_scrambled_freeview_isoFalse.mp4",""
"null","","","html-keyboard-response","526","1663164","0.0-526.0","ka742usk","","<span style=""color:Black; font-size:50px;"">Agent B","null","","","","",""
"null","","","video-keyboard-response","527","1666240","0.0-527.0","ka742usk","","","null","","Agent B","veridical","STIM_SET_1/712977.bmp_pp51_L1_V1.0_veridical_freeview_isoFalse.mp4",""
"","","","call-function","528","1666241","0.0-528.0","ka742usk","","","","","","","",""
"1579.5349999999162","{""judgement"":0}","[0]","survey-likert","529","1667821","0.0-529.0","ka742usk","","","","","","","","1"
"2557.969999999972","{""confidence"":2}","[0]","survey-likert","530","1670380","0.0-530.0","ka742usk","","","","","","","",""
"","","","call-function","531","1670381","0.0-531.0","ka742usk","","","","","","","",""
"null","","","html-keyboard-response","532","1671884","0.0-532.0","ka742usk","","<span style=""color:Black; font-size:50px;"">Agent A","null","","","","",""
"null","","","video-keyboard-response","533","1674957","0.0-533.0","ka742usk","","","null","","Agent A","scrambled","STIM_SET_1/285933.bmp_pp81_L1_V1.0_scrambled_freeview_isoFalse.mp4",""
"null","","","html-keyboard-response","534","1676460","0.0-534.0","ka742usk","","<span style=""color:Black; font-size:50px;"">Agent B","null","","","","",""
"null","","","video-keyboard-response","535","1679533","0.0-535.0","ka742usk","","","null","","Agent B","veridical","STIM_SET_1/285933.bmp_pp81_L1_V1.0_veridical_freeview_isoFalse.mp4",""
"","","","call-function","536","1679533","0.0-536.0","ka742usk","","","","","","","",""
"2002.964999999851","{""judgement"":1}","[0]","survey-likert","537","1681537","0.0-537.0","ka742usk","","","","","","","","1"
"1332.6899999999441","{""confidence"":2}","[0]","survey-likert","538","1682871","0.0-538.0","ka742usk","","","","","","","",""
"","","","call-function","539","1682872","0.0-539.0","ka742usk","","","","","","","",""
"null","","","html-keyboard-response","540","1684373","0.0-540.0","ka742usk","","<span style=""color:Black; font-size:50px;"">Agent A","null","","","","",""
"null","","","video-keyboard-response","541","1687491","0.0-541.0","ka742usk","","","null","","Agent A","veridical","STIM_SET_1/1592804.bmp_pp91_L3_V1.0_veridical_freeview_isoFalse.mp4",""
"null","","","html-keyboard-response","542","1688996","0.0-542.0","ka742usk","","<span style=""color:Black; font-size:50px;"">Agent B","null","","","","",""
"null","","","video-keyboard-response","543","1692115","0.0-543.0","ka742usk","","","null","","Agent B","scrambled","STIM_SET_1/1592804.bmp_pp91_L3_V1.0_scrambled_freeview_isoFalse.mp4",""
"","","","call-function","544","1692116","0.0-544.0","ka742usk","","","","","","","",""
"1888.0250000001397","{""judgement"":1}","[0]","survey-likert","545","1694005","0.0-545.0","ka742usk","","","","","","","","0"
"1863.7749999999069","{""confidence"":0}","[0]","survey-likert","546","1695870","0.0-546.0","ka742usk","","","","","","","",""
"","","","call-function","547","1695870","0.0-547.0","ka742usk","","","","","","","",""
"null","","","html-keyboard-response","548","1697372","0.0-548.0","ka742usk","","<span style=""color:Black; font-size:50px;"">Agent A","null","","","","",""
"null","","","video-keyboard-response","549","1700480","0.0-549.0","ka742usk","","","null","","Agent A","veridical","STIM_SET_1/1159572.bmp_pp71_L1_V1.0_veridical_freeview_isoFalse.mp4",""
"null","","","html-keyboard-response","550","1701983","0.0-550.0","ka742usk","","<span style=""color:Black; font-size:50px;"">Agent B","null","","","","",""
"null","","","video-keyboard-response","551","1705093","0.0-551.0","ka742usk","","","null","","Agent B","scrambled","STIM_SET_1/1159572.bmp_pp71_L1_V1.0_scrambled_freeview_isoFalse.mp4",""
"","","","call-function","552","1705094","0.0-552.0","ka742usk","","","","","","","",""
"1658.910000000149","{""judgement"":1}","[0]","survey-likert","553","1706755","0.0-553.0","ka742usk","","","","","","","","0"
"2003.2950000001583","{""confidence"":3}","[0]","survey-likert","554","1708761","0.0-554.0","ka742usk","","","","","","","",""
"","","","call-function","555","1708762","0.0-555.0","ka742usk","","","","","","","",""
"null","","","html-keyboard-response","556","1710269","0.0-556.0","ka742usk","","<span style=""color:Black; font-size:50px;"">Agent A","null","","","","",""
"null","","","video-keyboard-response","557","1713351","0.0-557.0","ka742usk","","","null","","Agent A","veridical","STIM_SET_1/713620.bmp_pp65_L3_V1.0_veridical_freeview_isoFalse.mp4",""
"null","","","html-keyboard-response","558","1714852","0.0-558.0","ka742usk","","<span style=""color:Black; font-size:50px;"">Agent B","null","","","","",""
"null","","","video-keyboard-response","559","1717934","0.0-559.0","ka742usk","","","null","","Agent B","scrambled","STIM_SET_1/713620.bmp_pp65_L3_V1.0_scrambled_freeview_isoFalse.mp4",""
"","","","call-function","560","1717934","0.0-560.0","ka742usk","","","","","","","",""
"1530.1100000001024","{""judgement"":0}","[0]","survey-likert","561","1719466","0.0-561.0","ka742usk","","","","","","","","0"
"1966.9499999999534","{""confidence"":2}","[0]","survey-likert","562","1721434","0.0-562.0","ka742usk","","","","","","","",""
"","","","call-function","563","1721434","0.0-563.0","ka742usk","","","","","","","",""
"null","","","html-keyboard-response","564","1722936","0.0-564.0","ka742usk","","<span style=""color:Black; font-size:50px;"">Agent A","null","","","","",""
"null","","","video-keyboard-response","565","1726013","0.0-565.0","ka742usk","","","null","","Agent A","veridical","STIM_SET_1/1592397.bmp_pp85_L3_V1.0_veridical_freeview_isoFalse.mp4",""
"null","","","html-keyboard-response","566","1727516","0.0-566.0","ka742usk","","<span style=""color:Black; font-size:50px;"">Agent B","null","","","","",""
"null","","","video-keyboard-response","567","1730589","0.0-567.0","ka742usk","","","null","","Agent B","scrambled","STIM_SET_1/1592397.bmp_pp85_L3_V1.0_scrambled_freeview_isoFalse.mp4",""
"","","","call-function","568","1730589","0.0-568.0","ka742usk","","","","","","","",""
"3079.4799999999814","{""judgement"":1}","[0]","survey-likert","569","1733670","0.0-569.0","ka742usk","","","","","","","","0"
"1384.8999999999069","{""confidence"":3}","[0]","survey-likert","570","1735056","0.0-570.0","ka742usk","","","","","","","",""
"","","","call-function","571","1735056","0.0-571.0","ka742usk","","","","","","","",""
"null","","","html-keyboard-response","572","1736559","0.0-572.0","ka742usk","","<span style=""color:Black; font-size:50px;"">Agent A","null","","","","",""
"null","","","video-keyboard-response","573","1739674","0.0-573.0","ka742usk","","","null","","Agent A","veridical","STIM_SET_1/1159882.bmp_pp61_L2_V1.0_veridical_freeview_isoFalse.mp4",""
"null","","","html-keyboard-response","574","1741176","0.0-574.0","ka742usk","","<span style=""color:Black; font-size:50px;"">Agent B","null","","","","",""
"null","","","video-keyboard-response","575","1744286","0.0-575.0","ka742usk","","","null","","Agent B","scrambled","STIM_SET_1/1159882.bmp_pp61_L2_V1.0_scrambled_freeview_isoFalse.mp4",""
"","","","call-function","576","1744287","0.0-576.0","ka742usk","","","","","","","",""
"1763.2650000001304","{""judgement"":0}","[0]","survey-likert","577","1746051","0.0-577.0","ka742usk","","","","","","","","0"
"1709.9499999999534","{""confidence"":2}","[0]","survey-likert","578","1747762","0.0-578.0","ka742usk","","","","","","","",""
"1381.5600000000559","","","instructions","579","1749144","0.0-579.0","ka742usk","[{""page_index"":0,""viewing_time"":1381.4250000000466}]","","","","","","",""
"698.3600000001024","","","instructions","580","1749843","0.0-580.0","ka742usk","[{""page_index"":0,""viewing_time"":698.2550000001211}]","","","","","","",""
"5757.040000000037","{""post-1"":2}","[0]","survey-likert","581","1755601","0.0-581.0","ka742usk","","","","","","","",""
"4861.915000000037","{""post-1"":2}","[0]","survey-likert","582","1760464","0.0-582.0","ka742usk","","","","","","","",""
"6998.475000000093","{""post-2"":2}","[0]","survey-likert","583","1767464","0.0-583.0","ka742usk","","","","","","","",""
"1397.9450000000652","{""post-2"":2}","[0]","survey-likert","584","1768863","0.0-584.0","ka742usk","","","","","","","",""
"5426.735000000102","{""post-3"":2}","[0]","survey-likert","585","1774291","0.0-585.0","ka742usk","","","","","","","",""
"1952.3500000000931","{""post-3"":1}","[0]","survey-likert","586","1776244","0.0-586.0","ka742usk","","","","","","","",""
"6421.945000000065","{""post-4"":0}","[0]","survey-likert","587","1782667","0.0-587.0","ka742usk","","","","","","","",""
"1331.339999999851","{""post-4"":0}","[0]","survey-likert","588","1784001","0.0-588.0","ka742usk","","","","","","","",""
"5066.395000000019","{""post-5"":1}","[0]","survey-likert","589","1789069","0.0-589.0","ka742usk","","","","","","","",""
"3578.7900000000373","{""post-5"":2}","[0]","survey-likert","590","1792650","0.0-590.0","ka742usk","","","","","","","",""
"17944.01000000001","{""Q0"":""I thought this stage of the experiment was a lot easier""}","","survey-text","591","1810599","0.0-591.0","ka742usk","","","","","","","",""
"39620.01000000001","{""Q0"":""I found it easiest to imagine where my attention would naturally follow, then pick the agent that most aligned with it.""}","","survey-text","592","1850222","0.0-592.0","ka742usk","","","","","","","",""
"10950.39000000013","{""Q0"":""I found it difficult to pay attention""}","","survey-text","593","1861175","0.0-593.0","ka742usk","","","","","","","",""
"797.6550000000279","","","instructions","594","1861974","0.0-594.0","ka742usk","[{""page_index"":0,""viewing_time"":797.5100000000093}]","","","","","","",""
"67586.14500000002","{""Experimenter_end"":[""Printed ID# ka742usk on consent form"",""Given subject SONA credit or payment"",""Given the subject debrief form""]}","[0]","survey-multi-select","595","1929562","0.0-595.0","ka742usk","","","","","","","",""
