"rt","responses","question_order","trial_type","trial_index","time_elapsed","internal_node_id","ID","view_history","stimulus","key_press","value","agent","condition","image","correct_answer"
"24141.32","{""Experimenter"":[""Confirmed subject's identity"",""Confirmed normal or corrected-to-normal vision"",""Obtained consent (signature and date)"",""Checked the test room lighting"",""Checked computer screen lighting"",""Checked distance from screen to chin rest (50cm)"",""Cleaned and adjusted chin rest"",""Counterbalanced the order of the tasks"",""Opened the experiment in Firefox"",""Made the experiment full screen"",""Encouraged subject to silence phone, put away distractors, etc.""]}","[0]","survey-multi-select","0","24150","0.0-0.0","knesqyz0","","","","","","","",""
"3822.165000000001","","","instructions","1","27973","0.0-1.0","knesqyz0","[{""page_index"":0,""viewing_time"":3822.0099999999984}]","","","","","","",""
"7281.684999999998","","","instructions","2","35256","0.0-2.0","knesqyz0","[{""page_index"":0,""viewing_time"":4385.605},{""page_index"":1,""viewing_time"":1109.9650000000001},{""page_index"":2,""viewing_time"":1785.989999999998}]","","","","","","",""
"1420.4650000000038","","","instructions","3","36677","0.0-3.0","knesqyz0","[{""page_index"":0,""viewing_time"":1420.3600000000006}]","","","","","","",""
"null","","","video-keyboard-response","4","39751","0.0-4.0","knesqyz0","","","null","","","","",""
"25625.595","","","instructions","5","65377","0.0-5.0","knesqyz0","[{""page_index"":0,""viewing_time"":1338.050000000003},{""page_index"":1,""viewing_time"":2311.5650000000023},{""page_index"":2,""viewing_time"":21975.875}]","","","","","","",""
"1767.4600000000064","","","instructions","6","67145","0.0-6.0","knesqyz0","[{""page_index"":0,""viewing_time"":1767.3550000000105}]","","","","","","",""
"1525.4750000000058","","","instructions","7","68671","0.0-7.0","knesqyz0","[{""page_index"":0,""viewing_time"":1525.2599999999948}]","","","","","","",""
"null","","","video-keyboard-response","8","71749","0.0-8.0","knesqyz0","","","null","","","","",""
"4709.465000000011","","","instructions","9","76459","0.0-9.0","knesqyz0","[{""page_index"":0,""viewing_time"":918.6350000000093},{""page_index"":1,""viewing_time"":1465.824999999997},{""page_index"":2,""viewing_time"":2324.8699999999953}]","","","","","","",""
"1617.550000000003","","","instructions","10","78077","0.0-10.0","knesqyz0","[{""page_index"":0,""viewing_time"":1617.4349999999977}]","","","","","","",""
"","","","call-function","11","78078","0.0-11.0","knesqyz0","","","","","","","",""
"null","","","html-keyboard-response","12","79581","0.0-12.0","knesqyz0","","<span style=""color:Black; font-size:50px;"">Agent A","null","","","","",""
"null","","","video-keyboard-response","13","82662","0.0-13.0","knesqyz0","","","null","","Agent A","veridical","STIM_SET_2/713858.bmp_pp57_L1_V1.0_veridical_freeview_isoTrue.mp4",""
"null","","","html-keyboard-response","14","84166","0.0-14.0","knesqyz0","","<span style=""color:Black; font-size:50px;"">Agent B","null","","","","",""
"null","","","video-keyboard-response","15","87246","0.0-15.0","knesqyz0","","","null","","Agent B","scrambled","STIM_SET_2/713858.bmp_pp57_L1_V1.0_scrambled_freeview_isoTrue.mp4",""
"","","","call-function","16","87246","0.0-16.0","knesqyz0","","","","","","","",""
"2273.7149999999965","{""judgement"":0}","[0]","survey-likert","17","89521","0.0-17.0","knesqyz0","","","","","","","","0"
"2541.720000000001","{""confidence"":3}","[0]","survey-likert","18","92064","0.0-18.0","knesqyz0","","","","","","","",""
"","","","call-function","19","92065","0.0-19.0","knesqyz0","","","","","","","",""
"null","","","html-keyboard-response","20","93567","0.0-20.0","knesqyz0","","<span style=""color:Black; font-size:50px;"">Agent A","null","","","","",""
"null","","","video-keyboard-response","21","96668","0.0-21.0","knesqyz0","","","null","","Agent A","veridical","STIM_SET_2/1592047.bmp_pp51_L1_V1.0_veridical_freeview_isoTrue.mp4",""
"null","","","html-keyboard-response","22","98169","0.0-22.0","knesqyz0","","<span style=""color:Black; font-size:50px;"">Agent B","null","","","","",""
"null","","","video-keyboard-response","23","101269","0.0-23.0","knesqyz0","","","null","","Agent B","scrambled","STIM_SET_2/1592047.bmp_pp51_L1_V1.0_scrambled_freeview_isoTrue.mp4",""
"","","","call-function","24","101269","0.0-24.0","knesqyz0","","","","","","","",""
"1389.2250000000058","{""judgement"":0}","[0]","survey-likert","25","102659","0.0-25.0","knesqyz0","","","","","","","","0"
"1373.7949999999983","{""confidence"":3}","[0]","survey-likert","26","104034","0.0-26.0","knesqyz0","","","","","","","",""
"","","","call-function","27","104035","0.0-27.0","knesqyz0","","","","","","","",""
"null","","","html-keyboard-response","28","105538","0.0-28.0","knesqyz0","","<span style=""color:Black; font-size:50px;"">Agent A","null","","","","",""
"null","","","video-keyboard-response","29","108610","0.0-29.0","knesqyz0","","","null","","Agent A","scrambled","STIM_SET_2/61513.bmp_pp75_L1_V1.0_scrambled_freeview_isoTrue.mp4",""
"null","","","html-keyboard-response","30","110115","0.0-30.0","knesqyz0","","<span style=""color:Black; font-size:50px;"">Agent B","null","","","","",""
"null","","","video-keyboard-response","31","113180","0.0-31.0","knesqyz0","","","null","","Agent B","veridical","STIM_SET_2/61513.bmp_pp75_L1_V1.0_veridical_freeview_isoTrue.mp4",""
"","","","call-function","32","113181","0.0-32.0","knesqyz0","","","","","","","",""
"1655.8649999999907","{""judgement"":1}","[0]","survey-likert","33","114838","0.0-33.0","knesqyz0","","","","","","","","1"
"1625.5050000000047","{""confidence"":3}","[0]","survey-likert","34","116465","0.0-34.0","knesqyz0","","","","","","","",""
"","","","call-function","35","116465","0.0-35.0","knesqyz0","","","","","","","",""
"null","","","html-keyboard-response","36","117968","0.0-36.0","knesqyz0","","<span style=""color:Black; font-size:50px;"">Agent A","null","","","","",""
"null","","","video-keyboard-response","37","121040","0.0-37.0","knesqyz0","","","null","","Agent A","veridical","STIM_SET_2/1159956.bmp_pp59_L3_V1.0_veridical_freeview_isoTrue.mp4",""
"null","","","html-keyboard-response","38","122545","0.0-38.0","knesqyz0","","<span style=""color:Black; font-size:50px;"">Agent B","null","","","","",""
"null","","","video-keyboard-response","39","125618","0.0-39.0","knesqyz0","","","null","","Agent B","scrambled","STIM_SET_2/1159956.bmp_pp59_L3_V1.0_scrambled_freeview_isoTrue.mp4",""
"","","","call-function","40","125619","0.0-40.0","knesqyz0","","","","","","","",""
"1415.0599999999977","{""judgement"":0}","[0]","survey-likert","41","127035","0.0-41.0","knesqyz0","","","","","","","","0"
"1937.375","{""confidence"":2}","[0]","survey-likert","42","128974","0.0-42.0","knesqyz0","","","","","","","",""
"","","","call-function","43","128974","0.0-43.0","knesqyz0","","","","","","","",""
"null","","","html-keyboard-response","44","130481","0.0-44.0","knesqyz0","","<span style=""color:Black; font-size:50px;"">Agent A","null","","","","",""
"null","","","video-keyboard-response","45","133549","0.0-45.0","knesqyz0","","","null","","Agent A","scrambled","STIM_SET_2/1159392.bmp_pp96_L2_V1.0_scrambled_freeview_isoTrue.mp4",""
"null","","","html-keyboard-response","46","135053","0.0-46.0","knesqyz0","","<span style=""color:Black; font-size:50px;"">Agent B","null","","","","",""
"null","","","video-keyboard-response","47","138120","0.0-47.0","knesqyz0","","","null","","Agent B","veridical","STIM_SET_2/1159392.bmp_pp96_L2_V1.0_veridical_freeview_isoTrue.mp4",""
"","","","call-function","48","138120","0.0-48.0","knesqyz0","","","","","","","",""
"2587.454999999987","{""judgement"":1}","[0]","survey-likert","49","140709","0.0-49.0","knesqyz0","","","","","","","","1"
"2164.1999999999825","{""confidence"":3}","[0]","survey-likert","50","142874","0.0-50.0","knesqyz0","","","","","","","",""
"","","","call-function","51","142874","0.0-51.0","knesqyz0","","","","","","","",""
"null","","","html-keyboard-response","52","144377","0.0-52.0","knesqyz0","","<span style=""color:Black; font-size:50px;"">Agent A","null","","","","",""
"null","","","video-keyboard-response","53","147445","0.0-53.0","knesqyz0","","","null","","Agent A","veridical","STIM_SET_2/1592568.bmp_pp71_L1_V1.0_veridical_freeview_isoTrue.mp4",""
"null","","","html-keyboard-response","54","148951","0.0-54.0","knesqyz0","","<span style=""color:Black; font-size:50px;"">Agent B","null","","","","",""
"null","","","video-keyboard-response","55","152057","0.0-55.0","knesqyz0","","","null","","Agent B","scrambled","STIM_SET_2/1592568.bmp_pp71_L1_V1.0_scrambled_freeview_isoTrue.mp4",""
"","","","call-function","56","152058","0.0-56.0","knesqyz0","","","","","","","",""
"2476.945000000007","{""judgement"":0}","[0]","survey-likert","57","154535","0.0-57.0","knesqyz0","","","","","","","","0"
"2468.9249999999884","{""confidence"":3}","[0]","survey-likert","58","157005","0.0-58.0","knesqyz0","","","","","","","",""
"","","","call-function","59","157006","0.0-59.0","knesqyz0","","","","","","","",""
"null","","","html-keyboard-response","60","158509","0.0-60.0","knesqyz0","","<span style=""color:Black; font-size:50px;"">Agent A","null","","","","",""
"null","","","video-keyboard-response","61","161566","0.0-61.0","knesqyz0","","","null","","Agent A","scrambled","STIM_SET_2/107955.bmp_pp90_L2_V1.0_scrambled_freeview_isoTrue.mp4",""
"null","","","html-keyboard-response","62","163070","0.0-62.0","knesqyz0","","<span style=""color:Black; font-size:50px;"">Agent B","null","","","","",""
"null","","","video-keyboard-response","63","166166","0.0-63.0","knesqyz0","","","null","","Agent B","veridical","STIM_SET_2/107955.bmp_pp90_L2_V1.0_veridical_freeview_isoTrue.mp4",""
"","","","call-function","64","166166","0.0-64.0","knesqyz0","","","","","","","",""
"1538.6199999999953","{""judgement"":0}","[0]","survey-likert","65","167706","0.0-65.0","knesqyz0","","","","","","","","1"
"1580.640000000014","{""confidence"":2}","[0]","survey-likert","66","169287","0.0-66.0","knesqyz0","","","","","","","",""
"","","","call-function","67","169288","0.0-67.0","knesqyz0","","","","","","","",""
"null","","","html-keyboard-response","68","170790","0.0-68.0","knesqyz0","","<span style=""color:Black; font-size:50px;"">Agent A","null","","","","",""
"null","","","video-keyboard-response","69","173884","0.0-69.0","knesqyz0","","","null","","Agent A","veridical","STIM_SET_2/713829.bmp_pp60_L3_V1.0_veridical_freeview_isoTrue.mp4",""
"null","","","html-keyboard-response","70","175387","0.0-70.0","knesqyz0","","<span style=""color:Black; font-size:50px;"">Agent B","null","","","","",""
"null","","","video-keyboard-response","71","178484","0.0-71.0","knesqyz0","","","null","","Agent B","scrambled","STIM_SET_2/713829.bmp_pp60_L3_V1.0_scrambled_freeview_isoTrue.mp4",""
"","","","call-function","72","178485","0.0-72.0","knesqyz0","","","","","","","",""
"1838.9049999999988","{""judgement"":0}","[0]","survey-likert","73","180325","0.0-73.0","knesqyz0","","","","","","","","0"
"1554.0950000000012","{""confidence"":3}","[0]","survey-likert","74","181881","0.0-74.0","knesqyz0","","","","","","","",""
"","","","call-function","75","181882","0.0-75.0","knesqyz0","","","","","","","",""
"null","","","html-keyboard-response","76","183387","0.0-76.0","knesqyz0","","<span style=""color:Black; font-size:50px;"">Agent A","null","","","","",""
"null","","","video-keyboard-response","77","186464","0.0-77.0","knesqyz0","","","null","","Agent A","scrambled","STIM_SET_2/285959.bmp_pp93_L1_V1.0_scrambled_freeview_isoTrue.mp4",""
"null","","","html-keyboard-response","78","187966","0.0-78.0","knesqyz0","","<span style=""color:Black; font-size:50px;"">Agent B","null","","","","",""
"null","","","video-keyboard-response","79","191044","0.0-79.0","knesqyz0","","","null","","Agent B","veridical","STIM_SET_2/285959.bmp_pp93_L1_V1.0_veridical_freeview_isoTrue.mp4",""
"","","","call-function","80","191044","0.0-80.0","knesqyz0","","","","","","","",""
"1711.4349999999977","{""judgement"":0}","[0]","survey-likert","81","192757","0.0-81.0","knesqyz0","","","","","","","","1"
"1394","{""confidence"":2}","[0]","survey-likert","82","194152","0.0-82.0","knesqyz0","","","","","","","",""
"","","","call-function","83","194153","0.0-83.0","knesqyz0","","","","","","","",""
"null","","","html-keyboard-response","84","195659","0.0-84.0","knesqyz0","","<span style=""color:Black; font-size:50px;"">Agent A","null","","","","",""
"null","","","video-keyboard-response","85","198735","0.0-85.0","knesqyz0","","","null","","Agent A","veridical","STIM_SET_2/1591781.bmp_pp63_L1_V1.0_veridical_freeview_isoTrue.mp4",""
"null","","","html-keyboard-response","86","200237","0.0-86.0","knesqyz0","","<span style=""color:Black; font-size:50px;"">Agent B","null","","","","",""
"null","","","video-keyboard-response","87","203314","0.0-87.0","knesqyz0","","","null","","Agent B","scrambled","STIM_SET_2/1591781.bmp_pp63_L1_V1.0_scrambled_freeview_isoTrue.mp4",""
"","","","call-function","88","203315","0.0-88.0","knesqyz0","","","","","","","",""
"1349.2449999999953","{""judgement"":0}","[0]","survey-likert","89","204665","0.0-89.0","knesqyz0","","","","","","","","0"
"1549.8550000000105","{""confidence"":3}","[0]","survey-likert","90","206216","0.0-90.0","knesqyz0","","","","","","","",""
"4049.0499999999884","","","instructions","91","210265","0.0-91.0","knesqyz0","[{""page_index"":0,""viewing_time"":832.8800000000047},{""page_index"":1,""viewing_time"":1979.8899999999849},{""page_index"":2,""viewing_time"":1236.0750000000116}]","","","","","","",""
"2075.545000000013","","","instructions","92","212341","0.0-92.0","knesqyz0","[{""page_index"":0,""viewing_time"":744.3700000000244},{""page_index"":1,""viewing_time"":732.8999999999942},{""page_index"":2,""viewing_time"":598.0599999999977}]","","","","","","",""
"","","","call-function","93","212342","0.0-93.0","knesqyz0","","","","","","","",""
"null","","","html-keyboard-response","94","213846","0.0-94.0","knesqyz0","","<span style=""color:Black; font-size:50px;"">Agent A","null","","","","",""
"null","","","video-keyboard-response","95","216951","0.0-95.0","knesqyz0","","","null","","Agent A","scrambled","STIM_SET_2/713633.bmp_pp58_L1_V1.0_scrambled_freeview_isoTrue.mp4",""
"null","","","html-keyboard-response","96","218452","0.0-96.0","knesqyz0","","<span style=""color:Black; font-size:50px;"">Agent B","null","","","","",""
"null","","","video-keyboard-response","97","221550","0.0-97.0","knesqyz0","","","null","","Agent B","veridical","STIM_SET_2/713633.bmp_pp58_L1_V1.0_veridical_freeview_isoTrue.mp4",""
"","","","call-function","98","221551","0.0-98.0","knesqyz0","","","","","","","",""
"2411.7449999999953","{""judgement"":1}","[0]","survey-likert","99","223963","0.0-99.0","knesqyz0","","","","","","","","1"
"2106.914999999979","{""confidence"":2}","[0]","survey-likert","100","226071","0.0-100.0","knesqyz0","","","","","","","",""
"","","","call-function","101","226072","0.0-101.0","knesqyz0","","","","","","","",""
"null","","","html-keyboard-response","102","227578","0.0-102.0","knesqyz0","","<span style=""color:Black; font-size:50px;"">Agent A","null","","","","",""
"null","","","video-keyboard-response","103","230673","0.0-103.0","knesqyz0","","","null","","Agent A","veridical","STIM_SET_2/1160189.bmp_pp64_L1_V1.0_veridical_freeview_isoTrue.mp4",""
"null","","","html-keyboard-response","104","232177","0.0-104.0","knesqyz0","","<span style=""color:Black; font-size:50px;"">Agent B","null","","","","",""
"null","","","video-keyboard-response","105","235270","0.0-105.0","knesqyz0","","","null","","Agent B","scrambled","STIM_SET_2/1160189.bmp_pp64_L1_V1.0_scrambled_freeview_isoTrue.mp4",""
"","","","call-function","106","235271","0.0-106.0","knesqyz0","","","","","","","",""
"2125.375","{""judgement"":0}","[0]","survey-likert","107","237397","0.0-107.0","knesqyz0","","","","","","","","0"
"2696.2699999999895","{""confidence"":3}","[0]","survey-likert","108","240094","0.0-108.0","knesqyz0","","","","","","","",""
"","","","call-function","109","240095","0.0-109.0","knesqyz0","","","","","","","",""
"null","","","html-keyboard-response","110","241600","0.0-110.0","knesqyz0","","<span style=""color:Black; font-size:50px;"">Agent A","null","","","","",""
"null","","","video-keyboard-response","111","244691","0.0-111.0","knesqyz0","","","null","","Agent A","scrambled","STIM_SET_2/1592314.bmp_pp100_L3_V1.0_scrambled_freeview_isoTrue.mp4",""
"null","","","html-keyboard-response","112","246197","0.0-112.0","knesqyz0","","<span style=""color:Black; font-size:50px;"">Agent B","null","","","","",""
"null","","","video-keyboard-response","113","249288","0.0-113.0","knesqyz0","","","null","","Agent B","veridical","STIM_SET_2/1592314.bmp_pp100_L3_V1.0_veridical_freeview_isoTrue.mp4",""
"","","","call-function","114","249288","0.0-114.0","knesqyz0","","","","","","","",""
"1920.5100000000093","{""judgement"":1}","[0]","survey-likert","115","251210","0.0-115.0","knesqyz0","","","","","","","","1"
"2515.6900000000023","{""confidence"":3}","[0]","survey-likert","116","253727","0.0-116.0","knesqyz0","","","","","","","",""
"","","","call-function","117","253727","0.0-117.0","knesqyz0","","","","","","","",""
"null","","","html-keyboard-response","118","255233","0.0-118.0","knesqyz0","","<span style=""color:Black; font-size:50px;"">Agent A","null","","","","",""
"null","","","video-keyboard-response","119","258300","0.0-119.0","knesqyz0","","","null","","Agent A","scrambled","STIM_SET_2/1160049.bmp_pp53_L2_V1.0_scrambled_freeview_isoTrue.mp4",""
"null","","","html-keyboard-response","120","259802","0.0-120.0","knesqyz0","","<span style=""color:Black; font-size:50px;"">Agent B","null","","","","",""
"null","","","video-keyboard-response","121","262871","0.0-121.0","knesqyz0","","","null","","Agent B","veridical","STIM_SET_2/1160049.bmp_pp53_L2_V1.0_veridical_freeview_isoTrue.mp4",""
"","","","call-function","122","262872","0.0-122.0","knesqyz0","","","","","","","",""
"2370.2249999999767","{""judgement"":1}","[0]","survey-likert","123","265244","0.0-123.0","knesqyz0","","","","","","","","1"
"2502.579999999958","{""confidence"":2}","[0]","survey-likert","124","267748","0.0-124.0","knesqyz0","","","","","","","",""
"","","","call-function","125","267749","0.0-125.0","knesqyz0","","","","","","","",""
"null","","","html-keyboard-response","126","269254","0.0-126.0","knesqyz0","","<span style=""color:Black; font-size:50px;"">Agent A","null","","","","",""
"null","","","video-keyboard-response","127","272322","0.0-127.0","knesqyz0","","","null","","Agent A","scrambled","STIM_SET_2/285932.bmp_pp64_L1_V1.0_scrambled_freeview_isoTrue.mp4",""
"null","","","html-keyboard-response","128","273825","0.0-128.0","knesqyz0","","<span style=""color:Black; font-size:50px;"">Agent B","null","","","","",""
"null","","","video-keyboard-response","129","276891","0.0-129.0","knesqyz0","","","null","","Agent B","veridical","STIM_SET_2/285932.bmp_pp64_L1_V1.0_veridical_freeview_isoTrue.mp4",""
"","","","call-function","130","276892","0.0-130.0","knesqyz0","","","","","","","",""
"1256.820000000007","{""judgement"":1}","[0]","survey-likert","131","278150","0.0-131.0","knesqyz0","","","","","","","","1"
"1546.6450000000186","{""confidence"":3}","[0]","survey-likert","132","279698","0.0-132.0","knesqyz0","","","","","","","",""
"","","","call-function","133","279699","0.0-133.0","knesqyz0","","","","","","","",""
"null","","","html-keyboard-response","134","281201","0.0-134.0","knesqyz0","","<span style=""color:Black; font-size:50px;"">Agent A","null","","","","",""
"null","","","video-keyboard-response","135","284278","0.0-135.0","knesqyz0","","","null","","Agent A","scrambled","STIM_SET_2/1159592.bmp_pp91_L3_V1.0_scrambled_freeview_isoTrue.mp4",""
"null","","","html-keyboard-response","136","285781","0.0-136.0","knesqyz0","","<span style=""color:Black; font-size:50px;"">Agent B","null","","","","",""
"null","","","video-keyboard-response","137","288890","0.0-137.0","knesqyz0","","","null","","Agent B","veridical","STIM_SET_2/1159592.bmp_pp91_L3_V1.0_veridical_freeview_isoTrue.mp4",""
"","","","call-function","138","288890","0.0-138.0","knesqyz0","","","","","","","",""
"1201.9400000000023","{""judgement"":0}","[0]","survey-likert","139","290093","0.0-139.0","knesqyz0","","","","","","","","1"
"1824.5100000000093","{""confidence"":3}","[0]","survey-likert","140","291918","0.0-140.0","knesqyz0","","","","","","","",""
"","","","call-function","141","291920","0.0-141.0","knesqyz0","","","","","","","",""
"null","","","html-keyboard-response","142","293425","0.0-142.0","knesqyz0","","<span style=""color:Black; font-size:50px;"">Agent A","null","","","","",""
"null","","","video-keyboard-response","143","296521","0.0-143.0","knesqyz0","","","null","","Agent A","scrambled","STIM_SET_2/1592044.bmp_pp94_L2_V1.0_scrambled_freeview_isoTrue.mp4",""
"null","","","html-keyboard-response","144","298026","0.0-144.0","knesqyz0","","<span style=""color:Black; font-size:50px;"">Agent B","null","","","","",""
"null","","","video-keyboard-response","145","301121","0.0-145.0","knesqyz0","","","null","","Agent B","veridical","STIM_SET_2/1592044.bmp_pp94_L2_V1.0_veridical_freeview_isoTrue.mp4",""
"","","","call-function","146","301121","0.0-146.0","knesqyz0","","","","","","","",""
"1735.8600000000442","{""judgement"":1}","[0]","survey-likert","147","302858","0.0-147.0","knesqyz0","","","","","","","","1"
"2303.0050000000047","{""confidence"":3}","[0]","survey-likert","148","305162","0.0-148.0","knesqyz0","","","","","","","",""
"","","","call-function","149","305162","0.0-149.0","knesqyz0","","","","","","","",""
"null","","","html-keyboard-response","150","306666","0.0-150.0","knesqyz0","","<span style=""color:Black; font-size:50px;"">Agent A","null","","","","",""
"null","","","video-keyboard-response","151","309767","0.0-151.0","knesqyz0","","","null","","Agent A","scrambled","STIM_SET_2/1592747.bmp_pp53_L2_V1.0_scrambled_freeview_isoTrue.mp4",""
"null","","","html-keyboard-response","152","311272","0.0-152.0","knesqyz0","","<span style=""color:Black; font-size:50px;"">Agent B","null","","","","",""
"null","","","video-keyboard-response","153","314376","0.0-153.0","knesqyz0","","","null","","Agent B","veridical","STIM_SET_2/1592747.bmp_pp53_L2_V1.0_veridical_freeview_isoTrue.mp4",""
"","","","call-function","154","314376","0.0-154.0","knesqyz0","","","","","","","",""
"2475.8300000000163","{""judgement"":0}","[0]","survey-likert","155","316853","0.0-155.0","knesqyz0","","","","","","","","1"
"1563.3150000000023","{""confidence"":1}","[0]","survey-likert","156","318417","0.0-156.0","knesqyz0","","","","","","","",""
"","","","call-function","157","318418","0.0-157.0","knesqyz0","","","","","","","",""
"null","","","html-keyboard-response","158","319921","0.0-158.0","knesqyz0","","<span style=""color:Black; font-size:50px;"">Agent A","null","","","","",""
"null","","","video-keyboard-response","159","323020","0.0-159.0","knesqyz0","","","null","","Agent A","scrambled","STIM_SET_2/1592150.bmp_pp77_L3_V1.0_scrambled_freeview_isoTrue.mp4",""
"null","","","html-keyboard-response","160","324522","0.0-160.0","knesqyz0","","<span style=""color:Black; font-size:50px;"">Agent B","null","","","","",""
"null","","","video-keyboard-response","161","327588","0.0-161.0","knesqyz0","","","null","","Agent B","veridical","STIM_SET_2/1592150.bmp_pp77_L3_V1.0_veridical_freeview_isoTrue.mp4",""
"","","","call-function","162","327588","0.0-162.0","knesqyz0","","","","","","","",""
"1817.905000000028","{""judgement"":1}","[0]","survey-likert","163","329407","0.0-163.0","knesqyz0","","","","","","","","1"
"1801.3699999999953","{""confidence"":3}","[0]","survey-likert","164","331210","0.0-164.0","knesqyz0","","","","","","","",""
"","","","call-function","165","331210","0.0-165.0","knesqyz0","","","","","","","",""
"null","","","html-keyboard-response","166","332714","0.0-166.0","knesqyz0","","<span style=""color:Black; font-size:50px;"">Agent A","null","","","","",""
"null","","","video-keyboard-response","167","335789","0.0-167.0","knesqyz0","","","null","","Agent A","veridical","STIM_SET_2/498396.bmp_pp99_L2_V1.0_veridical_freeview_isoTrue.mp4",""
"null","","","html-keyboard-response","168","337291","0.0-168.0","knesqyz0","","<span style=""color:Black; font-size:50px;"">Agent B","null","","","","",""
"null","","","video-keyboard-response","169","340362","0.0-169.0","knesqyz0","","","null","","Agent B","scrambled","STIM_SET_2/498396.bmp_pp99_L2_V1.0_scrambled_freeview_isoTrue.mp4",""
"","","","call-function","170","340362","0.0-170.0","knesqyz0","","","","","","","",""
"1759.9250000000466","{""judgement"":0}","[0]","survey-likert","171","342123","0.0-171.0","knesqyz0","","","","","","","","0"
"3710.2249999999767","{""confidence"":2}","[0]","survey-likert","172","345834","0.0-172.0","knesqyz0","","","","","","","",""
"21013.744999999995","","","instructions","173","366849","0.0-173.0","knesqyz0","[{""page_index"":0,""viewing_time"":18971.625},{""page_index"":1,""viewing_time"":1181.4799999999814},{""page_index"":2,""viewing_time"":860.4249999999884}]","","","","","","",""
"2280.795000000042","","","instructions","174","369131","0.0-174.0","knesqyz0","[{""page_index"":0,""viewing_time"":775.7050000000163},{""page_index"":1,""viewing_time"":821.8699999999953},{""page_index"":2,""viewing_time"":683.109999999986}]","","","","","","",""
"","","","call-function","175","369132","0.0-175.0","knesqyz0","","","","","","","",""
"null","","","html-keyboard-response","176","370637","0.0-176.0","knesqyz0","","<span style=""color:Black; font-size:50px;"">Agent A","null","","","","",""
"null","","","video-keyboard-response","177","373709","0.0-177.0","knesqyz0","","","null","","Agent A","veridical","STIM_SET_2/498261.bmp_pp84_L3_V1.0_veridical_freeview_isoTrue.mp4",""
"null","","","html-keyboard-response","178","375213","0.0-178.0","knesqyz0","","<span style=""color:Black; font-size:50px;"">Agent B","null","","","","",""
"null","","","video-keyboard-response","179","378290","0.0-179.0","knesqyz0","","","null","","Agent B","scrambled","STIM_SET_2/498261.bmp_pp84_L3_V1.0_scrambled_freeview_isoTrue.mp4",""
"","","","call-function","180","378290","0.0-180.0","knesqyz0","","","","","","","",""
"1504.905000000028","{""judgement"":1}","[0]","survey-likert","181","379796","0.0-181.0","knesqyz0","","","","","","","","0"
"3661.890000000014","{""confidence"":3}","[0]","survey-likert","182","383459","0.0-182.0","knesqyz0","","","","","","","",""
"","","","call-function","183","383460","0.0-183.0","knesqyz0","","","","","","","",""
"null","","","html-keyboard-response","184","384962","0.0-184.0","knesqyz0","","<span style=""color:Black; font-size:50px;"">Agent A","null","","","","",""
"null","","","video-keyboard-response","185","388031","0.0-185.0","knesqyz0","","","null","","Agent A","veridical","STIM_SET_2/1592017.bmp_pp154_L1_V1.0_veridical_freeview_isoTrue.mp4",""
"null","","","html-keyboard-response","186","389538","0.0-186.0","knesqyz0","","<span style=""color:Black; font-size:50px;"">Agent B","null","","","","",""
"null","","","video-keyboard-response","187","392606","0.0-187.0","knesqyz0","","","null","","Agent B","scrambled","STIM_SET_2/1592017.bmp_pp154_L1_V1.0_scrambled_freeview_isoTrue.mp4",""
"","","","call-function","188","392606","0.0-188.0","knesqyz0","","","","","","","",""
"1616.2150000000256","{""judgement"":0}","[0]","survey-likert","189","394223","0.0-189.0","knesqyz0","","","","","","","","0"
"1721.5599999999977","{""confidence"":3}","[0]","survey-likert","190","395946","0.0-190.0","knesqyz0","","","","","","","",""
"","","","call-function","191","395947","0.0-191.0","knesqyz0","","","","","","","",""
"null","","","html-keyboard-response","192","397447","0.0-192.0","knesqyz0","","<span style=""color:Black; font-size:50px;"">Agent A","null","","","","",""
"null","","","video-keyboard-response","193","400548","0.0-193.0","knesqyz0","","","null","","Agent A","scrambled","STIM_SET_2/1592025.bmp_pp68_L1_V1.0_scrambled_freeview_isoTrue.mp4",""
"null","","","html-keyboard-response","194","402052","0.0-194.0","knesqyz0","","<span style=""color:Black; font-size:50px;"">Agent B","null","","","","",""
"null","","","video-keyboard-response","195","405153","0.0-195.0","knesqyz0","","","null","","Agent B","veridical","STIM_SET_2/1592025.bmp_pp68_L1_V1.0_veridical_freeview_isoTrue.mp4",""
"","","","call-function","196","405153","0.0-196.0","knesqyz0","","","","","","","",""
"1649.9199999999837","{""judgement"":1}","[0]","survey-likert","197","406804","0.0-197.0","knesqyz0","","","","","","","","1"
"1924.25","{""confidence"":3}","[0]","survey-likert","198","408729","0.0-198.0","knesqyz0","","","","","","","",""
"","","","call-function","199","408730","0.0-199.0","knesqyz0","","","","","","","",""
"null","","","html-keyboard-response","200","410231","0.0-200.0","knesqyz0","","<span style=""color:Black; font-size:50px;"">Agent A","null","","","","",""
"null","","","video-keyboard-response","201","413325","0.0-201.0","knesqyz0","","","null","","Agent A","veridical","STIM_SET_2/285684.bmp_pp80_L3_V1.0_veridical_freeview_isoTrue.mp4",""
"null","","","html-keyboard-response","202","414829","0.0-202.0","knesqyz0","","<span style=""color:Black; font-size:50px;"">Agent B","null","","","","",""
"null","","","video-keyboard-response","203","417921","0.0-203.0","knesqyz0","","","null","","Agent B","scrambled","STIM_SET_2/285684.bmp_pp80_L3_V1.0_scrambled_freeview_isoTrue.mp4",""
"","","","call-function","204","417922","0.0-204.0","knesqyz0","","","","","","","",""
"2045.4100000000326","{""judgement"":0}","[0]","survey-likert","205","419968","0.0-205.0","knesqyz0","","","","","","","","0"
"1460.329999999958","{""confidence"":3}","[0]","survey-likert","206","421429","0.0-206.0","knesqyz0","","","","","","","",""
"","","","call-function","207","421430","0.0-207.0","knesqyz0","","","","","","","",""
"null","","","html-keyboard-response","208","422931","0.0-208.0","knesqyz0","","<span style=""color:Black; font-size:50px;"">Agent A","null","","","","",""
"null","","","video-keyboard-response","209","426029","0.0-209.0","knesqyz0","","","null","","Agent A","veridical","STIM_SET_2/1592857.bmp_pp52_L1_V1_veridical_freeview_isoTrue.mp4",""
"null","","","html-keyboard-response","210","427533","0.0-210.0","knesqyz0","","<span style=""color:Black; font-size:50px;"">Agent B","null","","","","",""
"null","","","video-keyboard-response","211","430633","0.0-211.0","knesqyz0","","","null","","Agent B","scrambled","STIM_SET_2/1592857.bmp_pp52_L1_V1_scrambled_freeview_isoTrue.mp4",""
"","","","call-function","212","430634","0.0-212.0","knesqyz0","","","","","","","",""
"1691.2399999999907","{""judgement"":0}","[0]","survey-likert","213","432326","0.0-213.0","knesqyz0","","","","","","","","0"
"1322.820000000007","{""confidence"":3}","[0]","survey-likert","214","433650","0.0-214.0","knesqyz0","","","","","","","",""
"","","","call-function","215","433650","0.0-215.0","knesqyz0","","","","","","","",""
"null","","","html-keyboard-response","216","435154","0.0-216.0","knesqyz0","","<span style=""color:Black; font-size:50px;"">Agent A","null","","","","",""
"null","","","video-keyboard-response","217","438222","0.0-217.0","knesqyz0","","","null","","Agent A","veridical","STIM_SET_2/1592567.bmp_pp70_L2_V1.0_veridical_freeview_isoTrue.mp4",""
"null","","","html-keyboard-response","218","439726","0.0-218.0","knesqyz0","","<span style=""color:Black; font-size:50px;"">Agent B","null","","","","",""
"null","","","video-keyboard-response","219","442791","0.0-219.0","knesqyz0","","","null","","Agent B","scrambled","STIM_SET_2/1592567.bmp_pp70_L2_V1.0_scrambled_freeview_isoTrue.mp4",""
"","","","call-function","220","442791","0.0-220.0","knesqyz0","","","","","","","",""
"1739.2649999999558","{""judgement"":0}","[0]","survey-likert","221","444531","0.0-221.0","knesqyz0","","","","","","","","0"
"1858.3549999999814","{""confidence"":3}","[0]","survey-likert","222","446391","0.0-222.0","knesqyz0","","","","","","","",""
"","","","call-function","223","446391","0.0-223.0","knesqyz0","","","","","","","",""
"null","","","html-keyboard-response","224","447896","0.0-224.0","knesqyz0","","<span style=""color:Black; font-size:50px;"">Agent A","null","","","","",""
"null","","","video-keyboard-response","225","451005","0.0-225.0","knesqyz0","","","null","","Agent A","veridical","STIM_SET_2/713742.bmp_pp91_L3_V1.0_veridical_freeview_isoTrue.mp4",""
"null","","","html-keyboard-response","226","452508","0.0-226.0","knesqyz0","","<span style=""color:Black; font-size:50px;"">Agent B","null","","","","",""
"null","","","video-keyboard-response","227","455584","0.0-227.0","knesqyz0","","","null","","Agent B","scrambled","STIM_SET_2/713742.bmp_pp91_L3_V1.0_scrambled_freeview_isoTrue.mp4",""
"","","","call-function","228","455586","0.0-228.0","knesqyz0","","","","","","","",""
"2012.8399999999674","{""judgement"":0}","[0]","survey-likert","229","457600","0.0-229.0","knesqyz0","","","","","","","","0"
"1800.054999999993","{""confidence"":3}","[0]","survey-likert","230","459402","0.0-230.0","knesqyz0","","","","","","","",""
"","","","call-function","231","459403","0.0-231.0","knesqyz0","","","","","","","",""
"null","","","html-keyboard-response","232","460905","0.0-232.0","knesqyz0","","<span style=""color:Black; font-size:50px;"">Agent A","null","","","","",""
"null","","","video-keyboard-response","233","463975","0.0-233.0","knesqyz0","","","null","","Agent A","scrambled","STIM_SET_2/1591920.bmp_pp97_L3_V1_scrambled_freeview_isoTrue.mp4",""
"null","","","html-keyboard-response","234","465477","0.0-234.0","knesqyz0","","<span style=""color:Black; font-size:50px;"">Agent B","null","","","","",""
"null","","","video-keyboard-response","235","468547","0.0-235.0","knesqyz0","","","null","","Agent B","veridical","STIM_SET_2/1591920.bmp_pp97_L3_V1_veridical_freeview_isoTrue.mp4",""
"","","","call-function","236","468547","0.0-236.0","knesqyz0","","","","","","","",""
"1850.8950000000186","{""judgement"":1}","[0]","survey-likert","237","470399","0.0-237.0","knesqyz0","","","","","","","","1"
"1636.1300000000047","{""confidence"":2}","[0]","survey-likert","238","472037","0.0-238.0","knesqyz0","","","","","","","",""
"","","","call-function","239","472037","0.0-239.0","knesqyz0","","","","","","","",""
"null","","","html-keyboard-response","240","473541","0.0-240.0","knesqyz0","","<span style=""color:Black; font-size:50px;"">Agent A","null","","","","",""
"null","","","video-keyboard-response","241","476619","0.0-241.0","knesqyz0","","","null","","Agent A","veridical","STIM_SET_2/1592038.bmp_pp79_L2_V1.0_veridical_freeview_isoTrue.mp4",""
"null","","","html-keyboard-response","242","478123","0.0-242.0","knesqyz0","","<span style=""color:Black; font-size:50px;"">Agent B","null","","","","",""
"null","","","video-keyboard-response","243","481199","0.0-243.0","knesqyz0","","","null","","Agent B","scrambled","STIM_SET_2/1592038.bmp_pp79_L2_V1.0_scrambled_freeview_isoTrue.mp4",""
"","","","call-function","244","481199","0.0-244.0","knesqyz0","","","","","","","",""
"2358.8699999999953","{""judgement"":1}","[0]","survey-likert","245","483559","0.0-245.0","knesqyz0","","","","","","","","0"
"2384.280000000028","{""confidence"":3}","[0]","survey-likert","246","485945","0.0-246.0","knesqyz0","","","","","","","",""
"","","","call-function","247","485945","0.0-247.0","knesqyz0","","","","","","","",""
"null","","","html-keyboard-response","248","487447","0.0-248.0","knesqyz0","","<span style=""color:Black; font-size:50px;"">Agent A","null","","","","",""
"null","","","video-keyboard-response","249","490531","0.0-249.0","knesqyz0","","","null","","Agent A","veridical","STIM_SET_2/285715.bmp_pp67_L2_V1.0_veridical_freeview_isoTrue.mp4",""
"null","","","html-keyboard-response","250","492036","0.0-250.0","knesqyz0","","<span style=""color:Black; font-size:50px;"">Agent B","null","","","","",""
"null","","","video-keyboard-response","251","495115","0.0-251.0","knesqyz0","","","null","","Agent B","scrambled","STIM_SET_2/285715.bmp_pp67_L2_V1.0_scrambled_freeview_isoTrue.mp4",""
"","","","call-function","252","495115","0.0-252.0","knesqyz0","","","","","","","",""
"1565.0250000000233","{""judgement"":0}","[0]","survey-likert","253","496681","0.0-253.0","knesqyz0","","","","","","","","0"
"1203.765000000014","{""confidence"":3}","[0]","survey-likert","254","497886","0.0-254.0","knesqyz0","","","","","","","",""
"9502.369999999995","","","instructions","255","507389","0.0-255.0","knesqyz0","[{""page_index"":0,""viewing_time"":7110.994999999995},{""page_index"":1,""viewing_time"":1644.164999999979},{""page_index"":2,""viewing_time"":746.9050000000279}]","","","","","","",""
"4692.364999999991","","","instructions","256","512082","0.0-256.0","knesqyz0","[{""page_index"":0,""viewing_time"":1302.9199999999837},{""page_index"":1,""viewing_time"":2083.210000000021},{""page_index"":2,""viewing_time"":1306.125}]","","","","","","",""
"","","","call-function","257","512083","0.0-257.0","knesqyz0","","","","","","","",""
"null","","","html-keyboard-response","258","513583","0.0-258.0","knesqyz0","","<span style=""color:Black; font-size:50px;"">Agent A","null","","","","",""
"null","","","video-keyboard-response","259","516684","0.0-259.0","knesqyz0","","","null","","Agent A","veridical","STIM_SET_2/713920.bmp_pp76_L1_V1.0_veridical_freeview_isoTrue.mp4",""
"null","","","html-keyboard-response","260","518187","0.0-260.0","knesqyz0","","<span style=""color:Black; font-size:50px;"">Agent B","null","","","","",""
"null","","","video-keyboard-response","261","521288","0.0-261.0","knesqyz0","","","null","","Agent B","scrambled","STIM_SET_2/713920.bmp_pp76_L1_V1.0_scrambled_freeview_isoTrue.mp4",""
"","","","call-function","262","521289","0.0-262.0","knesqyz0","","","","","","","",""
"2892.750000000058","{""judgement"":0}","[0]","survey-likert","263","524182","0.0-263.0","knesqyz0","","","","","","","","0"
"2020.0499999999302","{""confidence"":3}","[0]","survey-likert","264","526203","0.0-264.0","knesqyz0","","","","","","","",""
"","","","call-function","265","526204","0.0-265.0","knesqyz0","","","","","","","",""
"null","","","html-keyboard-response","266","527710","0.0-266.0","knesqyz0","","<span style=""color:Black; font-size:50px;"">Agent A","null","","","","",""
"null","","","video-keyboard-response","267","530782","0.0-267.0","knesqyz0","","","null","","Agent A","scrambled","STIM_SET_2/713328.bmp_pp86_L2_V1.0_scrambled_freeview_isoTrue.mp4",""
"null","","","html-keyboard-response","268","532286","0.0-268.0","knesqyz0","","<span style=""color:Black; font-size:50px;"">Agent B","null","","","","",""
"null","","","video-keyboard-response","269","535355","0.0-269.0","knesqyz0","","","null","","Agent B","veridical","STIM_SET_2/713328.bmp_pp86_L2_V1.0_veridical_freeview_isoTrue.mp4",""
"","","","call-function","270","535356","0.0-270.0","knesqyz0","","","","","","","",""
"1780.8149999999441","{""judgement"":1}","[0]","survey-likert","271","537138","0.0-271.0","knesqyz0","","","","","","","","1"
"1524.3800000000047","{""confidence"":3}","[0]","survey-likert","272","538664","0.0-272.0","knesqyz0","","","","","","","",""
"","","","call-function","273","538664","0.0-273.0","knesqyz0","","","","","","","",""
"null","","","html-keyboard-response","274","540168","0.0-274.0","knesqyz0","","<span style=""color:Black; font-size:50px;"">Agent A","null","","","","",""
"null","","","video-keyboard-response","275","543240","0.0-275.0","knesqyz0","","","null","","Agent A","veridical","STIM_SET_2/1159329.bmp_pp61_L2_V1.0_veridical_freeview_isoTrue.mp4",""
"null","","","html-keyboard-response","276","544743","0.0-276.0","knesqyz0","","<span style=""color:Black; font-size:50px;"">Agent B","null","","","","",""
"null","","","video-keyboard-response","277","547813","0.0-277.0","knesqyz0","","","null","","Agent B","scrambled","STIM_SET_2/1159329.bmp_pp61_L2_V1.0_scrambled_freeview_isoTrue.mp4",""
"","","","call-function","278","547815","0.0-278.0","knesqyz0","","","","","","","",""
"1251.7600000000093","{""judgement"":0}","[0]","survey-likert","279","549068","0.0-279.0","knesqyz0","","","","","","","","0"
"1354.2600000000093","{""confidence"":2}","[0]","survey-likert","280","550424","0.0-280.0","knesqyz0","","","","","","","",""
"","","","call-function","281","550424","0.0-281.0","knesqyz0","","","","","","","",""
"null","","","html-keyboard-response","282","551928","0.0-282.0","knesqyz0","","<span style=""color:Black; font-size:50px;"">Agent A","null","","","","",""
"null","","","video-keyboard-response","283","554999","0.0-283.0","knesqyz0","","","null","","Agent A","scrambled","STIM_SET_2/1592129.bmp_pp153_L3_V1.0_scrambled_freeview_isoTrue.mp4",""
"null","","","html-keyboard-response","284","556502","0.0-284.0","knesqyz0","","<span style=""color:Black; font-size:50px;"">Agent B","null","","","","",""
"null","","","video-keyboard-response","285","559573","0.0-285.0","knesqyz0","","","null","","Agent B","veridical","STIM_SET_2/1592129.bmp_pp153_L3_V1.0_veridical_freeview_isoTrue.mp4",""
"","","","call-function","286","559574","0.0-286.0","knesqyz0","","","","","","","",""
"2038.7550000000047","{""judgement"":1}","[0]","survey-likert","287","561614","0.0-287.0","knesqyz0","","","","","","","","1"
"1834.5200000000186","{""confidence"":3}","[0]","survey-likert","288","563450","0.0-288.0","knesqyz0","","","","","","","",""
"","","","call-function","289","563450","0.0-289.0","knesqyz0","","","","","","","",""
"null","","","html-keyboard-response","290","564953","0.0-290.0","knesqyz0","","<span style=""color:Black; font-size:50px;"">Agent A","null","","","","",""
"null","","","video-keyboard-response","291","568027","0.0-291.0","knesqyz0","","","null","","Agent A","scrambled","STIM_SET_2/1159508.bmp_pp151_L1_V1.0_scrambled_freeview_isoTrue.mp4",""
"null","","","html-keyboard-response","292","569531","0.0-292.0","knesqyz0","","<span style=""color:Black; font-size:50px;"">Agent B","null","","","","",""
"null","","","video-keyboard-response","293","572602","0.0-293.0","knesqyz0","","","null","","Agent B","veridical","STIM_SET_2/1159508.bmp_pp151_L1_V1.0_veridical_freeview_isoTrue.mp4",""
"","","","call-function","294","572602","0.0-294.0","knesqyz0","","","","","","","",""
"1910.1900000000605","{""judgement"":1}","[0]","survey-likert","295","574513","0.0-295.0","knesqyz0","","","","","","","","1"
"1740.0599999999395","{""confidence"":3}","[0]","survey-likert","296","576255","0.0-296.0","knesqyz0","","","","","","","",""
"","","","call-function","297","576255","0.0-297.0","knesqyz0","","","","","","","",""
"null","","","html-keyboard-response","298","577760","0.0-298.0","knesqyz0","","<span style=""color:Black; font-size:50px;"">Agent A","null","","","","",""
"null","","","video-keyboard-response","299","580861","0.0-299.0","knesqyz0","","","null","","Agent A","scrambled","STIM_SET_2/1160247.bmp_pp54_L2_V1.0_scrambled_freeview_isoTrue.mp4",""
"null","","","html-keyboard-response","300","582366","0.0-300.0","knesqyz0","","<span style=""color:Black; font-size:50px;"">Agent B","null","","","","",""
"null","","","video-keyboard-response","301","585463","0.0-301.0","knesqyz0","","","null","","Agent B","veridical","STIM_SET_2/1160247.bmp_pp54_L2_V1.0_veridical_freeview_isoTrue.mp4",""
"","","","call-function","302","585465","0.0-302.0","knesqyz0","","","","","","","",""
"2244.3549999999814","{""judgement"":1}","[0]","survey-likert","303","587710","0.0-303.0","knesqyz0","","","","","","","","1"
"2045.4949999999953","{""confidence"":3}","[0]","survey-likert","304","589757","0.0-304.0","knesqyz0","","","","","","","",""
"","","","call-function","305","589757","0.0-305.0","knesqyz0","","","","","","","",""
"null","","","html-keyboard-response","306","591260","0.0-306.0","knesqyz0","","<span style=""color:Black; font-size:50px;"">Agent A","null","","","","",""
"null","","","video-keyboard-response","307","594351","0.0-307.0","knesqyz0","","","null","","Agent A","scrambled","STIM_SET_2/498326.bmp_pp57_L1_V1.0_scrambled_freeview_isoTrue.mp4",""
"null","","","html-keyboard-response","308","595854","0.0-308.0","knesqyz0","","<span style=""color:Black; font-size:50px;"">Agent B","null","","","","",""
"null","","","video-keyboard-response","309","598946","0.0-309.0","knesqyz0","","","null","","Agent B","veridical","STIM_SET_2/498326.bmp_pp57_L1_V1.0_veridical_freeview_isoTrue.mp4",""
"","","","call-function","310","598947","0.0-310.0","knesqyz0","","","","","","","",""
"2259.8000000000466","{""judgement"":1}","[0]","survey-likert","311","601207","0.0-311.0","knesqyz0","","","","","","","","1"
"2376.3800000000047","{""confidence"":3}","[0]","survey-likert","312","603585","0.0-312.0","knesqyz0","","","","","","","",""
"","","","call-function","313","603585","0.0-313.0","knesqyz0","","","","","","","",""
"null","","","html-keyboard-response","314","605091","0.0-314.0","knesqyz0","","<span style=""color:Black; font-size:50px;"">Agent A","null","","","","",""
"null","","","video-keyboard-response","315","608193","0.0-315.0","knesqyz0","","","null","","Agent A","veridical","STIM_SET_2/713274.bmp_pp73_L3_V1.0_veridical_freeview_isoTrue.mp4",""
"null","","","html-keyboard-response","316","609698","0.0-316.0","knesqyz0","","<span style=""color:Black; font-size:50px;"">Agent B","null","","","","",""
"null","","","video-keyboard-response","317","612798","0.0-317.0","knesqyz0","","","null","","Agent B","scrambled","STIM_SET_2/713274.bmp_pp73_L3_V1.0_scrambled_freeview_isoTrue.mp4",""
"","","","call-function","318","612799","0.0-318.0","knesqyz0","","","","","","","",""
"2259.564999999944","{""judgement"":0}","[0]","survey-likert","319","615059","0.0-319.0","knesqyz0","","","","","","","","0"
"2910.189999999944","{""confidence"":3}","[0]","survey-likert","320","617971","0.0-320.0","knesqyz0","","","","","","","",""
"","","","call-function","321","617971","0.0-321.0","knesqyz0","","","","","","","",""
"null","","","html-keyboard-response","322","619478","0.0-322.0","knesqyz0","","<span style=""color:Black; font-size:50px;"">Agent A","null","","","","",""
"null","","","video-keyboard-response","323","622545","0.0-323.0","knesqyz0","","","null","","Agent A","veridical","STIM_SET_2/1591975.bmp_pp88_L2_V1.0_veridical_freeview_isoTrue.mp4",""
"null","","","html-keyboard-response","324","624051","0.0-324.0","knesqyz0","","<span style=""color:Black; font-size:50px;"">Agent B","null","","","","",""
"null","","","video-keyboard-response","325","627118","0.0-325.0","knesqyz0","","","null","","Agent B","scrambled","STIM_SET_2/1591975.bmp_pp88_L2_V1.0_scrambled_freeview_isoTrue.mp4",""
"","","","call-function","326","627119","0.0-326.0","knesqyz0","","","","","","","",""
"1864.8700000001118","{""judgement"":0}","[0]","survey-likert","327","628985","0.0-327.0","knesqyz0","","","","","","","","0"
"3356.6750000000466","{""confidence"":3}","[0]","survey-likert","328","632342","0.0-328.0","knesqyz0","","","","","","","",""
"","","","call-function","329","632343","0.0-329.0","knesqyz0","","","","","","","",""
"null","","","html-keyboard-response","330","633845","0.0-330.0","knesqyz0","","<span style=""color:Black; font-size:50px;"">Agent A","null","","","","",""
"null","","","video-keyboard-response","331","636922","0.0-331.0","knesqyz0","","","null","","Agent A","scrambled","STIM_SET_2/713770.bmp_pp89_L1_V1.0_scrambled_freeview_isoTrue.mp4",""
"null","","","html-keyboard-response","332","638429","0.0-332.0","knesqyz0","","<span style=""color:Black; font-size:50px;"">Agent B","null","","","","",""
"null","","","video-keyboard-response","333","641507","0.0-333.0","knesqyz0","","","null","","Agent B","veridical","STIM_SET_2/713770.bmp_pp89_L1_V1.0_veridical_freeview_isoTrue.mp4",""
"","","","call-function","334","641508","0.0-334.0","knesqyz0","","","","","","","",""
"4030.210000000079","{""judgement"":0}","[0]","survey-likert","335","645540","0.0-335.0","knesqyz0","","","","","","","","1"
"2233.789999999921","{""confidence"":1}","[0]","survey-likert","336","647775","0.0-336.0","knesqyz0","","","","","","","",""
"18111.644999999902","","","instructions","337","665888","0.0-337.0","knesqyz0","[{""page_index"":0,""viewing_time"":17415.339999999967},{""page_index"":1,""viewing_time"":618.9899999999907},{""page_index"":2,""viewing_time"":77.15500000002794}]","","","","","","",""
"2221.0899999999674","","","instructions","338","668109","0.0-338.0","knesqyz0","[{""page_index"":0,""viewing_time"":906.9449999999488},{""page_index"":1,""viewing_time"":776.0350000000326},{""page_index"":2,""viewing_time"":538.0050000000047}]","","","","","","",""
"","","","call-function","339","668110","0.0-339.0","knesqyz0","","","","","","","",""
"null","","","html-keyboard-response","340","669613","0.0-340.0","knesqyz0","","<span style=""color:Black; font-size:50px;"">Agent A","null","","","","",""
"null","","","video-keyboard-response","341","672683","0.0-341.0","knesqyz0","","","null","","Agent A","veridical","STIM_SET_2/1592350.bmp_pp55_L3_V1.0_veridical_freeview_isoTrue.mp4",""
"null","","","html-keyboard-response","342","674188","0.0-342.0","knesqyz0","","<span style=""color:Black; font-size:50px;"">Agent B","null","","","","",""
"null","","","video-keyboard-response","343","677264","0.0-343.0","knesqyz0","","","null","","Agent B","scrambled","STIM_SET_2/1592350.bmp_pp55_L3_V1.0_scrambled_freeview_isoTrue.mp4",""
"","","","call-function","344","677265","0.0-344.0","knesqyz0","","","","","","","",""
"2770.329999999958","{""judgement"":0}","[0]","survey-likert","345","680036","0.0-345.0","knesqyz0","","","","","","","","0"
"1999.6300000000047","{""confidence"":3}","[0]","survey-likert","346","682037","0.0-346.0","knesqyz0","","","","","","","",""
"","","","call-function","347","682038","0.0-347.0","knesqyz0","","","","","","","",""
"null","","","html-keyboard-response","348","683539","0.0-348.0","knesqyz0","","<span style=""color:Black; font-size:50px;"">Agent A","null","","","","",""
"null","","","video-keyboard-response","349","686617","0.0-349.0","knesqyz0","","","null","","Agent A","veridical","STIM_SET_2/713790.bmp_pp100_L3_V1_veridical_freeview_isoTrue.mp4",""
"null","","","html-keyboard-response","350","688124","0.0-350.0","knesqyz0","","<span style=""color:Black; font-size:50px;"">Agent B","null","","","","",""
"null","","","video-keyboard-response","351","691228","0.0-351.0","knesqyz0","","","null","","Agent B","scrambled","STIM_SET_2/713790.bmp_pp100_L3_V1_scrambled_freeview_isoTrue.mp4",""
"","","","call-function","352","691228","0.0-352.0","knesqyz0","","","","","","","",""
"1960.9149999999208","{""judgement"":0}","[0]","survey-likert","353","693190","0.0-353.0","knesqyz0","","","","","","","","0"
"1129.765000000014","{""confidence"":2}","[0]","survey-likert","354","694321","0.0-354.0","knesqyz0","","","","","","","",""
"","","","call-function","355","694321","0.0-355.0","knesqyz0","","","","","","","",""
"null","","","html-keyboard-response","356","695825","0.0-356.0","knesqyz0","","<span style=""color:Black; font-size:50px;"">Agent A","null","","","","",""
"null","","","video-keyboard-response","357","698918","0.0-357.0","knesqyz0","","","null","","Agent A","scrambled","STIM_SET_2/498025.bmp_pp81_L1_V1.0_scrambled_freeview_isoTrue.mp4",""
"null","","","html-keyboard-response","358","700420","0.0-358.0","knesqyz0","","<span style=""color:Black; font-size:50px;"">Agent B","null","","","","",""
"null","","","video-keyboard-response","359","703509","0.0-359.0","knesqyz0","","","null","","Agent B","veridical","STIM_SET_2/498025.bmp_pp81_L1_V1.0_veridical_freeview_isoTrue.mp4",""
"","","","call-function","360","703509","0.0-360.0","knesqyz0","","","","","","","",""
"2742.4499999999534","{""judgement"":1}","[0]","survey-likert","361","706253","0.0-361.0","knesqyz0","","","","","","","","1"
"2036.3600000001024","{""confidence"":2}","[0]","survey-likert","362","708290","0.0-362.0","knesqyz0","","","","","","","",""
"","","","call-function","363","708291","0.0-363.0","knesqyz0","","","","","","","",""
"null","","","html-keyboard-response","364","709796","0.0-364.0","knesqyz0","","<span style=""color:Black; font-size:50px;"">Agent A","null","","","","",""
"null","","","video-keyboard-response","365","712868","0.0-365.0","knesqyz0","","","null","","Agent A","scrambled","STIM_SET_2/1159973.bmp_pp98_L1_V1.0_scrambled_freeview_isoTrue.mp4",""
"null","","","html-keyboard-response","366","714373","0.0-366.0","knesqyz0","","<span style=""color:Black; font-size:50px;"">Agent B","null","","","","",""
"null","","","video-keyboard-response","367","717465","0.0-367.0","knesqyz0","","","null","","Agent B","veridical","STIM_SET_2/1159973.bmp_pp98_L1_V1.0_veridical_freeview_isoTrue.mp4",""
"","","","call-function","368","717466","0.0-368.0","knesqyz0","","","","","","","",""
"1595.6849999999395","{""judgement"":1}","[0]","survey-likert","369","719063","0.0-369.0","knesqyz0","","","","","","","","1"
"1676.984999999986","{""confidence"":3}","[0]","survey-likert","370","720741","0.0-370.0","knesqyz0","","","","","","","",""
"","","","call-function","371","720742","0.0-371.0","knesqyz0","","","","","","","",""
"null","","","html-keyboard-response","372","722247","0.0-372.0","knesqyz0","","<span style=""color:Black; font-size:50px;"">Agent A","null","","","","",""
"null","","","video-keyboard-response","373","725305","0.0-373.0","knesqyz0","","","null","","Agent A","scrambled","STIM_SET_2/1159860.bmp_pp152_L2_V1.0_scrambled_freeview_isoTrue.mp4",""
"null","","","html-keyboard-response","374","726810","0.0-374.0","knesqyz0","","<span style=""color:Black; font-size:50px;"">Agent B","null","","","","",""
"null","","","video-keyboard-response","375","729869","0.0-375.0","knesqyz0","","","null","","Agent B","veridical","STIM_SET_2/1159860.bmp_pp152_L2_V1.0_veridical_freeview_isoTrue.mp4",""
"","","","call-function","376","729870","0.0-376.0","knesqyz0","","","","","","","",""
"2372.0400000000373","{""judgement"":1}","[0]","survey-likert","377","732243","0.0-377.0","knesqyz0","","","","","","","","1"
"1926.155000000028","{""confidence"":2}","[0]","survey-likert","378","734170","0.0-378.0","knesqyz0","","","","","","","",""
"","","","call-function","379","734171","0.0-379.0","knesqyz0","","","","","","","",""
"null","","","html-keyboard-response","380","735673","0.0-380.0","knesqyz0","","<span style=""color:Black; font-size:50px;"">Agent A","null","","","","",""
"null","","","video-keyboard-response","381","738738","0.0-381.0","knesqyz0","","","null","","Agent A","scrambled","STIM_SET_2/1592951.bmp_pp80_L3_V1.0_scrambled_freeview_isoTrue.mp4",""
"null","","","html-keyboard-response","382","740241","0.0-382.0","knesqyz0","","<span style=""color:Black; font-size:50px;"">Agent B","null","","","","",""
"null","","","video-keyboard-response","383","743306","0.0-383.0","knesqyz0","","","null","","Agent B","veridical","STIM_SET_2/1592951.bmp_pp80_L3_V1.0_veridical_freeview_isoTrue.mp4",""
"","","","call-function","384","743306","0.0-384.0","knesqyz0","","","","","","","",""
"2236.8399999999674","{""judgement"":1}","[0]","survey-likert","385","745544","0.0-385.0","knesqyz0","","","","","","","","1"
"2915.0400000000373","{""confidence"":0}","[0]","survey-likert","386","748460","0.0-386.0","knesqyz0","","","","","","","",""
"","","","call-function","387","748461","0.0-387.0","knesqyz0","","","","","","","",""
"null","","","html-keyboard-response","388","749964","0.0-388.0","knesqyz0","","<span style=""color:Black; font-size:50px;"">Agent A","null","","","","",""
"null","","","video-keyboard-response","389","753039","0.0-389.0","knesqyz0","","","null","","Agent A","scrambled","STIM_SET_2/285946.bmp_pp79_L2_V1.0_scrambled_freeview_isoTrue.mp4",""
"null","","","html-keyboard-response","390","754546","0.0-390.0","knesqyz0","","<span style=""color:Black; font-size:50px;"">Agent B","null","","","","",""
"null","","","video-keyboard-response","391","757630","0.0-391.0","knesqyz0","","","null","","Agent B","veridical","STIM_SET_2/285946.bmp_pp79_L2_V1.0_veridical_freeview_isoTrue.mp4",""
"","","","call-function","392","757630","0.0-392.0","knesqyz0","","","","","","","",""
"2767.4150000000373","{""judgement"":0}","[0]","survey-likert","393","760399","0.0-393.0","knesqyz0","","","","","","","","1"
"2480.1999999999534","{""confidence"":3}","[0]","survey-likert","394","762880","0.0-394.0","knesqyz0","","","","","","","",""
"","","","call-function","395","762881","0.0-395.0","knesqyz0","","","","","","","",""
"null","","","html-keyboard-response","396","764385","0.0-396.0","knesqyz0","","<span style=""color:Black; font-size:50px;"">Agent A","null","","","","",""
"null","","","video-keyboard-response","397","767490","0.0-397.0","knesqyz0","","","null","","Agent A","veridical","STIM_SET_2/107909.bmp_pp95_L2_V1.0_veridical_freeview_isoTrue.mp4",""
"null","","","html-keyboard-response","398","768997","0.0-398.0","knesqyz0","","<span style=""color:Black; font-size:50px;"">Agent B","null","","","","",""
"null","","","video-keyboard-response","399","772102","0.0-399.0","knesqyz0","","","null","","Agent B","scrambled","STIM_SET_2/107909.bmp_pp95_L2_V1.0_scrambled_freeview_isoTrue.mp4",""
"","","","call-function","400","772103","0.0-400.0","knesqyz0","","","","","","","",""
"1708.5649999999441","{""judgement"":0}","[0]","survey-likert","401","773814","0.0-401.0","knesqyz0","","","","","","","","0"
"4598.395000000019","{""confidence"":3}","[0]","survey-likert","402","778414","0.0-402.0","knesqyz0","","","","","","","",""
"","","","call-function","403","778415","0.0-403.0","knesqyz0","","","","","","","",""
"null","","","html-keyboard-response","404","779921","0.0-404.0","knesqyz0","","<span style=""color:Black; font-size:50px;"">Agent A","null","","","","",""
"null","","","video-keyboard-response","405","782995","0.0-405.0","knesqyz0","","","null","","Agent A","veridical","STIM_SET_2/1592298.bmp_pp56_L3_V1.0_veridical_freeview_isoTrue.mp4",""
"null","","","html-keyboard-response","406","784497","0.0-406.0","knesqyz0","","<span style=""color:Black; font-size:50px;"">Agent B","null","","","","",""
"null","","","video-keyboard-response","407","787570","0.0-407.0","knesqyz0","","","null","","Agent B","scrambled","STIM_SET_2/1592298.bmp_pp56_L3_V1.0_scrambled_freeview_isoTrue.mp4",""
"","","","call-function","408","787571","0.0-408.0","knesqyz0","","","","","","","",""
"1263.484999999986","{""judgement"":0}","[0]","survey-likert","409","788835","0.0-409.0","knesqyz0","","","","","","","","0"
"2405.4599999999627","{""confidence"":3}","[0]","survey-likert","410","791242","0.0-410.0","knesqyz0","","","","","","","",""
"","","","call-function","411","791243","0.0-411.0","knesqyz0","","","","","","","",""
"null","","","html-keyboard-response","412","792745","0.0-412.0","knesqyz0","","<span style=""color:Black; font-size:50px;"">Agent A","null","","","","",""
"null","","","video-keyboard-response","413","795816","0.0-413.0","knesqyz0","","","null","","Agent A","scrambled","STIM_SET_2/1159427.bmp_pp98_L1_V1.0_scrambled_freeview_isoTrue.mp4",""
"null","","","html-keyboard-response","414","797322","0.0-414.0","knesqyz0","","<span style=""color:Black; font-size:50px;"">Agent B","null","","","","",""
"null","","","video-keyboard-response","415","800391","0.0-415.0","knesqyz0","","","null","","Agent B","veridical","STIM_SET_2/1159427.bmp_pp98_L1_V1.0_veridical_freeview_isoTrue.mp4",""
"","","","call-function","416","800392","0.0-416.0","knesqyz0","","","","","","","",""
"1979.2249999999767","{""judgement"":1}","[0]","survey-likert","417","802372","0.0-417.0","knesqyz0","","","","","","","","1"
"1541.8699999999953","{""confidence"":3}","[0]","survey-likert","418","803915","0.0-418.0","knesqyz0","","","","","","","",""
"2022.1950000000652","","","instructions","419","805938","0.0-419.0","knesqyz0","[{""page_index"":0,""viewing_time"":1087.7900000000373},{""page_index"":1,""viewing_time"":829.2449999999953},{""page_index"":2,""viewing_time"":104.99499999999534}]","","","","","","",""
"3440.20000000007","","","instructions","420","809379","0.0-420.0","knesqyz0","[{""page_index"":0,""viewing_time"":1012.9899999999907},{""page_index"":1,""viewing_time"":1461.0800000000745},{""page_index"":2,""viewing_time"":965.9099999999162}]","","","","","","",""
"","","","call-function","421","809379","0.0-421.0","knesqyz0","","","","","","","",""
"null","","","html-keyboard-response","422","810885","0.0-422.0","knesqyz0","","<span style=""color:Black; font-size:50px;"">Agent A","null","","","","",""
"null","","","video-keyboard-response","423","813990","0.0-423.0","knesqyz0","","","null","","Agent A","veridical","STIM_SET_2/498372.bmp_pp95_L2_V1_veridical_freeview_isoTrue.mp4",""
"null","","","html-keyboard-response","424","815492","0.0-424.0","knesqyz0","","<span style=""color:Black; font-size:50px;"">Agent B","null","","","","",""
"null","","","video-keyboard-response","425","818591","0.0-425.0","knesqyz0","","","null","","Agent B","scrambled","STIM_SET_2/498372.bmp_pp95_L2_V1_scrambled_freeview_isoTrue.mp4",""
"","","","call-function","426","818591","0.0-426.0","knesqyz0","","","","","","","",""
"3695.435000000056","{""judgement"":0}","[0]","survey-likert","427","822287","0.0-427.0","knesqyz0","","","","","","","","0"
"2038.5699999999488","{""confidence"":0}","[0]","survey-likert","428","824327","0.0-428.0","knesqyz0","","","","","","","",""
"","","","call-function","429","824328","0.0-429.0","knesqyz0","","","","","","","",""
"null","","","html-keyboard-response","430","825830","0.0-430.0","knesqyz0","","<span style=""color:Black; font-size:50px;"">Agent A","null","","","","",""
"null","","","video-keyboard-response","431","828926","0.0-431.0","knesqyz0","","","null","","Agent A","veridical","STIM_SET_2/713652.bmp_pp89_L1_V1_veridical_freeview_isoTrue.mp4",""
"null","","","html-keyboard-response","432","830430","0.0-432.0","knesqyz0","","<span style=""color:Black; font-size:50px;"">Agent B","null","","","","",""
"null","","","video-keyboard-response","433","833525","0.0-433.0","knesqyz0","","","null","","Agent B","scrambled","STIM_SET_2/713652.bmp_pp89_L1_V1_scrambled_freeview_isoTrue.mp4",""
"","","","call-function","434","833526","0.0-434.0","knesqyz0","","","","","","","",""
"1714.4149999999208","{""judgement"":0}","[0]","survey-likert","435","835241","0.0-435.0","knesqyz0","","","","","","","","0"
"1561.2900000000373","{""confidence"":3}","[0]","survey-likert","436","836803","0.0-436.0","knesqyz0","","","","","","","",""
"","","","call-function","437","836804","0.0-437.0","knesqyz0","","","","","","","",""
"null","","","html-keyboard-response","438","838310","0.0-438.0","knesqyz0","","<span style=""color:Black; font-size:50px;"">Agent A","null","","","","",""
"null","","","video-keyboard-response","439","841416","0.0-439.0","knesqyz0","","","null","","Agent A","veridical","STIM_SET_2/713381.bmp_pp82_L2_V1.0_veridical_freeview_isoTrue.mp4",""
"null","","","html-keyboard-response","440","842921","0.0-440.0","knesqyz0","","<span style=""color:Black; font-size:50px;"">Agent B","null","","","","",""
"null","","","video-keyboard-response","441","846022","0.0-441.0","knesqyz0","","","null","","Agent B","scrambled","STIM_SET_2/713381.bmp_pp82_L2_V1.0_scrambled_freeview_isoTrue.mp4",""
"","","","call-function","442","846022","0.0-442.0","knesqyz0","","","","","","","",""
"2409.689999999944","{""judgement"":0}","[0]","survey-likert","443","848433","0.0-443.0","knesqyz0","","","","","","","","0"
"2123.8549999999814","{""confidence"":3}","[0]","survey-likert","444","850558","0.0-444.0","knesqyz0","","","","","","","",""
"","","","call-function","445","850559","0.0-445.0","knesqyz0","","","","","","","",""
"null","","","html-keyboard-response","446","852061","0.0-446.0","knesqyz0","","<span style=""color:Black; font-size:50px;"">Agent A","null","","","","",""
"null","","","video-keyboard-response","447","855137","0.0-447.0","knesqyz0","","","null","","Agent A","scrambled","STIM_SET_2/150463.bmp_pp55_L3_V1.0_scrambled_freeview_isoTrue.mp4",""
"null","","","html-keyboard-response","448","856638","0.0-448.0","knesqyz0","","<span style=""color:Black; font-size:50px;"">Agent B","null","","","","",""
"null","","","video-keyboard-response","449","859710","0.0-449.0","knesqyz0","","","null","","Agent B","veridical","STIM_SET_2/150463.bmp_pp55_L3_V1.0_veridical_freeview_isoTrue.mp4",""
"","","","call-function","450","859711","0.0-450.0","knesqyz0","","","","","","","",""
"1384.8149999999441","{""judgement"":1}","[0]","survey-likert","451","861096","0.0-451.0","knesqyz0","","","","","","","","1"
"1702.9250000000466","{""confidence"":3}","[0]","survey-likert","452","862800","0.0-452.0","knesqyz0","","","","","","","",""
"","","","call-function","453","862801","0.0-453.0","knesqyz0","","","","","","","",""
"null","","","html-keyboard-response","454","864302","0.0-454.0","knesqyz0","","<span style=""color:Black; font-size:50px;"">Agent A","null","","","","",""
"null","","","video-keyboard-response","455","867377","0.0-455.0","knesqyz0","","","null","","Agent A","veridical","STIM_SET_2/1592921.bmp_pp69_L3_V1.0_veridical_freeview_isoTrue.mp4",""
"null","","","html-keyboard-response","456","868880","0.0-456.0","knesqyz0","","<span style=""color:Black; font-size:50px;"">Agent B","null","","","","",""
"null","","","video-keyboard-response","457","871954","0.0-457.0","knesqyz0","","","null","","Agent B","scrambled","STIM_SET_2/1592921.bmp_pp69_L3_V1.0_scrambled_freeview_isoTrue.mp4",""
"","","","call-function","458","871954","0.0-458.0","knesqyz0","","","","","","","",""
"1963.984999999986","{""judgement"":0}","[0]","survey-likert","459","873919","0.0-459.0","knesqyz0","","","","","","","","0"
"1770.6949999999488","{""confidence"":3}","[0]","survey-likert","460","875691","0.0-460.0","knesqyz0","","","","","","","",""
"","","","call-function","461","875692","0.0-461.0","knesqyz0","","","","","","","",""
"null","","","html-keyboard-response","462","877194","0.0-462.0","knesqyz0","","<span style=""color:Black; font-size:50px;"">Agent A","null","","","","",""
"null","","","video-keyboard-response","463","880298","0.0-463.0","knesqyz0","","","null","","Agent A","scrambled","STIM_SET_2/1159819.bmp_pp151_L1_V1.0_scrambled_freeview_isoTrue.mp4",""
"null","","","html-keyboard-response","464","881805","0.0-464.0","knesqyz0","","<span style=""color:Black; font-size:50px;"">Agent B","null","","","","",""
"null","","","video-keyboard-response","465","884879","0.0-465.0","knesqyz0","","","null","","Agent B","veridical","STIM_SET_2/1159819.bmp_pp151_L1_V1.0_veridical_freeview_isoTrue.mp4",""
"","","","call-function","466","884881","0.0-466.0","knesqyz0","","","","","","","",""
"1944.2750000000233","{""judgement"":1}","[0]","survey-likert","467","886827","0.0-467.0","knesqyz0","","","","","","","","1"
"1565.5250000000233","{""confidence"":3}","[0]","survey-likert","468","888394","0.0-468.0","knesqyz0","","","","","","","",""
"","","","call-function","469","888394","0.0-469.0","knesqyz0","","","","","","","",""
"null","","","html-keyboard-response","470","889900","0.0-470.0","knesqyz0","","<span style=""color:Black; font-size:50px;"">Agent A","null","","","","",""
"null","","","video-keyboard-response","471","892973","0.0-471.0","knesqyz0","","","null","","Agent A","scrambled","STIM_SET_2/1592289.bmp_pp92_L3_V1.0_scrambled_freeview_isoTrue.mp4",""
"null","","","html-keyboard-response","472","894476","0.0-472.0","knesqyz0","","<span style=""color:Black; font-size:50px;"">Agent B","null","","","","",""
"null","","","video-keyboard-response","473","897553","0.0-473.0","knesqyz0","","","null","","Agent B","veridical","STIM_SET_2/1592289.bmp_pp92_L3_V1.0_veridical_freeview_isoTrue.mp4",""
"","","","call-function","474","897553","0.0-474.0","knesqyz0","","","","","","","",""
"2012.0050000000047","{""judgement"":1}","[0]","survey-likert","475","899567","0.0-475.0","knesqyz0","","","","","","","","1"
"1712.6500000000233","{""confidence"":3}","[0]","survey-likert","476","901281","0.0-476.0","knesqyz0","","","","","","","",""
"","","","call-function","477","901281","0.0-477.0","knesqyz0","","","","","","","",""
"null","","","html-keyboard-response","478","902785","0.0-478.0","knesqyz0","","<span style=""color:Black; font-size:50px;"">Agent A","null","","","","",""
"null","","","video-keyboard-response","479","905843","0.0-479.0","knesqyz0","","","null","","Agent A","veridical","STIM_SET_2/1159325.bmp_pp67_L2_V1.0_veridical_freeview_isoTrue.mp4",""
"null","","","html-keyboard-response","480","907348","0.0-480.0","knesqyz0","","<span style=""color:Black; font-size:50px;"">Agent B","null","","","","",""
"null","","","video-keyboard-response","481","910415","0.0-481.0","knesqyz0","","","null","","Agent B","scrambled","STIM_SET_2/1159325.bmp_pp67_L2_V1.0_scrambled_freeview_isoTrue.mp4",""
"","","","call-function","482","910415","0.0-482.0","knesqyz0","","","","","","","",""
"2352.194999999949","{""judgement"":0}","[0]","survey-likert","483","912768","0.0-483.0","knesqyz0","","","","","","","","0"
"2004.905000000028","{""confidence"":2}","[0]","survey-likert","484","914774","0.0-484.0","knesqyz0","","","","","","","",""
"","","","call-function","485","914775","0.0-485.0","knesqyz0","","","","","","","",""
"null","","","html-keyboard-response","486","916278","0.0-486.0","knesqyz0","","<span style=""color:Black; font-size:50px;"">Agent A","null","","","","",""
"null","","","video-keyboard-response","487","919378","0.0-487.0","knesqyz0","","","null","","Agent A","veridical","STIM_SET_2/1592305.bmp_pp65_L3_V1.0_veridical_freeview_isoTrue.mp4",""
"null","","","html-keyboard-response","488","920885","0.0-488.0","knesqyz0","","<span style=""color:Black; font-size:50px;"">Agent B","null","","","","",""
"null","","","video-keyboard-response","489","923987","0.0-489.0","knesqyz0","","","null","","Agent B","scrambled","STIM_SET_2/1592305.bmp_pp65_L3_V1.0_scrambled_freeview_isoTrue.mp4",""
"","","","call-function","490","923987","0.0-490.0","knesqyz0","","","","","","","",""
"1961.829999999958","{""judgement"":0}","[0]","survey-likert","491","925950","0.0-491.0","knesqyz0","","","","","","","","0"
"1618.0100000000093","{""confidence"":3}","[0]","survey-likert","492","927569","0.0-492.0","knesqyz0","","","","","","","",""
"","","","call-function","493","927570","0.0-493.0","knesqyz0","","","","","","","",""
"null","","","html-keyboard-response","494","929073","0.0-494.0","knesqyz0","","<span style=""color:Black; font-size:50px;"">Agent A","null","","","","",""
"null","","","video-keyboard-response","495","932176","0.0-495.0","knesqyz0","","","null","","Agent A","scrambled","STIM_SET_2/1592530.bmp_pp75_L1_V1.0_scrambled_freeview_isoTrue.mp4",""
"null","","","html-keyboard-response","496","933679","0.0-496.0","knesqyz0","","<span style=""color:Black; font-size:50px;"">Agent B","null","","","","",""
"null","","","video-keyboard-response","497","936780","0.0-497.0","knesqyz0","","","null","","Agent B","veridical","STIM_SET_2/1592530.bmp_pp75_L1_V1.0_veridical_freeview_isoTrue.mp4",""
"","","","call-function","498","936781","0.0-498.0","knesqyz0","","","","","","","",""
"2000.704999999958","{""judgement"":1}","[0]","survey-likert","499","938782","0.0-499.0","knesqyz0","","","","","","","","1"
"2168.875","{""confidence"":1}","[0]","survey-likert","500","940952","0.0-500.0","knesqyz0","","","","","","","",""
"21142.05500000005","","","instructions","501","962095","0.0-501.0","knesqyz0","[{""page_index"":0,""viewing_time"":1156.890000000014},{""page_index"":1,""viewing_time"":19131.974999999977},{""page_index"":2,""viewing_time"":853.0350000000326}]","","","","","","",""
"3025.4700000000885","","","instructions","502","965121","0.0-502.0","knesqyz0","[{""page_index"":0,""viewing_time"":980.3100000000559},{""page_index"":1,""viewing_time"":878.0799999999581},{""page_index"":2,""viewing_time"":1166.969999999972}]","","","","","","",""
"","","","call-function","503","965122","0.0-503.0","knesqyz0","","","","","","","",""
"null","","","html-keyboard-response","504","966624","0.0-504.0","knesqyz0","","<span style=""color:Black; font-size:50px;"">Agent A","null","","","","",""
"null","","","video-keyboard-response","505","969699","0.0-505.0","knesqyz0","","","null","","Agent A","veridical","STIM_SET_2/150277.bmp_pp65_L3_V1.0_veridical_freeview_isoTrue.mp4",""
"null","","","html-keyboard-response","506","971201","0.0-506.0","knesqyz0","","<span style=""color:Black; font-size:50px;"">Agent B","null","","","","",""
"null","","","video-keyboard-response","507","974274","0.0-507.0","knesqyz0","","","null","","Agent B","scrambled","STIM_SET_2/150277.bmp_pp65_L3_V1.0_scrambled_freeview_isoTrue.mp4",""
"","","","call-function","508","974275","0.0-508.0","knesqyz0","","","","","","","",""
"2210.8349999999627","{""judgement"":0}","[0]","survey-likert","509","976486","0.0-509.0","knesqyz0","","","","","","","","0"
"2653.8399999999674","{""confidence"":3}","[0]","survey-likert","510","979142","0.0-510.0","knesqyz0","","","","","","","",""
"","","","call-function","511","979142","0.0-511.0","knesqyz0","","","","","","","",""
"null","","","html-keyboard-response","512","980645","0.0-512.0","knesqyz0","","<span style=""color:Black; font-size:50px;"">Agent A","null","","","","",""
"null","","","video-keyboard-response","513","983722","0.0-513.0","knesqyz0","","","null","","Agent A","veridical","STIM_SET_2/1160204.bmp_pp54_L2_V1.0_veridical_freeview_isoTrue.mp4",""
"null","","","html-keyboard-response","514","985225","0.0-514.0","knesqyz0","","<span style=""color:Black; font-size:50px;"">Agent B","null","","","","",""
"null","","","video-keyboard-response","515","988297","0.0-515.0","knesqyz0","","","null","","Agent B","scrambled","STIM_SET_2/1160204.bmp_pp54_L2_V1.0_scrambled_freeview_isoTrue.mp4",""
"","","","call-function","516","988298","0.0-516.0","knesqyz0","","","","","","","",""
"1463.4400000000605","{""judgement"":0}","[0]","survey-likert","517","989762","0.0-517.0","knesqyz0","","","","","","","","0"
"1742.9750000000931","{""confidence"":3}","[0]","survey-likert","518","991506","0.0-518.0","knesqyz0","","","","","","","",""
"","","","call-function","519","991507","0.0-519.0","knesqyz0","","","","","","","",""
"null","","","html-keyboard-response","520","993012","0.0-520.0","knesqyz0","","<span style=""color:Black; font-size:50px;"">Agent A","null","","","","",""
"null","","","video-keyboard-response","521","996106","0.0-521.0","knesqyz0","","","null","","Agent A","scrambled","STIM_SET_2/286034.bmp_pp69_L3_V1.0_scrambled_freeview_isoTrue.mp4",""
"null","","","html-keyboard-response","522","997636","0.0-522.0","knesqyz0","","<span style=""color:Black; font-size:50px;"">Agent B","null","","","","",""
"null","","","video-keyboard-response","523","1000732","0.0-523.0","knesqyz0","","","null","","Agent B","veridical","STIM_SET_2/286034.bmp_pp69_L3_V1.0_veridical_freeview_isoTrue.mp4",""
"","","","call-function","524","1000733","0.0-524.0","knesqyz0","","","","","","","",""
"1710.265000000014","{""judgement"":1}","[0]","survey-likert","525","1002445","0.0-525.0","knesqyz0","","","","","","","","1"
"1921.3800000000047","{""confidence"":2}","[0]","survey-likert","526","1004368","0.0-526.0","knesqyz0","","","","","","","",""
"","","","call-function","527","1004369","0.0-527.0","knesqyz0","","","","","","","",""
"null","","","html-keyboard-response","528","1005872","0.0-528.0","knesqyz0","","<span style=""color:Black; font-size:50px;"">Agent A","null","","","","",""
"null","","","video-keyboard-response","529","1008945","0.0-529.0","knesqyz0","","","null","","Agent A","scrambled","STIM_SET_2/498258.bmp_pp51_L1_V1.0_scrambled_freeview_isoTrue.mp4",""
"null","","","html-keyboard-response","530","1010453","0.0-530.0","knesqyz0","","<span style=""color:Black; font-size:50px;"">Agent B","null","","","","",""
"null","","","video-keyboard-response","531","1013527","0.0-531.0","knesqyz0","","","null","","Agent B","veridical","STIM_SET_2/498258.bmp_pp51_L1_V1.0_veridical_freeview_isoTrue.mp4",""
"","","","call-function","532","1013527","0.0-532.0","knesqyz0","","","","","","","",""
"1581.3049999999348","{""judgement"":1}","[0]","survey-likert","533","1015110","0.0-533.0","knesqyz0","","","","","","","","1"
"1501.780000000028","{""confidence"":3}","[0]","survey-likert","534","1016613","0.0-534.0","knesqyz0","","","","","","","",""
"","","","call-function","535","1016614","0.0-535.0","knesqyz0","","","","","","","",""
"null","","","html-keyboard-response","536","1018116","0.0-536.0","knesqyz0","","<span style=""color:Black; font-size:50px;"">Agent A","null","","","","",""
"null","","","video-keyboard-response","537","1021190","0.0-537.0","knesqyz0","","","null","","Agent A","scrambled","STIM_SET_2/1592201.bmp_pp97_L3_V1.0_scrambled_freeview_isoTrue.mp4",""
"null","","","html-keyboard-response","538","1022693","0.0-538.0","knesqyz0","","<span style=""color:Black; font-size:50px;"">Agent B","null","","","","",""
"null","","","video-keyboard-response","539","1025764","0.0-539.0","knesqyz0","","","null","","Agent B","veridical","STIM_SET_2/1592201.bmp_pp97_L3_V1.0_veridical_freeview_isoTrue.mp4",""
"","","","call-function","540","1025765","0.0-540.0","knesqyz0","","","","","","","",""
"1952.2850000000326","{""judgement"":0}","[0]","survey-likert","541","1027718","0.0-541.0","knesqyz0","","","","","","","","1"
"1634.9749999999767","{""confidence"":3}","[0]","survey-likert","542","1029355","0.0-542.0","knesqyz0","","","","","","","",""
"","","","call-function","543","1029355","0.0-543.0","knesqyz0","","","","","","","",""
"null","","","html-keyboard-response","544","1030859","0.0-544.0","knesqyz0","","<span style=""color:Black; font-size:50px;"">Agent A","null","","","","",""
"null","","","video-keyboard-response","545","1033960","0.0-545.0","knesqyz0","","","null","","Agent A","veridical","STIM_SET_2/713788.bmp_pp52_L1_V1.0_veridical_freeview_isoTrue.mp4",""
"null","","","html-keyboard-response","546","1035462","0.0-546.0","knesqyz0","","<span style=""color:Black; font-size:50px;"">Agent B","null","","","","",""
"null","","","video-keyboard-response","547","1038560","0.0-547.0","knesqyz0","","","null","","Agent B","scrambled","STIM_SET_2/713788.bmp_pp52_L1_V1.0_scrambled_freeview_isoTrue.mp4",""
"","","","call-function","548","1038560","0.0-548.0","knesqyz0","","","","","","","",""
"2168.7900000000373","{""judgement"":0}","[0]","survey-likert","549","1040730","0.0-549.0","knesqyz0","","","","","","","","0"
"1713.7149999999674","{""confidence"":3}","[0]","survey-likert","550","1042445","0.0-550.0","knesqyz0","","","","","","","",""
"","","","call-function","551","1042446","0.0-551.0","knesqyz0","","","","","","","",""
"null","","","html-keyboard-response","552","1043949","0.0-552.0","knesqyz0","","<span style=""color:Black; font-size:50px;"">Agent A","null","","","","",""
"null","","","video-keyboard-response","553","1047030","0.0-553.0","knesqyz0","","","null","","Agent A","scrambled","STIM_SET_2/498398.bmp_pp81_L1_V1.0_scrambled_freeview_isoTrue.mp4",""
"null","","","html-keyboard-response","554","1048532","0.0-554.0","knesqyz0","","<span style=""color:Black; font-size:50px;"">Agent B","null","","","","",""
"null","","","video-keyboard-response","555","1051608","0.0-555.0","knesqyz0","","","null","","Agent B","veridical","STIM_SET_2/498398.bmp_pp81_L1_V1.0_veridical_freeview_isoTrue.mp4",""
"","","","call-function","556","1051609","0.0-556.0","knesqyz0","","","","","","","",""
"1791.7399999999907","{""judgement"":0}","[0]","survey-likert","557","1053402","0.0-557.0","knesqyz0","","","","","","","","1"
"1922.6099999998696","{""confidence"":3}","[0]","survey-likert","558","1055325","0.0-558.0","knesqyz0","","","","","","","",""
"","","","call-function","559","1055326","0.0-559.0","knesqyz0","","","","","","","",""
"null","","","html-keyboard-response","560","1056827","0.0-560.0","knesqyz0","","<span style=""color:Black; font-size:50px;"">Agent A","null","","","","",""
"null","","","video-keyboard-response","561","1059933","0.0-561.0","knesqyz0","","","null","","Agent A","veridical","STIM_SET_2/1159874.bmp_pp96_L2_V1.0_veridical_freeview_isoTrue.mp4",""
"null","","","html-keyboard-response","562","1061438","0.0-562.0","knesqyz0","","<span style=""color:Black; font-size:50px;"">Agent B","null","","","","",""
"null","","","video-keyboard-response","563","1064540","0.0-563.0","knesqyz0","","","null","","Agent B","scrambled","STIM_SET_2/1159874.bmp_pp96_L2_V1.0_scrambled_freeview_isoTrue.mp4",""
"","","","call-function","564","1064541","0.0-564.0","knesqyz0","","","","","","","",""
"1286.2650000001304","{""judgement"":0}","[0]","survey-likert","565","1065828","0.0-565.0","knesqyz0","","","","","","","","0"
"2621.339999999851","{""confidence"":3}","[0]","survey-likert","566","1068451","0.0-566.0","knesqyz0","","","","","","","",""
"","","","call-function","567","1068451","0.0-567.0","knesqyz0","","","","","","","",""
"null","","","html-keyboard-response","568","1069954","0.0-568.0","knesqyz0","","<span style=""color:Black; font-size:50px;"">Agent A","null","","","","",""
"null","","","video-keyboard-response","569","1073032","0.0-569.0","knesqyz0","","","null","","Agent A","scrambled","STIM_SET_2/1592168.bmp_pp71_L1_V1.0_scrambled_freeview_isoTrue.mp4",""
"null","","","html-keyboard-response","570","1074534","0.0-570.0","knesqyz0","","<span style=""color:Black; font-size:50px;"">Agent B","null","","","","",""
"null","","","video-keyboard-response","571","1077611","0.0-571.0","knesqyz0","","","null","","Agent B","veridical","STIM_SET_2/1592168.bmp_pp71_L1_V1.0_veridical_freeview_isoTrue.mp4",""
"","","","call-function","572","1077612","0.0-572.0","knesqyz0","","","","","","","",""
"2666.5849999999627","{""judgement"":1}","[0]","survey-likert","573","1080280","0.0-573.0","knesqyz0","","","","","","","","1"
"1978.684999999823","{""confidence"":3}","[0]","survey-likert","574","1082260","0.0-574.0","knesqyz0","","","","","","","",""
"","","","call-function","575","1082260","0.0-575.0","knesqyz0","","","","","","","",""
"null","","","html-keyboard-response","576","1083762","0.0-576.0","knesqyz0","","<span style=""color:Black; font-size:50px;"">Agent A","null","","","","",""
"null","","","video-keyboard-response","577","1086828","0.0-577.0","knesqyz0","","","null","","Agent A","veridical","STIM_SET_2/713689.bmp_pp153_L3_V1.0_veridical_freeview_isoTrue.mp4",""
"null","","","html-keyboard-response","578","1088332","0.0-578.0","knesqyz0","","<span style=""color:Black; font-size:50px;"">Agent B","null","","","","",""
"null","","","video-keyboard-response","579","1091400","0.0-579.0","knesqyz0","","","null","","Agent B","scrambled","STIM_SET_2/713689.bmp_pp153_L3_V1.0_scrambled_freeview_isoTrue.mp4",""
"","","","call-function","580","1091401","0.0-580.0","knesqyz0","","","","","","","",""
"1836.7050000000745","{""judgement"":1}","[0]","survey-likert","581","1093239","0.0-581.0","knesqyz0","","","","","","","","0"
"2521.1650000000373","{""confidence"":2}","[0]","survey-likert","582","1095762","0.0-582.0","knesqyz0","","","","","","","",""
"920.0549999999348","","","instructions","583","1096683","0.0-583.0","knesqyz0","[{""page_index"":0,""viewing_time"":919.9250000000466}]","","","","","","",""
"791.1799999999348","","","instructions","584","1097475","0.0-584.0","knesqyz0","[{""page_index"":0,""viewing_time"":791.0749999999534}]","","","","","","",""
"2524.6100000001024","{""post-1"":3}","[0]","survey-likert","585","1100002","0.0-585.0","knesqyz0","","","","","","","",""
"5192.695000000065","{""post-1"":1}","[0]","survey-likert","586","1105197","0.0-586.0","knesqyz0","","","","","","","",""
"9784.430000000168","{""post-2"":1}","[0]","survey-likert","587","1114983","0.0-587.0","knesqyz0","","","","","","","",""
"3536.7900000000373","{""post-2"":0}","[0]","survey-likert","588","1118521","0.0-588.0","knesqyz0","","","","","","","",""
"5056.295000000158","{""post-3"":1}","[0]","survey-likert","589","1123579","0.0-589.0","knesqyz0","","","","","","","",""
"2419.2999999998137","{""post-3"":0}","[0]","survey-likert","590","1125999","0.0-590.0","knesqyz0","","","","","","","",""
"3132.465000000084","{""post-4"":0}","[0]","survey-likert","591","1129133","0.0-591.0","knesqyz0","","","","","","","",""
"2596.2949999999255","{""post-4"":0}","[0]","survey-likert","592","1131731","0.0-592.0","knesqyz0","","","","","","","",""
"6674.840000000084","{""post-5"":0}","[0]","survey-likert","593","1138407","0.0-593.0","knesqyz0","","","","","","","",""
"1755.7350000001024","{""post-5"":3}","[0]","survey-likert","594","1140164","0.0-594.0","knesqyz0","","","","","","","",""
"133566.63000000012","{""Q0"":""How interesting! When the attention hotspots are divorced from the image, this trial entirely changes! I completed a version with images attached prior to this, and I now realized just how much my own focus on the image biased how I viewed the other agent's attention. Here, I was able to use my earlier successful strategy with far more clarity, as I wasn't being distracted by my own attention flow. It's amazing how much the brain can tune out its perception of how it views its own attention!""}","","survey-text","595","1273736","0.0-595.0","knesqyz0","","","","","","","",""
"92926.85499999998","{""Q0"":""I found that the same sort of hotspot distributions (wider, larger range) were easier to discern, though also ones with slower changes between hotspots, higher numbers of them, or several sets of closely related spots. Here, with the absence of images, I relied heavily on tracing the path of the eye and the way it moved between focus points - a far more natural thing for my brain to do when it didn't have an image to look at.""}","","survey-text","596","1366668","0.0-596.0","knesqyz0","","","","","","","",""
"102846.57499999995","{""Q0"":""Most difficult in this version of the trial were again points that were all clustered closely together, as it masked the randomness I perceived in the choices I believed to be most fake. However, sets of points that had fast movement on both the real and fake videos also tripped me up somewhat, as it became harder to tell whether the change in focus was robotic and linear or natural and graded.""}","","survey-text","597","1469519","0.0-597.0","knesqyz0","","","","","","","",""
"1718.7649999998976","","","instructions","598","1471239","0.0-598.0","knesqyz0","[{""page_index"":0,""viewing_time"":1718.6149999999907}]","","","","","","",""
"219928.365","{""Experimenter_end"":[""Printed ID# knesqyz0 on consent form"",""Given subject SONA credit or payment"",""Given the subject debrief form""]}","[0]","survey-multi-select","599","1691170","0.0-599.0","knesqyz0","","","","","","","",""
