"rt","responses","question_order","trial_type","trial_index","time_elapsed","internal_node_id","ID","view_history","stimulus","key_press","value","agent","condition","image","correct_answer"
"71447.565","{""Experimenter"":[""Confirmed normal or corrected-to-normal vision"",""Obtained consent (signature and date)"",""Checked the test room lighting"",""Checked computer screen lighting"",""Checked distance from screen to chin rest (50cm)"",""Cleaned and adjusted chin rest"",""Counterbalanced the order of the tasks"",""Opened the experiment in Firefox"",""Made the experiment full screen"",""Encouraged subject to silence phone, put away distractors, etc.""]}","[0]","survey-multi-select","0","71457","0.0-0.0","kowune8c","","","","","","","",""
"44083.405","","","instructions","1","115542","0.0-1.0","kowune8c","[{""page_index"":0,""viewing_time"":44083.19}]","","","","","","",""
"21767.58","","","instructions","2","137311","0.0-2.0","kowune8c","[{""page_index"":0,""viewing_time"":9801.375},{""page_index"":1,""viewing_time"":2082.270000000004},{""page_index"":2,""viewing_time"":9883.809999999998}]","","","","","","",""
"3453.5800000000163","","","instructions","3","140765","0.0-3.0","kowune8c","[{""page_index"":0,""viewing_time"":3453.475000000006}]","","","","","","",""
"null","","","video-keyboard-response","4","143839","0.0-4.0","kowune8c","","","null","","","","",""
"23479.005000000005","","","instructions","5","167319","0.0-5.0","kowune8c","[{""page_index"":0,""viewing_time"":4430.934999999998},{""page_index"":1,""viewing_time"":4740.0199999999895},{""page_index"":2,""viewing_time"":14307.945000000007}]","","","","","","",""
"4434.334999999992","","","instructions","6","171754","0.0-6.0","kowune8c","[{""page_index"":0,""viewing_time"":4434.229999999981}]","","","","","","",""
"1531.625","","","instructions","7","173286","0.0-7.0","kowune8c","[{""page_index"":0,""viewing_time"":1531.4100000000035}]","","","","","","",""
"null","","","video-keyboard-response","8","176358","0.0-8.0","kowune8c","","","null","","","","",""
"16163.035000000003","","","instructions","9","192522","0.0-9.0","kowune8c","[{""page_index"":0,""viewing_time"":2215.0599999999977},{""page_index"":1,""viewing_time"":4998.950000000012},{""page_index"":2,""viewing_time"":8948.889999999985}]","","","","","","",""
"9370.600000000006","","","instructions","10","201893","0.0-10.0","kowune8c","[{""page_index"":0,""viewing_time"":9370.48999999999}]","","","","","","",""
"","","","call-function","11","201894","0.0-11.0","kowune8c","","","","","","","",""
"null","","","html-keyboard-response","12","203399","0.0-12.0","kowune8c","","<span style=""color:Black; font-size:50px;"">Agent A","null","","","","",""
"null","","","video-keyboard-response","13","206461","0.0-13.0","kowune8c","","","null","","Agent A","scrambled","STIM_SET_5/1592567.bmp_pp70_L2_V1.0_veridical_freeview_isoTrue_Hflip_fps144.mp4",""
"null","","","html-keyboard-response","14","207965","0.0-14.0","kowune8c","","<span style=""color:Black; font-size:50px;"">Agent B","null","","","","",""
"null","","","video-keyboard-response","15","211029","0.0-15.0","kowune8c","","","null","","Agent B","veridical","STIM_SET_2_144/1592567.bmp_pp70_L2_V1.0_veridical_freeview_isoTrue_fps144.mp4",""
"","","","call-function","16","211029","0.0-16.0","kowune8c","","","","","","","",""
"6561.065000000002","{""judgement"":1}","[0]","survey-likert","17","217592","0.0-17.0","kowune8c","","","","","","","","1"
"5593.00999999998","{""confidence"":2}","[0]","survey-likert","18","223186","0.0-18.0","kowune8c","","","","","","","",""
"","","","call-function","19","223187","0.0-19.0","kowune8c","","","","","","","",""
"null","","","html-keyboard-response","20","224694","0.0-20.0","kowune8c","","<span style=""color:Black; font-size:50px;"">Agent A","null","","","","",""
"null","","","video-keyboard-response","21","227777","0.0-21.0","kowune8c","","","null","","Agent A","veridical","STIM_SET_2_144/1159874.bmp_pp96_L2_V1.0_veridical_freeview_isoTrue_fps144.mp4",""
"null","","","html-keyboard-response","22","229280","0.0-22.0","kowune8c","","<span style=""color:Black; font-size:50px;"">Agent B","null","","","","",""
"null","","","video-keyboard-response","23","232355","0.0-23.0","kowune8c","","","null","","Agent B","scrambled","STIM_SET_5/1159874.bmp_pp96_L2_V1.0_veridical_freeview_isoTrue_Hflip_fps144.mp4",""
"","","","call-function","24","232356","0.0-24.0","kowune8c","","","","","","","",""
"9903.569999999978","{""judgement"":0}","[0]","survey-likert","25","242260","0.0-25.0","kowune8c","","","","","","","","0"
"4754.459999999992","{""confidence"":3}","[0]","survey-likert","26","247016","0.0-26.0","kowune8c","","","","","","","",""
"","","","call-function","27","247018","0.0-27.0","kowune8c","","","","","","","",""
"null","","","html-keyboard-response","28","248522","0.0-28.0","kowune8c","","<span style=""color:Black; font-size:50px;"">Agent A","null","","","","",""
"null","","","video-keyboard-response","29","251584","0.0-29.0","kowune8c","","","null","","Agent A","veridical","STIM_SET_2_144/1592129.bmp_pp153_L3_V1.0_veridical_freeview_isoTrue_fps144.mp4",""
"null","","","html-keyboard-response","30","253090","0.0-30.0","kowune8c","","<span style=""color:Black; font-size:50px;"">Agent B","null","","","","",""
"null","","","video-keyboard-response","31","256151","0.0-31.0","kowune8c","","","null","","Agent B","scrambled","STIM_SET_5/1592129.bmp_pp153_L3_V1.0_veridical_freeview_isoTrue_Hflip_fps144.mp4",""
"","","","call-function","32","256151","0.0-32.0","kowune8c","","","","","","","",""
"5316.885000000009","{""judgement"":0}","[0]","survey-likert","33","261469","0.0-33.0","kowune8c","","","","","","","","0"
"3633.5500000000175","{""confidence"":2}","[0]","survey-likert","34","265104","0.0-34.0","kowune8c","","","","","","","",""
"","","","call-function","35","265104","0.0-35.0","kowune8c","","","","","","","",""
"null","","","html-keyboard-response","36","266610","0.0-36.0","kowune8c","","<span style=""color:Black; font-size:50px;"">Agent A","null","","","","",""
"null","","","video-keyboard-response","37","269710","0.0-37.0","kowune8c","","","null","","Agent A","scrambled","STIM_SET_5/713381.bmp_pp82_L2_V1.0_veridical_freeview_isoTrue_Hflip_fps144.mp4",""
"null","","","html-keyboard-response","38","271215","0.0-38.0","kowune8c","","<span style=""color:Black; font-size:50px;"">Agent B","null","","","","",""
"null","","","video-keyboard-response","39","274302","0.0-39.0","kowune8c","","","null","","Agent B","veridical","STIM_SET_2_144/713381.bmp_pp82_L2_V1.0_veridical_freeview_isoTrue_fps144.mp4",""
"","","","call-function","40","274302","0.0-40.0","kowune8c","","","","","","","",""
"1865.0299999999697","{""judgement"":1}","[0]","survey-likert","41","276168","0.0-41.0","kowune8c","","","","","","","","1"
"1843.9799999999814","{""confidence"":3}","[0]","survey-likert","42","278013","0.0-42.0","kowune8c","","","","","","","",""
"","","","call-function","43","278014","0.0-43.0","kowune8c","","","","","","","",""
"null","","","html-keyboard-response","44","279520","0.0-44.0","kowune8c","","<span style=""color:Black; font-size:50px;"">Agent A","null","","","","",""
"null","","","video-keyboard-response","45","282596","0.0-45.0","kowune8c","","","null","","Agent A","scrambled","STIM_SET_5/713689.bmp_pp153_L3_V1.0_veridical_freeview_isoTrue_Hflip_fps144.mp4",""
"null","","","html-keyboard-response","46","284098","0.0-46.0","kowune8c","","<span style=""color:Black; font-size:50px;"">Agent B","null","","","","",""
"null","","","video-keyboard-response","47","287177","0.0-47.0","kowune8c","","","null","","Agent B","veridical","STIM_SET_2_144/713689.bmp_pp153_L3_V1.0_veridical_freeview_isoTrue_fps144.mp4",""
"","","","call-function","48","287178","0.0-48.0","kowune8c","","","","","","","",""
"2142.2099999999627","{""judgement"":1}","[0]","survey-likert","49","289321","0.0-49.0","kowune8c","","","","","","","","1"
"3037.6849999999977","{""confidence"":3}","[0]","survey-likert","50","292361","0.0-50.0","kowune8c","","","","","","","",""
"","","","call-function","51","292361","0.0-51.0","kowune8c","","","","","","","",""
"null","","","html-keyboard-response","52","293867","0.0-52.0","kowune8c","","<span style=""color:Black; font-size:50px;"">Agent A","null","","","","",""
"null","","","video-keyboard-response","53","296942","0.0-53.0","kowune8c","","","null","","Agent A","veridical","STIM_SET_2_144/1159592.bmp_pp91_L3_V1.0_veridical_freeview_isoTrue_fps144.mp4",""
"null","","","html-keyboard-response","54","298446","0.0-54.0","kowune8c","","<span style=""color:Black; font-size:50px;"">Agent B","null","","","","",""
"null","","","video-keyboard-response","55","301521","0.0-55.0","kowune8c","","","null","","Agent B","scrambled","STIM_SET_5/1159592.bmp_pp91_L3_V1.0_veridical_freeview_isoTrue_Hflip_fps144.mp4",""
"","","","call-function","56","301522","0.0-56.0","kowune8c","","","","","","","",""
"3443.225000000035","{""judgement"":1}","[0]","survey-likert","57","304966","0.0-57.0","kowune8c","","","","","","","","0"
"1619.8499999999767","{""confidence"":2}","[0]","survey-likert","58","306588","0.0-58.0","kowune8c","","","","","","","",""
"","","","call-function","59","306588","0.0-59.0","kowune8c","","","","","","","",""
"null","","","html-keyboard-response","60","308092","0.0-60.0","kowune8c","","<span style=""color:Black; font-size:50px;"">Agent A","null","","","","",""
"null","","","video-keyboard-response","61","311167","0.0-61.0","kowune8c","","","null","","Agent A","scrambled","STIM_SET_5/1592168.bmp_pp71_L1_V1.0_veridical_freeview_isoTrue_Hflip_fps144.mp4",""
"null","","","html-keyboard-response","62","312670","0.0-62.0","kowune8c","","<span style=""color:Black; font-size:50px;"">Agent B","null","","","","",""
"null","","","video-keyboard-response","63","315745","0.0-63.0","kowune8c","","","null","","Agent B","veridical","STIM_SET_2_144/1592168.bmp_pp71_L1_V1.0_veridical_freeview_isoTrue_fps144.mp4",""
"","","","call-function","64","315746","0.0-64.0","kowune8c","","","","","","","",""
"2686.6900000000023","{""judgement"":1}","[0]","survey-likert","65","318433","0.0-65.0","kowune8c","","","","","","","","1"
"1753.9000000000233","{""confidence"":2}","[0]","survey-likert","66","320188","0.0-66.0","kowune8c","","","","","","","",""
"","","","call-function","67","320189","0.0-67.0","kowune8c","","","","","","","",""
"null","","","html-keyboard-response","68","321691","0.0-68.0","kowune8c","","<span style=""color:Black; font-size:50px;"">Agent A","null","","","","",""
"null","","","video-keyboard-response","69","324790","0.0-69.0","kowune8c","","","null","","Agent A","scrambled","STIM_SET_5/713858.bmp_pp57_L1_V1.0_veridical_freeview_isoTrue_Hflip_fps144.mp4",""
"null","","","html-keyboard-response","70","326293","0.0-70.0","kowune8c","","<span style=""color:Black; font-size:50px;"">Agent B","null","","","","",""
"null","","","video-keyboard-response","71","329379","0.0-71.0","kowune8c","","","null","","Agent B","veridical","STIM_SET_2_144/713858.bmp_pp57_L1_V1.0_veridical_freeview_isoTrue_fps144.mp4",""
"","","","call-function","72","329379","0.0-72.0","kowune8c","","","","","","","",""
"3956.0899999999674","{""judgement"":0}","[0]","survey-likert","73","333336","0.0-73.0","kowune8c","","","","","","","","1"
"2262.570000000007","{""confidence"":3}","[0]","survey-likert","74","335600","0.0-74.0","kowune8c","","","","","","","",""
"","","","call-function","75","335600","0.0-75.0","kowune8c","","","","","","","",""
"null","","","html-keyboard-response","76","337106","0.0-76.0","kowune8c","","<span style=""color:Black; font-size:50px;"">Agent A","null","","","","",""
"null","","","video-keyboard-response","77","340190","0.0-77.0","kowune8c","","","null","","Agent A","veridical","STIM_SET_2_144/1159508.bmp_pp151_L1_V1.0_veridical_freeview_isoTrue_fps144.mp4",""
"null","","","html-keyboard-response","78","341696","0.0-78.0","kowune8c","","<span style=""color:Black; font-size:50px;"">Agent B","null","","","","",""
"null","","","video-keyboard-response","79","344780","0.0-79.0","kowune8c","","","null","","Agent B","scrambled","STIM_SET_5/1159508.bmp_pp151_L1_V1.0_veridical_freeview_isoTrue_Hflip_fps144.mp4",""
"","","","call-function","80","344780","0.0-80.0","kowune8c","","","","","","","",""
"2348.5200000000186","{""judgement"":0}","[0]","survey-likert","81","347129","0.0-81.0","kowune8c","","","","","","","","0"
"3347.600000000035","{""confidence"":3}","[0]","survey-likert","82","350478","0.0-82.0","kowune8c","","","","","","","",""
"","","","call-function","83","350479","0.0-83.0","kowune8c","","","","","","","",""
"null","","","html-keyboard-response","84","351981","0.0-84.0","kowune8c","","<span style=""color:Black; font-size:50px;"">Agent A","null","","","","",""
"null","","","video-keyboard-response","85","355072","0.0-85.0","kowune8c","","","null","","Agent A","scrambled","STIM_SET_5/61513.bmp_pp75_L1_V1.0_veridical_freeview_isoTrue_Hflip_fps144.mp4",""
"null","","","html-keyboard-response","86","356577","0.0-86.0","kowune8c","","<span style=""color:Black; font-size:50px;"">Agent B","null","","","","",""
"null","","","video-keyboard-response","87","359656","0.0-87.0","kowune8c","","","null","","Agent B","veridical","STIM_SET_2_144/61513.bmp_pp75_L1_V1.0_veridical_freeview_isoTrue_fps144.mp4",""
"","","","call-function","88","359656","0.0-88.0","kowune8c","","","","","","","",""
"1785.234999999986","{""judgement"":1}","[0]","survey-likert","89","361442","0.0-89.0","kowune8c","","","","","","","","1"
"2294.4349999999977","{""confidence"":2}","[0]","survey-likert","90","363738","0.0-90.0","kowune8c","","","","","","","",""
"8213.63500000001","","","instructions","91","371952","0.0-91.0","kowune8c","[{""page_index"":0,""viewing_time"":2018.2699999999604},{""page_index"":1,""viewing_time"":4159.910000000033},{""page_index"":2,""viewing_time"":2035.1599999999744}]","","","","","","",""
"7621.39499999996","","","instructions","92","379574","0.0-92.0","kowune8c","[{""page_index"":0,""viewing_time"":1483.1699999999837},{""page_index"":1,""viewing_time"":4320.414999999979},{""page_index"":2,""viewing_time"":1817.7000000000116}]","","","","","","",""
"","","","call-function","93","379574","0.0-93.0","kowune8c","","","","","","","",""
"null","","","html-keyboard-response","94","381078","0.0-94.0","kowune8c","","<span style=""color:Black; font-size:50px;"">Agent A","null","","","","",""
"null","","","video-keyboard-response","95","384152","0.0-95.0","kowune8c","","","null","","Agent A","scrambled","STIM_SET_5/498372.bmp_pp95_L2_V1_veridical_freeview_isoTrue_Hflip_fps144.mp4",""
"null","","","html-keyboard-response","96","385654","0.0-96.0","kowune8c","","<span style=""color:Black; font-size:50px;"">Agent B","null","","","","",""
"null","","","video-keyboard-response","97","388729","0.0-97.0","kowune8c","","","null","","Agent B","veridical","STIM_SET_2_144/498372.bmp_pp95_L2_V1_veridical_freeview_isoTrue_fps144.mp4",""
"","","","call-function","98","388730","0.0-98.0","kowune8c","","","","","","","",""
"2661.6500000000233","{""judgement"":0}","[0]","survey-likert","99","391392","0.0-99.0","kowune8c","","","","","","","","1"
"2054.5950000000303","{""confidence"":3}","[0]","survey-likert","100","393448","0.0-100.0","kowune8c","","","","","","","",""
"","","","call-function","101","393450","0.0-101.0","kowune8c","","","","","","","",""
"null","","","html-keyboard-response","102","394952","0.0-102.0","kowune8c","","<span style=""color:Black; font-size:50px;"">Agent A","null","","","","",""
"null","","","video-keyboard-response","103","398020","0.0-103.0","kowune8c","","","null","","Agent A","veridical","STIM_SET_2_144/713788.bmp_pp52_L1_V1.0_veridical_freeview_isoTrue_fps144.mp4",""
"null","","","html-keyboard-response","104","399527","0.0-104.0","kowune8c","","<span style=""color:Black; font-size:50px;"">Agent B","null","","","","",""
"null","","","video-keyboard-response","105","402594","0.0-105.0","kowune8c","","","null","","Agent B","scrambled","STIM_SET_5/713788.bmp_pp52_L1_V1.0_veridical_freeview_isoTrue_Hflip_fps144.mp4",""
"","","","call-function","106","402595","0.0-106.0","kowune8c","","","","","","","",""
"2105.649999999965","{""judgement"":1}","[0]","survey-likert","107","404702","0.0-107.0","kowune8c","","","","","","","","0"
"1645.7949999999837","{""confidence"":1}","[0]","survey-likert","108","406349","0.0-108.0","kowune8c","","","","","","","",""
"","","","call-function","109","406349","0.0-109.0","kowune8c","","","","","","","",""
"null","","","html-keyboard-response","110","407852","0.0-110.0","kowune8c","","<span style=""color:Black; font-size:50px;"">Agent A","null","","","","",""
"null","","","video-keyboard-response","111","410919","0.0-111.0","kowune8c","","","null","","Agent A","scrambled","STIM_SET_5/1160204.bmp_pp54_L2_V1.0_veridical_freeview_isoTrue_Hflip_fps144.mp4",""
"null","","","html-keyboard-response","112","412423","0.0-112.0","kowune8c","","<span style=""color:Black; font-size:50px;"">Agent B","null","","","","",""
"null","","","video-keyboard-response","113","415491","0.0-113.0","kowune8c","","","null","","Agent B","veridical","STIM_SET_2_144/1160204.bmp_pp54_L2_V1.0_veridical_freeview_isoTrue_fps144.mp4",""
"","","","call-function","114","415492","0.0-114.0","kowune8c","","","","","","","",""
"2862.295000000042","{""judgement"":0}","[0]","survey-likert","115","418355","0.0-115.0","kowune8c","","","","","","","","1"
"1861.954999999958","{""confidence"":1}","[0]","survey-likert","116","420218","0.0-116.0","kowune8c","","","","","","","",""
"","","","call-function","117","420219","0.0-117.0","kowune8c","","","","","","","",""
"null","","","html-keyboard-response","118","421721","0.0-118.0","kowune8c","","<span style=""color:Black; font-size:50px;"">Agent A","null","","","","",""
"null","","","video-keyboard-response","119","424789","0.0-119.0","kowune8c","","","null","","Agent A","veridical","STIM_SET_2_144/1159329.bmp_pp61_L2_V1.0_veridical_freeview_isoTrue_fps144.mp4",""
"null","","","html-keyboard-response","120","426293","0.0-120.0","kowune8c","","<span style=""color:Black; font-size:50px;"">Agent B","null","","","","",""
"null","","","video-keyboard-response","121","429383","0.0-121.0","kowune8c","","","null","","Agent B","scrambled","STIM_SET_5/1159329.bmp_pp61_L2_V1.0_veridical_freeview_isoTrue_Hflip_fps144.mp4",""
"","","","call-function","122","429384","0.0-122.0","kowune8c","","","","","","","",""
"2500.4899999999907","{""judgement"":0}","[0]","survey-likert","123","431885","0.0-123.0","kowune8c","","","","","","","","0"
"1678.1149999999907","{""confidence"":2}","[0]","survey-likert","124","433564","0.0-124.0","kowune8c","","","","","","","",""
"","","","call-function","125","433565","0.0-125.0","kowune8c","","","","","","","",""
"null","","","html-keyboard-response","126","435068","0.0-126.0","kowune8c","","<span style=""color:Black; font-size:50px;"">Agent A","null","","","","",""
"null","","","video-keyboard-response","127","438157","0.0-127.0","kowune8c","","","null","","Agent A","scrambled","STIM_SET_5/1160247.bmp_pp54_L2_V1.0_veridical_freeview_isoTrue_Hflip_fps144.mp4",""
"null","","","html-keyboard-response","128","439659","0.0-128.0","kowune8c","","<span style=""color:Black; font-size:50px;"">Agent B","null","","","","",""
"null","","","video-keyboard-response","129","442747","0.0-129.0","kowune8c","","","null","","Agent B","veridical","STIM_SET_2_144/1160247.bmp_pp54_L2_V1.0_veridical_freeview_isoTrue_fps144.mp4",""
"","","","call-function","130","442748","0.0-130.0","kowune8c","","","","","","","",""
"1924.7449999999953","{""judgement"":1}","[0]","survey-likert","131","444673","0.0-131.0","kowune8c","","","","","","","","1"
"2132.5900000000256","{""confidence"":2}","[0]","survey-likert","132","446808","0.0-132.0","kowune8c","","","","","","","",""
"","","","call-function","133","446808","0.0-133.0","kowune8c","","","","","","","",""
"null","","","html-keyboard-response","134","448310","0.0-134.0","kowune8c","","<span style=""color:Black; font-size:50px;"">Agent A","null","","","","",""
"null","","","video-keyboard-response","135","451393","0.0-135.0","kowune8c","","","null","","Agent A","scrambled","STIM_SET_5/498258.bmp_pp51_L1_V1.0_veridical_freeview_isoTrue_Hflip_fps144.mp4",""
"null","","","html-keyboard-response","136","452896","0.0-136.0","kowune8c","","<span style=""color:Black; font-size:50px;"">Agent B","null","","","","",""
"null","","","video-keyboard-response","137","455978","0.0-137.0","kowune8c","","","null","","Agent B","veridical","STIM_SET_2_144/498258.bmp_pp51_L1_V1.0_veridical_freeview_isoTrue_fps144.mp4",""
"","","","call-function","138","455979","0.0-138.0","kowune8c","","","","","","","",""
"1615.975000000035","{""judgement"":1}","[0]","survey-likert","139","457595","0.0-139.0","kowune8c","","","","","","","","1"
"2065.1449999999604","{""confidence"":3}","[0]","survey-likert","140","459662","0.0-140.0","kowune8c","","","","","","","",""
"","","","call-function","141","459662","0.0-141.0","kowune8c","","","","","","","",""
"null","","","html-keyboard-response","142","461165","0.0-142.0","kowune8c","","<span style=""color:Black; font-size:50px;"">Agent A","null","","","","",""
"null","","","video-keyboard-response","143","464240","0.0-143.0","kowune8c","","","null","","Agent A","veridical","STIM_SET_2_144/1591975.bmp_pp88_L2_V1.0_veridical_freeview_isoTrue_fps144.mp4",""
"null","","","html-keyboard-response","144","465747","0.0-144.0","kowune8c","","<span style=""color:Black; font-size:50px;"">Agent B","null","","","","",""
"null","","","video-keyboard-response","145","468809","0.0-145.0","kowune8c","","","null","","Agent B","scrambled","STIM_SET_5/1591975.bmp_pp88_L2_V1.0_veridical_freeview_isoTrue_Hflip_fps144.mp4",""
"","","","call-function","146","468809","0.0-146.0","kowune8c","","","","","","","",""
"2272.5749999999534","{""judgement"":0}","[0]","survey-likert","147","471082","0.0-147.0","kowune8c","","","","","","","","0"
"2277.6900000000023","{""confidence"":3}","[0]","survey-likert","148","473361","0.0-148.0","kowune8c","","","","","","","",""
"","","","call-function","149","473362","0.0-149.0","kowune8c","","","","","","","",""
"null","","","html-keyboard-response","150","474864","0.0-150.0","kowune8c","","<span style=""color:Black; font-size:50px;"">Agent A","null","","","","",""
"null","","","video-keyboard-response","151","477935","0.0-151.0","kowune8c","","","null","","Agent A","scrambled","STIM_SET_5/1159973.bmp_pp98_L1_V1.0_veridical_freeview_isoTrue_Hflip_fps144.mp4",""
"null","","","html-keyboard-response","152","479438","0.0-152.0","kowune8c","","<span style=""color:Black; font-size:50px;"">Agent B","null","","","","",""
"null","","","video-keyboard-response","153","482506","0.0-153.0","kowune8c","","","null","","Agent B","veridical","STIM_SET_2_144/1159973.bmp_pp98_L1_V1.0_veridical_freeview_isoTrue_fps144.mp4",""
"","","","call-function","154","482506","0.0-154.0","kowune8c","","","","","","","",""
"6974.484999999986","{""judgement"":1}","[0]","survey-likert","155","489481","0.0-155.0","kowune8c","","","","","","","","1"
"3308.9700000000303","{""confidence"":2}","[0]","survey-likert","156","492791","0.0-156.0","kowune8c","","","","","","","",""
"","","","call-function","157","492792","0.0-157.0","kowune8c","","","","","","","",""
"null","","","html-keyboard-response","158","494294","0.0-158.0","kowune8c","","<span style=""color:Black; font-size:50px;"">Agent A","null","","","","",""
"null","","","video-keyboard-response","159","497354","0.0-159.0","kowune8c","","","null","","Agent A","veridical","STIM_SET_2_144/107955.bmp_pp90_L2_V1.0_veridical_freeview_isoTrue_fps144.mp4",""
"null","","","html-keyboard-response","160","498856","0.0-160.0","kowune8c","","<span style=""color:Black; font-size:50px;"">Agent B","null","","","","",""
"null","","","video-keyboard-response","161","501938","0.0-161.0","kowune8c","","","null","","Agent B","scrambled","STIM_SET_5/107955.bmp_pp90_L2_V1.0_veridical_freeview_isoTrue_Hflip_fps144.mp4",""
"","","","call-function","162","501939","0.0-162.0","kowune8c","","","","","","","",""
"2112.0449999999837","{""judgement"":1}","[0]","survey-likert","163","504052","0.0-163.0","kowune8c","","","","","","","","0"
"2218.609999999986","{""confidence"":2}","[0]","survey-likert","164","506271","0.0-164.0","kowune8c","","","","","","","",""
"","","","call-function","165","506272","0.0-165.0","kowune8c","","","","","","","",""
"null","","","html-keyboard-response","166","507776","0.0-166.0","kowune8c","","<span style=""color:Black; font-size:50px;"">Agent A","null","","","","",""
"null","","","video-keyboard-response","167","510869","0.0-167.0","kowune8c","","","null","","Agent A","veridical","STIM_SET_2_144/1592747.bmp_pp53_L2_V1.0_veridical_freeview_isoTrue_fps144.mp4",""
"null","","","html-keyboard-response","168","512374","0.0-168.0","kowune8c","","<span style=""color:Black; font-size:50px;"">Agent B","null","","","","",""
"null","","","video-keyboard-response","169","515464","0.0-169.0","kowune8c","","","null","","Agent B","scrambled","STIM_SET_5/1592747.bmp_pp53_L2_V1.0_veridical_freeview_isoTrue_Hflip_fps144.mp4",""
"","","","call-function","170","515465","0.0-170.0","kowune8c","","","","","","","",""
"1907.4249999999884","{""judgement"":1}","[0]","survey-likert","171","517374","0.0-171.0","kowune8c","","","","","","","","0"
"1593.0449999999837","{""confidence"":3}","[0]","survey-likert","172","518968","0.0-172.0","kowune8c","","","","","","","",""
"73807.65500000003","","","instructions","173","592777","0.0-173.0","kowune8c","[{""page_index"":0,""viewing_time"":2633.4599999999627},{""page_index"":1,""viewing_time"":69082.94000000006},{""page_index"":2,""viewing_time"":2091.0449999999255}]","","","","","","",""
"4699.760000000009","","","instructions","174","597478","0.0-174.0","kowune8c","[{""page_index"":0,""viewing_time"":1011.6550000000279},{""page_index"":1,""viewing_time"":2429.984999999986},{""page_index"":2,""viewing_time"":1258.015000000014}]","","","","","","",""
"","","","call-function","175","597479","0.0-175.0","kowune8c","","","","","","","",""
"null","","","html-keyboard-response","176","598981","0.0-176.0","kowune8c","","<span style=""color:Black; font-size:50px;"">Agent A","null","","","","",""
"null","","","video-keyboard-response","177","602049","0.0-177.0","kowune8c","","","null","","Agent A","scrambled","STIM_SET_5/150463.bmp_pp55_L3_V1.0_veridical_freeview_isoTrue_Hflip_fps144.mp4",""
"null","","","html-keyboard-response","178","603555","0.0-178.0","kowune8c","","<span style=""color:Black; font-size:50px;"">Agent B","null","","","","",""
"null","","","video-keyboard-response","179","606623","0.0-179.0","kowune8c","","","null","","Agent B","veridical","STIM_SET_2_144/150463.bmp_pp55_L3_V1.0_veridical_freeview_isoTrue_fps144.mp4",""
"","","","call-function","180","606623","0.0-180.0","kowune8c","","","","","","","",""
"2535.6600000000326","{""judgement"":1}","[0]","survey-likert","181","609160","0.0-181.0","kowune8c","","","","","","","","1"
"2713.5749999999534","{""confidence"":3}","[0]","survey-likert","182","611874","0.0-182.0","kowune8c","","","","","","","",""
"","","","call-function","183","611875","0.0-183.0","kowune8c","","","","","","","",""
"null","","","html-keyboard-response","184","613378","0.0-184.0","kowune8c","","<span style=""color:Black; font-size:50px;"">Agent A","null","","","","",""
"null","","","video-keyboard-response","185","616452","0.0-185.0","kowune8c","","","null","","Agent A","scrambled","STIM_SET_5/1592568.bmp_pp71_L1_V1.0_veridical_freeview_isoTrue_Hflip_fps144.mp4",""
"null","","","html-keyboard-response","186","617954","0.0-186.0","kowune8c","","<span style=""color:Black; font-size:50px;"">Agent B","null","","","","",""
"null","","","video-keyboard-response","187","621029","0.0-187.0","kowune8c","","","null","","Agent B","veridical","STIM_SET_2_144/1592568.bmp_pp71_L1_V1.0_veridical_freeview_isoTrue_fps144.mp4",""
"","","","call-function","188","621029","0.0-188.0","kowune8c","","","","","","","",""
"1697.8199999999488","{""judgement"":0}","[0]","survey-likert","189","622728","0.0-189.0","kowune8c","","","","","","","","1"
"2433.9150000000373","{""confidence"":3}","[0]","survey-likert","190","625163","0.0-190.0","kowune8c","","","","","","","",""
"","","","call-function","191","625163","0.0-191.0","kowune8c","","","","","","","",""
"null","","","html-keyboard-response","192","626666","0.0-192.0","kowune8c","","<span style=""color:Black; font-size:50px;"">Agent A","null","","","","",""
"null","","","video-keyboard-response","193","629748","0.0-193.0","kowune8c","","","null","","Agent A","scrambled","STIM_SET_5/1159325.bmp_pp67_L2_V1.0_veridical_freeview_isoTrue_Hflip_fps144.mp4",""
"null","","","html-keyboard-response","194","631251","0.0-194.0","kowune8c","","<span style=""color:Black; font-size:50px;"">Agent B","null","","","","",""
"null","","","video-keyboard-response","195","634326","0.0-195.0","kowune8c","","","null","","Agent B","veridical","STIM_SET_2_144/1159325.bmp_pp67_L2_V1.0_veridical_freeview_isoTrue_fps144.mp4",""
"","","","call-function","196","634327","0.0-196.0","kowune8c","","","","","","","",""
"2213.909999999916","{""judgement"":0}","[0]","survey-likert","197","636542","0.0-197.0","kowune8c","","","","","","","","1"
"2404.0100000000093","{""confidence"":2}","[0]","survey-likert","198","638947","0.0-198.0","kowune8c","","","","","","","",""
"","","","call-function","199","638948","0.0-199.0","kowune8c","","","","","","","",""
"null","","","html-keyboard-response","200","640453","0.0-200.0","kowune8c","","<span style=""color:Black; font-size:50px;"">Agent A","null","","","","",""
"null","","","video-keyboard-response","201","643542","0.0-201.0","kowune8c","","","null","","Agent A","scrambled","STIM_SET_5/1592038.bmp_pp79_L2_V1.0_veridical_freeview_isoTrue_Hflip_fps144.mp4",""
"null","","","html-keyboard-response","202","645046","0.0-202.0","kowune8c","","<span style=""color:Black; font-size:50px;"">Agent B","null","","","","",""
"null","","","video-keyboard-response","203","648133","0.0-203.0","kowune8c","","","null","","Agent B","veridical","STIM_SET_2_144/1592038.bmp_pp79_L2_V1.0_veridical_freeview_isoTrue_fps144.mp4",""
"","","","call-function","204","648133","0.0-204.0","kowune8c","","","","","","","",""
"5477.639999999898","{""judgement"":0}","[0]","survey-likert","205","653612","0.0-205.0","kowune8c","","","","","","","","1"
"1830.890000000014","{""confidence"":3}","[0]","survey-likert","206","655444","0.0-206.0","kowune8c","","","","","","","",""
"","","","call-function","207","655444","0.0-207.0","kowune8c","","","","","","","",""
"null","","","html-keyboard-response","208","656948","0.0-208.0","kowune8c","","<span style=""color:Black; font-size:50px;"">Agent A","null","","","","",""
"null","","","video-keyboard-response","209","660038","0.0-209.0","kowune8c","","","null","","Agent A","veridical","STIM_SET_2_144/1591781.bmp_pp63_L1_V1.0_veridical_freeview_isoTrue_fps144.mp4",""
"null","","","html-keyboard-response","210","661544","0.0-210.0","kowune8c","","<span style=""color:Black; font-size:50px;"">Agent B","null","","","","",""
"null","","","video-keyboard-response","211","664632","0.0-211.0","kowune8c","","","null","","Agent B","scrambled","STIM_SET_5/1591781.bmp_pp63_L1_V1.0_veridical_freeview_isoTrue_Hflip_fps144.mp4",""
"","","","call-function","212","664632","0.0-212.0","kowune8c","","","","","","","",""
"3311.710000000079","{""judgement"":1}","[0]","survey-likert","213","667945","0.0-213.0","kowune8c","","","","","","","","0"
"1548.0250000000233","{""confidence"":3}","[0]","survey-likert","214","669494","0.0-214.0","kowune8c","","","","","","","",""
"","","","call-function","215","669494","0.0-215.0","kowune8c","","","","","","","",""
"null","","","html-keyboard-response","216","670999","0.0-216.0","kowune8c","","<span style=""color:Black; font-size:50px;"">Agent A","null","","","","",""
"null","","","video-keyboard-response","217","674075","0.0-217.0","kowune8c","","","null","","Agent A","scrambled","STIM_SET_5/713790.bmp_pp100_L3_V1_veridical_freeview_isoTrue_Hflip_fps144.mp4",""
"null","","","html-keyboard-response","218","675582","0.0-218.0","kowune8c","","<span style=""color:Black; font-size:50px;"">Agent B","null","","","","",""
"null","","","video-keyboard-response","219","678658","0.0-219.0","kowune8c","","","null","","Agent B","veridical","STIM_SET_2_144/713790.bmp_pp100_L3_V1_veridical_freeview_isoTrue_fps144.mp4",""
"","","","call-function","220","678659","0.0-220.0","kowune8c","","","","","","","",""
"1834.8399999999674","{""judgement"":0}","[0]","survey-likert","221","680494","0.0-221.0","kowune8c","","","","","","","","1"
"4647.269999999902","{""confidence"":1}","[0]","survey-likert","222","685143","0.0-222.0","kowune8c","","","","","","","",""
"","","","call-function","223","685143","0.0-223.0","kowune8c","","","","","","","",""
"null","","","html-keyboard-response","224","686644","0.0-224.0","kowune8c","","<span style=""color:Black; font-size:50px;"">Agent A","null","","","","",""
"null","","","video-keyboard-response","225","689714","0.0-225.0","kowune8c","","","null","","Agent A","scrambled","STIM_SET_5/1159819.bmp_pp151_L1_V1.0_veridical_freeview_isoTrue_Hflip_fps144.mp4",""
"null","","","html-keyboard-response","226","691221","0.0-226.0","kowune8c","","<span style=""color:Black; font-size:50px;"">Agent B","null","","","","",""
"null","","","video-keyboard-response","227","694288","0.0-227.0","kowune8c","","","null","","Agent B","veridical","STIM_SET_2_144/1159819.bmp_pp151_L1_V1.0_veridical_freeview_isoTrue_fps144.mp4",""
"","","","call-function","228","694289","0.0-228.0","kowune8c","","","","","","","",""
"4760.4400000000605","{""judgement"":0}","[0]","survey-likert","229","699050","0.0-229.0","kowune8c","","","","","","","","1"
"1991.2300000000978","{""confidence"":1}","[0]","survey-likert","230","701044","0.0-230.0","kowune8c","","","","","","","",""
"","","","call-function","231","701045","0.0-231.0","kowune8c","","","","","","","",""
"null","","","html-keyboard-response","232","702547","0.0-232.0","kowune8c","","<span style=""color:Black; font-size:50px;"">Agent A","null","","","","",""
"null","","","video-keyboard-response","233","705633","0.0-233.0","kowune8c","","","null","","Agent A","veridical","STIM_SET_2_144/498025.bmp_pp81_L1_V1.0_veridical_freeview_isoTrue_fps144.mp4",""
"null","","","html-keyboard-response","234","707137","0.0-234.0","kowune8c","","<span style=""color:Black; font-size:50px;"">Agent B","null","","","","",""
"null","","","video-keyboard-response","235","710219","0.0-235.0","kowune8c","","","null","","Agent B","scrambled","STIM_SET_5/498025.bmp_pp81_L1_V1.0_veridical_freeview_isoTrue_Hflip_fps144.mp4",""
"","","","call-function","236","710219","0.0-236.0","kowune8c","","","","","","","",""
"1728.640000000014","{""judgement"":0}","[0]","survey-likert","237","711949","0.0-237.0","kowune8c","","","","","","","","0"
"2765.1199999999953","{""confidence"":2}","[0]","survey-likert","238","714715","0.0-238.0","kowune8c","","","","","","","",""
"","","","call-function","239","714716","0.0-239.0","kowune8c","","","","","","","",""
"null","","","html-keyboard-response","240","716218","0.0-240.0","kowune8c","","<span style=""color:Black; font-size:50px;"">Agent A","null","","","","",""
"null","","","video-keyboard-response","241","719277","0.0-241.0","kowune8c","","","null","","Agent A","scrambled","STIM_SET_5/1592857.bmp_pp52_L1_V1_veridical_freeview_isoTrue_Hflip_fps144.mp4",""
"null","","","html-keyboard-response","242","720782","0.0-242.0","kowune8c","","<span style=""color:Black; font-size:50px;"">Agent B","null","","","","",""
"null","","","video-keyboard-response","243","723844","0.0-243.0","kowune8c","","","null","","Agent B","veridical","STIM_SET_2_144/1592857.bmp_pp52_L1_V1_veridical_freeview_isoTrue_fps144.mp4",""
"","","","call-function","244","723845","0.0-244.0","kowune8c","","","","","","","",""
"1976.9749999999767","{""judgement"":1}","[0]","survey-likert","245","725822","0.0-245.0","kowune8c","","","","","","","","1"
"1493.7249999999767","{""confidence"":2}","[0]","survey-likert","246","727317","0.0-246.0","kowune8c","","","","","","","",""
"","","","call-function","247","727318","0.0-247.0","kowune8c","","","","","","","",""
"null","","","html-keyboard-response","248","728822","0.0-248.0","kowune8c","","<span style=""color:Black; font-size:50px;"">Agent A","null","","","","",""
"null","","","video-keyboard-response","249","731913","0.0-249.0","kowune8c","","","null","","Agent A","veridical","STIM_SET_2_144/1592921.bmp_pp69_L3_V1.0_veridical_freeview_isoTrue_fps144.mp4",""
"null","","","html-keyboard-response","250","733415","0.0-250.0","kowune8c","","<span style=""color:Black; font-size:50px;"">Agent B","null","","","","",""
"null","","","video-keyboard-response","251","736499","0.0-251.0","kowune8c","","","null","","Agent B","scrambled","STIM_SET_5/1592921.bmp_pp69_L3_V1.0_veridical_freeview_isoTrue_Hflip_fps144.mp4",""
"","","","call-function","252","736499","0.0-252.0","kowune8c","","","","","","","",""
"1363.8550000000978","{""judgement"":1}","[0]","survey-likert","253","737864","0.0-253.0","kowune8c","","","","","","","","0"
"1386.9000000000233","{""confidence"":3}","[0]","survey-likert","254","739252","0.0-254.0","kowune8c","","","","","","","",""
"83858.51000000001","","","instructions","255","823111","0.0-255.0","kowune8c","[{""page_index"":0,""viewing_time"":1696.2100000000792},{""page_index"":1,""viewing_time"":79515.11499999999},{""page_index"":2,""viewing_time"":2646.9749999999767}]","","","","","","",""
"4710.569999999949","","","instructions","256","827822","0.0-256.0","kowune8c","[{""page_index"":0,""viewing_time"":1797.2700000000186},{""page_index"":1,""viewing_time"":1732.9249999999302},{""page_index"":2,""viewing_time"":1180.265000000014}]","","","","","","",""
"","","","call-function","257","827822","0.0-257.0","kowune8c","","","","","","","",""
"null","","","html-keyboard-response","258","829325","0.0-258.0","kowune8c","","<span style=""color:Black; font-size:50px;"">Agent A","null","","","","",""
"null","","","video-keyboard-response","259","832390","0.0-259.0","kowune8c","","","null","","Agent A","scrambled","STIM_SET_5/713652.bmp_pp89_L1_V1_veridical_freeview_isoTrue_Hflip_fps144.mp4",""
"null","","","html-keyboard-response","260","833892","0.0-260.0","kowune8c","","<span style=""color:Black; font-size:50px;"">Agent B","null","","","","",""
"null","","","video-keyboard-response","261","836956","0.0-261.0","kowune8c","","","null","","Agent B","veridical","STIM_SET_2_144/713652.bmp_pp89_L1_V1_veridical_freeview_isoTrue_fps144.mp4",""
"","","","call-function","262","836956","0.0-262.0","kowune8c","","","","","","","",""
"13518.794999999925","{""judgement"":1}","[0]","survey-likert","263","850476","0.0-263.0","kowune8c","","","","","","","","1"
"1364.8149999999441","{""confidence"":2}","[0]","survey-likert","264","851842","0.0-264.0","kowune8c","","","","","","","",""
"","","","call-function","265","851842","0.0-265.0","kowune8c","","","","","","","",""
"null","","","html-keyboard-response","266","853343","0.0-266.0","kowune8c","","<span style=""color:Black; font-size:50px;"">Agent A","null","","","","",""
"null","","","video-keyboard-response","267","856403","0.0-267.0","kowune8c","","","null","","Agent A","veridical","STIM_SET_2_144/1592017.bmp_pp154_L1_V1.0_veridical_freeview_isoTrue_fps144.mp4",""
"null","","","html-keyboard-response","268","857907","0.0-268.0","kowune8c","","<span style=""color:Black; font-size:50px;"">Agent B","null","","","","",""
"null","","","video-keyboard-response","269","860971","0.0-269.0","kowune8c","","","null","","Agent B","scrambled","STIM_SET_5/1592017.bmp_pp154_L1_V1.0_veridical_freeview_isoTrue_Hflip_fps144.mp4",""
"","","","call-function","270","860971","0.0-270.0","kowune8c","","","","","","","",""
"4990.109999999986","{""judgement"":0}","[0]","survey-likert","271","865962","0.0-271.0","kowune8c","","","","","","","","0"
"1477.7899999999208","{""confidence"":3}","[0]","survey-likert","272","867442","0.0-272.0","kowune8c","","","","","","","",""
"","","","call-function","273","867442","0.0-273.0","kowune8c","","","","","","","",""
"null","","","html-keyboard-response","274","868947","0.0-274.0","kowune8c","","<span style=""color:Black; font-size:50px;"">Agent A","null","","","","",""
"null","","","video-keyboard-response","275","872031","0.0-275.0","kowune8c","","","null","","Agent A","scrambled","STIM_SET_5/286034.bmp_pp69_L3_V1.0_veridical_freeview_isoTrue_Hflip_fps144.mp4",""
"null","","","html-keyboard-response","276","873533","0.0-276.0","kowune8c","","<span style=""color:Black; font-size:50px;"">Agent B","null","","","","",""
"null","","","video-keyboard-response","277","876607","0.0-277.0","kowune8c","","","null","","Agent B","veridical","STIM_SET_2_144/286034.bmp_pp69_L3_V1.0_veridical_freeview_isoTrue_fps144.mp4",""
"","","","call-function","278","876608","0.0-278.0","kowune8c","","","","","","","",""
"1913.6750000000466","{""judgement"":0}","[0]","survey-likert","279","878522","0.0-279.0","kowune8c","","","","","","","","1"
"2489.9649999999674","{""confidence"":3}","[0]","survey-likert","280","881013","0.0-280.0","kowune8c","","","","","","","",""
"","","","call-function","281","881014","0.0-281.0","kowune8c","","","","","","","",""
"null","","","html-keyboard-response","282","882516","0.0-282.0","kowune8c","","<span style=""color:Black; font-size:50px;"">Agent A","null","","","","",""
"null","","","video-keyboard-response","283","885606","0.0-283.0","kowune8c","","","null","","Agent A","veridical","STIM_SET_2_144/107909.bmp_pp95_L2_V1.0_veridical_freeview_isoTrue_fps144.mp4",""
"null","","","html-keyboard-response","284","887111","0.0-284.0","kowune8c","","<span style=""color:Black; font-size:50px;"">Agent B","null","","","","",""
"null","","","video-keyboard-response","285","890203","0.0-285.0","kowune8c","","","null","","Agent B","scrambled","STIM_SET_5/107909.bmp_pp95_L2_V1.0_veridical_freeview_isoTrue_Hflip_fps144.mp4",""
"","","","call-function","286","890204","0.0-286.0","kowune8c","","","","","","","",""
"3963.039999999921","{""judgement"":1}","[0]","survey-likert","287","894169","0.0-287.0","kowune8c","","","","","","","","0"
"1896.8099999999395","{""confidence"":1}","[0]","survey-likert","288","896068","0.0-288.0","kowune8c","","","","","","","",""
"","","","call-function","289","896069","0.0-289.0","kowune8c","","","","","","","",""
"null","","","html-keyboard-response","290","897571","0.0-290.0","kowune8c","","<span style=""color:Black; font-size:50px;"">Agent A","null","","","","",""
"null","","","video-keyboard-response","291","900632","0.0-291.0","kowune8c","","","null","","Agent A","veridical","STIM_SET_2_144/713829.bmp_pp60_L3_V1.0_veridical_freeview_isoTrue_fps144.mp4",""
"null","","","html-keyboard-response","292","902139","0.0-292.0","kowune8c","","<span style=""color:Black; font-size:50px;"">Agent B","null","","","","",""
"null","","","video-keyboard-response","293","905200","0.0-293.0","kowune8c","","","null","","Agent B","scrambled","STIM_SET_5/713829.bmp_pp60_L3_V1.0_veridical_freeview_isoTrue_Hflip_fps144.mp4",""
"","","","call-function","294","905200","0.0-294.0","kowune8c","","","","","","","",""
"5160.020000000019","{""judgement"":1}","[0]","survey-likert","295","910361","0.0-295.0","kowune8c","","","","","","","","0"
"1807.920000000042","{""confidence"":2}","[0]","survey-likert","296","912171","0.0-296.0","kowune8c","","","","","","","",""
"","","","call-function","297","912171","0.0-297.0","kowune8c","","","","","","","",""
"null","","","html-keyboard-response","298","913675","0.0-298.0","kowune8c","","<span style=""color:Black; font-size:50px;"">Agent A","null","","","","",""
"null","","","video-keyboard-response","299","916751","0.0-299.0","kowune8c","","","null","","Agent A","scrambled","STIM_SET_5/713742.bmp_pp91_L3_V1.0_veridical_freeview_isoTrue_Hflip_fps144.mp4",""
"null","","","html-keyboard-response","300","918253","0.0-300.0","kowune8c","","<span style=""color:Black; font-size:50px;"">Agent B","null","","","","",""
"null","","","video-keyboard-response","301","921330","0.0-301.0","kowune8c","","","null","","Agent B","veridical","STIM_SET_2_144/713742.bmp_pp91_L3_V1.0_veridical_freeview_isoTrue_fps144.mp4",""
"","","","call-function","302","921331","0.0-302.0","kowune8c","","","","","","","",""
"2354.9000000000233","{""judgement"":0}","[0]","survey-likert","303","923686","0.0-303.0","kowune8c","","","","","","","","1"
"1514.234999999986","{""confidence"":3}","[0]","survey-likert","304","925202","0.0-304.0","kowune8c","","","","","","","",""
"","","","call-function","305","925202","0.0-305.0","kowune8c","","","","","","","",""
"null","","","html-keyboard-response","306","926703","0.0-306.0","kowune8c","","<span style=""color:Black; font-size:50px;"">Agent A","null","","","","",""
"null","","","video-keyboard-response","307","929792","0.0-307.0","kowune8c","","","null","","Agent A","veridical","STIM_SET_2_144/498396.bmp_pp99_L2_V1.0_veridical_freeview_isoTrue_fps144.mp4",""
"null","","","html-keyboard-response","308","931295","0.0-308.0","kowune8c","","<span style=""color:Black; font-size:50px;"">Agent B","null","","","","",""
"null","","","video-keyboard-response","309","934380","0.0-309.0","kowune8c","","","null","","Agent B","scrambled","STIM_SET_5/498396.bmp_pp99_L2_V1.0_veridical_freeview_isoTrue_Hflip_fps144.mp4",""
"","","","call-function","310","934380","0.0-310.0","kowune8c","","","","","","","",""
"1643.1199999999953","{""judgement"":1}","[0]","survey-likert","311","936024","0.0-311.0","kowune8c","","","","","","","","0"
"1804.109999999986","{""confidence"":3}","[0]","survey-likert","312","937829","0.0-312.0","kowune8c","","","","","","","",""
"","","","call-function","313","937830","0.0-313.0","kowune8c","","","","","","","",""
"null","","","html-keyboard-response","314","939332","0.0-314.0","kowune8c","","<span style=""color:Black; font-size:50px;"">Agent A","null","","","","",""
"null","","","video-keyboard-response","315","942412","0.0-315.0","kowune8c","","","null","","Agent A","veridical","STIM_SET_2_144/498261.bmp_pp84_L3_V1.0_veridical_freeview_isoTrue_fps144.mp4",""
"null","","","html-keyboard-response","316","943914","0.0-316.0","kowune8c","","<span style=""color:Black; font-size:50px;"">Agent B","null","","","","",""
"null","","","video-keyboard-response","317","946999","0.0-317.0","kowune8c","","","null","","Agent B","scrambled","STIM_SET_5/498261.bmp_pp84_L3_V1.0_veridical_freeview_isoTrue_Hflip_fps144.mp4",""
"","","","call-function","318","946999","0.0-318.0","kowune8c","","","","","","","",""
"2195.554999999935","{""judgement"":1}","[0]","survey-likert","319","949195","0.0-319.0","kowune8c","","","","","","","","0"
"3753.844999999972","{""confidence"":3}","[0]","survey-likert","320","952950","0.0-320.0","kowune8c","","","","","","","",""
"","","","call-function","321","952951","0.0-321.0","kowune8c","","","","","","","",""
"null","","","html-keyboard-response","322","954451","0.0-322.0","kowune8c","","<span style=""color:Black; font-size:50px;"">Agent A","null","","","","",""
"null","","","video-keyboard-response","323","957533","0.0-323.0","kowune8c","","","null","","Agent A","scrambled","STIM_SET_5/1159956.bmp_pp59_L3_V1.0_veridical_freeview_isoTrue_Hflip_fps144.mp4",""
"null","","","html-keyboard-response","324","959039","0.0-324.0","kowune8c","","<span style=""color:Black; font-size:50px;"">Agent B","null","","","","",""
"null","","","video-keyboard-response","325","962118","0.0-325.0","kowune8c","","","null","","Agent B","veridical","STIM_SET_2_144/1159956.bmp_pp59_L3_V1.0_veridical_freeview_isoTrue_fps144.mp4",""
"","","","call-function","326","962119","0.0-326.0","kowune8c","","","","","","","",""
"2194.625","{""judgement"":0}","[0]","survey-likert","327","964314","0.0-327.0","kowune8c","","","","","","","","1"
"4632.04999999993","{""confidence"":2}","[0]","survey-likert","328","968947","0.0-328.0","kowune8c","","","","","","","",""
"","","","call-function","329","968948","0.0-329.0","kowune8c","","","","","","","",""
"null","","","html-keyboard-response","330","970449","0.0-330.0","kowune8c","","<span style=""color:Black; font-size:50px;"">Agent A","null","","","","",""
"null","","","video-keyboard-response","331","973512","0.0-331.0","kowune8c","","","null","","Agent A","veridical","STIM_SET_2_144/1592044.bmp_pp94_L2_V1.0_veridical_freeview_isoTrue_fps144.mp4",""
"null","","","html-keyboard-response","332","975016","0.0-332.0","kowune8c","","<span style=""color:Black; font-size:50px;"">Agent B","null","","","","",""
"null","","","video-keyboard-response","333","978078","0.0-333.0","kowune8c","","","null","","Agent B","scrambled","STIM_SET_5/1592044.bmp_pp94_L2_V1.0_veridical_freeview_isoTrue_Hflip_fps144.mp4",""
"","","","call-function","334","978078","0.0-334.0","kowune8c","","","","","","","",""
"2072.875","{""judgement"":0}","[0]","survey-likert","335","980152","0.0-335.0","kowune8c","","","","","","","","0"
"2500.344999999972","{""confidence"":2}","[0]","survey-likert","336","982654","0.0-336.0","kowune8c","","","","","","","",""
"4009.195000000065","","","instructions","337","986663","0.0-337.0","kowune8c","[{""page_index"":0,""viewing_time"":2637.905000000028},{""page_index"":1,""viewing_time"":752.1850000000559},{""page_index"":2,""viewing_time"":618.8999999999069}]","","","","","","",""
"4431.5","","","instructions","338","991095","0.0-338.0","kowune8c","[{""page_index"":0,""viewing_time"":1431.4000000000233},{""page_index"":1,""viewing_time"":1956.7999999999302},{""page_index"":2,""viewing_time"":1043.1950000000652}]","","","","","","",""
"","","","call-function","339","991096","0.0-339.0","kowune8c","","","","","","","",""
"null","","","html-keyboard-response","340","992599","0.0-340.0","kowune8c","","<span style=""color:Black; font-size:50px;"">Agent A","null","","","","",""
"null","","","video-keyboard-response","341","995674","0.0-341.0","kowune8c","","","null","","Agent A","scrambled","STIM_SET_5/285959.bmp_pp93_L1_V1.0_veridical_freeview_isoTrue_Hflip_fps144.mp4",""
"null","","","html-keyboard-response","342","997181","0.0-342.0","kowune8c","","<span style=""color:Black; font-size:50px;"">Agent B","null","","","","",""
"null","","","video-keyboard-response","343","1000255","0.0-343.0","kowune8c","","","null","","Agent B","veridical","STIM_SET_2_144/285959.bmp_pp93_L1_V1.0_veridical_freeview_isoTrue_fps144.mp4",""
"","","","call-function","344","1000257","0.0-344.0","kowune8c","","","","","","","",""
"4146.0950000000885","{""judgement"":0}","[0]","survey-likert","345","1004404","0.0-345.0","kowune8c","","","","","","","","1"
"5318.349999999977","{""confidence"":0}","[0]","survey-likert","346","1009724","0.0-346.0","kowune8c","","","","","","","",""
"","","","call-function","347","1009726","0.0-347.0","kowune8c","","","","","","","",""
"null","","","html-keyboard-response","348","1011228","0.0-348.0","kowune8c","","<span style=""color:Black; font-size:50px;"">Agent A","null","","","","",""
"null","","","video-keyboard-response","349","1014290","0.0-349.0","kowune8c","","","null","","Agent A","scrambled","STIM_SET_5/285715.bmp_pp67_L2_V1.0_veridical_freeview_isoTrue_Hflip_fps144.mp4",""
"null","","","html-keyboard-response","350","1015792","0.0-350.0","kowune8c","","<span style=""color:Black; font-size:50px;"">Agent B","null","","","","",""
"null","","","video-keyboard-response","351","1018852","0.0-351.0","kowune8c","","","null","","Agent B","veridical","STIM_SET_2_144/285715.bmp_pp67_L2_V1.0_veridical_freeview_isoTrue_fps144.mp4",""
"","","","call-function","352","1018853","0.0-352.0","kowune8c","","","","","","","",""
"1890.9749999999767","{""judgement"":1}","[0]","survey-likert","353","1020745","0.0-353.0","kowune8c","","","","","","","","1"
"1898.405000000028","{""confidence"":3}","[0]","survey-likert","354","1022645","0.0-354.0","kowune8c","","","","","","","",""
"","","","call-function","355","1022645","0.0-355.0","kowune8c","","","","","","","",""
"null","","","html-keyboard-response","356","1024149","0.0-356.0","kowune8c","","<span style=""color:Black; font-size:50px;"">Agent A","null","","","","",""
"null","","","video-keyboard-response","357","1027217","0.0-357.0","kowune8c","","","null","","Agent A","scrambled","STIM_SET_5/1592289.bmp_pp92_L3_V1.0_veridical_freeview_isoTrue_Hflip_fps144.mp4",""
"null","","","html-keyboard-response","358","1028720","0.0-358.0","kowune8c","","<span style=""color:Black; font-size:50px;"">Agent B","null","","","","",""
"null","","","video-keyboard-response","359","1031787","0.0-359.0","kowune8c","","","null","","Agent B","veridical","STIM_SET_2_144/1592289.bmp_pp92_L3_V1.0_veridical_freeview_isoTrue_fps144.mp4",""
"","","","call-function","360","1031787","0.0-360.0","kowune8c","","","","","","","",""
"4674.535000000033","{""judgement"":0}","[0]","survey-likert","361","1036463","0.0-361.0","kowune8c","","","","","","","","1"
"2908.3300000000745","{""confidence"":2}","[0]","survey-likert","362","1039372","0.0-362.0","kowune8c","","","","","","","",""
"","","","call-function","363","1039373","0.0-363.0","kowune8c","","","","","","","",""
"null","","","html-keyboard-response","364","1040876","0.0-364.0","kowune8c","","<span style=""color:Black; font-size:50px;"">Agent A","null","","","","",""
"null","","","video-keyboard-response","365","1043967","0.0-365.0","kowune8c","","","null","","Agent A","scrambled","STIM_SET_5/1592201.bmp_pp97_L3_V1.0_veridical_freeview_isoTrue_Hflip_fps144.mp4",""
"null","","","html-keyboard-response","366","1045468","0.0-366.0","kowune8c","","<span style=""color:Black; font-size:50px;"">Agent B","null","","","","",""
"null","","","video-keyboard-response","367","1048550","0.0-367.0","kowune8c","","","null","","Agent B","veridical","STIM_SET_2_144/1592201.bmp_pp97_L3_V1.0_veridical_freeview_isoTrue_fps144.mp4",""
"","","","call-function","368","1048550","0.0-368.0","kowune8c","","","","","","","",""
"2722.3300000000745","{""judgement"":1}","[0]","survey-likert","369","1051274","0.0-369.0","kowune8c","","","","","","","","1"
"1694.6999999999534","{""confidence"":2}","[0]","survey-likert","370","1052969","0.0-370.0","kowune8c","","","","","","","",""
"","","","call-function","371","1052970","0.0-371.0","kowune8c","","","","","","","",""
"null","","","html-keyboard-response","372","1054474","0.0-372.0","kowune8c","","<span style=""color:Black; font-size:50px;"">Agent A","null","","","","",""
"null","","","video-keyboard-response","373","1057549","0.0-373.0","kowune8c","","","null","","Agent A","veridical","STIM_SET_2_144/1592951.bmp_pp80_L3_V1.0_veridical_freeview_isoTrue_fps144.mp4",""
"null","","","html-keyboard-response","374","1059051","0.0-374.0","kowune8c","","<span style=""color:Black; font-size:50px;"">Agent B","null","","","","",""
"null","","","video-keyboard-response","375","1062126","0.0-375.0","kowune8c","","","null","","Agent B","scrambled","STIM_SET_5/1592951.bmp_pp80_L3_V1.0_veridical_freeview_isoTrue_Hflip_fps144.mp4",""
"","","","call-function","376","1062127","0.0-376.0","kowune8c","","","","","","","",""
"3319.695000000065","{""judgement"":1}","[0]","survey-likert","377","1065447","0.0-377.0","kowune8c","","","","","","","","0"
"2383.3199999998324","{""confidence"":2}","[0]","survey-likert","378","1067832","0.0-378.0","kowune8c","","","","","","","",""
"","","","call-function","379","1067832","0.0-379.0","kowune8c","","","","","","","",""
"null","","","html-keyboard-response","380","1069338","0.0-380.0","kowune8c","","<span style=""color:Black; font-size:50px;"">Agent A","null","","","","",""
"null","","","video-keyboard-response","381","1072417","0.0-381.0","kowune8c","","","null","","Agent A","veridical","STIM_SET_2_144/1592298.bmp_pp56_L3_V1.0_veridical_freeview_isoTrue_fps144.mp4",""
"null","","","html-keyboard-response","382","1073923","0.0-382.0","kowune8c","","<span style=""color:Black; font-size:50px;"">Agent B","null","","","","",""
"null","","","video-keyboard-response","383","1077007","0.0-383.0","kowune8c","","","null","","Agent B","scrambled","STIM_SET_5/1592298.bmp_pp56_L3_V1.0_veridical_freeview_isoTrue_Hflip_fps144.mp4",""
"","","","call-function","384","1077007","0.0-384.0","kowune8c","","","","","","","",""
"2006.690000000177","{""judgement"":0}","[0]","survey-likert","385","1079015","0.0-385.0","kowune8c","","","","","","","","0"
"4051.0999999998603","{""confidence"":3}","[0]","survey-likert","386","1083067","0.0-386.0","kowune8c","","","","","","","",""
"","","","call-function","387","1083068","0.0-387.0","kowune8c","","","","","","","",""
"null","","","html-keyboard-response","388","1084575","0.0-388.0","kowune8c","","<span style=""color:Black; font-size:50px;"">Agent A","null","","","","",""
"null","","","video-keyboard-response","389","1087643","0.0-389.0","kowune8c","","","null","","Agent A","veridical","STIM_SET_2_144/1160189.bmp_pp64_L1_V1.0_veridical_freeview_isoTrue_fps144.mp4",""
"null","","","html-keyboard-response","390","1089145","0.0-390.0","kowune8c","","<span style=""color:Black; font-size:50px;"">Agent B","null","","","","",""
"null","","","video-keyboard-response","391","1092214","0.0-391.0","kowune8c","","","null","","Agent B","scrambled","STIM_SET_5/1160189.bmp_pp64_L1_V1.0_veridical_freeview_isoTrue_Hflip_fps144.mp4",""
"","","","call-function","392","1092214","0.0-392.0","kowune8c","","","","","","","",""
"3275.1650000000373","{""judgement"":1}","[0]","survey-likert","393","1095490","0.0-393.0","kowune8c","","","","","","","","0"
"2484.8950000000186","{""confidence"":1}","[0]","survey-likert","394","1097977","0.0-394.0","kowune8c","","","","","","","",""
"","","","call-function","395","1097977","0.0-395.0","kowune8c","","","","","","","",""
"null","","","html-keyboard-response","396","1099481","0.0-396.0","kowune8c","","<span style=""color:Black; font-size:50px;"">Agent A","null","","","","",""
"null","","","video-keyboard-response","397","1102541","0.0-397.0","kowune8c","","","null","","Agent A","scrambled","STIM_SET_5/1159860.bmp_pp152_L2_V1.0_veridical_freeview_isoTrue_Hflip_fps144.mp4",""
"null","","","html-keyboard-response","398","1104046","0.0-398.0","kowune8c","","<span style=""color:Black; font-size:50px;"">Agent B","null","","","","",""
"null","","","video-keyboard-response","399","1107107","0.0-399.0","kowune8c","","","null","","Agent B","veridical","STIM_SET_2_144/1159860.bmp_pp152_L2_V1.0_veridical_freeview_isoTrue_fps144.mp4",""
"","","","call-function","400","1107108","0.0-400.0","kowune8c","","","","","","","",""
"1621.3400000000838","{""judgement"":1}","[0]","survey-likert","401","1108731","0.0-401.0","kowune8c","","","","","","","","1"
"3786.2900000000373","{""confidence"":3}","[0]","survey-likert","402","1112519","0.0-402.0","kowune8c","","","","","","","",""
"","","","call-function","403","1112520","0.0-403.0","kowune8c","","","","","","","",""
"null","","","html-keyboard-response","404","1114023","0.0-404.0","kowune8c","","<span style=""color:Black; font-size:50px;"">Agent A","null","","","","",""
"null","","","video-keyboard-response","405","1117092","0.0-405.0","kowune8c","","","null","","Agent A","scrambled","STIM_SET_5/713274.bmp_pp73_L3_V1.0_veridical_freeview_isoTrue_Hflip_fps144.mp4",""
"null","","","html-keyboard-response","406","1118597","0.0-406.0","kowune8c","","<span style=""color:Black; font-size:50px;"">Agent B","null","","","","",""
"null","","","video-keyboard-response","407","1121668","0.0-407.0","kowune8c","","","null","","Agent B","veridical","STIM_SET_2_144/713274.bmp_pp73_L3_V1.0_veridical_freeview_isoTrue_fps144.mp4",""
"","","","call-function","408","1121668","0.0-408.0","kowune8c","","","","","","","",""
"3238.5800000000745","{""judgement"":0}","[0]","survey-likert","409","1124908","0.0-409.0","kowune8c","","","","","","","","1"
"2000.780000000028","{""confidence"":2}","[0]","survey-likert","410","1126911","0.0-410.0","kowune8c","","","","","","","",""
"","","","call-function","411","1126911","0.0-411.0","kowune8c","","","","","","","",""
"null","","","html-keyboard-response","412","1128414","0.0-412.0","kowune8c","","<span style=""color:Black; font-size:50px;"">Agent A","null","","","","",""
"null","","","video-keyboard-response","413","1131476","0.0-413.0","kowune8c","","","null","","Agent A","veridical","STIM_SET_2_144/1592314.bmp_pp100_L3_V1.0_veridical_freeview_isoTrue_fps144.mp4",""
"null","","","html-keyboard-response","414","1132979","0.0-414.0","kowune8c","","<span style=""color:Black; font-size:50px;"">Agent B","null","","","","",""
"null","","","video-keyboard-response","415","1136038","0.0-415.0","kowune8c","","","null","","Agent B","scrambled","STIM_SET_5/1592314.bmp_pp100_L3_V1.0_veridical_freeview_isoTrue_Hflip_fps144.mp4",""
"","","","call-function","416","1136038","0.0-416.0","kowune8c","","","","","","","",""
"1549.1750000000466","{""judgement"":1}","[0]","survey-likert","417","1137589","0.0-417.0","kowune8c","","","","","","","","0"
"1356.1650000000373","{""confidence"":3}","[0]","survey-likert","418","1138946","0.0-418.0","kowune8c","","","","","","","",""
"79194.05999999982","","","instructions","419","1218141","0.0-419.0","kowune8c","[{""page_index"":0,""viewing_time"":2606.8950000000186},{""page_index"":1,""viewing_time"":75131.83999999985},{""page_index"":2,""viewing_time"":1455.1149999999907}]","","","","","","",""
"17017.60999999987","","","instructions","420","1235159","0.0-420.0","kowune8c","[{""page_index"":0,""viewing_time"":1079.2999999998137},{""page_index"":1,""viewing_time"":15168.080000000075},{""page_index"":2,""viewing_time"":769.9650000000838}]","","","","","","",""
"","","","call-function","421","1235159","0.0-421.0","kowune8c","","","","","","","",""
"null","","","html-keyboard-response","422","1236662","0.0-422.0","kowune8c","","<span style=""color:Black; font-size:50px;"">Agent A","null","","","","",""
"null","","","video-keyboard-response","423","1239722","0.0-423.0","kowune8c","","","null","","Agent A","veridical","STIM_SET_2_144/1159392.bmp_pp96_L2_V1.0_veridical_freeview_isoTrue_fps144.mp4",""
"null","","","html-keyboard-response","424","1241224","0.0-424.0","kowune8c","","<span style=""color:Black; font-size:50px;"">Agent B","null","","","","",""
"null","","","video-keyboard-response","425","1244289","0.0-425.0","kowune8c","","","null","","Agent B","scrambled","STIM_SET_5/1159392.bmp_pp96_L2_V1.0_veridical_freeview_isoTrue_Hflip_fps144.mp4",""
"","","","call-function","426","1244289","0.0-426.0","kowune8c","","","","","","","",""
"2013.755000000121","{""judgement"":1}","[0]","survey-likert","427","1246304","0.0-427.0","kowune8c","","","","","","","","0"
"1742.2350000001024","{""confidence"":3}","[0]","survey-likert","428","1248047","0.0-428.0","kowune8c","","","","","","","",""
"","","","call-function","429","1248048","0.0-429.0","kowune8c","","","","","","","",""
"null","","","html-keyboard-response","430","1249554","0.0-430.0","kowune8c","","<span style=""color:Black; font-size:50px;"">Agent A","null","","","","",""
"null","","","video-keyboard-response","431","1252617","0.0-431.0","kowune8c","","","null","","Agent A","veridical","STIM_SET_2_144/498326.bmp_pp57_L1_V1.0_veridical_freeview_isoTrue_fps144.mp4",""
"null","","","html-keyboard-response","432","1254123","0.0-432.0","kowune8c","","<span style=""color:Black; font-size:50px;"">Agent B","null","","","","",""
"null","","","video-keyboard-response","433","1257184","0.0-433.0","kowune8c","","","null","","Agent B","scrambled","STIM_SET_5/498326.bmp_pp57_L1_V1.0_veridical_freeview_isoTrue_Hflip_fps144.mp4",""
"","","","call-function","434","1257184","0.0-434.0","kowune8c","","","","","","","",""
"3254.3249999999534","{""judgement"":0}","[0]","survey-likert","435","1260440","0.0-435.0","kowune8c","","","","","","","","0"
"1925.5100000000093","{""confidence"":3}","[0]","survey-likert","436","1262366","0.0-436.0","kowune8c","","","","","","","",""
"","","","call-function","437","1262367","0.0-437.0","kowune8c","","","","","","","",""
"null","","","html-keyboard-response","438","1263873","0.0-438.0","kowune8c","","<span style=""color:Black; font-size:50px;"">Agent A","null","","","","",""
"null","","","video-keyboard-response","439","1266961","0.0-439.0","kowune8c","","","null","","Agent A","veridical","STIM_SET_2_144/713328.bmp_pp86_L2_V1.0_veridical_freeview_isoTrue_fps144.mp4",""
"null","","","html-keyboard-response","440","1268468","0.0-440.0","kowune8c","","<span style=""color:Black; font-size:50px;"">Agent B","null","","","","",""
"null","","","video-keyboard-response","441","1271539","0.0-441.0","kowune8c","","","null","","Agent B","scrambled","STIM_SET_5/713328.bmp_pp86_L2_V1.0_veridical_freeview_isoTrue_Hflip_fps144.mp4",""
"","","","call-function","442","1271540","0.0-442.0","kowune8c","","","","","","","",""
"1654.4550000000745","{""judgement"":1}","[0]","survey-likert","443","1273195","0.0-443.0","kowune8c","","","","","","","","0"
"1860.1050000002142","{""confidence"":2}","[0]","survey-likert","444","1275057","0.0-444.0","kowune8c","","","","","","","",""
"","","","call-function","445","1275057","0.0-445.0","kowune8c","","","","","","","",""
"null","","","html-keyboard-response","446","1276560","0.0-446.0","kowune8c","","<span style=""color:Black; font-size:50px;"">Agent A","null","","","","",""
"null","","","video-keyboard-response","447","1279634","0.0-447.0","kowune8c","","","null","","Agent A","veridical","STIM_SET_2_144/1592047.bmp_pp51_L1_V1.0_veridical_freeview_isoTrue_fps144.mp4",""
"null","","","html-keyboard-response","448","1281136","0.0-448.0","kowune8c","","<span style=""color:Black; font-size:50px;"">Agent B","null","","","","",""
"null","","","video-keyboard-response","449","1284215","0.0-449.0","kowune8c","","","null","","Agent B","scrambled","STIM_SET_5/1592047.bmp_pp51_L1_V1.0_veridical_freeview_isoTrue_Hflip_fps144.mp4",""
"","","","call-function","450","1284215","0.0-450.0","kowune8c","","","","","","","",""
"4147.969999999972","{""judgement"":0}","[0]","survey-likert","451","1288364","0.0-451.0","kowune8c","","","","","","","","0"
"1311.9749999998603","{""confidence"":2}","[0]","survey-likert","452","1289677","0.0-452.0","kowune8c","","","","","","","",""
"","","","call-function","453","1289677","0.0-453.0","kowune8c","","","","","","","",""
"null","","","html-keyboard-response","454","1291183","0.0-454.0","kowune8c","","<span style=""color:Black; font-size:50px;"">Agent A","null","","","","",""
"null","","","video-keyboard-response","455","1294267","0.0-455.0","kowune8c","","","null","","Agent A","veridical","STIM_SET_2_144/713920.bmp_pp76_L1_V1.0_veridical_freeview_isoTrue_fps144.mp4",""
"null","","","html-keyboard-response","456","1295774","0.0-456.0","kowune8c","","<span style=""color:Black; font-size:50px;"">Agent B","null","","","","",""
"null","","","video-keyboard-response","457","1298857","0.0-457.0","kowune8c","","","null","","Agent B","scrambled","STIM_SET_5/713920.bmp_pp76_L1_V1.0_veridical_freeview_isoTrue_Hflip_fps144.mp4",""
"","","","call-function","458","1298857","0.0-458.0","kowune8c","","","","","","","",""
"1725.9799999999814","{""judgement"":0}","[0]","survey-likert","459","1300584","0.0-459.0","kowune8c","","","","","","","","0"
"1783.4550000000745","{""confidence"":3}","[0]","survey-likert","460","1302369","0.0-460.0","kowune8c","","","","","","","",""
"","","","call-function","461","1302370","0.0-461.0","kowune8c","","","","","","","",""
"null","","","html-keyboard-response","462","1303873","0.0-462.0","kowune8c","","<span style=""color:Black; font-size:50px;"">Agent A","null","","","","",""
"null","","","video-keyboard-response","463","1306932","0.0-463.0","kowune8c","","","null","","Agent A","scrambled","STIM_SET_5/1159427.bmp_pp98_L1_V1.0_veridical_freeview_isoTrue_Hflip_fps144.mp4",""
"null","","","html-keyboard-response","464","1308438","0.0-464.0","kowune8c","","<span style=""color:Black; font-size:50px;"">Agent B","null","","","","",""
"null","","","video-keyboard-response","465","1311501","0.0-465.0","kowune8c","","","null","","Agent B","veridical","STIM_SET_2_144/1159427.bmp_pp98_L1_V1.0_veridical_freeview_isoTrue_fps144.mp4",""
"","","","call-function","466","1311502","0.0-466.0","kowune8c","","","","","","","",""
"4326.925000000047","{""judgement"":1}","[0]","survey-likert","467","1315831","0.0-467.0","kowune8c","","","","","","","","1"
"1584.625","{""confidence"":3}","[0]","survey-likert","468","1317418","0.0-468.0","kowune8c","","","","","","","",""
"","","","call-function","469","1317419","0.0-469.0","kowune8c","","","","","","","",""
"null","","","html-keyboard-response","470","1318924","0.0-470.0","kowune8c","","<span style=""color:Black; font-size:50px;"">Agent A","null","","","","",""
"null","","","video-keyboard-response","471","1321987","0.0-471.0","kowune8c","","","null","","Agent A","veridical","STIM_SET_2_144/285932.bmp_pp64_L1_V1.0_veridical_freeview_isoTrue_fps144.mp4",""
"null","","","html-keyboard-response","472","1323490","0.0-472.0","kowune8c","","<span style=""color:Black; font-size:50px;"">Agent B","null","","","","",""
"null","","","video-keyboard-response","473","1326553","0.0-473.0","kowune8c","","","null","","Agent B","scrambled","STIM_SET_5/285932.bmp_pp64_L1_V1.0_veridical_freeview_isoTrue_Hflip_fps144.mp4",""
"","","","call-function","474","1326553","0.0-474.0","kowune8c","","","","","","","",""
"1715.6449999997858","{""judgement"":1}","[0]","survey-likert","475","1328270","0.0-475.0","kowune8c","","","","","","","","0"
"3305.1049999999814","{""confidence"":2}","[0]","survey-likert","476","1331576","0.0-476.0","kowune8c","","","","","","","",""
"","","","call-function","477","1331577","0.0-477.0","kowune8c","","","","","","","",""
"null","","","html-keyboard-response","478","1333083","0.0-478.0","kowune8c","","<span style=""color:Black; font-size:50px;"">Agent A","null","","","","",""
"null","","","video-keyboard-response","479","1336153","0.0-479.0","kowune8c","","","null","","Agent A","scrambled","STIM_SET_5/1592350.bmp_pp55_L3_V1.0_veridical_freeview_isoTrue_Hflip_fps144.mp4",""
"null","","","html-keyboard-response","480","1337660","0.0-480.0","kowune8c","","<span style=""color:Black; font-size:50px;"">Agent B","null","","","","",""
"null","","","video-keyboard-response","481","1340729","0.0-481.0","kowune8c","","","null","","Agent B","veridical","STIM_SET_2_144/1592350.bmp_pp55_L3_V1.0_veridical_freeview_isoTrue_fps144.mp4",""
"","","","call-function","482","1340730","0.0-482.0","kowune8c","","","","","","","",""
"2245.9850000001024","{""judgement"":1}","[0]","survey-likert","483","1342976","0.0-483.0","kowune8c","","","","","","","","1"
"1450.6450000000186","{""confidence"":2}","[0]","survey-likert","484","1344428","0.0-484.0","kowune8c","","","","","","","",""
"","","","call-function","485","1344429","0.0-485.0","kowune8c","","","","","","","",""
"null","","","html-keyboard-response","486","1345931","0.0-486.0","kowune8c","","<span style=""color:Black; font-size:50px;"">Agent A","null","","","","",""
"null","","","video-keyboard-response","487","1349024","0.0-487.0","kowune8c","","","null","","Agent A","scrambled","STIM_SET_5/150277.bmp_pp65_L3_V1.0_veridical_freeview_isoTrue_Hflip_fps144.mp4",""
"null","","","html-keyboard-response","488","1350528","0.0-488.0","kowune8c","","<span style=""color:Black; font-size:50px;"">Agent B","null","","","","",""
"null","","","video-keyboard-response","489","1353608","0.0-489.0","kowune8c","","","null","","Agent B","veridical","STIM_SET_2_144/150277.bmp_pp65_L3_V1.0_veridical_freeview_isoTrue_fps144.mp4",""
"","","","call-function","490","1353609","0.0-490.0","kowune8c","","","","","","","",""
"2550.024999999907","{""judgement"":1}","[0]","survey-likert","491","1356160","0.0-491.0","kowune8c","","","","","","","","1"
"1649.8149999999441","{""confidence"":3}","[0]","survey-likert","492","1357811","0.0-492.0","kowune8c","","","","","","","",""
"","","","call-function","493","1357811","0.0-493.0","kowune8c","","","","","","","",""
"null","","","html-keyboard-response","494","1359317","0.0-494.0","kowune8c","","<span style=""color:Black; font-size:50px;"">Agent A","null","","","","",""
"null","","","video-keyboard-response","495","1362391","0.0-495.0","kowune8c","","","null","","Agent A","veridical","STIM_SET_2_144/285684.bmp_pp80_L3_V1.0_veridical_freeview_isoTrue_fps144.mp4",""
"null","","","html-keyboard-response","496","1363896","0.0-496.0","kowune8c","","<span style=""color:Black; font-size:50px;"">Agent B","null","","","","",""
"null","","","video-keyboard-response","497","1366975","0.0-497.0","kowune8c","","","null","","Agent B","scrambled","STIM_SET_5/285684.bmp_pp80_L3_V1.0_veridical_freeview_isoTrue_Hflip_fps144.mp4",""
"","","","call-function","498","1366975","0.0-498.0","kowune8c","","","","","","","",""
"1920.6950000000652","{""judgement"":0}","[0]","survey-likert","499","1368897","0.0-499.0","kowune8c","","","","","","","","0"
"2293.2650000001304","{""confidence"":3}","[0]","survey-likert","500","1371191","0.0-500.0","kowune8c","","","","","","","",""
"217409.28000000003","","","instructions","501","1588601","0.0-501.0","kowune8c","[{""page_index"":0,""viewing_time"":215554.04000000004},{""page_index"":1,""viewing_time"":767.9150000000373},{""page_index"":2,""viewing_time"":1087.1149999999907}]","","","","","","",""
"4466.409999999916","","","instructions","502","1593068","0.0-502.0","kowune8c","[{""page_index"":0,""viewing_time"":1424.280000000028},{""page_index"":1,""viewing_time"":1974.0100000000093},{""page_index"":2,""viewing_time"":1068.0100000000093}]","","","","","","",""
"","","","call-function","503","1593069","0.0-503.0","kowune8c","","","","","","","",""
"null","","","html-keyboard-response","504","1594571","0.0-504.0","kowune8c","","<span style=""color:Black; font-size:50px;"">Agent A","null","","","","",""
"null","","","video-keyboard-response","505","1597632","0.0-505.0","kowune8c","","","null","","Agent A","veridical","STIM_SET_2_144/498398.bmp_pp81_L1_V1.0_veridical_freeview_isoTrue_fps144.mp4",""
"null","","","html-keyboard-response","506","1599134","0.0-506.0","kowune8c","","<span style=""color:Black; font-size:50px;"">Agent B","null","","","","",""
"null","","","video-keyboard-response","507","1602193","0.0-507.0","kowune8c","","","null","","Agent B","scrambled","STIM_SET_5/498398.bmp_pp81_L1_V1.0_veridical_freeview_isoTrue_Hflip_fps144.mp4",""
"","","","call-function","508","1602194","0.0-508.0","kowune8c","","","","","","","",""
"6168.524999999907","{""judgement"":0}","[0]","survey-likert","509","1608363","0.0-509.0","kowune8c","","","","","","","","0"
"1662.280000000028","{""confidence"":3}","[0]","survey-likert","510","1610026","0.0-510.0","kowune8c","","","","","","","",""
"","","","call-function","511","1610027","0.0-511.0","kowune8c","","","","","","","",""
"null","","","html-keyboard-response","512","1611528","0.0-512.0","kowune8c","","<span style=""color:Black; font-size:50px;"">Agent A","null","","","","",""
"null","","","video-keyboard-response","513","1614613","0.0-513.0","kowune8c","","","null","","Agent A","scrambled","STIM_SET_5/285946.bmp_pp79_L2_V1.0_veridical_freeview_isoTrue_Hflip_fps144.mp4",""
"null","","","html-keyboard-response","514","1616117","0.0-514.0","kowune8c","","<span style=""color:Black; font-size:50px;"">Agent B","null","","","","",""
"null","","","video-keyboard-response","515","1619214","0.0-515.0","kowune8c","","","null","","Agent B","veridical","STIM_SET_2_144/285946.bmp_pp79_L2_V1.0_veridical_freeview_isoTrue_fps144.mp4",""
"","","","call-function","516","1619215","0.0-516.0","kowune8c","","","","","","","",""
"2986.2050000000745","{""judgement"":1}","[0]","survey-likert","517","1622202","0.0-517.0","kowune8c","","","","","","","","1"
"1813.6999999999534","{""confidence"":3}","[0]","survey-likert","518","1624016","0.0-518.0","kowune8c","","","","","","","",""
"","","","call-function","519","1624017","0.0-519.0","kowune8c","","","","","","","",""
"null","","","html-keyboard-response","520","1625521","0.0-520.0","kowune8c","","<span style=""color:Black; font-size:50px;"">Agent A","null","","","","",""
"null","","","video-keyboard-response","521","1628609","0.0-521.0","kowune8c","","","null","","Agent A","veridical","STIM_SET_2_144/1591920.bmp_pp97_L3_V1_veridical_freeview_isoTrue_fps144.mp4",""
"null","","","html-keyboard-response","522","1630113","0.0-522.0","kowune8c","","<span style=""color:Black; font-size:50px;"">Agent B","null","","","","",""
"null","","","video-keyboard-response","523","1633187","0.0-523.0","kowune8c","","","null","","Agent B","scrambled","STIM_SET_5/1591920.bmp_pp97_L3_V1_veridical_freeview_isoTrue_Hflip_fps144.mp4",""
"","","","call-function","524","1633188","0.0-524.0","kowune8c","","","","","","","",""
"2952.2900000000373","{""judgement"":1}","[0]","survey-likert","525","1636142","0.0-525.0","kowune8c","","","","","","","","0"
"1986.4199999999255","{""confidence"":2}","[0]","survey-likert","526","1638130","0.0-526.0","kowune8c","","","","","","","",""
"","","","call-function","527","1638132","0.0-527.0","kowune8c","","","","","","","",""
"null","","","html-keyboard-response","528","1639634","0.0-528.0","kowune8c","","<span style=""color:Black; font-size:50px;"">Agent A","null","","","","",""
"null","","","video-keyboard-response","529","1642700","0.0-529.0","kowune8c","","","null","","Agent A","scrambled","STIM_SET_5/1592305.bmp_pp65_L3_V1.0_veridical_freeview_isoTrue_Hflip_fps144.mp4",""
"null","","","html-keyboard-response","530","1644204","0.0-530.0","kowune8c","","<span style=""color:Black; font-size:50px;"">Agent B","null","","","","",""
"null","","","video-keyboard-response","531","1647271","0.0-531.0","kowune8c","","","null","","Agent B","veridical","STIM_SET_2_144/1592305.bmp_pp65_L3_V1.0_veridical_freeview_isoTrue_fps144.mp4",""
"","","","call-function","532","1647271","0.0-532.0","kowune8c","","","","","","","",""
"2704.5800000000745","{""judgement"":0}","[0]","survey-likert","533","1649977","0.0-533.0","kowune8c","","","","","","","","1"
"2397.3649999999907","{""confidence"":1}","[0]","survey-likert","534","1652376","0.0-534.0","kowune8c","","","","","","","",""
"","","","call-function","535","1652376","0.0-535.0","kowune8c","","","","","","","",""
"null","","","html-keyboard-response","536","1653880","0.0-536.0","kowune8c","","<span style=""color:Black; font-size:50px;"">Agent A","null","","","","",""
"null","","","video-keyboard-response","537","1656940","0.0-537.0","kowune8c","","","null","","Agent A","scrambled","STIM_SET_5/1160049.bmp_pp53_L2_V1.0_veridical_freeview_isoTrue_Hflip_fps144.mp4",""
"null","","","html-keyboard-response","538","1658442","0.0-538.0","kowune8c","","<span style=""color:Black; font-size:50px;"">Agent B","null","","","","",""
"null","","","video-keyboard-response","539","1661503","0.0-539.0","kowune8c","","","null","","Agent B","veridical","STIM_SET_2_144/1160049.bmp_pp53_L2_V1.0_veridical_freeview_isoTrue_fps144.mp4",""
"","","","call-function","540","1661503","0.0-540.0","kowune8c","","","","","","","",""
"4910.25","{""judgement"":0}","[0]","survey-likert","541","1666415","0.0-541.0","kowune8c","","","","","","","","1"
"1951.4550000000745","{""confidence"":2}","[0]","survey-likert","542","1668367","0.0-542.0","kowune8c","","","","","","","",""
"","","","call-function","543","1668368","0.0-543.0","kowune8c","","","","","","","",""
"null","","","html-keyboard-response","544","1669873","0.0-544.0","kowune8c","","<span style=""color:Black; font-size:50px;"">Agent A","null","","","","",""
"null","","","video-keyboard-response","545","1672969","0.0-545.0","kowune8c","","","null","","Agent A","scrambled","STIM_SET_5/713770.bmp_pp89_L1_V1.0_veridical_freeview_isoTrue_Hflip_fps144.mp4",""
"null","","","html-keyboard-response","546","1674473","0.0-546.0","kowune8c","","<span style=""color:Black; font-size:50px;"">Agent B","null","","","","",""
"null","","","video-keyboard-response","547","1677561","0.0-547.0","kowune8c","","","null","","Agent B","veridical","STIM_SET_2_144/713770.bmp_pp89_L1_V1.0_veridical_freeview_isoTrue_fps144.mp4",""
"","","","call-function","548","1677561","0.0-548.0","kowune8c","","","","","","","",""
"2860.594999999972","{""judgement"":0}","[0]","survey-likert","549","1680423","0.0-549.0","kowune8c","","","","","","","","1"
"2101.570000000065","{""confidence"":2}","[0]","survey-likert","550","1682526","0.0-550.0","kowune8c","","","","","","","",""
"","","","call-function","551","1682526","0.0-551.0","kowune8c","","","","","","","",""
"null","","","html-keyboard-response","552","1684030","0.0-552.0","kowune8c","","<span style=""color:Black; font-size:50px;"">Agent A","null","","","","",""
"null","","","video-keyboard-response","553","1687112","0.0-553.0","kowune8c","","","null","","Agent A","veridical","STIM_SET_2_144/1592025.bmp_pp68_L1_V1.0_veridical_freeview_isoTrue_fps144.mp4",""
"null","","","html-keyboard-response","554","1688618","0.0-554.0","kowune8c","","<span style=""color:Black; font-size:50px;"">Agent B","null","","","","",""
"null","","","video-keyboard-response","555","1691699","0.0-555.0","kowune8c","","","null","","Agent B","scrambled","STIM_SET_5/1592025.bmp_pp68_L1_V1.0_veridical_freeview_isoTrue_Hflip_fps144.mp4",""
"","","","call-function","556","1691699","0.0-556.0","kowune8c","","","","","","","",""
"4128.340000000084","{""judgement"":0}","[0]","survey-likert","557","1695829","0.0-557.0","kowune8c","","","","","","","","0"
"1943.7999999998137","{""confidence"":2}","[0]","survey-likert","558","1697774","0.0-558.0","kowune8c","","","","","","","",""
"","","","call-function","559","1697774","0.0-559.0","kowune8c","","","","","","","",""
"null","","","html-keyboard-response","560","1699281","0.0-560.0","kowune8c","","<span style=""color:Black; font-size:50px;"">Agent A","null","","","","",""
"null","","","video-keyboard-response","561","1702364","0.0-561.0","kowune8c","","","null","","Agent A","veridical","STIM_SET_2_144/1592530.bmp_pp75_L1_V1.0_veridical_freeview_isoTrue_fps144.mp4",""
"null","","","html-keyboard-response","562","1703868","0.0-562.0","kowune8c","","<span style=""color:Black; font-size:50px;"">Agent B","null","","","","",""
"null","","","video-keyboard-response","563","1706935","0.0-563.0","kowune8c","","","null","","Agent B","scrambled","STIM_SET_5/1592530.bmp_pp75_L1_V1.0_veridical_freeview_isoTrue_Hflip_fps144.mp4",""
"","","","call-function","564","1706936","0.0-564.0","kowune8c","","","","","","","",""
"2022.3600000001024","{""judgement"":0}","[0]","survey-likert","565","1708960","0.0-565.0","kowune8c","","","","","","","","0"
"1338.9299999999348","{""confidence"":2}","[0]","survey-likert","566","1710300","0.0-566.0","kowune8c","","","","","","","",""
"","","","call-function","567","1710300","0.0-567.0","kowune8c","","","","","","","",""
"null","","","html-keyboard-response","568","1711804","0.0-568.0","kowune8c","","<span style=""color:Black; font-size:50px;"">Agent A","null","","","","",""
"null","","","video-keyboard-response","569","1714877","0.0-569.0","kowune8c","","","null","","Agent A","scrambled","STIM_SET_5/713633.bmp_pp58_L1_V1.0_veridical_freeview_isoTrue_Hflip_fps144.mp4",""
"null","","","html-keyboard-response","570","1716380","0.0-570.0","kowune8c","","<span style=""color:Black; font-size:50px;"">Agent B","null","","","","",""
"null","","","video-keyboard-response","571","1719468","0.0-571.0","kowune8c","","","null","","Agent B","veridical","STIM_SET_2_144/713633.bmp_pp58_L1_V1.0_veridical_freeview_isoTrue_fps144.mp4",""
"","","","call-function","572","1719469","0.0-572.0","kowune8c","","","","","","","",""
"4757.929999999935","{""judgement"":0}","[0]","survey-likert","573","1724228","0.0-573.0","kowune8c","","","","","","","","1"
"2289.9749999998603","{""confidence"":2}","[0]","survey-likert","574","1726519","0.0-574.0","kowune8c","","","","","","","",""
"","","","call-function","575","1726519","0.0-575.0","kowune8c","","","","","","","",""
"null","","","html-keyboard-response","576","1728024","0.0-576.0","kowune8c","","<span style=""color:Black; font-size:50px;"">Agent A","null","","","","",""
"null","","","video-keyboard-response","577","1731083","0.0-577.0","kowune8c","","","null","","Agent A","veridical","STIM_SET_2_144/1592150.bmp_pp77_L3_V1.0_veridical_freeview_isoTrue_fps144.mp4",""
"null","","","html-keyboard-response","578","1732585","0.0-578.0","kowune8c","","<span style=""color:Black; font-size:50px;"">Agent B","null","","","","",""
"null","","","video-keyboard-response","579","1735644","0.0-579.0","kowune8c","","","null","","Agent B","scrambled","STIM_SET_5/1592150.bmp_pp77_L3_V1.0_veridical_freeview_isoTrue_Hflip_fps144.mp4",""
"","","","call-function","580","1735646","0.0-580.0","kowune8c","","","","","","","",""
"4990.280000000028","{""judgement"":0}","[0]","survey-likert","581","1740638","0.0-581.0","kowune8c","","","","","","","","0"
"1581.5500000000466","{""confidence"":2}","[0]","survey-likert","582","1742223","0.0-582.0","kowune8c","","","","","","","",""
"2802.154999999795","","","instructions","583","1745026","0.0-583.0","kowune8c","[{""page_index"":0,""viewing_time"":2801.9449999998324}]","","","","","","",""
"4169.905000000028","","","instructions","584","1749196","0.0-584.0","kowune8c","[{""page_index"":0,""viewing_time"":4169.784999999916}]","","","","","","",""
"19657.949999999953","{""post-1"":2}","[0]","survey-likert","585","1768856","0.0-585.0","kowune8c","","","","","","","",""
"10580.344999999972","{""post-1"":0}","[0]","survey-likert","586","1779438","0.0-586.0","kowune8c","","","","","","","",""
"10740.830000000075","{""post-2"":3}","[0]","survey-likert","587","1790180","0.0-587.0","kowune8c","","","","","","","",""
"4659.735000000102","{""post-2"":1}","[0]","survey-likert","588","1794841","0.0-588.0","kowune8c","","","","","","","",""
"8458.534999999916","{""post-3"":2}","[0]","survey-likert","589","1803301","0.0-589.0","kowune8c","","","","","","","",""
"4705.719999999972","{""post-3"":1}","[0]","survey-likert","590","1808008","0.0-590.0","kowune8c","","","","","","","",""
"5208.280000000028","{""post-4"":3}","[0]","survey-likert","591","1813218","0.0-591.0","kowune8c","","","","","","","",""
"6959.23499999987","{""post-4"":1}","[0]","survey-likert","592","1820180","0.0-592.0","kowune8c","","","","","","","",""
"6800.560000000056","{""post-5"":1}","[0]","survey-likert","593","1826982","0.0-593.0","kowune8c","","","","","","","",""
"2594.630000000121","{""post-5"":1}","[0]","survey-likert","594","1829578","0.0-594.0","kowune8c","","","","","","","",""
"3659.9149999998044","{""Q0"":""""}","","survey-text","595","1833244","0.0-595.0","kowune8c","","","","","","","",""
"48571.820000000065","{""Q0"":""I would judge who I thought to be more human based ob how i perceive things and the ways that felt more natural to me.""}","","survey-text","596","1881819","0.0-596.0","kowune8c","","","","","","","",""
"54891.57499999995","{""Q0"":""Sometimes i found that the hotspots were both doing an action i would do which would confuse me in terms of what seemed more natural.""}","","survey-text","597","1936714","0.0-597.0","kowune8c","","","","","","","",""
"79298.34999999986","","","instructions","598","2016013","0.0-598.0","kowune8c","[{""page_index"":0,""viewing_time"":79297.80000000005}]","","","","","","",""
"188658.0049999999","{""Experimenter_end"":[""Printed ID# kowune8c on consent form"",""Given subject SONA credit or payment"",""Given the subject debrief form""]}","[0]","survey-multi-select","599","2204675","0.0-599.0","kowune8c","","","","","","","",""
