"rt","responses","question_order","trial_type","trial_index","time_elapsed","internal_node_id","ID","view_history","stimulus","key_press","value","agent","condition","image","correct_answer"
"10574.785","{""Experimenter"":[""Confirmed subject's identity"",""Confirmed normal or corrected-to-normal vision"",""Obtained consent (signature and date)"",""Checked the test room lighting"",""Checked computer screen lighting"",""Checked distance from screen to chin rest (50cm)"",""Cleaned and adjusted chin rest"",""Counterbalanced the order of the tasks"",""Opened the experiment in Firefox"",""Made the experiment full screen"",""Encouraged subject to silence phone, put away distractors, etc.""]}","[0]","survey-multi-select","0","10582","0.0-0.0","kp5vktju","","","","","","","",""
"1804190.66","","","instructions","1","1814776","0.0-1.0","kp5vktju","[{""page_index"":0,""viewing_time"":1804190.455}]","","","","","","",""
"8385.679999999935","{""Age"":5,""Sex"":1,""Gender"":1}","[0,1,2]","survey-likert","2","1823165","0.0-2.0","kp5vktju","","","","","","","",""
"13314.589999999851","","","instructions","3","1836480","0.0-3.0","kp5vktju","[{""page_index"":0,""viewing_time"":3787.6399999998976},{""page_index"":1,""viewing_time"":2552.8600000001024},{""page_index"":2,""viewing_time"":6973.969999999972}]","","","","","","",""
"4528.084999999963","","","instructions","4","1841008","0.0-4.0","kp5vktju","[{""page_index"":0,""viewing_time"":4527.979999999981}]","","","","","","",""
"null","","","video-keyboard-response","5","1844084","0.0-5.0","kp5vktju","","","null","","","","",""
"11787.764999999898","","","instructions","6","1855872","0.0-6.0","kp5vktju","[{""page_index"":0,""viewing_time"":3531.784999999916},{""page_index"":1,""viewing_time"":2163.8700000001118},{""page_index"":2,""viewing_time"":6092.004999999888}]","","","","","","",""
"2725.4749999998603","","","instructions","7","1858598","0.0-7.0","kp5vktju","[{""page_index"":0,""viewing_time"":2725.375}]","","","","","","",""
"1343.8500000000931","","","instructions","8","1859942","0.0-8.0","kp5vktju","[{""page_index"":0,""viewing_time"":1343.6350000000093}]","","","","","","",""
"null","","","video-keyboard-response","9","1863013","0.0-9.0","kp5vktju","","","null","","","","",""
"10728.054999999935","","","instructions","10","1873742","0.0-10.0","kp5vktju","[{""page_index"":0,""viewing_time"":2638.655000000028},{""page_index"":1,""viewing_time"":4763.725000000093},{""page_index"":2,""viewing_time"":3325.0399999998044}]","","","","","","",""
"3583.1999999999534","","","instructions","11","1877326","0.0-11.0","kp5vktju","[{""page_index"":0,""viewing_time"":3583.090000000084}]","","","","","","",""
"","","","call-function","12","1877327","0.0-12.0","kp5vktju","","","","","","","",""
"null","","","html-keyboard-response","13","1878830","0.0-13.0","kp5vktju","","<span style=""color:Black; font-size:50px;"">Agent A","null","","","","",""
"null","","","video-keyboard-response","14","1881586","0.0-14.0","kp5vktju","","","null","","Agent A","veridical","FOR_REV_MAP_BLOBBY_STIM/1592747.bmp_pp53_L2_V1.0_veridical_freeview_isoTrue_fps144.mp4",""
"null","","","html-keyboard-response","15","1883090","0.0-15.0","kp5vktju","","<span style=""color:Black; font-size:50px;"">Agent B","null","","","","",""
"null","","","video-keyboard-response","16","1885848","0.0-16.0","kp5vktju","","","null","","Agent B","scrambled","FOR_REV_MAP_BLOBBY_STIM/1592747.bmp_pp53_L2_V1.0_veridical_freeview_isoTrue_fps144_reversed_REAL.mp4",""
"","","","call-function","17","1885849","0.0-17.0","kp5vktju","","","","","","","",""
"2216.3199999998324","{""judgement"":0}","[0]","survey-likert","18","1888066","0.0-18.0","kp5vktju","","","","","","","","0"
"1877.7900000000373","{""confidence"":0}","[0]","survey-likert","19","1889945","0.0-19.0","kp5vktju","","","","","","","",""
"","","","call-function","20","1889945","0.0-20.0","kp5vktju","","","","","","","",""
"null","","","html-keyboard-response","21","1891451","0.0-21.0","kp5vktju","","<span style=""color:Black; font-size:50px;"">Agent A","null","","","","",""
"null","","","video-keyboard-response","22","1894217","0.0-22.0","kp5vktju","","","null","","Agent A","veridical","FOR_REV_MAP_BLOBBY_STIM/1592044.bmp_pp94_L2_V1.0_veridical_freeview_isoTrue_fps144.mp4",""
"null","","","html-keyboard-response","23","1895721","0.0-23.0","kp5vktju","","<span style=""color:Black; font-size:50px;"">Agent B","null","","","","",""
"null","","","video-keyboard-response","24","1898486","0.0-24.0","kp5vktju","","","null","","Agent B","scrambled","FOR_REV_MAP_BLOBBY_STIM/1592044.bmp_pp94_L2_V1.0_veridical_freeview_isoTrue_fps144_reversed_REAL.mp4",""
"","","","call-function","25","1898487","0.0-25.0","kp5vktju","","","","","","","",""
"2350.4599999999627","{""judgement"":1}","[0]","survey-likert","26","1900839","0.0-26.0","kp5vktju","","","","","","","","0"
"4762.739999999991","{""confidence"":0}","[0]","survey-likert","27","1905603","0.0-27.0","kp5vktju","","","","","","","",""
"","","","call-function","28","1905603","0.0-28.0","kp5vktju","","","","","","","",""
"null","","","html-keyboard-response","29","1907107","0.0-29.0","kp5vktju","","<span style=""color:Black; font-size:50px;"">Agent A","null","","","","",""
"null","","","video-keyboard-response","30","1909879","0.0-30.0","kp5vktju","","","null","","Agent A","scrambled","FOR_REV_MAP_BLOBBY_STIM/1592168.bmp_pp71_L1_V1.0_veridical_freeview_isoTrue_fps144_reversed_REAL.mp4",""
"null","","","html-keyboard-response","31","1911382","0.0-31.0","kp5vktju","","<span style=""color:Black; font-size:50px;"">Agent B","null","","","","",""
"null","","","video-keyboard-response","32","1914142","0.0-32.0","kp5vktju","","","null","","Agent B","veridical","FOR_REV_MAP_BLOBBY_STIM/1592168.bmp_pp71_L1_V1.0_veridical_freeview_isoTrue_fps144.mp4",""
"","","","call-function","33","1914142","0.0-33.0","kp5vktju","","","","","","","",""
"2027.8349999999627","{""judgement"":1}","[0]","survey-likert","34","1916171","0.0-34.0","kp5vktju","","","","","","","","1"
"1752.279999999795","{""confidence"":0}","[0]","survey-likert","35","1917924","0.0-35.0","kp5vktju","","","","","","","",""
"","","","call-function","36","1917924","0.0-36.0","kp5vktju","","","","","","","",""
"null","","","html-keyboard-response","37","1919427","0.0-37.0","kp5vktju","","<span style=""color:Black; font-size:50px;"">Agent A","null","","","","",""
"null","","","video-keyboard-response","38","1922236","0.0-38.0","kp5vktju","","","null","","Agent A","scrambled","FOR_REV_MAP_BLOBBY_STIM/713689.bmp_pp153_L3_V1.0_veridical_freeview_isoTrue_fps144_reversed_REAL.mp4",""
"null","","","html-keyboard-response","39","1923742","0.0-39.0","kp5vktju","","<span style=""color:Black; font-size:50px;"">Agent B","null","","","","",""
"null","","","video-keyboard-response","40","1926554","0.0-40.0","kp5vktju","","","null","","Agent B","veridical","FOR_REV_MAP_BLOBBY_STIM/713689.bmp_pp153_L3_V1.0_veridical_freeview_isoTrue_fps144.mp4",""
"","","","call-function","41","1926554","0.0-41.0","kp5vktju","","","","","","","",""
"3165.6099999998696","{""judgement"":0}","[0]","survey-likert","42","1929721","0.0-42.0","kp5vktju","","","","","","","","1"
"1978.5500000000466","{""confidence"":0}","[0]","survey-likert","43","1931700","0.0-43.0","kp5vktju","","","","","","","",""
"","","","call-function","44","1931701","0.0-44.0","kp5vktju","","","","","","","",""
"null","","","html-keyboard-response","45","1933205","0.0-45.0","kp5vktju","","<span style=""color:Black; font-size:50px;"">Agent A","null","","","","",""
"null","","","video-keyboard-response","46","1936011","0.0-46.0","kp5vktju","","","null","","Agent A","veridical","FOR_REV_MAP_BLOBBY_STIM/1592305.bmp_pp65_L3_V1.0_veridical_freeview_isoTrue_fps144.mp4",""
"null","","","html-keyboard-response","47","1937515","0.0-47.0","kp5vktju","","<span style=""color:Black; font-size:50px;"">Agent B","null","","","","",""
"null","","","video-keyboard-response","48","1940324","0.0-48.0","kp5vktju","","","null","","Agent B","scrambled","FOR_REV_MAP_BLOBBY_STIM/1592305.bmp_pp65_L3_V1.0_veridical_freeview_isoTrue_fps144_reversed_REAL.mp4",""
"","","","call-function","49","1940324","0.0-49.0","kp5vktju","","","","","","","",""
"1912.25","{""judgement"":0}","[0]","survey-likert","50","1942237","0.0-50.0","kp5vktju","","","","","","","","0"
"1654.8649999999907","{""confidence"":1}","[0]","survey-likert","51","1943893","0.0-51.0","kp5vktju","","","","","","","",""
"","","","call-function","52","1943894","0.0-52.0","kp5vktju","","","","","","","",""
"null","","","html-keyboard-response","53","1945400","0.0-53.0","kp5vktju","","<span style=""color:Black; font-size:50px;"">Agent A","null","","","","",""
"null","","","video-keyboard-response","54","1948167","0.0-54.0","kp5vktju","","","null","","Agent A","veridical","FOR_REV_MAP_BLOBBY_STIM/1159860.bmp_pp152_L2_V1.0_veridical_freeview_isoTrue_fps144.mp4",""
"null","","","html-keyboard-response","55","1949671","0.0-55.0","kp5vktju","","<span style=""color:Black; font-size:50px;"">Agent B","null","","","","",""
"null","","","video-keyboard-response","56","1952440","0.0-56.0","kp5vktju","","","null","","Agent B","scrambled","FOR_REV_MAP_BLOBBY_STIM/1159860.bmp_pp152_L2_V1.0_veridical_freeview_isoTrue_fps144_reversed_REAL.mp4",""
"","","","call-function","57","1952440","0.0-57.0","kp5vktju","","","","","","","",""
"2381.494999999879","{""judgement"":1}","[0]","survey-likert","58","1954822","0.0-58.0","kp5vktju","","","","","","","","0"
"2180.945000000065","{""confidence"":0}","[0]","survey-likert","59","1957004","0.0-59.0","kp5vktju","","","","","","","",""
"","","","call-function","60","1957005","0.0-60.0","kp5vktju","","","","","","","",""
"null","","","html-keyboard-response","61","1958509","0.0-61.0","kp5vktju","","<span style=""color:Black; font-size:50px;"">Agent A","null","","","","",""
"null","","","video-keyboard-response","62","1961324","0.0-62.0","kp5vktju","","","null","","Agent A","scrambled","FOR_REV_MAP_BLOBBY_STIM/1592857.bmp_pp52_L1_V1.0_veridical_freeview_isoTrue_fps144_reversed_REAL.mp4",""
"null","","","html-keyboard-response","63","1962827","0.0-63.0","kp5vktju","","<span style=""color:Black; font-size:50px;"">Agent B","null","","","","",""
"null","","","video-keyboard-response","64","1965647","0.0-64.0","kp5vktju","","","null","","Agent B","veridical","FOR_REV_MAP_BLOBBY_STIM/1592857.bmp_pp52_L1_V1.0_veridical_freeview_isoTrue_fps144.mp4",""
"","","","call-function","65","1965647","0.0-65.0","kp5vktju","","","","","","","",""
"2175.054999999935","{""judgement"":1}","[0]","survey-likert","66","1967823","0.0-66.0","kp5vktju","","","","","","","","1"
"2630.1099999998696","{""confidence"":1}","[0]","survey-likert","67","1970455","0.0-67.0","kp5vktju","","","","","","","",""
"","","","call-function","68","1970456","0.0-68.0","kp5vktju","","","","","","","",""
"null","","","html-keyboard-response","69","1971956","0.0-69.0","kp5vktju","","<span style=""color:Black; font-size:50px;"">Agent A","null","","","","",""
"null","","","video-keyboard-response","70","1974740","0.0-70.0","kp5vktju","","","null","","Agent A","veridical","FOR_REV_MAP_BLOBBY_STIM/150463.bmp_pp55_L3_V1.0_veridical_freeview_isoTrue_fps144.mp4",""
"null","","","html-keyboard-response","71","1976242","0.0-71.0","kp5vktju","","<span style=""color:Black; font-size:50px;"">Agent B","null","","","","",""
"null","","","video-keyboard-response","72","1979028","0.0-72.0","kp5vktju","","","null","","Agent B","scrambled","FOR_REV_MAP_BLOBBY_STIM/150463.bmp_pp55_L3_V1.0_veridical_freeview_isoTrue_fps144_reversed_REAL.mp4",""
"","","","call-function","73","1979028","0.0-73.0","kp5vktju","","","","","","","",""
"5972.48499999987","{""judgement"":1}","[0]","survey-likert","74","1985002","0.0-74.0","kp5vktju","","","","","","","","0"
"2538.0749999999534","{""confidence"":0}","[0]","survey-likert","75","1987542","0.0-75.0","kp5vktju","","","","","","","",""
"","","","call-function","76","1987543","0.0-76.0","kp5vktju","","","","","","","",""
"null","","","html-keyboard-response","77","1989045","0.0-77.0","kp5vktju","","<span style=""color:Black; font-size:50px;"">Agent A","null","","","","",""
"null","","","video-keyboard-response","78","1991970","0.0-78.0","kp5vktju","","","null","","Agent A","veridical","FOR_REV_MAP_BLOBBY_STIM/1592568.bmp_pp71_L1_V1.0_veridical_freeview_isoTrue_fps144.mp4",""
"null","","","html-keyboard-response","79","1993473","0.0-79.0","kp5vktju","","<span style=""color:Black; font-size:50px;"">Agent B","null","","","","",""
"null","","","video-keyboard-response","80","1996393","0.0-80.0","kp5vktju","","","null","","Agent B","scrambled","FOR_REV_MAP_BLOBBY_STIM/1592568.bmp_pp71_L1_V1.0_veridical_freeview_isoTrue_fps144_reversed_REAL.mp4",""
"","","","call-function","81","1996394","0.0-81.0","kp5vktju","","","","","","","",""
"2243.3349999999627","{""judgement"":0}","[0]","survey-likert","82","1998638","0.0-82.0","kp5vktju","","","","","","","","0"
"1690.4399999999441","{""confidence"":2}","[0]","survey-likert","83","2000330","0.0-83.0","kp5vktju","","","","","","","",""
"","","","call-function","84","2000330","0.0-84.0","kp5vktju","","","","","","","",""
"null","","","html-keyboard-response","85","2001833","0.0-85.0","kp5vktju","","<span style=""color:Black; font-size:50px;"">Agent A","null","","","","",""
"null","","","video-keyboard-response","86","2004589","0.0-86.0","kp5vktju","","","null","","Agent A","veridical","FOR_REV_MAP_BLOBBY_STIM/1592298.bmp_pp56_L3_V1.0_veridical_freeview_isoTrue_fps144.mp4",""
"null","","","html-keyboard-response","87","2006092","0.0-87.0","kp5vktju","","<span style=""color:Black; font-size:50px;"">Agent B","null","","","","",""
"null","","","video-keyboard-response","88","2008848","0.0-88.0","kp5vktju","","","null","","Agent B","scrambled","FOR_REV_MAP_BLOBBY_STIM/1592298.bmp_pp56_L3_V1.0_veridical_freeview_isoTrue_fps144_reversed_REAL.mp4",""
"","","","call-function","89","2008849","0.0-89.0","kp5vktju","","","","","","","",""
"1920.059999999823","{""judgement"":0}","[0]","survey-likert","90","2010770","0.0-90.0","kp5vktju","","","","","","","","0"
"1921.7150000000838","{""confidence"":1}","[0]","survey-likert","91","2012692","0.0-91.0","kp5vktju","","","","","","","",""
"115369.45500000007","","","instructions","92","2128063","0.0-92.0","kp5vktju","[{""page_index"":0,""viewing_time"":113975.24500000011},{""page_index"":1,""viewing_time"":886.4700000002049},{""page_index"":2,""viewing_time"":507.53499999968335}]","","","","","","",""
"1646.4950000001118","","","instructions","93","2129710","0.0-93.0","kp5vktju","[{""page_index"":0,""viewing_time"":519.2900000000373},{""page_index"":1,""viewing_time"":490.1450000000186},{""page_index"":2,""viewing_time"":636.839999999851}]","","","","","","",""
"","","","call-function","94","2129710","0.0-94.0","kp5vktju","","","","","","","",""
"null","","","html-keyboard-response","95","2131212","0.0-95.0","kp5vktju","","<span style=""color:Black; font-size:50px;"">Agent A","null","","","","",""
"null","","","video-keyboard-response","96","2134027","0.0-96.0","kp5vktju","","","null","","Agent A","scrambled","FOR_REV_MAP_BLOBBY_STIM/1592025.bmp_pp68_L1_V1.0_veridical_freeview_isoTrue_fps144_reversed_REAL.mp4",""
"null","","","html-keyboard-response","97","2135530","0.0-97.0","kp5vktju","","<span style=""color:Black; font-size:50px;"">Agent B","null","","","","",""
"null","","","video-keyboard-response","98","2138347","0.0-98.0","kp5vktju","","","null","","Agent B","veridical","FOR_REV_MAP_BLOBBY_STIM/1592025.bmp_pp68_L1_V1.0_veridical_freeview_isoTrue_fps144.mp4",""
"","","","call-function","99","2138347","0.0-99.0","kp5vktju","","","","","","","",""
"1897.1299999998882","{""judgement"":1}","[0]","survey-likert","100","2140245","0.0-100.0","kp5vktju","","","","","","","","1"
"2001.1699999999255","{""confidence"":1}","[0]","survey-likert","101","2142247","0.0-101.0","kp5vktju","","","","","","","",""
"","","","call-function","102","2142248","0.0-102.0","kp5vktju","","","","","","","",""
"null","","","html-keyboard-response","103","2143752","0.0-103.0","kp5vktju","","<span style=""color:Black; font-size:50px;"">Agent A","null","","","","",""
"null","","","video-keyboard-response","104","2146519","0.0-104.0","kp5vktju","","","null","","Agent A","scrambled","FOR_REV_MAP_BLOBBY_STIM/1160049.bmp_pp53_L2_V1.0_veridical_freeview_isoTrue_fps144_reversed_REAL.mp4",""
"null","","","html-keyboard-response","105","2148021","0.0-105.0","kp5vktju","","<span style=""color:Black; font-size:50px;"">Agent B","null","","","","",""
"null","","","video-keyboard-response","106","2150790","0.0-106.0","kp5vktju","","","null","","Agent B","veridical","FOR_REV_MAP_BLOBBY_STIM/1160049.bmp_pp53_L2_V1.0_veridical_freeview_isoTrue_fps144.mp4",""
"","","","call-function","107","2150791","0.0-107.0","kp5vktju","","","","","","","",""
"2634.814999999944","{""judgement"":1}","[0]","survey-likert","108","2153427","0.0-108.0","kp5vktju","","","","","","","","1"
"1950.0049999998882","{""confidence"":0}","[0]","survey-likert","109","2155378","0.0-109.0","kp5vktju","","","","","","","",""
"","","","call-function","110","2155378","0.0-110.0","kp5vktju","","","","","","","",""
"null","","","html-keyboard-response","111","2156880","0.0-111.0","kp5vktju","","<span style=""color:Black; font-size:50px;"">Agent A","null","","","","",""
"null","","","video-keyboard-response","112","2159631","0.0-112.0","kp5vktju","","","null","","Agent A","scrambled","FOR_REV_MAP_BLOBBY_STIM/285959.bmp_pp93_L1_V1.0_veridical_freeview_isoTrue_fps144_reversed_REAL.mp4",""
"null","","","html-keyboard-response","113","2161133","0.0-113.0","kp5vktju","","<span style=""color:Black; font-size:50px;"">Agent B","null","","","","",""
"null","","","video-keyboard-response","114","2163875","0.0-114.0","kp5vktju","","","null","","Agent B","veridical","FOR_REV_MAP_BLOBBY_STIM/285959.bmp_pp93_L1_V1.0_veridical_freeview_isoTrue_fps144.mp4",""
"","","","call-function","115","2163875","0.0-115.0","kp5vktju","","","","","","","",""
"2230.3950000000186","{""judgement"":0}","[0]","survey-likert","116","2166107","0.0-116.0","kp5vktju","","","","","","","","1"
"1654.5849999999627","{""confidence"":1}","[0]","survey-likert","117","2167762","0.0-117.0","kp5vktju","","","","","","","",""
"","","","call-function","118","2167763","0.0-118.0","kp5vktju","","","","","","","",""
"null","","","html-keyboard-response","119","2169265","0.0-119.0","kp5vktju","","<span style=""color:Black; font-size:50px;"">Agent A","null","","","","",""
"null","","","video-keyboard-response","120","2171972","0.0-120.0","kp5vktju","","","null","","Agent A","scrambled","FOR_REV_MAP_BLOBBY_STIM/1592350.bmp_pp55_L3_V1.0_veridical_freeview_isoTrue_fps144_reversed_REAL.mp4",""
"null","","","html-keyboard-response","121","2173474","0.0-121.0","kp5vktju","","<span style=""color:Black; font-size:50px;"">Agent B","null","","","","",""
"null","","","video-keyboard-response","122","2176159","0.0-122.0","kp5vktju","","","null","","Agent B","veridical","FOR_REV_MAP_BLOBBY_STIM/1592350.bmp_pp55_L3_V1.0_veridical_freeview_isoTrue_fps144.mp4",""
"","","","call-function","123","2176160","0.0-123.0","kp5vktju","","","","","","","",""
"1825.279999999795","{""judgement"":0}","[0]","survey-likert","124","2177986","0.0-124.0","kp5vktju","","","","","","","","1"
"1332.8999999999069","{""confidence"":0}","[0]","survey-likert","125","2179320","0.0-125.0","kp5vktju","","","","","","","",""
"","","","call-function","126","2179321","0.0-126.0","kp5vktju","","","","","","","",""
"null","","","html-keyboard-response","127","2180823","0.0-127.0","kp5vktju","","<span style=""color:Black; font-size:50px;"">Agent A","null","","","","",""
"null","","","video-keyboard-response","128","2182701","0.0-128.0","kp5vktju","","","null","","Agent A","scrambled","FOR_REV_MAP_BLOBBY_STIM/285946.bmp_pp79_L2_V1.0_veridical_freeview_isoTrue_fps144_reversed_REAL.mp4",""
"null","","","html-keyboard-response","129","2184204","0.0-129.0","kp5vktju","","<span style=""color:Black; font-size:50px;"">Agent B","null","","","","",""
"null","","","video-keyboard-response","130","2186082","0.0-130.0","kp5vktju","","","null","","Agent B","veridical","FOR_REV_MAP_BLOBBY_STIM/285946.bmp_pp79_L2_V1.0_veridical_freeview_isoTrue_fps144.mp4",""
"","","","call-function","131","2186083","0.0-131.0","kp5vktju","","","","","","","",""
"1957.9699999997392","{""judgement"":0}","[0]","survey-likert","132","2188042","0.0-132.0","kp5vktju","","","","","","","","1"
"1466.5149999996647","{""confidence"":0}","[0]","survey-likert","133","2189510","0.0-133.0","kp5vktju","","","","","","","",""
"","","","call-function","134","2189510","0.0-134.0","kp5vktju","","","","","","","",""
"null","","","html-keyboard-response","135","2191012","0.0-135.0","kp5vktju","","<span style=""color:Black; font-size:50px;"">Agent A","null","","","","",""
"null","","","video-keyboard-response","136","2193786","0.0-136.0","kp5vktju","","","null","","Agent A","veridical","FOR_REV_MAP_BLOBBY_STIM/498372.bmp_pp95_L2_V1.0_veridical_freeview_isoTrue_fps144.mp4",""
"null","","","html-keyboard-response","137","2195291","0.0-137.0","kp5vktju","","<span style=""color:Black; font-size:50px;"">Agent B","null","","","","",""
"null","","","video-keyboard-response","138","2198082","0.0-138.0","kp5vktju","","","null","","Agent B","scrambled","FOR_REV_MAP_BLOBBY_STIM/498372.bmp_pp95_L2_V1.0_veridical_freeview_isoTrue_fps144_reversed_REAL.mp4",""
"","","","call-function","139","2198082","0.0-139.0","kp5vktju","","","","","","","",""
"2135.875","{""judgement"":1}","[0]","survey-likert","140","2200219","0.0-140.0","kp5vktju","","","","","","","","0"
"2241.7050000000745","{""confidence"":0}","[0]","survey-likert","141","2202461","0.0-141.0","kp5vktju","","","","","","","",""
"","","","call-function","142","2202462","0.0-142.0","kp5vktju","","","","","","","",""
"null","","","html-keyboard-response","143","2203966","0.0-143.0","kp5vktju","","<span style=""color:Black; font-size:50px;"">Agent A","null","","","","",""
"null","","","video-keyboard-response","144","2206734","0.0-144.0","kp5vktju","","","null","","Agent A","scrambled","FOR_REV_MAP_BLOBBY_STIM/713328.bmp_pp86_L2_V1.0_veridical_freeview_isoTrue_fps144_reversed_REAL.mp4",""
"null","","","html-keyboard-response","145","2208239","0.0-145.0","kp5vktju","","<span style=""color:Black; font-size:50px;"">Agent B","null","","","","",""
"null","","","video-keyboard-response","146","2211007","0.0-146.0","kp5vktju","","","null","","Agent B","veridical","FOR_REV_MAP_BLOBBY_STIM/713328.bmp_pp86_L2_V1.0_veridical_freeview_isoTrue_fps144.mp4",""
"","","","call-function","147","2211008","0.0-147.0","kp5vktju","","","","","","","",""
"1920.9500000001863","{""judgement"":0}","[0]","survey-likert","148","2212930","0.0-148.0","kp5vktju","","","","","","","","1"
"4489.995000000112","{""confidence"":0}","[0]","survey-likert","149","2217421","0.0-149.0","kp5vktju","","","","","","","",""
"","","","call-function","150","2217421","0.0-150.0","kp5vktju","","","","","","","",""
"null","","","html-keyboard-response","151","2218925","0.0-151.0","kp5vktju","","<span style=""color:Black; font-size:50px;"">Agent A","null","","","","",""
"null","","","video-keyboard-response","152","2221854","0.0-152.0","kp5vktju","","","null","","Agent A","scrambled","FOR_REV_MAP_BLOBBY_STIM/498025.bmp_pp81_L1_V1.0_veridical_freeview_isoTrue_fps144_reversed_REAL.mp4",""
"null","","","html-keyboard-response","153","2223358","0.0-153.0","kp5vktju","","<span style=""color:Black; font-size:50px;"">Agent B","null","","","","",""
"null","","","video-keyboard-response","154","2226284","0.0-154.0","kp5vktju","","","null","","Agent B","veridical","FOR_REV_MAP_BLOBBY_STIM/498025.bmp_pp81_L1_V1.0_veridical_freeview_isoTrue_fps144.mp4",""
"","","","call-function","155","2226285","0.0-155.0","kp5vktju","","","","","","","",""
"3025.2050000000745","{""judgement"":1}","[0]","survey-likert","156","2229311","0.0-156.0","kp5vktju","","","","","","","","1"
"2122.0150000001304","{""confidence"":1}","[0]","survey-likert","157","2231434","0.0-157.0","kp5vktju","","","","","","","",""
"","","","call-function","158","2231435","0.0-158.0","kp5vktju","","","","","","","",""
"null","","","html-keyboard-response","159","2232937","0.0-159.0","kp5vktju","","<span style=""color:Black; font-size:50px;"">Agent A","null","","","","",""
"null","","","video-keyboard-response","160","2235709","0.0-160.0","kp5vktju","","","null","","Agent A","veridical","FOR_REV_MAP_BLOBBY_STIM/1159325.bmp_pp67_L2_V1.0_veridical_freeview_isoTrue_fps144.mp4",""
"null","","","html-keyboard-response","161","2237211","0.0-161.0","kp5vktju","","<span style=""color:Black; font-size:50px;"">Agent B","null","","","","",""
"null","","","video-keyboard-response","162","2239963","0.0-162.0","kp5vktju","","","null","","Agent B","scrambled","FOR_REV_MAP_BLOBBY_STIM/1159325.bmp_pp67_L2_V1.0_veridical_freeview_isoTrue_fps144_reversed_REAL.mp4",""
"","","","call-function","163","2239964","0.0-163.0","kp5vktju","","","","","","","",""
"2477.9199999999255","{""judgement"":0}","[0]","survey-likert","164","2242443","0.0-164.0","kp5vktju","","","","","","","","0"
"2886.2349999998696","{""confidence"":1}","[0]","survey-likert","165","2245330","0.0-165.0","kp5vktju","","","","","","","",""
"","","","call-function","166","2245330","0.0-166.0","kp5vktju","","","","","","","",""
"null","","","html-keyboard-response","167","2246832","0.0-167.0","kp5vktju","","<span style=""color:Black; font-size:50px;"">Agent A","null","","","","",""
"null","","","video-keyboard-response","168","2249592","0.0-168.0","kp5vktju","","","null","","Agent A","veridical","FOR_REV_MAP_BLOBBY_STIM/285684.bmp_pp80_L3_V1.0_veridical_freeview_isoTrue_fps144.mp4",""
"null","","","html-keyboard-response","169","2251093","0.0-169.0","kp5vktju","","<span style=""color:Black; font-size:50px;"">Agent B","null","","","","",""
"null","","","video-keyboard-response","170","2253854","0.0-170.0","kp5vktju","","","null","","Agent B","scrambled","FOR_REV_MAP_BLOBBY_STIM/285684.bmp_pp80_L3_V1.0_veridical_freeview_isoTrue_fps144_reversed_REAL.mp4",""
"","","","call-function","171","2253854","0.0-171.0","kp5vktju","","","","","","","",""
"2027.9799999999814","{""judgement"":0}","[0]","survey-likert","172","2255883","0.0-172.0","kp5vktju","","","","","","","","0"
"2111.310000000056","{""confidence"":0}","[0]","survey-likert","173","2257997","0.0-173.0","kp5vktju","","","","","","","",""
"254478.7749999999","","","instructions","174","2512477","0.0-174.0","kp5vktju","[{""page_index"":0,""viewing_time"":253313.625},{""page_index"":1,""viewing_time"":810.875},{""page_index"":2,""viewing_time"":354.1099999998696}]","","","","","","",""
"1349.75","","","instructions","175","2513828","0.0-175.0","kp5vktju","[{""page_index"":0,""viewing_time"":403.73999999975786},{""page_index"":1,""viewing_time"":460.820000000298},{""page_index"":2,""viewing_time"":485.089999999851}]","","","","","","",""
"","","","call-function","176","2513829","0.0-176.0","kp5vktju","","","","","","","",""
"null","","","html-keyboard-response","177","2515331","0.0-177.0","kp5vktju","","<span style=""color:Black; font-size:50px;"">Agent A","null","","","","",""
"null","","","video-keyboard-response","178","2518181","0.0-178.0","kp5vktju","","","null","","Agent A","scrambled","FOR_REV_MAP_BLOBBY_STIM/1592201.bmp_pp97_L3_V1.0_veridical_freeview_isoTrue_fps144_reversed_REAL.mp4",""
"null","","","html-keyboard-response","179","2519683","0.0-179.0","kp5vktju","","<span style=""color:Black; font-size:50px;"">Agent B","null","","","","",""
"null","","","video-keyboard-response","180","2522531","0.0-180.0","kp5vktju","","","null","","Agent B","veridical","FOR_REV_MAP_BLOBBY_STIM/1592201.bmp_pp97_L3_V1.0_veridical_freeview_isoTrue_fps144.mp4",""
"","","","call-function","181","2522531","0.0-181.0","kp5vktju","","","","","","","",""
"1774.6550000002608","{""judgement"":1}","[0]","survey-likert","182","2524307","0.0-182.0","kp5vktju","","","","","","","","1"
"1541.304999999702","{""confidence"":1}","[0]","survey-likert","183","2525849","0.0-183.0","kp5vktju","","","","","","","",""
"","","","call-function","184","2525850","0.0-184.0","kp5vktju","","","","","","","",""
"null","","","html-keyboard-response","185","2527356","0.0-185.0","kp5vktju","","<span style=""color:Black; font-size:50px;"">Agent A","null","","","","",""
"null","","","video-keyboard-response","186","2530147","0.0-186.0","kp5vktju","","","null","","Agent A","scrambled","FOR_REV_MAP_BLOBBY_STIM/1159392.bmp_pp96_L2_V1.0_veridical_freeview_isoTrue_fps144_reversed_REAL.mp4",""
"null","","","html-keyboard-response","187","2531654","0.0-187.0","kp5vktju","","<span style=""color:Black; font-size:50px;"">Agent B","null","","","","",""
"null","","","video-keyboard-response","188","2534443","0.0-188.0","kp5vktju","","","null","","Agent B","veridical","FOR_REV_MAP_BLOBBY_STIM/1159392.bmp_pp96_L2_V1.0_veridical_freeview_isoTrue_fps144.mp4",""
"","","","call-function","189","2534443","0.0-189.0","kp5vktju","","","","","","","",""
"2002.6899999999441","{""judgement"":1}","[0]","survey-likert","190","2536447","0.0-190.0","kp5vktju","","","","","","","","1"
"1864.0100000002421","{""confidence"":1}","[0]","survey-likert","191","2538312","0.0-191.0","kp5vktju","","","","","","","",""
"","","","call-function","192","2538312","0.0-192.0","kp5vktju","","","","","","","",""
"null","","","html-keyboard-response","193","2539814","0.0-193.0","kp5vktju","","<span style=""color:Black; font-size:50px;"">Agent A","null","","","","",""
"null","","","video-keyboard-response","194","2542255","0.0-194.0","kp5vktju","","","null","","Agent A","veridical","FOR_REV_MAP_BLOBBY_STIM/1592951.bmp_pp80_L3_V1.0_veridical_freeview_isoTrue_fps144.mp4",""
"null","","","html-keyboard-response","195","2543758","0.0-195.0","kp5vktju","","<span style=""color:Black; font-size:50px;"">Agent B","null","","","","",""
"null","","","video-keyboard-response","196","2546188","0.0-196.0","kp5vktju","","","null","","Agent B","scrambled","FOR_REV_MAP_BLOBBY_STIM/1592951.bmp_pp80_L3_V1.0_veridical_freeview_isoTrue_fps144_reversed_REAL.mp4",""
"","","","call-function","197","2546189","0.0-197.0","kp5vktju","","","","","","","",""
"1468.595000000205","{""judgement"":1}","[0]","survey-likert","198","2547658","0.0-198.0","kp5vktju","","","","","","","","0"
"1367.5300000002608","{""confidence"":1}","[0]","survey-likert","199","2549027","0.0-199.0","kp5vktju","","","","","","","",""
"","","","call-function","200","2549027","0.0-200.0","kp5vktju","","","","","","","",""
"null","","","html-keyboard-response","201","2550529","0.0-201.0","kp5vktju","","<span style=""color:Black; font-size:50px;"">Agent A","null","","","","",""
"null","","","video-keyboard-response","202","2552633","0.0-202.0","kp5vktju","","","null","","Agent A","scrambled","FOR_REV_MAP_BLOBBY_STIM/1159973.bmp_pp98_L1_V1.0_veridical_freeview_isoTrue_fps144_reversed_REAL.mp4",""
"null","","","html-keyboard-response","203","2554139","0.0-203.0","kp5vktju","","<span style=""color:Black; font-size:50px;"">Agent B","null","","","","",""
"null","","","video-keyboard-response","204","2556241","0.0-204.0","kp5vktju","","","null","","Agent B","veridical","FOR_REV_MAP_BLOBBY_STIM/1159973.bmp_pp98_L1_V1.0_veridical_freeview_isoTrue_fps144.mp4",""
"","","","call-function","205","2556241","0.0-205.0","kp5vktju","","","","","","","",""
"2044.9300000001676","{""judgement"":0}","[0]","survey-likert","206","2558287","0.0-206.0","kp5vktju","","","","","","","","1"
"1834.4599999999627","{""confidence"":0}","[0]","survey-likert","207","2560122","0.0-207.0","kp5vktju","","","","","","","",""
"","","","call-function","208","2560123","0.0-208.0","kp5vktju","","","","","","","",""
"null","","","html-keyboard-response","209","2561626","0.0-209.0","kp5vktju","","<span style=""color:Black; font-size:50px;"">Agent A","null","","","","",""
"null","","","video-keyboard-response","210","2564431","0.0-210.0","kp5vktju","","","null","","Agent A","veridical","FOR_REV_MAP_BLOBBY_STIM/1592150.bmp_pp77_L3_V1.0_veridical_freeview_isoTrue_fps144.mp4",""
"null","","","html-keyboard-response","211","2565934","0.0-211.0","kp5vktju","","<span style=""color:Black; font-size:50px;"">Agent B","null","","","","",""
"null","","","video-keyboard-response","212","2568735","0.0-212.0","kp5vktju","","","null","","Agent B","scrambled","FOR_REV_MAP_BLOBBY_STIM/1592150.bmp_pp77_L3_V1.0_veridical_freeview_isoTrue_fps144_reversed_REAL.mp4",""
"","","","call-function","213","2568735","0.0-213.0","kp5vktju","","","","","","","",""
"2746.0400000000373","{""judgement"":1}","[0]","survey-likert","214","2571482","0.0-214.0","kp5vktju","","","","","","","","0"
"1485.1550000002608","{""confidence"":0}","[0]","survey-likert","215","2572968","0.0-215.0","kp5vktju","","","","","","","",""
"","","","call-function","216","2572969","0.0-216.0","kp5vktju","","","","","","","",""
"null","","","html-keyboard-response","217","2574470","0.0-217.0","kp5vktju","","<span style=""color:Black; font-size:50px;"">Agent A","null","","","","",""
"null","","","video-keyboard-response","218","2577310","0.0-218.0","kp5vktju","","","null","","Agent A","veridical","FOR_REV_MAP_BLOBBY_STIM/1160204.bmp_pp54_L2_V1.0_veridical_freeview_isoTrue_fps144.mp4",""
"null","","","html-keyboard-response","219","2578812","0.0-219.0","kp5vktju","","<span style=""color:Black; font-size:50px;"">Agent B","null","","","","",""
"null","","","video-keyboard-response","220","2581636","0.0-220.0","kp5vktju","","","null","","Agent B","scrambled","FOR_REV_MAP_BLOBBY_STIM/1160204.bmp_pp54_L2_V1.0_veridical_freeview_isoTrue_fps144_reversed_REAL.mp4",""
"","","","call-function","221","2581637","0.0-221.0","kp5vktju","","","","","","","",""
"3170.0949999997392","{""judgement"":0}","[0]","survey-likert","222","2584808","0.0-222.0","kp5vktju","","","","","","","","0"
"2005.089999999851","{""confidence"":1}","[0]","survey-likert","223","2586814","0.0-223.0","kp5vktju","","","","","","","",""
"","","","call-function","224","2586814","0.0-224.0","kp5vktju","","","","","","","",""
"null","","","html-keyboard-response","225","2588317","0.0-225.0","kp5vktju","","<span style=""color:Black; font-size:50px;"">Agent A","null","","","","",""
"null","","","video-keyboard-response","226","2591110","0.0-226.0","kp5vktju","","","null","","Agent A","veridical","FOR_REV_MAP_BLOBBY_STIM/107909.bmp_pp95_L2_V1.0_veridical_freeview_isoTrue_fps144.mp4",""
"null","","","html-keyboard-response","227","2592612","0.0-227.0","kp5vktju","","<span style=""color:Black; font-size:50px;"">Agent B","null","","","","",""
"null","","","video-keyboard-response","228","2595400","0.0-228.0","kp5vktju","","","null","","Agent B","scrambled","FOR_REV_MAP_BLOBBY_STIM/107909.bmp_pp95_L2_V1.0_veridical_freeview_isoTrue_fps144_reversed_REAL.mp4",""
"","","","call-function","229","2595400","0.0-229.0","kp5vktju","","","","","","","",""
"1833.6899999999441","{""judgement"":1}","[0]","survey-likert","230","2597236","0.0-230.0","kp5vktju","","","","","","","","0"
"2348.9249999998137","{""confidence"":0}","[0]","survey-likert","231","2599586","0.0-231.0","kp5vktju","","","","","","","",""
"","","","call-function","232","2599586","0.0-232.0","kp5vktju","","","","","","","",""
"null","","","html-keyboard-response","233","2601088","0.0-233.0","kp5vktju","","<span style=""color:Black; font-size:50px;"">Agent A","null","","","","",""
"null","","","video-keyboard-response","234","2603869","0.0-234.0","kp5vktju","","","null","","Agent A","veridical","FOR_REV_MAP_BLOBBY_STIM/286034.bmp_pp69_L3_V1.0_veridical_freeview_isoTrue_fps144.mp4",""
"null","","","html-keyboard-response","235","2605373","0.0-235.0","kp5vktju","","<span style=""color:Black; font-size:50px;"">Agent B","null","","","","",""
"null","","","video-keyboard-response","236","2608178","0.0-236.0","kp5vktju","","","null","","Agent B","scrambled","FOR_REV_MAP_BLOBBY_STIM/286034.bmp_pp69_L3_V1.0_veridical_freeview_isoTrue_fps144_reversed_REAL.mp4",""
"","","","call-function","237","2608179","0.0-237.0","kp5vktju","","","","","","","",""
"2282.3950000000186","{""judgement"":0}","[0]","survey-likert","238","2610463","0.0-238.0","kp5vktju","","","","","","","","0"
"1282.2700000000186","{""confidence"":1}","[0]","survey-likert","239","2611747","0.0-239.0","kp5vktju","","","","","","","",""
"","","","call-function","240","2611748","0.0-240.0","kp5vktju","","","","","","","",""
"null","","","html-keyboard-response","241","2613253","0.0-241.0","kp5vktju","","<span style=""color:Black; font-size:50px;"">Agent A","null","","","","",""
"null","","","video-keyboard-response","242","2615953","0.0-242.0","kp5vktju","","","null","","Agent A","veridical","FOR_REV_MAP_BLOBBY_STIM/1159427.bmp_pp98_L1_V1.0_veridical_freeview_isoTrue_fps144.mp4",""
"null","","","html-keyboard-response","243","2617456","0.0-243.0","kp5vktju","","<span style=""color:Black; font-size:50px;"">Agent B","null","","","","",""
"null","","","video-keyboard-response","244","2620156","0.0-244.0","kp5vktju","","","null","","Agent B","scrambled","FOR_REV_MAP_BLOBBY_STIM/1159427.bmp_pp98_L1_V1.0_veridical_freeview_isoTrue_fps144_reversed_REAL.mp4",""
"","","","call-function","245","2620156","0.0-245.0","kp5vktju","","","","","","","",""
"3118.345000000205","{""judgement"":0}","[0]","survey-likert","246","2623276","0.0-246.0","kp5vktju","","","","","","","","0"
"1944.3799999998882","{""confidence"":1}","[0]","survey-likert","247","2625222","0.0-247.0","kp5vktju","","","","","","","",""
"","","","call-function","248","2625222","0.0-248.0","kp5vktju","","","","","","","",""
"null","","","html-keyboard-response","249","2626727","0.0-249.0","kp5vktju","","<span style=""color:Black; font-size:50px;"">Agent A","null","","","","",""
"null","","","video-keyboard-response","250","2629292","0.0-250.0","kp5vktju","","","null","","Agent A","veridical","FOR_REV_MAP_BLOBBY_STIM/498398.bmp_pp81_L1_V1.0_veridical_freeview_isoTrue_fps144.mp4",""
"null","","","html-keyboard-response","251","2630795","0.0-251.0","kp5vktju","","<span style=""color:Black; font-size:50px;"">Agent B","null","","","","",""
"null","","","video-keyboard-response","252","2633355","0.0-252.0","kp5vktju","","","null","","Agent B","scrambled","FOR_REV_MAP_BLOBBY_STIM/498398.bmp_pp81_L1_V1.0_veridical_freeview_isoTrue_fps144_reversed_REAL.mp4",""
"","","","call-function","253","2633355","0.0-253.0","kp5vktju","","","","","","","",""
"2738.445000000298","{""judgement"":1}","[0]","survey-likert","254","2636094","0.0-254.0","kp5vktju","","","","","","","","0"
"1949.0150000001304","{""confidence"":0}","[0]","survey-likert","255","2638045","0.0-255.0","kp5vktju","","","","","","","",""
"3237.9600000004284","","","instructions","256","2641283","0.0-256.0","kp5vktju","[{""page_index"":0,""viewing_time"":2209.2750000003725},{""page_index"":1,""viewing_time"":651.6450000000186},{""page_index"":2,""viewing_time"":376.8899999996647}]","","","","","","",""
"1048.8099999995902","","","instructions","257","2642332","0.0-257.0","kp5vktju","[{""page_index"":0,""viewing_time"":320.52499999990687},{""page_index"":1,""viewing_time"":352.23999999975786},{""page_index"":2,""viewing_time"":375.83499999996275}]","","","","","","",""
"","","","call-function","258","2642333","0.0-258.0","kp5vktju","","","","","","","",""
"null","","","html-keyboard-response","259","2643836","0.0-259.0","kp5vktju","","<span style=""color:Black; font-size:50px;"">Agent A","null","","","","",""
"null","","","video-keyboard-response","260","2646530","0.0-260.0","kp5vktju","","","null","","Agent A","veridical","FOR_REV_MAP_BLOBBY_STIM/713788.bmp_pp52_L1_V1.0_veridical_freeview_isoTrue_fps144.mp4",""
"null","","","html-keyboard-response","261","2648037","0.0-261.0","kp5vktju","","<span style=""color:Black; font-size:50px;"">Agent B","null","","","","",""
"null","","","video-keyboard-response","262","2650723","0.0-262.0","kp5vktju","","","null","","Agent B","scrambled","FOR_REV_MAP_BLOBBY_STIM/713788.bmp_pp52_L1_V1.0_veridical_freeview_isoTrue_fps144_reversed_REAL.mp4",""
"","","","call-function","263","2650724","0.0-263.0","kp5vktju","","","","","","","",""
"1680.6499999999069","{""judgement"":0}","[0]","survey-likert","264","2652405","0.0-264.0","kp5vktju","","","","","","","","0"
"1759.5699999998324","{""confidence"":0}","[0]","survey-likert","265","2654166","0.0-265.0","kp5vktju","","","","","","","",""
"","","","call-function","266","2654167","0.0-266.0","kp5vktju","","","","","","","",""
"null","","","html-keyboard-response","267","2655669","0.0-267.0","kp5vktju","","<span style=""color:Black; font-size:50px;"">Agent A","null","","","","",""
"null","","","video-keyboard-response","268","2658502","0.0-268.0","kp5vktju","","","null","","Agent A","scrambled","FOR_REV_MAP_BLOBBY_STIM/713381.bmp_pp82_L2_V1.0_veridical_freeview_isoTrue_fps144_reversed_REAL.mp4",""
"null","","","html-keyboard-response","269","2660007","0.0-269.0","kp5vktju","","<span style=""color:Black; font-size:50px;"">Agent B","null","","","","",""
"null","","","video-keyboard-response","270","2662837","0.0-270.0","kp5vktju","","","null","","Agent B","veridical","FOR_REV_MAP_BLOBBY_STIM/713381.bmp_pp82_L2_V1.0_veridical_freeview_isoTrue_fps144.mp4",""
"","","","call-function","271","2662837","0.0-271.0","kp5vktju","","","","","","","",""
"2282.6699999999255","{""judgement"":0}","[0]","survey-likert","272","2665121","0.0-272.0","kp5vktju","","","","","","","","1"
"1297.5049999998882","{""confidence"":0}","[0]","survey-likert","273","2666419","0.0-273.0","kp5vktju","","","","","","","",""
"","","","call-function","274","2666420","0.0-274.0","kp5vktju","","","","","","","",""
"null","","","html-keyboard-response","275","2667924","0.0-275.0","kp5vktju","","<span style=""color:Black; font-size:50px;"">Agent A","null","","","","",""
"null","","","video-keyboard-response","276","2670691","0.0-276.0","kp5vktju","","","null","","Agent A","scrambled","FOR_REV_MAP_BLOBBY_STIM/1592017.bmp_pp154_L1_V1.0_veridical_freeview_isoTrue_fps144_reversed_REAL.mp4",""
"null","","","html-keyboard-response","277","2672194","0.0-277.0","kp5vktju","","<span style=""color:Black; font-size:50px;"">Agent B","null","","","","",""
"null","","","video-keyboard-response","278","2674962","0.0-278.0","kp5vktju","","","null","","Agent B","veridical","FOR_REV_MAP_BLOBBY_STIM/1592017.bmp_pp154_L1_V1.0_veridical_freeview_isoTrue_fps144.mp4",""
"","","","call-function","279","2674963","0.0-279.0","kp5vktju","","","","","","","",""
"2615.7150000003166","{""judgement"":1}","[0]","survey-likert","280","2677579","0.0-280.0","kp5vktju","","","","","","","","1"
"1207.2599999997765","{""confidence"":1}","[0]","survey-likert","281","2678787","0.0-281.0","kp5vktju","","","","","","","",""
"","","","call-function","282","2678788","0.0-282.0","kp5vktju","","","","","","","",""
"null","","","html-keyboard-response","283","2680293","0.0-283.0","kp5vktju","","<span style=""color:Black; font-size:50px;"">Agent A","null","","","","",""
"null","","","video-keyboard-response","284","2683105","0.0-284.0","kp5vktju","","","null","","Agent A","scrambled","FOR_REV_MAP_BLOBBY_STIM/1159508.bmp_pp151_L1_V1.0_veridical_freeview_isoTrue_fps144_reversed_REAL.mp4",""
"null","","","html-keyboard-response","285","2684608","0.0-285.0","kp5vktju","","<span style=""color:Black; font-size:50px;"">Agent B","null","","","","",""
"null","","","video-keyboard-response","286","2687420","0.0-286.0","kp5vktju","","","null","","Agent B","veridical","FOR_REV_MAP_BLOBBY_STIM/1159508.bmp_pp151_L1_V1.0_veridical_freeview_isoTrue_fps144.mp4",""
"","","","call-function","287","2687420","0.0-287.0","kp5vktju","","","","","","","",""
"2050.314999999944","{""judgement"":0}","[0]","survey-likert","288","2689471","0.0-288.0","kp5vktju","","","","","","","","1"
"1666.244999999646","{""confidence"":0}","[0]","survey-likert","289","2691139","0.0-289.0","kp5vktju","","","","","","","",""
"","","","call-function","290","2691139","0.0-290.0","kp5vktju","","","","","","","",""
"null","","","html-keyboard-response","291","2692645","0.0-291.0","kp5vktju","","<span style=""color:Black; font-size:50px;"">Agent A","null","","","","",""
"null","","","video-keyboard-response","292","2695399","0.0-292.0","kp5vktju","","","null","","Agent A","scrambled","FOR_REV_MAP_BLOBBY_STIM/1592129.bmp_pp153_L3_V1.0_veridical_freeview_isoTrue_fps144_reversed_REAL.mp4",""
"null","","","html-keyboard-response","293","2696903","0.0-293.0","kp5vktju","","<span style=""color:Black; font-size:50px;"">Agent B","null","","","","",""
"null","","","video-keyboard-response","294","2699660","0.0-294.0","kp5vktju","","","null","","Agent B","veridical","FOR_REV_MAP_BLOBBY_STIM/1592129.bmp_pp153_L3_V1.0_veridical_freeview_isoTrue_fps144.mp4",""
"","","","call-function","295","2699660","0.0-295.0","kp5vktju","","","","","","","",""
"2055.2549999998882","{""judgement"":1}","[0]","survey-likert","296","2701716","0.0-296.0","kp5vktju","","","","","","","","1"
"1976.5149999996647","{""confidence"":1}","[0]","survey-likert","297","2703694","0.0-297.0","kp5vktju","","","","","","","",""
"","","","call-function","298","2703694","0.0-298.0","kp5vktju","","","","","","","",""
"null","","","html-keyboard-response","299","2705201","0.0-299.0","kp5vktju","","<span style=""color:Black; font-size:50px;"">Agent A","null","","","","",""
"null","","","video-keyboard-response","300","2708005","0.0-300.0","kp5vktju","","","null","","Agent A","veridical","FOR_REV_MAP_BLOBBY_STIM/1592567.bmp_pp70_L2_V1.0_veridical_freeview_isoTrue_fps144.mp4",""
"null","","","html-keyboard-response","301","2709507","0.0-301.0","kp5vktju","","<span style=""color:Black; font-size:50px;"">Agent B","null","","","","",""
"null","","","video-keyboard-response","302","2712305","0.0-302.0","kp5vktju","","","null","","Agent B","scrambled","FOR_REV_MAP_BLOBBY_STIM/1592567.bmp_pp70_L2_V1.0_veridical_freeview_isoTrue_fps144_reversed_REAL.mp4",""
"","","","call-function","303","2712307","0.0-303.0","kp5vktju","","","","","","","",""
"3341.5","{""judgement"":0}","[0]","survey-likert","304","2715650","0.0-304.0","kp5vktju","","","","","","","","0"
"2485.850000000093","{""confidence"":0}","[0]","survey-likert","305","2718137","0.0-305.0","kp5vktju","","","","","","","",""
"","","","call-function","306","2718137","0.0-306.0","kp5vktju","","","","","","","",""
"null","","","html-keyboard-response","307","2719639","0.0-307.0","kp5vktju","","<span style=""color:Black; font-size:50px;"">Agent A","null","","","","",""
"null","","","video-keyboard-response","308","2722482","0.0-308.0","kp5vktju","","","null","","Agent A","veridical","FOR_REV_MAP_BLOBBY_STIM/498396.bmp_pp99_L2_V1.0_veridical_freeview_isoTrue_fps144.mp4",""
"null","","","html-keyboard-response","309","2723986","0.0-309.0","kp5vktju","","<span style=""color:Black; font-size:50px;"">Agent B","null","","","","",""
"null","","","video-keyboard-response","310","2726825","0.0-310.0","kp5vktju","","","null","","Agent B","scrambled","FOR_REV_MAP_BLOBBY_STIM/498396.bmp_pp99_L2_V1.0_veridical_freeview_isoTrue_fps144_reversed_REAL.mp4",""
"","","","call-function","311","2726826","0.0-311.0","kp5vktju","","","","","","","",""
"2299.5499999998137","{""judgement"":1}","[0]","survey-likert","312","2729126","0.0-312.0","kp5vktju","","","","","","","","0"
"1604.4050000002608","{""confidence"":0}","[0]","survey-likert","313","2730732","0.0-313.0","kp5vktju","","","","","","","",""
"","","","call-function","314","2730732","0.0-314.0","kp5vktju","","","","","","","",""
"null","","","html-keyboard-response","315","2732235","0.0-315.0","kp5vktju","","<span style=""color:Black; font-size:50px;"">Agent A","null","","","","",""
"null","","","video-keyboard-response","316","2735010","0.0-316.0","kp5vktju","","","null","","Agent A","scrambled","FOR_REV_MAP_BLOBBY_STIM/713790.bmp_pp100_L3_V1.0_veridical_freeview_isoTrue_fps144_reversed_REAL.mp4",""
"null","","","html-keyboard-response","317","2736515","0.0-317.0","kp5vktju","","<span style=""color:Black; font-size:50px;"">Agent B","null","","","","",""
"null","","","video-keyboard-response","318","2739291","0.0-318.0","kp5vktju","","","null","","Agent B","veridical","FOR_REV_MAP_BLOBBY_STIM/713790.bmp_pp100_L3_V1.0_veridical_freeview_isoTrue_fps144.mp4",""
"","","","call-function","319","2739292","0.0-319.0","kp5vktju","","","","","","","",""
"3336.6399999996647","{""judgement"":0}","[0]","survey-likert","320","2742629","0.0-320.0","kp5vktju","","","","","","","","1"
"1791.0800000000745","{""confidence"":0}","[0]","survey-likert","321","2744422","0.0-321.0","kp5vktju","","","","","","","",""
"","","","call-function","322","2744422","0.0-322.0","kp5vktju","","","","","","","",""
"null","","","html-keyboard-response","323","2745925","0.0-323.0","kp5vktju","","<span style=""color:Black; font-size:50px;"">Agent A","null","","","","",""
"null","","","video-keyboard-response","324","2748777","0.0-324.0","kp5vktju","","","null","","Agent A","veridical","FOR_REV_MAP_BLOBBY_STIM/498261.bmp_pp84_L3_V1.0_veridical_freeview_isoTrue_fps144.mp4",""
"null","","","html-keyboard-response","325","2750279","0.0-325.0","kp5vktju","","<span style=""color:Black; font-size:50px;"">Agent B","null","","","","",""
"null","","","video-keyboard-response","326","2753124","0.0-326.0","kp5vktju","","","null","","Agent B","scrambled","FOR_REV_MAP_BLOBBY_STIM/498261.bmp_pp84_L3_V1.0_veridical_freeview_isoTrue_fps144_reversed_REAL.mp4",""
"","","","call-function","327","2753125","0.0-327.0","kp5vktju","","","","","","","",""
"2699.714999999851","{""judgement"":0}","[0]","survey-likert","328","2755825","0.0-328.0","kp5vktju","","","","","","","","0"
"2600.9550000000745","{""confidence"":0}","[0]","survey-likert","329","2758427","0.0-329.0","kp5vktju","","","","","","","",""
"","","","call-function","330","2758428","0.0-330.0","kp5vktju","","","","","","","",""
"null","","","html-keyboard-response","331","2759932","0.0-331.0","kp5vktju","","<span style=""color:Black; font-size:50px;"">Agent A","null","","","","",""
"null","","","video-keyboard-response","332","2762748","0.0-332.0","kp5vktju","","","null","","Agent A","veridical","FOR_REV_MAP_BLOBBY_STIM/1592314.bmp_pp100_L3_V1.0_veridical_freeview_isoTrue_fps144.mp4",""
"null","","","html-keyboard-response","333","2764253","0.0-333.0","kp5vktju","","<span style=""color:Black; font-size:50px;"">Agent B","null","","","","",""
"null","","","video-keyboard-response","334","2767073","0.0-334.0","kp5vktju","","","null","","Agent B","scrambled","FOR_REV_MAP_BLOBBY_STIM/1592314.bmp_pp100_L3_V1.0_veridical_freeview_isoTrue_fps144_reversed_REAL.mp4",""
"","","","call-function","335","2767073","0.0-335.0","kp5vktju","","","","","","","",""
"3399.399999999907","{""judgement"":1}","[0]","survey-likert","336","2770474","0.0-336.0","kp5vktju","","","","","","","","0"
"1719.7349999998696","{""confidence"":0}","[0]","survey-likert","337","2772194","0.0-337.0","kp5vktju","","","","","","","",""
"205463.43000000017","","","instructions","338","2977659","0.0-338.0","kp5vktju","[{""page_index"":0,""viewing_time"":204412.65500000026},{""page_index"":1,""viewing_time"":635.589999999851},{""page_index"":2,""viewing_time"":415.03000000026077}]","","","","","","",""
"1690.9750000000931","","","instructions","339","2979350","0.0-339.0","kp5vktju","[{""page_index"":0,""viewing_time"":428.45999999996275},{""page_index"":1,""viewing_time"":734.9300000001676},{""page_index"":2,""viewing_time"":527.4550000000745}]","","","","","","",""
"","","","call-function","340","2979350","0.0-340.0","kp5vktju","","","","","","","",""
"null","","","html-keyboard-response","341","2980851","0.0-341.0","kp5vktju","","<span style=""color:Black; font-size:50px;"">Agent A","null","","","","",""
"null","","","video-keyboard-response","342","2983652","0.0-342.0","kp5vktju","","","null","","Agent A","veridical","FOR_REV_MAP_BLOBBY_STIM/498258.bmp_pp51_L1_V1.0_veridical_freeview_isoTrue_fps144.mp4",""
"null","","","html-keyboard-response","343","2985153","0.0-343.0","kp5vktju","","<span style=""color:Black; font-size:50px;"">Agent B","null","","","","",""
"null","","","video-keyboard-response","344","2987950","0.0-344.0","kp5vktju","","","null","","Agent B","scrambled","FOR_REV_MAP_BLOBBY_STIM/498258.bmp_pp51_L1_V1.0_veridical_freeview_isoTrue_fps144_reversed_REAL.mp4",""
"","","","call-function","345","2987951","0.0-345.0","kp5vktju","","","","","","","",""
"2693.170000000391","{""judgement"":1}","[0]","survey-likert","346","2990645","0.0-346.0","kp5vktju","","","","","","","","0"
"1687.785000000149","{""confidence"":1}","[0]","survey-likert","347","2992334","0.0-347.0","kp5vktju","","","","","","","",""
"","","","call-function","348","2992334","0.0-348.0","kp5vktju","","","","","","","",""
"null","","","html-keyboard-response","349","2993838","0.0-349.0","kp5vktju","","<span style=""color:Black; font-size:50px;"">Agent A","null","","","","",""
"null","","","video-keyboard-response","350","2996640","0.0-350.0","kp5vktju","","","null","","Agent A","veridical","FOR_REV_MAP_BLOBBY_STIM/713770.bmp_pp89_L1_V1.0_veridical_freeview_isoTrue_fps144.mp4",""
"null","","","html-keyboard-response","351","2998145","0.0-351.0","kp5vktju","","<span style=""color:Black; font-size:50px;"">Agent B","null","","","","",""
"null","","","video-keyboard-response","352","3000949","0.0-352.0","kp5vktju","","","null","","Agent B","scrambled","FOR_REV_MAP_BLOBBY_STIM/713770.bmp_pp89_L1_V1.0_veridical_freeview_isoTrue_fps144_reversed_REAL.mp4",""
"","","","call-function","353","3000949","0.0-353.0","kp5vktju","","","","","","","",""
"2496.3449999997392","{""judgement"":1}","[0]","survey-likert","354","3003446","0.0-354.0","kp5vktju","","","","","","","","0"
"1820.9199999999255","{""confidence"":1}","[0]","survey-likert","355","3005268","0.0-355.0","kp5vktju","","","","","","","",""
"","","","call-function","356","3005269","0.0-356.0","kp5vktju","","","","","","","",""
"null","","","html-keyboard-response","357","3006770","0.0-357.0","kp5vktju","","<span style=""color:Black; font-size:50px;"">Agent A","null","","","","",""
"null","","","video-keyboard-response","358","3009564","0.0-358.0","kp5vktju","","","null","","Agent A","veridical","FOR_REV_MAP_BLOBBY_STIM/285932.bmp_pp64_L1_V1.0_veridical_freeview_isoTrue_fps144.mp4",""
"null","","","html-keyboard-response","359","3011066","0.0-359.0","kp5vktju","","<span style=""color:Black; font-size:50px;"">Agent B","null","","","","",""
"null","","","video-keyboard-response","360","3013847","0.0-360.0","kp5vktju","","","null","","Agent B","scrambled","FOR_REV_MAP_BLOBBY_STIM/285932.bmp_pp64_L1_V1.0_veridical_freeview_isoTrue_fps144_reversed_REAL.mp4",""
"","","","call-function","361","3013847","0.0-361.0","kp5vktju","","","","","","","",""
"2665.7050000000745","{""judgement"":0}","[0]","survey-likert","362","3016514","0.0-362.0","kp5vktju","","","","","","","","0"
"2521.410000000149","{""confidence"":0}","[0]","survey-likert","363","3019036","0.0-363.0","kp5vktju","","","","","","","",""
"","","","call-function","364","3019037","0.0-364.0","kp5vktju","","","","","","","",""
"null","","","html-keyboard-response","365","3020539","0.0-365.0","kp5vktju","","<span style=""color:Black; font-size:50px;"">Agent A","null","","","","",""
"null","","","video-keyboard-response","366","3023371","0.0-366.0","kp5vktju","","","null","","Agent A","veridical","FOR_REV_MAP_BLOBBY_STIM/107955.bmp_pp90_L2_V1.0_veridical_freeview_isoTrue_fps144.mp4",""
"null","","","html-keyboard-response","367","3024877","0.0-367.0","kp5vktju","","<span style=""color:Black; font-size:50px;"">Agent B","null","","","","",""
"null","","","video-keyboard-response","368","3027695","0.0-368.0","kp5vktju","","","null","","Agent B","scrambled","FOR_REV_MAP_BLOBBY_STIM/107955.bmp_pp90_L2_V1.0_veridical_freeview_isoTrue_fps144_reversed_REAL.mp4",""
"","","","call-function","369","3027696","0.0-369.0","kp5vktju","","","","","","","",""
"1836.2299999999814","{""judgement"":1}","[0]","survey-likert","370","3029534","0.0-370.0","kp5vktju","","","","","","","","0"
"1730.8000000002794","{""confidence"":0}","[0]","survey-likert","371","3031266","0.0-371.0","kp5vktju","","","","","","","",""
"","","","call-function","372","3031267","0.0-372.0","kp5vktju","","","","","","","",""
"null","","","html-keyboard-response","373","3032771","0.0-373.0","kp5vktju","","<span style=""color:Black; font-size:50px;"">Agent A","null","","","","",""
"null","","","video-keyboard-response","374","3035361","0.0-374.0","kp5vktju","","","null","","Agent A","veridical","FOR_REV_MAP_BLOBBY_STIM/713633.bmp_pp58_L1_V1.0_veridical_freeview_isoTrue_fps144.mp4",""
"null","","","html-keyboard-response","375","3036865","0.0-375.0","kp5vktju","","<span style=""color:Black; font-size:50px;"">Agent B","null","","","","",""
"null","","","video-keyboard-response","376","3039454","0.0-376.0","kp5vktju","","","null","","Agent B","scrambled","FOR_REV_MAP_BLOBBY_STIM/713633.bmp_pp58_L1_V1.0_veridical_freeview_isoTrue_fps144_reversed_REAL.mp4",""
"","","","call-function","377","3039454","0.0-377.0","kp5vktju","","","","","","","",""
"1444.8100000000559","{""judgement"":0}","[0]","survey-likert","378","3040900","0.0-378.0","kp5vktju","","","","","","","","0"
"1443.8950000000186","{""confidence"":2}","[0]","survey-likert","379","3042345","0.0-379.0","kp5vktju","","","","","","","",""
"","","","call-function","380","3042346","0.0-380.0","kp5vktju","","","","","","","",""
"null","","","html-keyboard-response","381","3043850","0.0-381.0","kp5vktju","","<span style=""color:Black; font-size:50px;"">Agent A","null","","","","",""
"null","","","video-keyboard-response","382","3046704","0.0-382.0","kp5vktju","","","null","","Agent A","veridical","FOR_REV_MAP_BLOBBY_STIM/1160189.bmp_pp64_L1_V1.0_veridical_freeview_isoTrue_fps144.mp4",""
"null","","","html-keyboard-response","383","3048211","0.0-383.0","kp5vktju","","<span style=""color:Black; font-size:50px;"">Agent B","null","","","","",""
"null","","","video-keyboard-response","384","3051083","0.0-384.0","kp5vktju","","","null","","Agent B","scrambled","FOR_REV_MAP_BLOBBY_STIM/1160189.bmp_pp64_L1_V1.0_veridical_freeview_isoTrue_fps144_reversed_REAL.mp4",""
"","","","call-function","385","3051084","0.0-385.0","kp5vktju","","","","","","","",""
"1875.4750000000931","{""judgement"":0}","[0]","survey-likert","386","3052960","0.0-386.0","kp5vktju","","","","","","","","0"
"1038.3899999996647","{""confidence"":1}","[0]","survey-likert","387","3053999","0.0-387.0","kp5vktju","","","","","","","",""
"","","","call-function","388","3054000","0.0-388.0","kp5vktju","","","","","","","",""
"null","","","html-keyboard-response","389","3055501","0.0-389.0","kp5vktju","","<span style=""color:Black; font-size:50px;"">Agent A","null","","","","",""
"null","","","video-keyboard-response","390","3058313","0.0-390.0","kp5vktju","","","null","","Agent A","scrambled","FOR_REV_MAP_BLOBBY_STIM/1592530.bmp_pp75_L1_V1.0_veridical_freeview_isoTrue_fps144_reversed_REAL.mp4",""
"null","","","html-keyboard-response","391","3059815","0.0-391.0","kp5vktju","","<span style=""color:Black; font-size:50px;"">Agent B","null","","","","",""
"null","","","video-keyboard-response","392","3062626","0.0-392.0","kp5vktju","","","null","","Agent B","veridical","FOR_REV_MAP_BLOBBY_STIM/1592530.bmp_pp75_L1_V1.0_veridical_freeview_isoTrue_fps144.mp4",""
"","","","call-function","393","3062626","0.0-393.0","kp5vktju","","","","","","","",""
"3156.875","{""judgement"":1}","[0]","survey-likert","394","3065784","0.0-394.0","kp5vktju","","","","","","","","1"
"1275.029999999795","{""confidence"":0}","[0]","survey-likert","395","3067060","0.0-395.0","kp5vktju","","","","","","","",""
"","","","call-function","396","3067060","0.0-396.0","kp5vktju","","","","","","","",""
"null","","","html-keyboard-response","397","3068563","0.0-397.0","kp5vktju","","<span style=""color:Black; font-size:50px;"">Agent A","null","","","","",""
"null","","","video-keyboard-response","398","3071366","0.0-398.0","kp5vktju","","","null","","Agent A","veridical","FOR_REV_MAP_BLOBBY_STIM/1591781.bmp_pp63_L1_V1.0_veridical_freeview_isoTrue_fps144.mp4",""
"null","","","html-keyboard-response","399","3072870","0.0-399.0","kp5vktju","","<span style=""color:Black; font-size:50px;"">Agent B","null","","","","",""
"null","","","video-keyboard-response","400","3075672","0.0-400.0","kp5vktju","","","null","","Agent B","scrambled","FOR_REV_MAP_BLOBBY_STIM/1591781.bmp_pp63_L1_V1.0_veridical_freeview_isoTrue_fps144_reversed_REAL.mp4",""
"","","","call-function","401","3075672","0.0-401.0","kp5vktju","","","","","","","",""
"2003.9950000001118","{""judgement"":1}","[0]","survey-likert","402","3077677","0.0-402.0","kp5vktju","","","","","","","","0"
"2812.785000000149","{""confidence"":2}","[0]","survey-likert","403","3080491","0.0-403.0","kp5vktju","","","","","","","",""
"","","","call-function","404","3080492","0.0-404.0","kp5vktju","","","","","","","",""
"null","","","html-keyboard-response","405","3081993","0.0-405.0","kp5vktju","","<span style=""color:Black; font-size:50px;"">Agent A","null","","","","",""
"null","","","video-keyboard-response","406","3084772","0.0-406.0","kp5vktju","","","null","","Agent A","scrambled","FOR_REV_MAP_BLOBBY_STIM/150277.bmp_pp65_L3_V1.0_veridical_freeview_isoTrue_fps144_reversed_REAL.mp4",""
"null","","","html-keyboard-response","407","3086277","0.0-407.0","kp5vktju","","<span style=""color:Black; font-size:50px;"">Agent B","null","","","","",""
"null","","","video-keyboard-response","408","3089050","0.0-408.0","kp5vktju","","","null","","Agent B","veridical","FOR_REV_MAP_BLOBBY_STIM/150277.bmp_pp65_L3_V1.0_veridical_freeview_isoTrue_fps144.mp4",""
"","","","call-function","409","3089050","0.0-409.0","kp5vktju","","","","","","","",""
"1834.2150000003166","{""judgement"":1}","[0]","survey-likert","410","3090886","0.0-410.0","kp5vktju","","","","","","","","1"
"1941.0049999998882","{""confidence"":1}","[0]","survey-likert","411","3092828","0.0-411.0","kp5vktju","","","","","","","",""
"","","","call-function","412","3092828","0.0-412.0","kp5vktju","","","","","","","",""
"null","","","html-keyboard-response","413","3094332","0.0-413.0","kp5vktju","","<span style=""color:Black; font-size:50px;"">Agent A","null","","","","",""
"null","","","video-keyboard-response","414","3097120","0.0-414.0","kp5vktju","","","null","","Agent A","veridical","FOR_REV_MAP_BLOBBY_STIM/1592289.bmp_pp92_L3_V1.0_veridical_freeview_isoTrue_fps144.mp4",""
"null","","","html-keyboard-response","415","3098626","0.0-415.0","kp5vktju","","<span style=""color:Black; font-size:50px;"">Agent B","null","","","","",""
"null","","","video-keyboard-response","416","3101403","0.0-416.0","kp5vktju","","","null","","Agent B","scrambled","FOR_REV_MAP_BLOBBY_STIM/1592289.bmp_pp92_L3_V1.0_veridical_freeview_isoTrue_fps144_reversed_REAL.mp4",""
"","","","call-function","417","3101404","0.0-417.0","kp5vktju","","","","","","","",""
"1948.7949999999255","{""judgement"":0}","[0]","survey-likert","418","3103354","0.0-418.0","kp5vktju","","","","","","","","0"
"1363.6899999999441","{""confidence"":1}","[0]","survey-likert","419","3104719","0.0-419.0","kp5vktju","","","","","","","",""
"2128.060000000056","","","instructions","420","3106848","0.0-420.0","kp5vktju","[{""page_index"":0,""viewing_time"":1345.1049999999814},{""page_index"":1,""viewing_time"":395.785000000149},{""page_index"":2,""viewing_time"":387.0149999996647}]","","","","","","",""
"1231.5400000000373","","","instructions","421","3108080","0.0-421.0","kp5vktju","[{""page_index"":0,""viewing_time"":382.29999999981374},{""page_index"":1,""viewing_time"":424.34000000031665},{""page_index"":2,""viewing_time"":424.76999999955297}]","","","","","","",""
"","","","call-function","422","3108081","0.0-422.0","kp5vktju","","","","","","","",""
"null","","","html-keyboard-response","423","3109583","0.0-423.0","kp5vktju","","<span style=""color:Black; font-size:50px;"">Agent A","null","","","","",""
"null","","","video-keyboard-response","424","3112270","0.0-424.0","kp5vktju","","","null","","Agent A","veridical","FOR_REV_MAP_BLOBBY_STIM/713858.bmp_pp57_L1_V1.0_veridical_freeview_isoTrue_fps144.mp4",""
"null","","","html-keyboard-response","425","3113774","0.0-425.0","kp5vktju","","<span style=""color:Black; font-size:50px;"">Agent B","null","","","","",""
"null","","","video-keyboard-response","426","3116460","0.0-426.0","kp5vktju","","","null","","Agent B","scrambled","FOR_REV_MAP_BLOBBY_STIM/713858.bmp_pp57_L1_V1.0_veridical_freeview_isoTrue_fps144_reversed_REAL.mp4",""
"","","","call-function","427","3116461","0.0-427.0","kp5vktju","","","","","","","",""
"2150.5900000003166","{""judgement"":0}","[0]","survey-likert","428","3118614","0.0-428.0","kp5vktju","","","","","","","","0"
"1598.7050000000745","{""confidence"":1}","[0]","survey-likert","429","3120214","0.0-429.0","kp5vktju","","","","","","","",""
"","","","call-function","430","3120214","0.0-430.0","kp5vktju","","","","","","","",""
"null","","","html-keyboard-response","431","3121720","0.0-431.0","kp5vktju","","<span style=""color:Black; font-size:50px;"">Agent A","null","","","","",""
"null","","","video-keyboard-response","432","3124546","0.0-432.0","kp5vktju","","","null","","Agent A","veridical","FOR_REV_MAP_BLOBBY_STIM/713829.bmp_pp60_L3_V1.0_veridical_freeview_isoTrue_fps144.mp4",""
"null","","","html-keyboard-response","433","3126051","0.0-433.0","kp5vktju","","<span style=""color:Black; font-size:50px;"">Agent B","null","","","","",""
"null","","","video-keyboard-response","434","3128877","0.0-434.0","kp5vktju","","","null","","Agent B","scrambled","FOR_REV_MAP_BLOBBY_STIM/713829.bmp_pp60_L3_V1.0_veridical_freeview_isoTrue_fps144_reversed_REAL.mp4",""
"","","","call-function","435","3128877","0.0-435.0","kp5vktju","","","","","","","",""
"2572.3000000002794","{""judgement"":0}","[0]","survey-likert","436","3131450","0.0-436.0","kp5vktju","","","","","","","","0"
"1642.3799999998882","{""confidence"":1}","[0]","survey-likert","437","3133094","0.0-437.0","kp5vktju","","","","","","","",""
"","","","call-function","438","3133095","0.0-438.0","kp5vktju","","","","","","","",""
"null","","","html-keyboard-response","439","3134596","0.0-439.0","kp5vktju","","<span style=""color:Black; font-size:50px;"">Agent A","null","","","","",""
"null","","","video-keyboard-response","440","3137356","0.0-440.0","kp5vktju","","","null","","Agent A","veridical","FOR_REV_MAP_BLOBBY_STIM/1159329.bmp_pp61_L2_V1.0_veridical_freeview_isoTrue_fps144.mp4",""
"null","","","html-keyboard-response","441","3138859","0.0-441.0","kp5vktju","","<span style=""color:Black; font-size:50px;"">Agent B","null","","","","",""
"null","","","video-keyboard-response","442","3141641","0.0-442.0","kp5vktju","","","null","","Agent B","scrambled","FOR_REV_MAP_BLOBBY_STIM/1159329.bmp_pp61_L2_V1.0_veridical_freeview_isoTrue_fps144_reversed_REAL.mp4",""
"","","","call-function","443","3141642","0.0-443.0","kp5vktju","","","","","","","",""
"3062.75","{""judgement"":0}","[0]","survey-likert","444","3144705","0.0-444.0","kp5vktju","","","","","","","","0"
"2077.785000000149","{""confidence"":1}","[0]","survey-likert","445","3146784","0.0-445.0","kp5vktju","","","","","","","",""
"","","","call-function","446","3146785","0.0-446.0","kp5vktju","","","","","","","",""
"null","","","html-keyboard-response","447","3148290","0.0-447.0","kp5vktju","","<span style=""color:Black; font-size:50px;"">Agent A","null","","","","",""
"null","","","video-keyboard-response","448","3151093","0.0-448.0","kp5vktju","","","null","","Agent A","scrambled","FOR_REV_MAP_BLOBBY_STIM/713274.bmp_pp73_L3_V1.0_veridical_freeview_isoTrue_fps144_reversed_REAL.mp4",""
"null","","","html-keyboard-response","449","3152599","0.0-449.0","kp5vktju","","<span style=""color:Black; font-size:50px;"">Agent B","null","","","","",""
"null","","","video-keyboard-response","450","3155400","0.0-450.0","kp5vktju","","","null","","Agent B","veridical","FOR_REV_MAP_BLOBBY_STIM/713274.bmp_pp73_L3_V1.0_veridical_freeview_isoTrue_fps144.mp4",""
"","","","call-function","451","3155400","0.0-451.0","kp5vktju","","","","","","","",""
"2024.505000000354","{""judgement"":1}","[0]","survey-likert","452","3157426","0.0-452.0","kp5vktju","","","","","","","","1"
"1957.6000000000931","{""confidence"":1}","[0]","survey-likert","453","3159384","0.0-453.0","kp5vktju","","","","","","","",""
"","","","call-function","454","3159385","0.0-454.0","kp5vktju","","","","","","","",""
"null","","","html-keyboard-response","455","3160890","0.0-455.0","kp5vktju","","<span style=""color:Black; font-size:50px;"">Agent A","null","","","","",""
"null","","","video-keyboard-response","456","3163631","0.0-456.0","kp5vktju","","","null","","Agent A","scrambled","FOR_REV_MAP_BLOBBY_STIM/1159956.bmp_pp59_L3_V1.0_veridical_freeview_isoTrue_fps144_reversed_REAL.mp4",""
"null","","","html-keyboard-response","457","3165136","0.0-457.0","kp5vktju","","<span style=""color:Black; font-size:50px;"">Agent B","null","","","","",""
"null","","","video-keyboard-response","458","3167878","0.0-458.0","kp5vktju","","","null","","Agent B","veridical","FOR_REV_MAP_BLOBBY_STIM/1159956.bmp_pp59_L3_V1.0_veridical_freeview_isoTrue_fps144.mp4",""
"","","","call-function","459","3167879","0.0-459.0","kp5vktju","","","","","","","",""
"3031.1200000001118","{""judgement"":1}","[0]","survey-likert","460","3170911","0.0-460.0","kp5vktju","","","","","","","","1"
"2405.185000000056","{""confidence"":1}","[0]","survey-likert","461","3173317","0.0-461.0","kp5vktju","","","","","","","",""
"","","","call-function","462","3173317","0.0-462.0","kp5vktju","","","","","","","",""
"null","","","html-keyboard-response","463","3174821","0.0-463.0","kp5vktju","","<span style=""color:Black; font-size:50px;"">Agent A","null","","","","",""
"null","","","video-keyboard-response","464","3177676","0.0-464.0","kp5vktju","","","null","","Agent A","veridical","FOR_REV_MAP_BLOBBY_STIM/498326.bmp_pp57_L1_V1.0_veridical_freeview_isoTrue_fps144.mp4",""
"null","","","html-keyboard-response","465","3179178","0.0-465.0","kp5vktju","","<span style=""color:Black; font-size:50px;"">Agent B","null","","","","",""
"null","","","video-keyboard-response","466","3182017","0.0-466.0","kp5vktju","","","null","","Agent B","scrambled","FOR_REV_MAP_BLOBBY_STIM/498326.bmp_pp57_L1_V1.0_veridical_freeview_isoTrue_fps144_reversed_REAL.mp4",""
"","","","call-function","467","3182017","0.0-467.0","kp5vktju","","","","","","","",""
"1935.9150000000373","{""judgement"":0}","[0]","survey-likert","468","3183954","0.0-468.0","kp5vktju","","","","","","","","0"
"1895.1299999998882","{""confidence"":0}","[0]","survey-likert","469","3185850","0.0-469.0","kp5vktju","","","","","","","",""
"","","","call-function","470","3185851","0.0-470.0","kp5vktju","","","","","","","",""
"null","","","html-keyboard-response","471","3187357","0.0-471.0","kp5vktju","","<span style=""color:Black; font-size:50px;"">Agent A","null","","","","",""
"null","","","video-keyboard-response","472","3189961","0.0-472.0","kp5vktju","","","null","","Agent A","scrambled","FOR_REV_MAP_BLOBBY_STIM/1159874.bmp_pp96_L2_V1.0_veridical_freeview_isoTrue_fps144_reversed_REAL.mp4",""
"null","","","html-keyboard-response","473","3191462","0.0-473.0","kp5vktju","","<span style=""color:Black; font-size:50px;"">Agent B","null","","","","",""
"null","","","video-keyboard-response","474","3194063","0.0-474.0","kp5vktju","","","null","","Agent B","veridical","FOR_REV_MAP_BLOBBY_STIM/1159874.bmp_pp96_L2_V1.0_veridical_freeview_isoTrue_fps144.mp4",""
"","","","call-function","475","3194063","0.0-475.0","kp5vktju","","","","","","","",""
"2150.5049999998882","{""judgement"":0}","[0]","survey-likert","476","3196215","0.0-476.0","kp5vktju","","","","","","","","1"
"1528.964999999851","{""confidence"":1}","[0]","survey-likert","477","3197746","0.0-477.0","kp5vktju","","","","","","","",""
"","","","call-function","478","3197747","0.0-478.0","kp5vktju","","","","","","","",""
"null","","","html-keyboard-response","479","3199253","0.0-479.0","kp5vktju","","<span style=""color:Black; font-size:50px;"">Agent A","null","","","","",""
"null","","","video-keyboard-response","480","3202002","0.0-480.0","kp5vktju","","","null","","Agent A","veridical","FOR_REV_MAP_BLOBBY_STIM/1160247.bmp_pp54_L2_V1.0_veridical_freeview_isoTrue_fps144.mp4",""
"null","","","html-keyboard-response","481","3203507","0.0-481.0","kp5vktju","","<span style=""color:Black; font-size:50px;"">Agent B","null","","","","",""
"null","","","video-keyboard-response","482","3206257","0.0-482.0","kp5vktju","","","null","","Agent B","scrambled","FOR_REV_MAP_BLOBBY_STIM/1160247.bmp_pp54_L2_V1.0_veridical_freeview_isoTrue_fps144_reversed_REAL.mp4",""
"","","","call-function","483","3206258","0.0-483.0","kp5vktju","","","","","","","",""
"1802.4900000002235","{""judgement"":0}","[0]","survey-likert","484","3208061","0.0-484.0","kp5vktju","","","","","","","","0"
"1937.5849999999627","{""confidence"":2}","[0]","survey-likert","485","3210000","0.0-485.0","kp5vktju","","","","","","","",""
"","","","call-function","486","3210001","0.0-486.0","kp5vktju","","","","","","","",""
"null","","","html-keyboard-response","487","3211504","0.0-487.0","kp5vktju","","<span style=""color:Black; font-size:50px;"">Agent A","null","","","","",""
"null","","","video-keyboard-response","488","3214168","0.0-488.0","kp5vktju","","","null","","Agent A","veridical","FOR_REV_MAP_BLOBBY_STIM/61513.bmp_pp75_L1_V1.0_veridical_freeview_isoTrue_fps144.mp4",""
"null","","","html-keyboard-response","489","3215674","0.0-489.0","kp5vktju","","<span style=""color:Black; font-size:50px;"">Agent B","null","","","","",""
"null","","","video-keyboard-response","490","3218339","0.0-490.0","kp5vktju","","","null","","Agent B","scrambled","FOR_REV_MAP_BLOBBY_STIM/61513.bmp_pp75_L1_V1.0_veridical_freeview_isoTrue_fps144_reversed_REAL.mp4",""
"","","","call-function","491","3218340","0.0-491.0","kp5vktju","","","","","","","",""
"2180.464999999851","{""judgement"":1}","[0]","survey-likert","492","3220522","0.0-492.0","kp5vktju","","","","","","","","0"
"3112.6550000002608","{""confidence"":0}","[0]","survey-likert","493","3223635","0.0-493.0","kp5vktju","","","","","","","",""
"","","","call-function","494","3223636","0.0-494.0","kp5vktju","","","","","","","",""
"null","","","html-keyboard-response","495","3225139","0.0-495.0","kp5vktju","","<span style=""color:Black; font-size:50px;"">Agent A","null","","","","",""
"null","","","video-keyboard-response","496","3227893","0.0-496.0","kp5vktju","","","null","","Agent A","veridical","FOR_REV_MAP_BLOBBY_STIM/1591975.bmp_pp88_L2_V1.0_veridical_freeview_isoTrue_fps144.mp4",""
"null","","","html-keyboard-response","497","3229395","0.0-497.0","kp5vktju","","<span style=""color:Black; font-size:50px;"">Agent B","null","","","","",""
"null","","","video-keyboard-response","498","3232131","0.0-498.0","kp5vktju","","","null","","Agent B","scrambled","FOR_REV_MAP_BLOBBY_STIM/1591975.bmp_pp88_L2_V1.0_veridical_freeview_isoTrue_fps144_reversed_REAL.mp4",""
"","","","call-function","499","3232132","0.0-499.0","kp5vktju","","","","","","","",""
"1624.2900000000373","{""judgement"":1}","[0]","survey-likert","500","3233757","0.0-500.0","kp5vktju","","","","","","","","0"
"1495.7650000001304","{""confidence"":2}","[0]","survey-likert","501","3235254","0.0-501.0","kp5vktju","","","","","","","",""
"268883.1000000001","","","instructions","502","3504138","0.0-502.0","kp5vktju","[{""page_index"":0,""viewing_time"":268084.90500000026},{""page_index"":1,""viewing_time"":442.6699999999255},{""page_index"":2,""viewing_time"":355.2649999996647}]","","","","","","",""
"1255.8199999998324","","","instructions","503","3505395","0.0-503.0","kp5vktju","[{""page_index"":0,""viewing_time"":331.1549999997951},{""page_index"":1,""viewing_time"":449.93000000016764},{""page_index"":2,""viewing_time"":474.6349999997765}]","","","","","","",""
"","","","call-function","504","3505395","0.0-504.0","kp5vktju","","","","","","","",""
"null","","","html-keyboard-response","505","3506897","0.0-505.0","kp5vktju","","<span style=""color:Black; font-size:50px;"">Agent A","null","","","","",""
"null","","","video-keyboard-response","506","3509618","0.0-506.0","kp5vktju","","","null","","Agent A","scrambled","FOR_REV_MAP_BLOBBY_STIM/1159592.bmp_pp91_L3_V1.0_veridical_freeview_isoTrue_fps144_reversed_REAL.mp4",""
"null","","","html-keyboard-response","507","3511122","0.0-507.0","kp5vktju","","<span style=""color:Black; font-size:50px;"">Agent B","null","","","","",""
"null","","","video-keyboard-response","508","3513846","0.0-508.0","kp5vktju","","","null","","Agent B","veridical","FOR_REV_MAP_BLOBBY_STIM/1159592.bmp_pp91_L3_V1.0_veridical_freeview_isoTrue_fps144.mp4",""
"","","","call-function","509","3513846","0.0-509.0","kp5vktju","","","","","","","",""
"2224.204999999609","{""judgement"":0}","[0]","survey-likert","510","3516071","0.0-510.0","kp5vktju","","","","","","","","1"
"1957.6049999999814","{""confidence"":1}","[0]","survey-likert","511","3518030","0.0-511.0","kp5vktju","","","","","","","",""
"","","","call-function","512","3518030","0.0-512.0","kp5vktju","","","","","","","",""
"null","","","html-keyboard-response","513","3519533","0.0-513.0","kp5vktju","","<span style=""color:Black; font-size:50px;"">Agent A","null","","","","",""
"null","","","video-keyboard-response","514","3522346","0.0-514.0","kp5vktju","","","null","","Agent A","veridical","FOR_REV_MAP_BLOBBY_STIM/713920.bmp_pp76_L1_V1.0_veridical_freeview_isoTrue_fps144.mp4",""
"null","","","html-keyboard-response","515","3523851","0.0-515.0","kp5vktju","","<span style=""color:Black; font-size:50px;"">Agent B","null","","","","",""
"null","","","video-keyboard-response","516","3526661","0.0-516.0","kp5vktju","","","null","","Agent B","scrambled","FOR_REV_MAP_BLOBBY_STIM/713920.bmp_pp76_L1_V1.0_veridical_freeview_isoTrue_fps144_reversed_REAL.mp4",""
"","","","call-function","517","3526661","0.0-517.0","kp5vktju","","","","","","","",""
"2031.3449999997392","{""judgement"":0}","[0]","survey-likert","518","3528694","0.0-518.0","kp5vktju","","","","","","","","0"
"1429.320000000298","{""confidence"":1}","[0]","survey-likert","519","3530124","0.0-519.0","kp5vktju","","","","","","","",""
"","","","call-function","520","3530124","0.0-520.0","kp5vktju","","","","","","","",""
"null","","","html-keyboard-response","521","3531628","0.0-521.0","kp5vktju","","<span style=""color:Black; font-size:50px;"">Agent A","null","","","","",""
"null","","","video-keyboard-response","522","3534478","0.0-522.0","kp5vktju","","","null","","Agent A","veridical","FOR_REV_MAP_BLOBBY_STIM/713742.bmp_pp91_L3_V1.0_veridical_freeview_isoTrue_fps144.mp4",""
"null","","","html-keyboard-response","523","3535980","0.0-523.0","kp5vktju","","<span style=""color:Black; font-size:50px;"">Agent B","null","","","","",""
"null","","","video-keyboard-response","524","3538819","0.0-524.0","kp5vktju","","","null","","Agent B","scrambled","FOR_REV_MAP_BLOBBY_STIM/713742.bmp_pp91_L3_V1.0_veridical_freeview_isoTrue_fps144_reversed_REAL.mp4",""
"","","","call-function","525","3538820","0.0-525.0","kp5vktju","","","","","","","",""
"2084.0349999996834","{""judgement"":0}","[0]","survey-likert","526","3540905","0.0-526.0","kp5vktju","","","","","","","","0"
"1637.1999999997206","{""confidence"":1}","[0]","survey-likert","527","3542544","0.0-527.0","kp5vktju","","","","","","","",""
"","","","call-function","528","3542545","0.0-528.0","kp5vktju","","","","","","","",""
"null","","","html-keyboard-response","529","3544047","0.0-529.0","kp5vktju","","<span style=""color:Black; font-size:50px;"">Agent A","null","","","","",""
"null","","","video-keyboard-response","530","3546851","0.0-530.0","kp5vktju","","","null","","Agent A","scrambled","FOR_REV_MAP_BLOBBY_STIM/1591920.bmp_pp97_L3_V1.0_veridical_freeview_isoTrue_fps144_reversed_REAL.mp4",""
"null","","","html-keyboard-response","531","3548357","0.0-531.0","kp5vktju","","<span style=""color:Black; font-size:50px;"">Agent B","null","","","","",""
"null","","","video-keyboard-response","532","3551162","0.0-532.0","kp5vktju","","","null","","Agent B","veridical","FOR_REV_MAP_BLOBBY_STIM/1591920.bmp_pp97_L3_V1.0_veridical_freeview_isoTrue_fps144.mp4",""
"","","","call-function","533","3551163","0.0-533.0","kp5vktju","","","","","","","",""
"1542.7050000000745","{""judgement"":1}","[0]","survey-likert","534","3552707","0.0-534.0","kp5vktju","","","","","","","","1"
"1335.929999999702","{""confidence"":1}","[0]","survey-likert","535","3554044","0.0-535.0","kp5vktju","","","","","","","",""
"","","","call-function","536","3554045","0.0-536.0","kp5vktju","","","","","","","",""
"null","","","html-keyboard-response","537","3555546","0.0-537.0","kp5vktju","","<span style=""color:Black; font-size:50px;"">Agent A","null","","","","",""
"null","","","video-keyboard-response","538","3558285","0.0-538.0","kp5vktju","","","null","","Agent A","scrambled","FOR_REV_MAP_BLOBBY_STIM/1159819.bmp_pp151_L1_V1.0_veridical_freeview_isoTrue_fps144_reversed_REAL.mp4",""
"null","","","html-keyboard-response","539","3559789","0.0-539.0","kp5vktju","","<span style=""color:Black; font-size:50px;"">Agent B","null","","","","",""
"null","","","video-keyboard-response","540","3562525","0.0-540.0","kp5vktju","","","null","","Agent B","veridical","FOR_REV_MAP_BLOBBY_STIM/1159819.bmp_pp151_L1_V1.0_veridical_freeview_isoTrue_fps144.mp4",""
"","","","call-function","541","3562526","0.0-541.0","kp5vktju","","","","","","","",""
"1691.1599999996834","{""judgement"":0}","[0]","survey-likert","542","3564218","0.0-542.0","kp5vktju","","","","","","","","1"
"1634.554999999702","{""confidence"":2}","[0]","survey-likert","543","3565854","0.0-543.0","kp5vktju","","","","","","","",""
"","","","call-function","544","3565854","0.0-544.0","kp5vktju","","","","","","","",""
"null","","","html-keyboard-response","545","3567358","0.0-545.0","kp5vktju","","<span style=""color:Black; font-size:50px;"">Agent A","null","","","","",""
"null","","","video-keyboard-response","546","3570059","0.0-546.0","kp5vktju","","","null","","Agent A","veridical","FOR_REV_MAP_BLOBBY_STIM/1592038.bmp_pp79_L2_V1.0_veridical_freeview_isoTrue_fps144.mp4",""
"null","","","html-keyboard-response","547","3571561","0.0-547.0","kp5vktju","","<span style=""color:Black; font-size:50px;"">Agent B","null","","","","",""
"null","","","video-keyboard-response","548","3574255","0.0-548.0","kp5vktju","","","null","","Agent B","scrambled","FOR_REV_MAP_BLOBBY_STIM/1592038.bmp_pp79_L2_V1.0_veridical_freeview_isoTrue_fps144_reversed_REAL.mp4",""
"","","","call-function","549","3574256","0.0-549.0","kp5vktju","","","","","","","",""
"1845.1899999999441","{""judgement"":0}","[0]","survey-likert","550","3576102","0.0-550.0","kp5vktju","","","","","","","","0"
"1490.6899999999441","{""confidence"":0}","[0]","survey-likert","551","3577595","0.0-551.0","kp5vktju","","","","","","","",""
"","","","call-function","552","3577595","0.0-552.0","kp5vktju","","","","","","","",""
"null","","","html-keyboard-response","553","3579097","0.0-553.0","kp5vktju","","<span style=""color:Black; font-size:50px;"">Agent A","null","","","","",""
"null","","","video-keyboard-response","554","3581864","0.0-554.0","kp5vktju","","","null","","Agent A","veridical","FOR_REV_MAP_BLOBBY_STIM/1592047.bmp_pp51_L1_V1.0_veridical_freeview_isoTrue_fps144.mp4",""
"null","","","html-keyboard-response","555","3583366","0.0-555.0","kp5vktju","","<span style=""color:Black; font-size:50px;"">Agent B","null","","","","",""
"null","","","video-keyboard-response","556","3586135","0.0-556.0","kp5vktju","","","null","","Agent B","scrambled","FOR_REV_MAP_BLOBBY_STIM/1592047.bmp_pp51_L1_V1.0_veridical_freeview_isoTrue_fps144_reversed_REAL.mp4",""
"","","","call-function","557","3586135","0.0-557.0","kp5vktju","","","","","","","",""
"1580.345000000205","{""judgement"":0}","[0]","survey-likert","558","3587716","0.0-558.0","kp5vktju","","","","","","","","0"
"1306.3149999999441","{""confidence"":0}","[0]","survey-likert","559","3589024","0.0-559.0","kp5vktju","","","","","","","",""
"","","","call-function","560","3589024","0.0-560.0","kp5vktju","","","","","","","",""
"null","","","html-keyboard-response","561","3590526","0.0-561.0","kp5vktju","","<span style=""color:Black; font-size:50px;"">Agent A","null","","","","",""
"null","","","video-keyboard-response","562","3593259","0.0-562.0","kp5vktju","","","null","","Agent A","scrambled","FOR_REV_MAP_BLOBBY_STIM/285715.bmp_pp67_L2_V1.0_veridical_freeview_isoTrue_fps144_reversed_REAL.mp4",""
"null","","","html-keyboard-response","563","3594763","0.0-563.0","kp5vktju","","<span style=""color:Black; font-size:50px;"">Agent B","null","","","","",""
"null","","","video-keyboard-response","564","3597497","0.0-564.0","kp5vktju","","","null","","Agent B","veridical","FOR_REV_MAP_BLOBBY_STIM/285715.bmp_pp67_L2_V1.0_veridical_freeview_isoTrue_fps144.mp4",""
"","","","call-function","565","3597498","0.0-565.0","kp5vktju","","","","","","","",""
"1835.964999999851","{""judgement"":1}","[0]","survey-likert","566","3599335","0.0-566.0","kp5vktju","","","","","","","","1"
"1528.3100000000559","{""confidence"":1}","[0]","survey-likert","567","3600864","0.0-567.0","kp5vktju","","","","","","","",""
"","","","call-function","568","3600865","0.0-568.0","kp5vktju","","","","","","","",""
"null","","","html-keyboard-response","569","3602370","0.0-569.0","kp5vktju","","<span style=""color:Black; font-size:50px;"">Agent A","null","","","","",""
"null","","","video-keyboard-response","570","3605183","0.0-570.0","kp5vktju","","","null","","Agent A","scrambled","FOR_REV_MAP_BLOBBY_STIM/713652.bmp_pp89_L1_V1.0_veridical_freeview_isoTrue_fps144_reversed_REAL.mp4",""
"null","","","html-keyboard-response","571","3606688","0.0-571.0","kp5vktju","","<span style=""color:Black; font-size:50px;"">Agent B","null","","","","",""
"null","","","video-keyboard-response","572","3609496","0.0-572.0","kp5vktju","","","null","","Agent B","veridical","FOR_REV_MAP_BLOBBY_STIM/713652.bmp_pp89_L1_V1.0_veridical_freeview_isoTrue_fps144.mp4",""
"","","","call-function","573","3609497","0.0-573.0","kp5vktju","","","","","","","",""
"2991.279999999795","{""judgement"":0}","[0]","survey-likert","574","3612489","0.0-574.0","kp5vktju","","","","","","","","1"
"1361.7099999999627","{""confidence"":0}","[0]","survey-likert","575","3613851","0.0-575.0","kp5vktju","","","","","","","",""
"","","","call-function","576","3613852","0.0-576.0","kp5vktju","","","","","","","",""
"null","","","html-keyboard-response","577","3615354","0.0-577.0","kp5vktju","","<span style=""color:Black; font-size:50px;"">Agent A","null","","","","",""
"null","","","video-keyboard-response","578","3618151","0.0-578.0","kp5vktju","","","null","","Agent A","veridical","FOR_REV_MAP_BLOBBY_STIM/1592921.bmp_pp69_L3_V1.0_veridical_freeview_isoTrue_fps144.mp4",""
"null","","","html-keyboard-response","579","3619653","0.0-579.0","kp5vktju","","<span style=""color:Black; font-size:50px;"">Agent B","null","","","","",""
"null","","","video-keyboard-response","580","3622452","0.0-580.0","kp5vktju","","","null","","Agent B","scrambled","FOR_REV_MAP_BLOBBY_STIM/1592921.bmp_pp69_L3_V1.0_veridical_freeview_isoTrue_fps144_reversed_REAL.mp4",""
"","","","call-function","581","3622453","0.0-581.0","kp5vktju","","","","","","","",""
"2045.3499999996275","{""judgement"":1}","[0]","survey-likert","582","3624499","0.0-582.0","kp5vktju","","","","","","","","0"
"1228.4400000004098","{""confidence"":0}","[0]","survey-likert","583","3625729","0.0-583.0","kp5vktju","","","","","","","",""
"1073.4849999998696","","","instructions","584","3626803","0.0-584.0","kp5vktju","[{""page_index"":0,""viewing_time"":1073.3500000000931}]","","","","","","",""
"1627.8050000001676","","","instructions","585","3628431","0.0-585.0","kp5vktju","[{""page_index"":0,""viewing_time"":1627.6899999999441}]","","","","","","",""
"7769.479999999981","{""post-1"":0}","[0]","survey-likert","586","3636202","0.0-586.0","kp5vktju","","","","","","","",""
"2354.689999999944","{""post-1"":0}","[0]","survey-likert","587","3638559","0.0-587.0","kp5vktju","","","","","","","",""
"4611.9550000000745","{""post-2"":0}","[0]","survey-likert","588","3643173","0.0-588.0","kp5vktju","","","","","","","",""
"4613.910000000149","{""post-2"":0}","[0]","survey-likert","589","3647789","0.0-589.0","kp5vktju","","","","","","","",""
"3176.2199999997392","{""post-3"":0}","[0]","survey-likert","590","3650966","0.0-590.0","kp5vktju","","","","","","","",""
"2847.064999999944","{""post-3"":0}","[0]","survey-likert","591","3653815","0.0-591.0","kp5vktju","","","","","","","",""
"2764.0200000000186","{""post-4"":0}","[0]","survey-likert","592","3656580","0.0-592.0","kp5vktju","","","","","","","",""
"3540.3199999998324","{""post-4"":0}","[0]","survey-likert","593","3660122","0.0-593.0","kp5vktju","","","","","","","",""
"8387.470000000205","{""post-5"":1}","[0]","survey-likert","594","3668511","0.0-594.0","kp5vktju","","","","","","","",""
"3158.1400000001304","{""post-5"":1}","[0]","survey-likert","595","3671670","0.0-595.0","kp5vktju","","","","","","","",""
"33317.044999999925","{""Q0"":""I had to take much longer and more frequent breaks than when looking at real images, this felt more tiring for the eyes.""}","","survey-text","596","3704992","0.0-596.0","kp5vktju","","","","","","","",""
"65743.60499999998","{""Q0"":""I just looked and remembered where the hot spots started and ended. If they started in the center I would select that agent as more human because it seems to be the most likely way humans view images (since I couldn't see the images, it felt like the best guess).""}","","survey-text","597","3770740","0.0-597.0","kp5vktju","","","","","","","",""
"42625.689999999944","{""Q0"":""extremely tiring, I spent a lot of energy trying to remember and analyze the hot spots. I had to get up and stretch a few times.""}","","survey-text","598","3813370","0.0-598.0","kp5vktju","","","","","","","",""
"1859.1150000002235","","","instructions","599","3815230","0.0-599.0","kp5vktju","[{""page_index"":0,""viewing_time"":1858.9750000000931}]","","","","","","",""
"1037671.2300000004","{""Experimenter_end"":[""Printed ID# kp5vktju on consent form"",""Given subject SONA credit or payment"",""Given the subject debrief form""]}","[0]","survey-multi-select","600","4852905","0.0-600.0","kp5vktju","","","","","","","",""
