"rt","responses","question_order","trial_type","trial_index","time_elapsed","internal_node_id","ID","view_history","stimulus","key_press","value","agent","condition","image","correct_answer"
"89245.52","{""Experimenter"":[""Confirmed subject's identity (ID card)"",""Confirmed normal or corrected-to-normal vision"",""Obtained consent (signature and date)"",""Checked the test room lighting"",""Checked computer screen lighting"",""Checked distance from screen to chin rest (50cm)"",""Cleaned and adjusted chin rest"",""Counterbalanced the order of the tasks"",""Opened the experiment in Firefox"",""Made the experiment full screen"",""Encouraged subject to silence phone, put away distractors, etc.""]}","[0]","survey-multi-select","0","89254","0.0-0.0","kqohc30j","","","","","","","",""
"26931.5","","","instructions","1","116187","0.0-1.0","kqohc30j","[{""page_index"":0,""viewing_time"":26931.35500000001}]","","","","","","",""
"11881.935000000012","","","instructions","2","128069","0.0-2.0","kqohc30j","[{""page_index"":0,""viewing_time"":1609.7649999999994},{""page_index"":1,""viewing_time"":6237.985000000001},{""page_index"":2,""viewing_time"":4034.0650000000023}]","","","","","","",""
"4048.7899999999936","","","instructions","3","132119","0.0-3.0","kqohc30j","[{""page_index"":0,""viewing_time"":4048.6399999999994}]","","","","","","",""
"null","","","video-keyboard-response","4","135193","0.0-4.0","kqohc30j","","","null","","","","",""
"26947.959999999992","","","instructions","5","162141","0.0-5.0","kqohc30j","[{""page_index"":0,""viewing_time"":7484.529999999999},{""page_index"":1,""viewing_time"":3178.8649999999907},{""page_index"":2,""viewing_time"":1428.304999999993},{""page_index"":3,""viewing_time"":5436.804999999993},{""page_index"":4,""viewing_time"":9418.860000000015}]","","","","","","",""
"5692.235000000015","","","instructions","6","167835","0.0-6.0","kqohc30j","[{""page_index"":0,""viewing_time"":5692.119999999995}]","","","","","","",""
"","","","call-function","7","167836","0.0-7.0","kqohc30j","","","","","","","",""
"null","","","html-keyboard-response","8","169338","0.0-8.0","kqohc30j","","<span style=""color:Black; font-size:50px;"">Agent A","null","","","","",""
"null","","","video-keyboard-response","9","172409","0.0-9.0","kqohc30j","","","null","","Agent A","veridical","STIM_SET_1/713017.bmp_pp152_L2_V1.0_veridical_freeview_isoFalse.mp4",""
"null","","","html-keyboard-response","10","173913","0.0-10.0","kqohc30j","","<span style=""color:Black; font-size:50px;"">Agent B","null","","","","",""
"null","","","video-keyboard-response","11","176985","0.0-11.0","kqohc30j","","","null","","Agent B","scrambled","STIM_SET_1/713017.bmp_pp152_L2_V1.0_scrambled_freeview_isoFalse.mp4",""
"","","","call-function","12","176985","0.0-12.0","kqohc30j","","","","","","","",""
"3961.8850000000093","{""judgement"":1}","[0]","survey-likert","13","180948","0.0-13.0","kqohc30j","","","","","","","","0"
"2737.665000000008","{""confidence"":0}","[0]","survey-likert","14","183687","0.0-14.0","kqohc30j","","","","","","","",""
"","","","call-function","15","183688","0.0-15.0","kqohc30j","","","","","","","",""
"null","","","html-keyboard-response","16","185192","0.0-16.0","kqohc30j","","<span style=""color:Black; font-size:50px;"">Agent A","null","","","","",""
"null","","","video-keyboard-response","17","188272","0.0-17.0","kqohc30j","","","null","","Agent A","veridical","STIM_SET_1/1593146.bmp_pp93_L1_V1.0_veridical_freeview_isoFalse.mp4",""
"null","","","html-keyboard-response","18","189775","0.0-18.0","kqohc30j","","<span style=""color:Black; font-size:50px;"">Agent B","null","","","","",""
"null","","","video-keyboard-response","19","192852","0.0-19.0","kqohc30j","","","null","","Agent B","scrambled","STIM_SET_1/1593146.bmp_pp93_L1_V1.0_scrambled_freeview_isoFalse.mp4",""
"","","","call-function","20","192852","0.0-20.0","kqohc30j","","","","","","","",""
"2422.600000000006","{""judgement"":0}","[0]","survey-likert","21","195276","0.0-21.0","kqohc30j","","","","","","","","0"
"2062.029999999999","{""confidence"":1}","[0]","survey-likert","22","197340","0.0-22.0","kqohc30j","","","","","","","",""
"","","","call-function","23","197340","0.0-23.0","kqohc30j","","","","","","","",""
"null","","","html-keyboard-response","24","198842","0.0-24.0","kqohc30j","","<span style=""color:Black; font-size:50px;"">Agent A","null","","","","",""
"null","","","video-keyboard-response","25","201956","0.0-25.0","kqohc30j","","","null","","Agent A","veridical","STIM_SET_1/1592362.bmp_pp95_L2_V1.0_veridical_freeview_isoFalse.mp4",""
"null","","","html-keyboard-response","26","203459","0.0-26.0","kqohc30j","","<span style=""color:Black; font-size:50px;"">Agent B","null","","","","",""
"null","","","video-keyboard-response","27","206569","0.0-27.0","kqohc30j","","","null","","Agent B","scrambled","STIM_SET_1/1592362.bmp_pp95_L2_V1.0_scrambled_freeview_isoFalse.mp4",""
"","","","call-function","28","206569","0.0-28.0","kqohc30j","","","","","","","",""
"2086.305000000022","{""judgement"":0}","[0]","survey-likert","29","208656","0.0-29.0","kqohc30j","","","","","","","","0"
"1772.2200000000012","{""confidence"":1}","[0]","survey-likert","30","210429","0.0-30.0","kqohc30j","","","","","","","",""
"","","","call-function","31","210430","0.0-31.0","kqohc30j","","","","","","","",""
"null","","","html-keyboard-response","32","211933","0.0-32.0","kqohc30j","","<span style=""color:Black; font-size:50px;"">Agent A","null","","","","",""
"null","","","video-keyboard-response","33","215043","0.0-33.0","kqohc30j","","","null","","Agent A","veridical","STIM_SET_1/1159572.bmp_pp71_L1_V1.0_veridical_freeview_isoFalse.mp4",""
"null","","","html-keyboard-response","34","216546","0.0-34.0","kqohc30j","","<span style=""color:Black; font-size:50px;"">Agent B","null","","","","",""
"null","","","video-keyboard-response","35","219657","0.0-35.0","kqohc30j","","","null","","Agent B","scrambled","STIM_SET_1/1159572.bmp_pp71_L1_V1.0_scrambled_freeview_isoFalse.mp4",""
"","","","call-function","36","219657","0.0-36.0","kqohc30j","","","","","","","",""
"2013.945000000007","{""judgement"":0}","[0]","survey-likert","37","221673","0.0-37.0","kqohc30j","","","","","","","","0"
"1435.195000000007","{""confidence"":2}","[0]","survey-likert","38","223109","0.0-38.0","kqohc30j","","","","","","","",""
"","","","call-function","39","223110","0.0-39.0","kqohc30j","","","","","","","",""
"null","","","html-keyboard-response","40","224611","0.0-40.0","kqohc30j","","<span style=""color:Black; font-size:50px;"">Agent A","null","","","","",""
"null","","","video-keyboard-response","41","227678","0.0-41.0","kqohc30j","","","null","","Agent A","scrambled","STIM_SET_1/1592133.bmp_pp75_L1_V1.0_scrambled_freeview_isoFalse.mp4",""
"null","","","html-keyboard-response","42","229183","0.0-42.0","kqohc30j","","<span style=""color:Black; font-size:50px;"">Agent B","null","","","","",""
"null","","","video-keyboard-response","43","232251","0.0-43.0","kqohc30j","","","null","","Agent B","veridical","STIM_SET_1/1592133.bmp_pp75_L1_V1.0_veridical_freeview_isoFalse.mp4",""
"","","","call-function","44","232252","0.0-44.0","kqohc30j","","","","","","","",""
"2346.5050000000047","{""judgement"":1}","[0]","survey-likert","45","234599","0.0-45.0","kqohc30j","","","","","","","","1"
"4974.420000000013","{""confidence"":0}","[0]","survey-likert","46","239575","0.0-46.0","kqohc30j","","","","","","","",""
"","","","call-function","47","239576","0.0-47.0","kqohc30j","","","","","","","",""
"null","","","html-keyboard-response","48","241079","0.0-48.0","kqohc30j","","<span style=""color:Black; font-size:50px;"">Agent A","null","","","","",""
"null","","","video-keyboard-response","49","244162","0.0-49.0","kqohc30j","","","null","","Agent A","veridical","STIM_SET_1/1591994.bmp_pp69_L3_V1.0_veridical_freeview_isoFalse.mp4",""
"null","","","html-keyboard-response","50","245665","0.0-50.0","kqohc30j","","<span style=""color:Black; font-size:50px;"">Agent B","null","","","","",""
"null","","","video-keyboard-response","51","248745","0.0-51.0","kqohc30j","","","null","","Agent B","scrambled","STIM_SET_1/1591994.bmp_pp69_L3_V1.0_scrambled_freeview_isoFalse.mp4",""
"","","","call-function","52","248746","0.0-52.0","kqohc30j","","","","","","","",""
"2992.1750000000175","{""judgement"":1}","[0]","survey-likert","53","251739","0.0-53.0","kqohc30j","","","","","","","","0"
"1415.4100000000035","{""confidence"":2}","[0]","survey-likert","54","253155","0.0-54.0","kqohc30j","","","","","","","",""
"","","","call-function","55","253156","0.0-55.0","kqohc30j","","","","","","","",""
"null","","","html-keyboard-response","56","254657","0.0-56.0","kqohc30j","","<span style=""color:Black; font-size:50px;"">Agent A","null","","","","",""
"null","","","video-keyboard-response","57","257728","0.0-57.0","kqohc30j","","","null","","Agent A","veridical","STIM_SET_1/1592727.bmp_pp59_L3_V1.0_veridical_freeview_isoFalse.mp4",""
"null","","","html-keyboard-response","58","259231","0.0-58.0","kqohc30j","","<span style=""color:Black; font-size:50px;"">Agent B","null","","","","",""
"null","","","video-keyboard-response","59","262332","0.0-59.0","kqohc30j","","","null","","Agent B","scrambled","STIM_SET_1/1592727.bmp_pp59_L3_V1.0_scrambled_freeview_isoFalse.mp4",""
"","","","call-function","60","262333","0.0-60.0","kqohc30j","","","","","","","",""
"3035.6900000000023","{""judgement"":0}","[0]","survey-likert","61","265369","0.0-61.0","kqohc30j","","","","","","","","0"
"2153.9500000000116","{""confidence"":1}","[0]","survey-likert","62","267524","0.0-62.0","kqohc30j","","","","","","","",""
"","","","call-function","63","267524","0.0-63.0","kqohc30j","","","","","","","",""
"null","","","html-keyboard-response","64","269027","0.0-64.0","kqohc30j","","<span style=""color:Black; font-size:50px;"">Agent A","null","","","","",""
"null","","","video-keyboard-response","65","272147","0.0-65.0","kqohc30j","","","null","","Agent A","scrambled","STIM_SET_1/285905.bmp_pp57_L1_V1.0_scrambled_freeview_isoFalse.mp4",""
"null","","","html-keyboard-response","66","273649","0.0-66.0","kqohc30j","","<span style=""color:Black; font-size:50px;"">Agent B","null","","","","",""
"null","","","video-keyboard-response","67","276769","0.0-67.0","kqohc30j","","","null","","Agent B","veridical","STIM_SET_1/285905.bmp_pp57_L1_V1.0_veridical_freeview_isoFalse.mp4",""
"","","","call-function","68","276769","0.0-68.0","kqohc30j","","","","","","","",""
"2158.570000000007","{""judgement"":1}","[0]","survey-likert","69","278929","0.0-69.0","kqohc30j","","","","","","","","1"
"1393.0750000000116","{""confidence"":2}","[0]","survey-likert","70","280323","0.0-70.0","kqohc30j","","","","","","","",""
"","","","call-function","71","280323","0.0-71.0","kqohc30j","","","","","","","",""
"null","","","html-keyboard-response","72","281827","0.0-72.0","kqohc30j","","<span style=""color:Black; font-size:50px;"">Agent A","null","","","","",""
"null","","","video-keyboard-response","73","284917","0.0-73.0","kqohc30j","","","null","","Agent A","veridical","STIM_SET_1/713684.bmp_pp85_L3_V1.0_veridical_freeview_isoFalse.mp4",""
"null","","","html-keyboard-response","74","286424","0.0-74.0","kqohc30j","","<span style=""color:Black; font-size:50px;"">Agent B","null","","","","",""
"null","","","video-keyboard-response","75","289522","0.0-75.0","kqohc30j","","","null","","Agent B","scrambled","STIM_SET_1/713684.bmp_pp85_L3_V1.0_scrambled_freeview_isoFalse.mp4",""
"","","","call-function","76","289523","0.0-76.0","kqohc30j","","","","","","","",""
"6400.434999999998","{""judgement"":1}","[0]","survey-likert","77","295924","0.0-77.0","kqohc30j","","","","","","","","0"
"2034.0900000000256","{""confidence"":0}","[0]","survey-likert","78","297959","0.0-78.0","kqohc30j","","","","","","","",""
"","","","call-function","79","297960","0.0-79.0","kqohc30j","","","","","","","",""
"null","","","html-keyboard-response","80","299465","0.0-80.0","kqohc30j","","<span style=""color:Black; font-size:50px;"">Agent A","null","","","","",""
"null","","","video-keyboard-response","81","302533","0.0-81.0","kqohc30j","","","null","","Agent A","scrambled","STIM_SET_1/1593035.bmp_pp94_L2_V1.0_scrambled_freeview_isoFalse.mp4",""
"null","","","html-keyboard-response","82","304039","0.0-82.0","kqohc30j","","<span style=""color:Black; font-size:50px;"">Agent B","null","","","","",""
"null","","","video-keyboard-response","83","307151","0.0-83.0","kqohc30j","","","null","","Agent B","veridical","STIM_SET_1/1593035.bmp_pp94_L2_V1.0_veridical_freeview_isoFalse.mp4",""
"","","","call-function","84","307151","0.0-84.0","kqohc30j","","","","","","","",""
"4672.005000000005","{""judgement"":1}","[0]","survey-likert","85","311824","0.0-85.0","kqohc30j","","","","","","","","1"
"1619.8800000000047","{""confidence"":0}","[0]","survey-likert","86","313445","0.0-86.0","kqohc30j","","","","","","","",""
"3468.2550000000047","","","instructions","87","316914","0.0-87.0","kqohc30j","[{""page_index"":0,""viewing_time"":1383.4500000000116},{""page_index"":1,""viewing_time"":1027.1849999999977},{""page_index"":2,""viewing_time"":1057.460000000021}]","","","","","","",""
"7169.989999999991","","","instructions","88","324084","0.0-88.0","kqohc30j","[{""page_index"":0,""viewing_time"":1002.6349999999511},{""page_index"":1,""viewing_time"":5393.015000000014},{""page_index"":2,""viewing_time"":774.2150000000256}]","","","","","","",""
"","","","call-function","89","324085","0.0-89.0","kqohc30j","","","","","","","",""
"null","","","html-keyboard-response","90","325588","0.0-90.0","kqohc30j","","<span style=""color:Black; font-size:50px;"">Agent A","null","","","","",""
"null","","","video-keyboard-response","91","328669","0.0-91.0","kqohc30j","","","null","","Agent A","veridical","STIM_SET_1/1159784.bmp_pp73_L3_V1.0_veridical_freeview_isoFalse.mp4",""
"null","","","html-keyboard-response","92","330172","0.0-92.0","kqohc30j","","<span style=""color:Black; font-size:50px;"">Agent B","null","","","","",""
"null","","","video-keyboard-response","93","333249","0.0-93.0","kqohc30j","","","null","","Agent B","scrambled","STIM_SET_1/1159784.bmp_pp73_L3_V1.0_scrambled_freeview_isoFalse.mp4",""
"","","","call-function","94","333250","0.0-94.0","kqohc30j","","","","","","","",""
"2804.3099999999977","{""judgement"":0}","[0]","survey-likert","95","336055","0.0-95.0","kqohc30j","","","","","","","","0"
"2170.170000000042","{""confidence"":0}","[0]","survey-likert","96","338227","0.0-96.0","kqohc30j","","","","","","","",""
"","","","call-function","97","338227","0.0-97.0","kqohc30j","","","","","","","",""
"null","","","html-keyboard-response","98","339730","0.0-98.0","kqohc30j","","<span style=""color:Black; font-size:50px;"">Agent A","null","","","","",""
"null","","","video-keyboard-response","99","342808","0.0-99.0","kqohc30j","","","null","","Agent A","scrambled","STIM_SET_1/1591954.bmp_pp62_L2_V1.0_scrambled_freeview_isoFalse.mp4",""
"null","","","html-keyboard-response","100","344310","0.0-100.0","kqohc30j","","<span style=""color:Black; font-size:50px;"">Agent B","null","","","","",""
"null","","","video-keyboard-response","101","347390","0.0-101.0","kqohc30j","","","null","","Agent B","veridical","STIM_SET_1/1591954.bmp_pp62_L2_V1.0_veridical_freeview_isoFalse.mp4",""
"","","","call-function","102","347390","0.0-102.0","kqohc30j","","","","","","","",""
"1946.3550000000396","{""judgement"":0}","[0]","survey-likert","103","349338","0.0-103.0","kqohc30j","","","","","","","","1"
"2262.1149999999907","{""confidence"":1}","[0]","survey-likert","104","351601","0.0-104.0","kqohc30j","","","","","","","",""
"","","","call-function","105","351601","0.0-105.0","kqohc30j","","","","","","","",""
"null","","","html-keyboard-response","106","353108","0.0-106.0","kqohc30j","","<span style=""color:Black; font-size:50px;"">Agent A","null","","","","",""
"null","","","video-keyboard-response","107","356191","0.0-107.0","kqohc30j","","","null","","Agent A","scrambled","STIM_SET_1/285751.bmp_pp55_L3_V1.0_scrambled_freeview_isoFalse.mp4",""
"null","","","html-keyboard-response","108","357696","0.0-108.0","kqohc30j","","<span style=""color:Black; font-size:50px;"">Agent B","null","","","","",""
"null","","","video-keyboard-response","109","360816","0.0-109.0","kqohc30j","","","null","","Agent B","veridical","STIM_SET_1/285751.bmp_pp55_L3_V1.0_veridical_freeview_isoFalse.mp4",""
"","","","call-function","110","360816","0.0-110.0","kqohc30j","","","","","","","",""
"2209.7799999999697","{""judgement"":1}","[0]","survey-likert","111","363027","0.0-111.0","kqohc30j","","","","","","","","1"
"1372.030000000028","{""confidence"":1}","[0]","survey-likert","112","364400","0.0-112.0","kqohc30j","","","","","","","",""
"","","","call-function","113","364400","0.0-113.0","kqohc30j","","","","","","","",""
"null","","","html-keyboard-response","114","365902","0.0-114.0","kqohc30j","","<span style=""color:Black; font-size:50px;"">Agent A","null","","","","",""
"null","","","video-keyboard-response","115","369020","0.0-115.0","kqohc30j","","","null","","Agent A","veridical","STIM_SET_1/713211.bmp_pp100_L3_V1.0_veridical_freeview_isoFalse.mp4",""
"null","","","html-keyboard-response","116","370524","0.0-116.0","kqohc30j","","<span style=""color:Black; font-size:50px;"">Agent B","null","","","","",""
"null","","","video-keyboard-response","117","373643","0.0-117.0","kqohc30j","","","null","","Agent B","scrambled","STIM_SET_1/713211.bmp_pp100_L3_V1.0_scrambled_freeview_isoFalse.mp4",""
"","","","call-function","118","373643","0.0-118.0","kqohc30j","","","","","","","",""
"2734.859999999986","{""judgement"":0}","[0]","survey-likert","119","376379","0.0-119.0","kqohc30j","","","","","","","","0"
"1746.2550000000047","{""confidence"":2}","[0]","survey-likert","120","378126","0.0-120.0","kqohc30j","","","","","","","",""
"","","","call-function","121","378127","0.0-121.0","kqohc30j","","","","","","","",""
"null","","","html-keyboard-response","122","379629","0.0-122.0","kqohc30j","","<span style=""color:Black; font-size:50px;"">Agent A","null","","","","",""
"null","","","video-keyboard-response","123","382752","0.0-123.0","kqohc30j","","","null","","Agent A","veridical","STIM_SET_1/713666.bmp_pp97_L3_V1.0_veridical_freeview_isoFalse.mp4",""
"null","","","html-keyboard-response","124","384259","0.0-124.0","kqohc30j","","<span style=""color:Black; font-size:50px;"">Agent B","null","","","","",""
"null","","","video-keyboard-response","125","387379","0.0-125.0","kqohc30j","","","null","","Agent B","scrambled","STIM_SET_1/713666.bmp_pp97_L3_V1.0_scrambled_freeview_isoFalse.mp4",""
"","","","call-function","126","387380","0.0-126.0","kqohc30j","","","","","","","",""
"2416.2150000000256","{""judgement"":1}","[0]","survey-likert","127","389797","0.0-127.0","kqohc30j","","","","","","","","0"
"1322.210000000021","{""confidence"":2}","[0]","survey-likert","128","391121","0.0-128.0","kqohc30j","","","","","","","",""
"","","","call-function","129","391121","0.0-129.0","kqohc30j","","","","","","","",""
"null","","","html-keyboard-response","130","392622","0.0-130.0","kqohc30j","","<span style=""color:Black; font-size:50px;"">Agent A","null","","","","",""
"null","","","video-keyboard-response","131","395725","0.0-131.0","kqohc30j","","","null","","Agent A","scrambled","STIM_SET_1/1592817.bmp_pp55_L3_V1.0_scrambled_freeview_isoFalse.mp4",""
"null","","","html-keyboard-response","132","397229","0.0-132.0","kqohc30j","","<span style=""color:Black; font-size:50px;"">Agent B","null","","","","",""
"null","","","video-keyboard-response","133","400296","0.0-133.0","kqohc30j","","","null","","Agent B","veridical","STIM_SET_1/1592817.bmp_pp55_L3_V1.0_veridical_freeview_isoFalse.mp4",""
"","","","call-function","134","400296","0.0-134.0","kqohc30j","","","","","","","",""
"3269.2200000000303","{""judgement"":1}","[0]","survey-likert","135","403566","0.0-135.0","kqohc30j","","","","","","","","1"
"3887.539999999979","{""confidence"":0}","[0]","survey-likert","136","407455","0.0-136.0","kqohc30j","","","","","","","",""
"","","","call-function","137","407455","0.0-137.0","kqohc30j","","","","","","","",""
"null","","","html-keyboard-response","138","408962","0.0-138.0","kqohc30j","","<span style=""color:Black; font-size:50px;"">Agent A","null","","","","",""
"null","","","video-keyboard-response","139","412039","0.0-139.0","kqohc30j","","","null","","Agent A","veridical","STIM_SET_1/498175.bmp_pp154_L1_V1.0_veridical_freeview_isoFalse.mp4",""
"null","","","html-keyboard-response","140","413543","0.0-140.0","kqohc30j","","<span style=""color:Black; font-size:50px;"">Agent B","null","","","","",""
"null","","","video-keyboard-response","141","416623","0.0-141.0","kqohc30j","","","null","","Agent B","scrambled","STIM_SET_1/498175.bmp_pp154_L1_V1.0_scrambled_freeview_isoFalse.mp4",""
"","","","call-function","142","416623","0.0-142.0","kqohc30j","","","","","","","",""
"2179.4400000000023","{""judgement"":0}","[0]","survey-likert","143","418804","0.0-143.0","kqohc30j","","","","","","","","0"
"2383.9550000000163","{""confidence"":2}","[0]","survey-likert","144","421189","0.0-144.0","kqohc30j","","","","","","","",""
"","","","call-function","145","421189","0.0-145.0","kqohc30j","","","","","","","",""
"null","","","html-keyboard-response","146","422695","0.0-146.0","kqohc30j","","<span style=""color:Black; font-size:50px;"">Agent A","null","","","","",""
"null","","","video-keyboard-response","147","425762","0.0-147.0","kqohc30j","","","null","","Agent A","scrambled","STIM_SET_1/286001.bmp_pp54_L2_V1.0_scrambled_freeview_isoFalse.mp4",""
"null","","","html-keyboard-response","148","427264","0.0-148.0","kqohc30j","","<span style=""color:Black; font-size:50px;"">Agent B","null","","","","",""
"null","","","video-keyboard-response","149","430361","0.0-149.0","kqohc30j","","","null","","Agent B","veridical","STIM_SET_1/286001.bmp_pp54_L2_V1.0_veridical_freeview_isoFalse.mp4",""
"","","","call-function","150","430362","0.0-150.0","kqohc30j","","","","","","","",""
"2569.875","{""judgement"":1}","[0]","survey-likert","151","432933","0.0-151.0","kqohc30j","","","","","","","","1"
"1554.8249999999534","{""confidence"":1}","[0]","survey-likert","152","434489","0.0-152.0","kqohc30j","","","","","","","",""
"","","","call-function","153","434490","0.0-153.0","kqohc30j","","","","","","","",""
"null","","","html-keyboard-response","154","435993","0.0-154.0","kqohc30j","","<span style=""color:Black; font-size:50px;"">Agent A","null","","","","",""
"null","","","video-keyboard-response","155","439064","0.0-155.0","kqohc30j","","","null","","Agent A","scrambled","STIM_SET_1/1159882.bmp_pp61_L2_V1.0_scrambled_freeview_isoFalse.mp4",""
"null","","","html-keyboard-response","156","440566","0.0-156.0","kqohc30j","","<span style=""color:Black; font-size:50px;"">Agent B","null","","","","",""
"null","","","video-keyboard-response","157","443636","0.0-157.0","kqohc30j","","","null","","Agent B","veridical","STIM_SET_1/1159882.bmp_pp61_L2_V1.0_veridical_freeview_isoFalse.mp4",""
"","","","call-function","158","443636","0.0-158.0","kqohc30j","","","","","","","",""
"1759.7149999999674","{""judgement"":1}","[0]","survey-likert","159","445397","0.0-159.0","kqohc30j","","","","","","","","1"
"2311.4249999999884","{""confidence"":2}","[0]","survey-likert","160","447709","0.0-160.0","kqohc30j","","","","","","","",""
"","","","call-function","161","447710","0.0-161.0","kqohc30j","","","","","","","",""
"null","","","html-keyboard-response","162","449211","0.0-162.0","kqohc30j","","<span style=""color:Black; font-size:50px;"">Agent A","null","","","","",""
"null","","","video-keyboard-response","163","452282","0.0-163.0","kqohc30j","","","null","","Agent A","veridical","STIM_SET_1/498170.bmp_pp153_L3_V1.0_veridical_freeview_isoFalse.mp4",""
"null","","","html-keyboard-response","164","453784","0.0-164.0","kqohc30j","","<span style=""color:Black; font-size:50px;"">Agent B","null","","","","",""
"null","","","video-keyboard-response","165","456851","0.0-165.0","kqohc30j","","","null","","Agent B","scrambled","STIM_SET_1/498170.bmp_pp153_L3_V1.0_scrambled_freeview_isoFalse.mp4",""
"","","","call-function","166","456851","0.0-166.0","kqohc30j","","","","","","","",""
"2410.6050000000396","{""judgement"":1}","[0]","survey-likert","167","459263","0.0-167.0","kqohc30j","","","","","","","","0"
"2245.9850000000442","{""confidence"":1}","[0]","survey-likert","168","461510","0.0-168.0","kqohc30j","","","","","","","",""
"3108.2099999999627","","","instructions","169","464618","0.0-169.0","kqohc30j","[{""page_index"":0,""viewing_time"":1009.5499999999884},{""page_index"":1,""viewing_time"":1011.5349999999744},{""page_index"":2,""viewing_time"":1086.9700000000303}]","","","","","","",""
"4712.885000000009","","","instructions","170","469332","0.0-170.0","kqohc30j","[{""page_index"":0,""viewing_time"":864.8800000000047},{""page_index"":1,""viewing_time"":2237.5999999999767},{""page_index"":2,""viewing_time"":1610.1849999999977}]","","","","","","",""
"","","","call-function","171","469332","0.0-171.0","kqohc30j","","","","","","","",""
"null","","","html-keyboard-response","172","470833","0.0-172.0","kqohc30j","","<span style=""color:Black; font-size:50px;"">Agent A","null","","","","",""
"null","","","video-keyboard-response","173","473905","0.0-173.0","kqohc30j","","","null","","Agent A","veridical","STIM_SET_1/497950.bmp_pp151_L1_V1.0_veridical_freeview_isoFalse.mp4",""
"null","","","html-keyboard-response","174","475406","0.0-174.0","kqohc30j","","<span style=""color:Black; font-size:50px;"">Agent B","null","","","","",""
"null","","","video-keyboard-response","175","478476","0.0-175.0","kqohc30j","","","null","","Agent B","scrambled","STIM_SET_1/497950.bmp_pp151_L1_V1.0_scrambled_freeview_isoFalse.mp4",""
"","","","call-function","176","478477","0.0-176.0","kqohc30j","","","","","","","",""
"1936.2699999999604","{""judgement"":0}","[0]","survey-likert","177","480414","0.0-177.0","kqohc30j","","","","","","","","0"
"2100.7799999999697","{""confidence"":2}","[0]","survey-likert","178","482515","0.0-178.0","kqohc30j","","","","","","","",""
"","","","call-function","179","482516","0.0-179.0","kqohc30j","","","","","","","",""
"null","","","html-keyboard-response","180","484018","0.0-180.0","kqohc30j","","<span style=""color:Black; font-size:50px;"">Agent A","null","","","","",""
"null","","","video-keyboard-response","181","487128","0.0-181.0","kqohc30j","","","null","","Agent A","scrambled","STIM_SET_1/1159447.bmp_pp70_L2_V1.0_scrambled_freeview_isoFalse.mp4",""
"null","","","html-keyboard-response","182","488635","0.0-182.0","kqohc30j","","<span style=""color:Black; font-size:50px;"">Agent B","null","","","","",""
"null","","","video-keyboard-response","183","491748","0.0-183.0","kqohc30j","","","null","","Agent B","veridical","STIM_SET_1/1159447.bmp_pp70_L2_V1.0_veridical_freeview_isoFalse.mp4",""
"","","","call-function","184","491749","0.0-184.0","kqohc30j","","","","","","","",""
"5678.35500000004","{""judgement"":1}","[0]","survey-likert","185","497428","0.0-185.0","kqohc30j","","","","","","","","1"
"1447.789999999979","{""confidence"":0}","[0]","survey-likert","186","498877","0.0-186.0","kqohc30j","","","","","","","",""
"","","","call-function","187","498877","0.0-187.0","kqohc30j","","","","","","","",""
"null","","","html-keyboard-response","188","500382","0.0-188.0","kqohc30j","","<span style=""color:Black; font-size:50px;"">Agent A","null","","","","",""
"null","","","video-keyboard-response","189","503461","0.0-189.0","kqohc30j","","","null","","Agent A","veridical","STIM_SET_1/1592372.bmp_pp76_L1_V1.0_veridical_freeview_isoFalse.mp4",""
"null","","","html-keyboard-response","190","504964","0.0-190.0","kqohc30j","","<span style=""color:Black; font-size:50px;"">Agent B","null","","","","",""
"null","","","video-keyboard-response","191","508042","0.0-191.0","kqohc30j","","","null","","Agent B","scrambled","STIM_SET_1/1592372.bmp_pp76_L1_V1.0_scrambled_freeview_isoFalse.mp4",""
"","","","call-function","192","508042","0.0-192.0","kqohc30j","","","","","","","",""
"3595.6350000000093","{""judgement"":1}","[0]","survey-likert","193","511639","0.0-193.0","kqohc30j","","","","","","","","0"
"1915.195000000007","{""confidence"":0}","[0]","survey-likert","194","513555","0.0-194.0","kqohc30j","","","","","","","",""
"","","","call-function","195","513555","0.0-195.0","kqohc30j","","","","","","","",""
"null","","","html-keyboard-response","196","515058","0.0-196.0","kqohc30j","","<span style=""color:Black; font-size:50px;"">Agent A","null","","","","",""
"null","","","video-keyboard-response","197","518127","0.0-197.0","kqohc30j","","","null","","Agent A","scrambled","STIM_SET_1/1592890.bmp_pp82_L2_V1.0_scrambled_freeview_isoFalse.mp4",""
"null","","","html-keyboard-response","198","519634","0.0-198.0","kqohc30j","","<span style=""color:Black; font-size:50px;"">Agent B","null","","","","",""
"null","","","video-keyboard-response","199","522704","0.0-199.0","kqohc30j","","","null","","Agent B","veridical","STIM_SET_1/1592890.bmp_pp82_L2_V1.0_veridical_freeview_isoFalse.mp4",""
"","","","call-function","200","522705","0.0-200.0","kqohc30j","","","","","","","",""
"3124.0599999999977","{""judgement"":0}","[0]","survey-likert","201","525830","0.0-201.0","kqohc30j","","","","","","","","1"
"1469.7600000000093","{""confidence"":2}","[0]","survey-likert","202","527302","0.0-202.0","kqohc30j","","","","","","","",""
"","","","call-function","203","527303","0.0-203.0","kqohc30j","","","","","","","",""
"null","","","html-keyboard-response","204","528810","0.0-204.0","kqohc30j","","<span style=""color:Black; font-size:50px;"">Agent A","null","","","","",""
"null","","","video-keyboard-response","205","531879","0.0-205.0","kqohc30j","","","null","","Agent A","scrambled","STIM_SET_1/285994.bmp_pp92_L3_V1.0_scrambled_freeview_isoFalse.mp4",""
"null","","","html-keyboard-response","206","533384","0.0-206.0","kqohc30j","","<span style=""color:Black; font-size:50px;"">Agent B","null","","","","",""
"null","","","video-keyboard-response","207","536455","0.0-207.0","kqohc30j","","","null","","Agent B","veridical","STIM_SET_1/285994.bmp_pp92_L3_V1.0_veridical_freeview_isoFalse.mp4",""
"","","","call-function","208","536456","0.0-208.0","kqohc30j","","","","","","","",""
"2784.625","{""judgement"":1}","[0]","survey-likert","209","539241","0.0-209.0","kqohc30j","","","","","","","","1"
"3391.234999999986","{""confidence"":1}","[0]","survey-likert","210","542634","0.0-210.0","kqohc30j","","","","","","","",""
"","","","call-function","211","542634","0.0-211.0","kqohc30j","","","","","","","",""
"null","","","html-keyboard-response","212","544139","0.0-212.0","kqohc30j","","<span style=""color:Black; font-size:50px;"">Agent A","null","","","","",""
"null","","","video-keyboard-response","213","547207","0.0-213.0","kqohc30j","","","null","","Agent A","scrambled","STIM_SET_1/1592619.bmp_pp56_L3_V1.0_scrambled_freeview_isoFalse.mp4",""
"null","","","html-keyboard-response","214","548709","0.0-214.0","kqohc30j","","<span style=""color:Black; font-size:50px;"">Agent B","null","","","","",""
"null","","","video-keyboard-response","215","551777","0.0-215.0","kqohc30j","","","null","","Agent B","veridical","STIM_SET_1/1592619.bmp_pp56_L3_V1.0_veridical_freeview_isoFalse.mp4",""
"","","","call-function","216","551778","0.0-216.0","kqohc30j","","","","","","","",""
"3444.0050000000047","{""judgement"":0}","[0]","survey-likert","217","555223","0.0-217.0","kqohc30j","","","","","","","","1"
"1114.6749999999302","{""confidence"":0}","[0]","survey-likert","218","556338","0.0-218.0","kqohc30j","","","","","","","",""
"","","","call-function","219","556339","0.0-219.0","kqohc30j","","","","","","","",""
"null","","","html-keyboard-response","220","557841","0.0-220.0","kqohc30j","","<span style=""color:Black; font-size:50px;"">Agent A","null","","","","",""
"null","","","video-keyboard-response","221","560957","0.0-221.0","kqohc30j","","","null","","Agent A","veridical","STIM_SET_1/61537.bmp_pp73_L3_V1.0_veridical_freeview_isoFalse.mp4",""
"null","","","html-keyboard-response","222","562459","0.0-222.0","kqohc30j","","<span style=""color:Black; font-size:50px;"">Agent B","null","","","","",""
"null","","","video-keyboard-response","223","565575","0.0-223.0","kqohc30j","","","null","","Agent B","scrambled","STIM_SET_1/61537.bmp_pp73_L3_V1.0_scrambled_freeview_isoFalse.mp4",""
"","","","call-function","224","565575","0.0-224.0","kqohc30j","","","","","","","",""
"1501.1600000000326","{""judgement"":0}","[0]","survey-likert","225","567077","0.0-225.0","kqohc30j","","","","","","","","0"
"2428.75","{""confidence"":3}","[0]","survey-likert","226","569507","0.0-226.0","kqohc30j","","","","","","","",""
"","","","call-function","227","569508","0.0-227.0","kqohc30j","","","","","","","",""
"null","","","html-keyboard-response","228","571013","0.0-228.0","kqohc30j","","<span style=""color:Black; font-size:50px;"">Agent A","null","","","","",""
"null","","","video-keyboard-response","229","574125","0.0-229.0","kqohc30j","","","null","","Agent A","scrambled","STIM_SET_1/713089.bmp_pp60_L3_V1.0_scrambled_freeview_isoFalse.mp4",""
"null","","","html-keyboard-response","230","575630","0.0-230.0","kqohc30j","","<span style=""color:Black; font-size:50px;"">Agent B","null","","","","",""
"null","","","video-keyboard-response","231","578743","0.0-231.0","kqohc30j","","","null","","Agent B","veridical","STIM_SET_1/713089.bmp_pp60_L3_V1.0_veridical_freeview_isoFalse.mp4",""
"","","","call-function","232","578743","0.0-232.0","kqohc30j","","","","","","","",""
"1808.7249999999767","{""judgement"":1}","[0]","survey-likert","233","580553","0.0-233.0","kqohc30j","","","","","","","","1"
"1082.0449999999255","{""confidence"":1}","[0]","survey-likert","234","581636","0.0-234.0","kqohc30j","","","","","","","",""
"","","","call-function","235","581636","0.0-235.0","kqohc30j","","","","","","","",""
"null","","","html-keyboard-response","236","583138","0.0-236.0","kqohc30j","","<span style=""color:Black; font-size:50px;"">Agent A","null","","","","",""
"null","","","video-keyboard-response","237","586214","0.0-237.0","kqohc30j","","","null","","Agent A","veridical","STIM_SET_1/1592581.bmp_pp100_L3_V1.0_veridical_freeview_isoFalse.mp4",""
"null","","","html-keyboard-response","238","587719","0.0-238.0","kqohc30j","","<span style=""color:Black; font-size:50px;"">Agent B","null","","","","",""
"null","","","video-keyboard-response","239","590795","0.0-239.0","kqohc30j","","","null","","Agent B","scrambled","STIM_SET_1/1592581.bmp_pp100_L3_V1.0_scrambled_freeview_isoFalse.mp4",""
"","","","call-function","240","590796","0.0-240.0","kqohc30j","","","","","","","",""
"3550.305000000051","{""judgement"":1}","[0]","survey-likert","241","594347","0.0-241.0","kqohc30j","","","","","","","","0"
"1494.1649999999208","{""confidence"":1}","[0]","survey-likert","242","595842","0.0-242.0","kqohc30j","","","","","","","",""
"","","","call-function","243","595843","0.0-243.0","kqohc30j","","","","","","","",""
"null","","","html-keyboard-response","244","597346","0.0-244.0","kqohc30j","","<span style=""color:Black; font-size:50px;"">Agent A","null","","","","",""
"null","","","video-keyboard-response","245","600417","0.0-245.0","kqohc30j","","","null","","Agent A","scrambled","STIM_SET_1/1159768.bmp_pp89_L1_V1.0_scrambled_freeview_isoFalse.mp4",""
"null","","","html-keyboard-response","246","601922","0.0-246.0","kqohc30j","","<span style=""color:Black; font-size:50px;"">Agent B","null","","","","",""
"null","","","video-keyboard-response","247","604992","0.0-247.0","kqohc30j","","","null","","Agent B","veridical","STIM_SET_1/1159768.bmp_pp89_L1_V1.0_veridical_freeview_isoFalse.mp4",""
"","","","call-function","248","604992","0.0-248.0","kqohc30j","","","","","","","",""
"3510.7949999999255","{""judgement"":0}","[0]","survey-likert","249","608504","0.0-249.0","kqohc30j","","","","","","","","1"
"1168.609999999986","{""confidence"":0}","[0]","survey-likert","250","609674","0.0-250.0","kqohc30j","","","","","","","",""
"1971.7649999998976","","","instructions","251","611646","0.0-251.0","kqohc30j","[{""page_index"":0,""viewing_time"":879.8800000000047},{""page_index"":1,""viewing_time"":576.7149999999674},{""page_index"":2,""viewing_time"":515}]","","","","","","",""
"5536.270000000019","","","instructions","252","617183","0.0-252.0","kqohc30j","[{""page_index"":0,""viewing_time"":677.4600000000792},{""page_index"":1,""viewing_time"":3882.0599999999395},{""page_index"":2,""viewing_time"":976.5900000000838}]","","","","","","",""
"","","","call-function","253","617183","0.0-253.0","kqohc30j","","","","","","","",""
"null","","","html-keyboard-response","254","618684","0.0-254.0","kqohc30j","","<span style=""color:Black; font-size:50px;"">Agent A","null","","","","",""
"null","","","video-keyboard-response","255","621758","0.0-255.0","kqohc30j","","","null","","Agent A","scrambled","STIM_SET_1/1160168.bmp_pp53_L2_V1.0_scrambled_freeview_isoFalse.mp4",""
"null","","","html-keyboard-response","256","623260","0.0-256.0","kqohc30j","","<span style=""color:Black; font-size:50px;"">Agent B","null","","","","",""
"null","","","video-keyboard-response","257","626337","0.0-257.0","kqohc30j","","","null","","Agent B","veridical","STIM_SET_1/1160168.bmp_pp53_L2_V1.0_veridical_freeview_isoFalse.mp4",""
"","","","call-function","258","626338","0.0-258.0","kqohc30j","","","","","","","",""
"2076.82500000007","{""judgement"":1}","[0]","survey-likert","259","628417","0.0-259.0","kqohc30j","","","","","","","","1"
"3025.679999999935","{""confidence"":0}","[0]","survey-likert","260","631444","0.0-260.0","kqohc30j","","","","","","","",""
"","","","call-function","261","631445","0.0-261.0","kqohc30j","","","","","","","",""
"null","","","html-keyboard-response","262","632948","0.0-262.0","kqohc30j","","<span style=""color:Black; font-size:50px;"">Agent A","null","","","","",""
"null","","","video-keyboard-response","263","636017","0.0-263.0","kqohc30j","","","null","","Agent A","scrambled","STIM_SET_1/713681.bmp_pp86_L2_V1.0_scrambled_freeview_isoFalse.mp4",""
"null","","","html-keyboard-response","264","637520","0.0-264.0","kqohc30j","","<span style=""color:Black; font-size:50px;"">Agent B","null","","","","",""
"null","","","video-keyboard-response","265","640589","0.0-265.0","kqohc30j","","","null","","Agent B","veridical","STIM_SET_1/713681.bmp_pp86_L2_V1.0_veridical_freeview_isoFalse.mp4",""
"","","","call-function","266","640589","0.0-266.0","kqohc30j","","","","","","","",""
"3044.3549999999814","{""judgement"":1}","[0]","survey-likert","267","643635","0.0-267.0","kqohc30j","","","","","","","","1"
"3751.9899999999907","{""confidence"":0}","[0]","survey-likert","268","647388","0.0-268.0","kqohc30j","","","","","","","",""
"","","","call-function","269","647389","0.0-269.0","kqohc30j","","","","","","","",""
"null","","","html-keyboard-response","270","648892","0.0-270.0","kqohc30j","","<span style=""color:Black; font-size:50px;"">Agent A","null","","","","",""
"null","","","video-keyboard-response","271","651963","0.0-271.0","kqohc30j","","","null","","Agent A","veridical","STIM_SET_1/1592351.bmp_pp51_L1_V1.0_veridical_freeview_isoFalse.mp4",""
"null","","","html-keyboard-response","272","653469","0.0-272.0","kqohc30j","","<span style=""color:Black; font-size:50px;"">Agent B","null","","","","",""
"null","","","video-keyboard-response","273","656535","0.0-273.0","kqohc30j","","","null","","Agent B","scrambled","STIM_SET_1/1592351.bmp_pp51_L1_V1.0_scrambled_freeview_isoFalse.mp4",""
"","","","call-function","274","656535","0.0-274.0","kqohc30j","","","","","","","",""
"3339.4400000000605","{""judgement"":0}","[0]","survey-likert","275","659876","0.0-275.0","kqohc30j","","","","","","","","0"
"3711.7600000000093","{""confidence"":0}","[0]","survey-likert","276","663588","0.0-276.0","kqohc30j","","","","","","","",""
"","","","call-function","277","663589","0.0-277.0","kqohc30j","","","","","","","",""
"null","","","html-keyboard-response","278","665091","0.0-278.0","kqohc30j","","<span style=""color:Black; font-size:50px;"">Agent A","null","","","","",""
"null","","","video-keyboard-response","279","668210","0.0-279.0","kqohc30j","","","null","","Agent A","scrambled","STIM_SET_1/1592804.bmp_pp91_L3_V1.0_scrambled_freeview_isoFalse.mp4",""
"null","","","html-keyboard-response","280","669712","0.0-280.0","kqohc30j","","<span style=""color:Black; font-size:50px;"">Agent B","null","","","","",""
"null","","","video-keyboard-response","281","672827","0.0-281.0","kqohc30j","","","null","","Agent B","veridical","STIM_SET_1/1592804.bmp_pp91_L3_V1.0_veridical_freeview_isoFalse.mp4",""
"","","","call-function","282","672828","0.0-282.0","kqohc30j","","","","","","","",""
"3220.0100000000093","{""judgement"":1}","[0]","survey-likert","283","676049","0.0-283.0","kqohc30j","","","","","","","","1"
"1264.2700000000186","{""confidence"":0}","[0]","survey-likert","284","677314","0.0-284.0","kqohc30j","","","","","","","",""
"","","","call-function","285","677314","0.0-285.0","kqohc30j","","","","","","","",""
"null","","","html-keyboard-response","286","678816","0.0-286.0","kqohc30j","","<span style=""color:Black; font-size:50px;"">Agent A","null","","","","",""
"null","","","video-keyboard-response","287","681935","0.0-287.0","kqohc30j","","","null","","Agent A","scrambled","STIM_SET_1/498155.bmp_pp61_L2_V1.0_scrambled_freeview_isoFalse.mp4",""
"null","","","html-keyboard-response","288","683439","0.0-288.0","kqohc30j","","<span style=""color:Black; font-size:50px;"">Agent B","null","","","","",""
"null","","","video-keyboard-response","289","686556","0.0-289.0","kqohc30j","","","null","","Agent B","veridical","STIM_SET_1/498155.bmp_pp61_L2_V1.0_veridical_freeview_isoFalse.mp4",""
"","","","call-function","290","686556","0.0-290.0","kqohc30j","","","","","","","",""
"3790.284999999916","{""judgement"":0}","[0]","survey-likert","291","690348","0.0-291.0","kqohc30j","","","","","","","","1"
"1456.280000000028","{""confidence"":0}","[0]","survey-likert","292","691805","0.0-292.0","kqohc30j","","","","","","","",""
"","","","call-function","293","691805","0.0-293.0","kqohc30j","","","","","","","",""
"null","","","html-keyboard-response","294","693312","0.0-294.0","kqohc30j","","<span style=""color:Black; font-size:50px;"">Agent A","null","","","","",""
"null","","","video-keyboard-response","295","696414","0.0-295.0","kqohc30j","","","null","","Agent A","veridical","STIM_SET_1/1159446.bmp_pp60_L3_V1.0_veridical_freeview_isoFalse.mp4",""
"null","","","html-keyboard-response","296","697917","0.0-296.0","kqohc30j","","<span style=""color:Black; font-size:50px;"">Agent B","null","","","","",""
"null","","","video-keyboard-response","297","700980","0.0-297.0","kqohc30j","","","null","","Agent B","scrambled","STIM_SET_1/1159446.bmp_pp60_L3_V1.0_scrambled_freeview_isoFalse.mp4",""
"","","","call-function","298","700981","0.0-298.0","kqohc30j","","","","","","","",""
"3376.359999999986","{""judgement"":0}","[0]","survey-likert","299","704358","0.0-299.0","kqohc30j","","","","","","","","0"
"3045.659999999916","{""confidence"":0}","[0]","survey-likert","300","707405","0.0-300.0","kqohc30j","","","","","","","",""
"","","","call-function","301","707405","0.0-301.0","kqohc30j","","","","","","","",""
"null","","","html-keyboard-response","302","708908","0.0-302.0","kqohc30j","","<span style=""color:Black; font-size:50px;"">Agent A","null","","","","",""
"null","","","video-keyboard-response","303","711985","0.0-303.0","kqohc30j","","","null","","Agent A","veridical","STIM_SET_1/713749.bmp_pp88_L2_V1.0_veridical_freeview_isoFalse.mp4",""
"null","","","html-keyboard-response","304","713489","0.0-304.0","kqohc30j","","<span style=""color:Black; font-size:50px;"">Agent B","null","","","","",""
"null","","","video-keyboard-response","305","716567","0.0-305.0","kqohc30j","","","null","","Agent B","scrambled","STIM_SET_1/713749.bmp_pp88_L2_V1.0_scrambled_freeview_isoFalse.mp4",""
"","","","call-function","306","716568","0.0-306.0","kqohc30j","","","","","","","",""
"3188.5400000000373","{""judgement"":1}","[0]","survey-likert","307","719757","0.0-307.0","kqohc30j","","","","","","","","0"
"2549","{""confidence"":0}","[0]","survey-likert","308","722307","0.0-308.0","kqohc30j","","","","","","","",""
"","","","call-function","309","722307","0.0-309.0","kqohc30j","","","","","","","",""
"null","","","html-keyboard-response","310","723811","0.0-310.0","kqohc30j","","<span style=""color:Black; font-size:50px;"">Agent A","null","","","","",""
"null","","","video-keyboard-response","311","726891","0.0-311.0","kqohc30j","","","null","","Agent A","veridical","STIM_SET_1/1592657.bmp_pp98_L1_V1.0_veridical_freeview_isoFalse.mp4",""
"null","","","html-keyboard-response","312","728395","0.0-312.0","kqohc30j","","<span style=""color:Black; font-size:50px;"">Agent B","null","","","","",""
"null","","","video-keyboard-response","313","731513","0.0-313.0","kqohc30j","","","null","","Agent B","scrambled","STIM_SET_1/1592657.bmp_pp98_L1_V1.0_scrambled_freeview_isoFalse.mp4",""
"","","","call-function","314","731514","0.0-314.0","kqohc30j","","","","","","","",""
"3175.320000000065","{""judgement"":1}","[0]","survey-likert","315","734690","0.0-315.0","kqohc30j","","","","","","","","0"
"1051.5200000000186","{""confidence"":0}","[0]","survey-likert","316","735743","0.0-316.0","kqohc30j","","","","","","","",""
"","","","call-function","317","735743","0.0-317.0","kqohc30j","","","","","","","",""
"null","","","html-keyboard-response","318","737248","0.0-318.0","kqohc30j","","<span style=""color:Black; font-size:50px;"">Agent A","null","","","","",""
"null","","","video-keyboard-response","319","740360","0.0-319.0","kqohc30j","","","null","","Agent A","veridical","STIM_SET_1/1159829.bmp_pp91_L3_V1.0_veridical_freeview_isoFalse.mp4",""
"null","","","html-keyboard-response","320","741865","0.0-320.0","kqohc30j","","<span style=""color:Black; font-size:50px;"">Agent B","null","","","","",""
"null","","","video-keyboard-response","321","744975","0.0-321.0","kqohc30j","","","null","","Agent B","scrambled","STIM_SET_1/1159829.bmp_pp91_L3_V1.0_scrambled_freeview_isoFalse.mp4",""
"","","","call-function","322","744976","0.0-322.0","kqohc30j","","","","","","","",""
"1864.1350000000093","{""judgement"":1}","[0]","survey-likert","323","746842","0.0-323.0","kqohc30j","","","","","","","","0"
"2996.935000000056","{""confidence"":1}","[0]","survey-likert","324","749840","0.0-324.0","kqohc30j","","","","","","","",""
"","","","call-function","325","749842","0.0-325.0","kqohc30j","","","","","","","",""
"null","","","html-keyboard-response","326","751343","0.0-326.0","kqohc30j","","<span style=""color:Black; font-size:50px;"">Agent A","null","","","","",""
"null","","","video-keyboard-response","327","754417","0.0-327.0","kqohc30j","","","null","","Agent A","veridical","STIM_SET_1/1159440.bmp_pp98_L1_V1.0_veridical_freeview_isoFalse.mp4",""
"null","","","html-keyboard-response","328","755921","0.0-328.0","kqohc30j","","<span style=""color:Black; font-size:50px;"">Agent B","null","","","","",""
"null","","","video-keyboard-response","329","758995","0.0-329.0","kqohc30j","","","null","","Agent B","scrambled","STIM_SET_1/1159440.bmp_pp98_L1_V1.0_scrambled_freeview_isoFalse.mp4",""
"","","","call-function","330","758995","0.0-330.0","kqohc30j","","","","","","","",""
"2708.8150000000605","{""judgement"":0}","[0]","survey-likert","331","761705","0.0-331.0","kqohc30j","","","","","","","","0"
"1358.4649999999674","{""confidence"":0}","[0]","survey-likert","332","763065","0.0-332.0","kqohc30j","","","","","","","",""
"3078.3649999999907","","","instructions","333","766143","0.0-333.0","kqohc30j","[{""page_index"":0,""viewing_time"":1233.1949999999488},{""page_index"":1,""viewing_time"":881.6950000000652},{""page_index"":2,""viewing_time"":963.3049999999348}]","","","","","","",""
"4010.4599999999627","","","instructions","334","770154","0.0-334.0","kqohc30j","[{""page_index"":0,""viewing_time"":1788.3100000000559},{""page_index"":1,""viewing_time"":1615.8899999998976},{""page_index"":2,""viewing_time"":606.1550000000279}]","","","","","","",""
"","","","call-function","335","770155","0.0-335.0","kqohc30j","","","","","","","",""
"null","","","html-keyboard-response","336","771662","0.0-336.0","kqohc30j","","<span style=""color:Black; font-size:50px;"">Agent A","null","","","","",""
"null","","","video-keyboard-response","337","774740","0.0-337.0","kqohc30j","","","null","","Agent A","scrambled","STIM_SET_1/712977.bmp_pp51_L1_V1.0_scrambled_freeview_isoFalse.mp4",""
"null","","","html-keyboard-response","338","776242","0.0-338.0","kqohc30j","","<span style=""color:Black; font-size:50px;"">Agent B","null","","","","",""
"null","","","video-keyboard-response","339","779318","0.0-339.0","kqohc30j","","","null","","Agent B","veridical","STIM_SET_1/712977.bmp_pp51_L1_V1.0_veridical_freeview_isoFalse.mp4",""
"","","","call-function","340","779319","0.0-340.0","kqohc30j","","","","","","","",""
"1971.3649999999907","{""judgement"":0}","[0]","survey-likert","341","781291","0.0-341.0","kqohc30j","","","","","","","","1"
"1297.2899999999208","{""confidence"":0}","[0]","survey-likert","342","782589","0.0-342.0","kqohc30j","","","","","","","",""
"","","","call-function","343","782590","0.0-343.0","kqohc30j","","","","","","","",""
"null","","","html-keyboard-response","344","784092","0.0-344.0","kqohc30j","","<span style=""color:Black; font-size:50px;"">Agent A","null","","","","",""
"null","","","video-keyboard-response","345","787183","0.0-345.0","kqohc30j","","","null","","Agent A","scrambled","STIM_SET_1/713779.bmp_pp152_L2_V1.0_scrambled_freeview_isoFalse.mp4",""
"null","","","html-keyboard-response","346","788686","0.0-346.0","kqohc30j","","<span style=""color:Black; font-size:50px;"">Agent B","null","","","","",""
"null","","","video-keyboard-response","347","791773","0.0-347.0","kqohc30j","","","null","","Agent B","veridical","STIM_SET_1/713779.bmp_pp152_L2_V1.0_veridical_freeview_isoFalse.mp4",""
"","","","call-function","348","791773","0.0-348.0","kqohc30j","","","","","","","",""
"1495.0400000000373","{""judgement"":1}","[0]","survey-likert","349","793269","0.0-349.0","kqohc30j","","","","","","","","1"
"983.5100000000093","{""confidence"":1}","[0]","survey-likert","350","794254","0.0-350.0","kqohc30j","","","","","","","",""
"","","","call-function","351","794254","0.0-351.0","kqohc30j","","","","","","","",""
"null","","","html-keyboard-response","352","795759","0.0-352.0","kqohc30j","","<span style=""color:Black; font-size:50px;"">Agent A","null","","","","",""
"null","","","video-keyboard-response","353","798842","0.0-353.0","kqohc30j","","","null","","Agent A","scrambled","STIM_SET_1/713371.bmp_pp68_L1_V1.0_scrambled_freeview_isoFalse.mp4",""
"null","","","html-keyboard-response","354","800345","0.0-354.0","kqohc30j","","<span style=""color:Black; font-size:50px;"">Agent B","null","","","","",""
"null","","","video-keyboard-response","355","803428","0.0-355.0","kqohc30j","","","null","","Agent B","veridical","STIM_SET_1/713371.bmp_pp68_L1_V1.0_veridical_freeview_isoFalse.mp4",""
"","","","call-function","356","803428","0.0-356.0","kqohc30j","","","","","","","",""
"2399.454999999958","{""judgement"":1}","[0]","survey-likert","357","805828","0.0-357.0","kqohc30j","","","","","","","","1"
"3175.0050000000047","{""confidence"":1}","[0]","survey-likert","358","809004","0.0-358.0","kqohc30j","","","","","","","",""
"","","","call-function","359","809005","0.0-359.0","kqohc30j","","","","","","","",""
"null","","","html-keyboard-response","360","810508","0.0-360.0","kqohc30j","","<span style=""color:Black; font-size:50px;"">Agent A","null","","","","",""
"null","","","video-keyboard-response","361","813612","0.0-361.0","kqohc30j","","","null","","Agent A","scrambled","STIM_SET_1/498149.bmp_pp99_L2_V1.0_scrambled_freeview_isoFalse.mp4",""
"null","","","html-keyboard-response","362","815119","0.0-362.0","kqohc30j","","<span style=""color:Black; font-size:50px;"">Agent B","null","","","","",""
"null","","","video-keyboard-response","363","818184","0.0-363.0","kqohc30j","","","null","","Agent B","veridical","STIM_SET_1/498149.bmp_pp99_L2_V1.0_veridical_freeview_isoFalse.mp4",""
"","","","call-function","364","818185","0.0-364.0","kqohc30j","","","","","","","",""
"3090.2449999999953","{""judgement"":1}","[0]","survey-likert","365","821276","0.0-365.0","kqohc30j","","","","","","","","1"
"2608.1350000000093","{""confidence"":0}","[0]","survey-likert","366","823885","0.0-366.0","kqohc30j","","","","","","","",""
"","","","call-function","367","823885","0.0-367.0","kqohc30j","","","","","","","",""
"null","","","html-keyboard-response","368","825390","0.0-368.0","kqohc30j","","<span style=""color:Black; font-size:50px;"">Agent A","null","","","","",""
"null","","","video-keyboard-response","369","828460","0.0-369.0","kqohc30j","","","null","","Agent A","scrambled","STIM_SET_1/713135.bmp_pp54_L2_V1.0_scrambled_freeview_isoFalse.mp4",""
"null","","","html-keyboard-response","370","829962","0.0-370.0","kqohc30j","","<span style=""color:Black; font-size:50px;"">Agent B","null","","","","",""
"null","","","video-keyboard-response","371","833071","0.0-371.0","kqohc30j","","","null","","Agent B","veridical","STIM_SET_1/713135.bmp_pp54_L2_V1.0_veridical_freeview_isoFalse.mp4",""
"","","","call-function","372","833072","0.0-372.0","kqohc30j","","","","","","","",""
"2197.320000000065","{""judgement"":1}","[0]","survey-likert","373","835270","0.0-373.0","kqohc30j","","","","","","","","1"
"1959.5649999999441","{""confidence"":1}","[0]","survey-likert","374","837230","0.0-374.0","kqohc30j","","","","","","","",""
"","","","call-function","375","837231","0.0-375.0","kqohc30j","","","","","","","",""
"null","","","html-keyboard-response","376","838736","0.0-376.0","kqohc30j","","<span style=""color:Black; font-size:50px;"">Agent A","null","","","","",""
"null","","","video-keyboard-response","377","841804","0.0-377.0","kqohc30j","","","null","","Agent A","veridical","STIM_SET_1/713403.bmp_pp80_L3_V1.0_veridical_freeview_isoFalse.mp4",""
"null","","","html-keyboard-response","378","843310","0.0-378.0","kqohc30j","","<span style=""color:Black; font-size:50px;"">Agent B","null","","","","",""
"null","","","video-keyboard-response","379","846379","0.0-379.0","kqohc30j","","","null","","Agent B","scrambled","STIM_SET_1/713403.bmp_pp80_L3_V1.0_scrambled_freeview_isoFalse.mp4",""
"","","","call-function","380","846380","0.0-380.0","kqohc30j","","","","","","","",""
"1815.3150000000605","{""judgement"":0}","[0]","survey-likert","381","848196","0.0-381.0","kqohc30j","","","","","","","","0"
"3249.9199999999255","{""confidence"":2}","[0]","survey-likert","382","851447","0.0-382.0","kqohc30j","","","","","","","",""
"","","","call-function","383","851447","0.0-383.0","kqohc30j","","","","","","","",""
"null","","","html-keyboard-response","384","852953","0.0-384.0","kqohc30j","","<span style=""color:Black; font-size:50px;"">Agent A","null","","","","",""
"null","","","video-keyboard-response","385","856072","0.0-385.0","kqohc30j","","","null","","Agent A","scrambled","STIM_SET_1/1159855.bmp_pp99_L2_V1.0_scrambled_freeview_isoFalse.mp4",""
"null","","","html-keyboard-response","386","857578","0.0-386.0","kqohc30j","","<span style=""color:Black; font-size:50px;"">Agent B","null","","","","",""
"null","","","video-keyboard-response","387","860695","0.0-387.0","kqohc30j","","","null","","Agent B","veridical","STIM_SET_1/1159855.bmp_pp99_L2_V1.0_veridical_freeview_isoFalse.mp4",""
"","","","call-function","388","860696","0.0-388.0","kqohc30j","","","","","","","",""
"1560.844999999972","{""judgement"":1}","[0]","survey-likert","389","862258","0.0-389.0","kqohc30j","","","","","","","","1"
"1398.75","{""confidence"":2}","[0]","survey-likert","390","863658","0.0-390.0","kqohc30j","","","","","","","",""
"","","","call-function","391","863658","0.0-391.0","kqohc30j","","","","","","","",""
"null","","","html-keyboard-response","392","865159","0.0-392.0","kqohc30j","","<span style=""color:Black; font-size:50px;"">Agent A","null","","","","",""
"null","","","video-keyboard-response","393","868280","0.0-393.0","kqohc30j","","","null","","Agent A","veridical","STIM_SET_1/1592397.bmp_pp85_L3_V1.0_veridical_freeview_isoFalse.mp4",""
"null","","","html-keyboard-response","394","869783","0.0-394.0","kqohc30j","","<span style=""color:Black; font-size:50px;"">Agent B","null","","","","",""
"null","","","video-keyboard-response","395","872855","0.0-395.0","kqohc30j","","","null","","Agent B","scrambled","STIM_SET_1/1592397.bmp_pp85_L3_V1.0_scrambled_freeview_isoFalse.mp4",""
"","","","call-function","396","872856","0.0-396.0","kqohc30j","","","","","","","",""
"2180.155000000028","{""judgement"":1}","[0]","survey-likert","397","875038","0.0-397.0","kqohc30j","","","","","","","","0"
"1491.9349999999395","{""confidence"":1}","[0]","survey-likert","398","876532","0.0-398.0","kqohc30j","","","","","","","",""
"","","","call-function","399","876533","0.0-399.0","kqohc30j","","","","","","","",""
"null","","","html-keyboard-response","400","878037","0.0-400.0","kqohc30j","","<span style=""color:Black; font-size:50px;"">Agent A","null","","","","",""
"null","","","video-keyboard-response","401","881108","0.0-401.0","kqohc30j","","","null","","Agent A","veridical","STIM_SET_1/285933.bmp_pp81_L1_V1.0_veridical_freeview_isoFalse.mp4",""
"null","","","html-keyboard-response","402","882611","0.0-402.0","kqohc30j","","<span style=""color:Black; font-size:50px;"">Agent B","null","","","","",""
"null","","","video-keyboard-response","403","885685","0.0-403.0","kqohc30j","","","null","","Agent B","scrambled","STIM_SET_1/285933.bmp_pp81_L1_V1.0_scrambled_freeview_isoFalse.mp4",""
"","","","call-function","404","885685","0.0-404.0","kqohc30j","","","","","","","",""
"2697.8399999999674","{""judgement"":0}","[0]","survey-likert","405","888384","0.0-405.0","kqohc30j","","","","","","","","0"
"981.9499999999534","{""confidence"":1}","[0]","survey-likert","406","889368","0.0-406.0","kqohc30j","","","","","","","",""
"","","","call-function","407","889368","0.0-407.0","kqohc30j","","","","","","","",""
"null","","","html-keyboard-response","408","890872","0.0-408.0","kqohc30j","","<span style=""color:Black; font-size:50px;"">Agent A","null","","","","",""
"null","","","video-keyboard-response","409","893937","0.0-409.0","kqohc30j","","","null","","Agent A","veridical","STIM_SET_1/713760.bmp_pp81_L1_V1.0_veridical_freeview_isoFalse.mp4",""
"null","","","html-keyboard-response","410","895440","0.0-410.0","kqohc30j","","<span style=""color:Black; font-size:50px;"">Agent B","null","","","","",""
"null","","","video-keyboard-response","411","898505","0.0-411.0","kqohc30j","","","null","","Agent B","scrambled","STIM_SET_1/713760.bmp_pp81_L1_V1.0_scrambled_freeview_isoFalse.mp4",""
"","","","call-function","412","898506","0.0-412.0","kqohc30j","","","","","","","",""
"1945.5650000000605","{""judgement"":0}","[0]","survey-likert","413","900452","0.0-413.0","kqohc30j","","","","","","","","0"
"1176.0649999999441","{""confidence"":1}","[0]","survey-likert","414","901629","0.0-414.0","kqohc30j","","","","","","","",""
"1963.3699999999953","","","instructions","415","903593","0.0-415.0","kqohc30j","[{""page_index"":0,""viewing_time"":878.2299999999814},{""page_index"":1,""viewing_time"":549.8250000000698},{""page_index"":2,""viewing_time"":535.1650000000373}]","","","","","","",""
"2719.25","","","instructions","416","906313","0.0-416.0","kqohc30j","[{""page_index"":0,""viewing_time"":1137.2700000000186},{""page_index"":1,""viewing_time"":785.8300000000745},{""page_index"":2,""viewing_time"":795.9299999999348}]","","","","","","",""
"","","","call-function","417","906313","0.0-417.0","kqohc30j","","","","","","","",""
"null","","","html-keyboard-response","418","907815","0.0-418.0","kqohc30j","","<span style=""color:Black; font-size:50px;"">Agent A","null","","","","",""
"null","","","video-keyboard-response","419","910931","0.0-419.0","kqohc30j","","","null","","Agent A","veridical","STIM_SET_1/713593.bmp_pp64_L1_V1.0_veridical_freeview_isoFalse.mp4",""
"null","","","html-keyboard-response","420","912434","0.0-420.0","kqohc30j","","<span style=""color:Black; font-size:50px;"">Agent B","null","","","","",""
"null","","","video-keyboard-response","421","915550","0.0-421.0","kqohc30j","","","null","","Agent B","scrambled","STIM_SET_1/713593.bmp_pp64_L1_V1.0_scrambled_freeview_isoFalse.mp4",""
"","","","call-function","422","915551","0.0-422.0","kqohc30j","","","","","","","",""
"1295.2750000000233","{""judgement"":0}","[0]","survey-likert","423","916847","0.0-423.0","kqohc30j","","","","","","","","0"
"1031.030000000028","{""confidence"":3}","[0]","survey-likert","424","917879","0.0-424.0","kqohc30j","","","","","","","",""
"","","","call-function","425","917879","0.0-425.0","kqohc30j","","","","","","","",""
"null","","","html-keyboard-response","426","919384","0.0-426.0","kqohc30j","","<span style=""color:Black; font-size:50px;"">Agent A","null","","","","",""
"null","","","video-keyboard-response","427","922495","0.0-427.0","kqohc30j","","","null","","Agent A","scrambled","STIM_SET_1/1159621.bmp_pp92_L3_V1.0_scrambled_freeview_isoFalse.mp4",""
"null","","","html-keyboard-response","428","924001","0.0-428.0","kqohc30j","","<span style=""color:Black; font-size:50px;"">Agent B","null","","","","",""
"null","","","video-keyboard-response","429","927116","0.0-429.0","kqohc30j","","","null","","Agent B","veridical","STIM_SET_1/1159621.bmp_pp92_L3_V1.0_veridical_freeview_isoFalse.mp4",""
"","","","call-function","430","927116","0.0-430.0","kqohc30j","","","","","","","",""
"2407.435000000056","{""judgement"":1}","[0]","survey-likert","431","929525","0.0-431.0","kqohc30j","","","","","","","","1"
"916.1300000000047","{""confidence"":1}","[0]","survey-likert","432","930442","0.0-432.0","kqohc30j","","","","","","","",""
"","","","call-function","433","930442","0.0-433.0","kqohc30j","","","","","","","",""
"null","","","html-keyboard-response","434","931944","0.0-434.0","kqohc30j","","<span style=""color:Black; font-size:50px;"">Agent A","null","","","","",""
"null","","","video-keyboard-response","435","935050","0.0-435.0","kqohc30j","","","null","","Agent A","veridical","STIM_SET_1/713796.bmp_pp84_L3_V1.0_veridical_freeview_isoFalse.mp4",""
"null","","","html-keyboard-response","436","936555","0.0-436.0","kqohc30j","","<span style=""color:Black; font-size:50px;"">Agent B","null","","","","",""
"null","","","video-keyboard-response","437","939658","0.0-437.0","kqohc30j","","","null","","Agent B","scrambled","STIM_SET_1/713796.bmp_pp84_L3_V1.0_scrambled_freeview_isoFalse.mp4",""
"","","","call-function","438","939658","0.0-438.0","kqohc30j","","","","","","","",""
"1480.515000000014","{""judgement"":0}","[0]","survey-likert","439","941140","0.0-439.0","kqohc30j","","","","","","","","0"
"1701.0350000000326","{""confidence"":2}","[0]","survey-likert","440","942842","0.0-440.0","kqohc30j","","","","","","","",""
"","","","call-function","441","942842","0.0-441.0","kqohc30j","","","","","","","",""
"null","","","html-keyboard-response","442","944345","0.0-442.0","kqohc30j","","<span style=""color:Black; font-size:50px;"">Agent A","null","","","","",""
"null","","","video-keyboard-response","443","947418","0.0-443.0","kqohc30j","","","null","","Agent A","scrambled","STIM_SET_1/1592934.bmp_pp63_L1_V1.0_scrambled_freeview_isoFalse.mp4",""
"null","","","html-keyboard-response","444","948924","0.0-444.0","kqohc30j","","<span style=""color:Black; font-size:50px;"">Agent B","null","","","","",""
"null","","","video-keyboard-response","445","951995","0.0-445.0","kqohc30j","","","null","","Agent B","veridical","STIM_SET_1/1592934.bmp_pp63_L1_V1.0_veridical_freeview_isoFalse.mp4",""
"","","","call-function","446","951996","0.0-446.0","kqohc30j","","","","","","","",""
"3814.2099999999627","{""judgement"":0}","[0]","survey-likert","447","955811","0.0-447.0","kqohc30j","","","","","","","","1"
"1159.094999999972","{""confidence"":0}","[0]","survey-likert","448","956971","0.0-448.0","kqohc30j","","","","","","","",""
"","","","call-function","449","956972","0.0-449.0","kqohc30j","","","","","","","",""
"null","","","html-keyboard-response","450","958474","0.0-450.0","kqohc30j","","<span style=""color:Black; font-size:50px;"">Agent A","null","","","","",""
"null","","","video-keyboard-response","451","961553","0.0-451.0","kqohc30j","","","null","","Agent A","veridical","STIM_SET_1/498111.bmp_pp88_L2_V1.0_veridical_freeview_isoFalse.mp4",""
"null","","","html-keyboard-response","452","963055","0.0-452.0","kqohc30j","","<span style=""color:Black; font-size:50px;"">Agent B","null","","","","",""
"null","","","video-keyboard-response","453","966131","0.0-453.0","kqohc30j","","","null","","Agent B","scrambled","STIM_SET_1/498111.bmp_pp88_L2_V1.0_scrambled_freeview_isoFalse.mp4",""
"","","","call-function","454","966133","0.0-454.0","kqohc30j","","","","","","","",""
"3024.234999999986","{""judgement"":1}","[0]","survey-likert","455","969158","0.0-455.0","kqohc30j","","","","","","","","0"
"1157.8199999999488","{""confidence"":1}","[0]","survey-likert","456","970318","0.0-456.0","kqohc30j","","","","","","","",""
"","","","call-function","457","970318","0.0-457.0","kqohc30j","","","","","","","",""
"null","","","html-keyboard-response","458","971820","0.0-458.0","kqohc30j","","<span style=""color:Black; font-size:50px;"">Agent A","null","","","","",""
"null","","","video-keyboard-response","459","974895","0.0-459.0","kqohc30j","","","null","","Agent A","veridical","STIM_SET_1/713513.bmp_pp62_L2_V1.0_veridical_freeview_isoFalse.mp4",""
"null","","","html-keyboard-response","460","976402","0.0-460.0","kqohc30j","","<span style=""color:Black; font-size:50px;"">Agent B","null","","","","",""
"null","","","video-keyboard-response","461","979478","0.0-461.0","kqohc30j","","","null","","Agent B","scrambled","STIM_SET_1/713513.bmp_pp62_L2_V1.0_scrambled_freeview_isoFalse.mp4",""
"","","","call-function","462","979479","0.0-462.0","kqohc30j","","","","","","","",""
"2600.859999999986","{""judgement"":1}","[0]","survey-likert","463","982081","0.0-463.0","kqohc30j","","","","","","","","0"
"980.8549999999814","{""confidence"":1}","[0]","survey-likert","464","983063","0.0-464.0","kqohc30j","","","","","","","",""
"","","","call-function","465","983063","0.0-465.0","kqohc30j","","","","","","","",""
"null","","","html-keyboard-response","466","984567","0.0-466.0","kqohc30j","","<span style=""color:Black; font-size:50px;"">Agent A","null","","","","",""
"null","","","video-keyboard-response","467","987645","0.0-467.0","kqohc30j","","","null","","Agent A","scrambled","STIM_SET_1/1159675.bmp_pp77_L3_V1.0_scrambled_freeview_isoFalse.mp4",""
"null","","","html-keyboard-response","468","989151","0.0-468.0","kqohc30j","","<span style=""color:Black; font-size:50px;"">Agent B","null","","","","",""
"null","","","video-keyboard-response","469","992232","0.0-469.0","kqohc30j","","","null","","Agent B","veridical","STIM_SET_1/1159675.bmp_pp77_L3_V1.0_veridical_freeview_isoFalse.mp4",""
"","","","call-function","470","992232","0.0-470.0","kqohc30j","","","","","","","",""
"2811.8249999999534","{""judgement"":1}","[0]","survey-likert","471","995045","0.0-471.0","kqohc30j","","","","","","","","1"
"1975.6899999999441","{""confidence"":1}","[0]","survey-likert","472","997022","0.0-472.0","kqohc30j","","","","","","","",""
"","","","call-function","473","997023","0.0-473.0","kqohc30j","","","","","","","",""
"null","","","html-keyboard-response","474","998526","0.0-474.0","kqohc30j","","<span style=""color:Black; font-size:50px;"">Agent A","null","","","","",""
"null","","","video-keyboard-response","475","1001599","0.0-475.0","kqohc30j","","","null","","Agent A","veridical","STIM_SET_1/1159813.bmp_pp79_L2_V1.0_veridical_freeview_isoFalse.mp4",""
"null","","","html-keyboard-response","476","1003103","0.0-476.0","kqohc30j","","<span style=""color:Black; font-size:50px;"">Agent B","null","","","","",""
"null","","","video-keyboard-response","477","1006205","0.0-477.0","kqohc30j","","","null","","Agent B","scrambled","STIM_SET_1/1159813.bmp_pp79_L2_V1.0_scrambled_freeview_isoFalse.mp4",""
"","","","call-function","478","1006205","0.0-478.0","kqohc30j","","","","","","","",""
"2514.0999999999767","{""judgement"":1}","[0]","survey-likert","479","1008720","0.0-479.0","kqohc30j","","","","","","","","0"
"979.265000000014","{""confidence"":1}","[0]","survey-likert","480","1009701","0.0-480.0","kqohc30j","","","","","","","",""
"","","","call-function","481","1009701","0.0-481.0","kqohc30j","","","","","","","",""
"null","","","html-keyboard-response","482","1011206","0.0-482.0","kqohc30j","","<span style=""color:Black; font-size:50px;"">Agent A","null","","","","",""
"null","","","video-keyboard-response","483","1014323","0.0-483.0","kqohc30j","","","null","","Agent A","veridical","STIM_SET_1/1591876.bmp_pp63_L1_V1.0_veridical_freeview_isoFalse.mp4",""
"null","","","html-keyboard-response","484","1015824","0.0-484.0","kqohc30j","","<span style=""color:Black; font-size:50px;"">Agent B","null","","","","",""
"null","","","video-keyboard-response","485","1018941","0.0-485.0","kqohc30j","","","null","","Agent B","scrambled","STIM_SET_1/1591876.bmp_pp63_L1_V1.0_scrambled_freeview_isoFalse.mp4",""
"","","","call-function","486","1018942","0.0-486.0","kqohc30j","","","","","","","",""
"3233.719999999972","{""judgement"":0}","[0]","survey-likert","487","1022176","0.0-487.0","kqohc30j","","","","","","","","0"
"1101.1650000000373","{""confidence"":2}","[0]","survey-likert","488","1023278","0.0-488.0","kqohc30j","","","","","","","",""
"","","","call-function","489","1023279","0.0-489.0","kqohc30j","","","","","","","",""
"null","","","html-keyboard-response","490","1024784","0.0-490.0","kqohc30j","","<span style=""color:Black; font-size:50px;"">Agent A","null","","","","",""
"null","","","video-keyboard-response","491","1027902","0.0-491.0","kqohc30j","","","null","","Agent A","scrambled","STIM_SET_1/1592807.bmp_pp68_L1_V1.0_scrambled_freeview_isoFalse.mp4",""
"null","","","html-keyboard-response","492","1029406","0.0-492.0","kqohc30j","","<span style=""color:Black; font-size:50px;"">Agent B","null","","","","",""
"null","","","video-keyboard-response","493","1032524","0.0-493.0","kqohc30j","","","null","","Agent B","veridical","STIM_SET_1/1592807.bmp_pp68_L1_V1.0_veridical_freeview_isoFalse.mp4",""
"","","","call-function","494","1032525","0.0-494.0","kqohc30j","","","","","","","",""
"3304.6450000000186","{""judgement"":1}","[0]","survey-likert","495","1035830","0.0-495.0","kqohc30j","","","","","","","","1"
"1642.4449999999488","{""confidence"":0}","[0]","survey-likert","496","1037474","0.0-496.0","kqohc30j","","","","","","","",""
"49938.49999999988","","","instructions","497","1087413","0.0-497.0","kqohc30j","[{""page_index"":0,""viewing_time"":1037.704999999958},{""page_index"":1,""viewing_time"":47990.625},{""page_index"":2,""viewing_time"":910.0150000001304}]","","","","","","",""
"2548.7099999999627","","","instructions","498","1089962","0.0-498.0","kqohc30j","[{""page_index"":0,""viewing_time"":635.5900000000838},{""page_index"":1,""viewing_time"":1070.839999999851},{""page_index"":2,""viewing_time"":842.0849999999627}]","","","","","","",""
"","","","call-function","499","1089963","0.0-499.0","kqohc30j","","","","","","","",""
"null","","","html-keyboard-response","500","1091466","0.0-500.0","kqohc30j","","<span style=""color:Black; font-size:50px;"">Agent A","null","","","","",""
"null","","","video-keyboard-response","501","1094542","0.0-501.0","kqohc30j","","","null","","Agent A","veridical","STIM_SET_1/1591961.bmp_pp67_L2_V1.0_veridical_freeview_isoFalse.mp4",""
"null","","","html-keyboard-response","502","1096044","0.0-502.0","kqohc30j","","<span style=""color:Black; font-size:50px;"">Agent B","null","","","","",""
"null","","","video-keyboard-response","503","1099118","0.0-503.0","kqohc30j","","","null","","Agent B","scrambled","STIM_SET_1/1591961.bmp_pp67_L2_V1.0_scrambled_freeview_isoFalse.mp4",""
"","","","call-function","504","1099119","0.0-504.0","kqohc30j","","","","","","","",""
"1765.4399999999441","{""judgement"":0}","[0]","survey-likert","505","1100885","0.0-505.0","kqohc30j","","","","","","","","0"
"1361.3950000000186","{""confidence"":2}","[0]","survey-likert","506","1102247","0.0-506.0","kqohc30j","","","","","","","",""
"","","","call-function","507","1102248","0.0-507.0","kqohc30j","","","","","","","",""
"null","","","html-keyboard-response","508","1103749","0.0-508.0","kqohc30j","","<span style=""color:Black; font-size:50px;"">Agent A","null","","","","",""
"null","","","video-keyboard-response","509","1106829","0.0-509.0","kqohc30j","","","null","","Agent A","veridical","STIM_SET_1/713620.bmp_pp65_L3_V1.0_veridical_freeview_isoFalse.mp4",""
"null","","","html-keyboard-response","510","1108333","0.0-510.0","kqohc30j","","<span style=""color:Black; font-size:50px;"">Agent B","null","","","","",""
"null","","","video-keyboard-response","511","1111414","0.0-511.0","kqohc30j","","","null","","Agent B","scrambled","STIM_SET_1/713620.bmp_pp65_L3_V1.0_scrambled_freeview_isoFalse.mp4",""
"","","","call-function","512","1111414","0.0-512.0","kqohc30j","","","","","","","",""
"2568.1650000000373","{""judgement"":1}","[0]","survey-likert","513","1113983","0.0-513.0","kqohc30j","","","","","","","","0"
"1949.4499999999534","{""confidence"":1}","[0]","survey-likert","514","1115934","0.0-514.0","kqohc30j","","","","","","","",""
"","","","call-function","515","1115934","0.0-515.0","kqohc30j","","","","","","","",""
"null","","","html-keyboard-response","516","1117437","0.0-516.0","kqohc30j","","<span style=""color:Black; font-size:50px;"">Agent A","null","","","","",""
"null","","","video-keyboard-response","517","1120520","0.0-517.0","kqohc30j","","","null","","Agent A","scrambled","STIM_SET_1/1159777.bmp_pp77_L3_V1.0_scrambled_freeview_isoFalse.mp4",""
"null","","","html-keyboard-response","518","1122026","0.0-518.0","kqohc30j","","<span style=""color:Black; font-size:50px;"">Agent B","null","","","","",""
"null","","","video-keyboard-response","519","1125107","0.0-519.0","kqohc30j","","","null","","Agent B","veridical","STIM_SET_1/1159777.bmp_pp77_L3_V1.0_veridical_freeview_isoFalse.mp4",""
"","","","call-function","520","1125108","0.0-520.0","kqohc30j","","","","","","","",""
"3173.185000000056","{""judgement"":1}","[0]","survey-likert","521","1128282","0.0-521.0","kqohc30j","","","","","","","","1"
"1008.7749999999069","{""confidence"":1}","[0]","survey-likert","522","1129292","0.0-522.0","kqohc30j","","","","","","","",""
"","","","call-function","523","1129292","0.0-523.0","kqohc30j","","","","","","","",""
"null","","","html-keyboard-response","524","1130797","0.0-524.0","kqohc30j","","<span style=""color:Black; font-size:50px;"">Agent A","null","","","","",""
"null","","","video-keyboard-response","525","1133906","0.0-525.0","kqohc30j","","","null","","Agent A","veridical","STIM_SET_1/1159515.bmp_pp84_L3_V1.0_veridical_freeview_isoFalse.mp4",""
"null","","","html-keyboard-response","526","1135412","0.0-526.0","kqohc30j","","<span style=""color:Black; font-size:50px;"">Agent B","null","","","","",""
"null","","","video-keyboard-response","527","1138524","0.0-527.0","kqohc30j","","","null","","Agent B","scrambled","STIM_SET_1/1159515.bmp_pp84_L3_V1.0_scrambled_freeview_isoFalse.mp4",""
"","","","call-function","528","1138524","0.0-528.0","kqohc30j","","","","","","","",""
"4222.4550000000745","{""judgement"":1}","[0]","survey-likert","529","1142748","0.0-529.0","kqohc30j","","","","","","","","0"
"974.9399999999441","{""confidence"":0}","[0]","survey-likert","530","1143725","0.0-530.0","kqohc30j","","","","","","","",""
"","","","call-function","531","1143726","0.0-531.0","kqohc30j","","","","","","","",""
"null","","","html-keyboard-response","532","1145229","0.0-532.0","kqohc30j","","<span style=""color:Black; font-size:50px;"">Agent A","null","","","","",""
"null","","","video-keyboard-response","533","1148305","0.0-533.0","kqohc30j","","","null","","Agent A","veridical","STIM_SET_1/713707.bmp_pp154_L1_V1.0_veridical_freeview_isoFalse.mp4",""
"null","","","html-keyboard-response","534","1149807","0.0-534.0","kqohc30j","","<span style=""color:Black; font-size:50px;"">Agent B","null","","","","",""
"null","","","video-keyboard-response","535","1152886","0.0-535.0","kqohc30j","","","null","","Agent B","scrambled","STIM_SET_1/713707.bmp_pp154_L1_V1.0_scrambled_freeview_isoFalse.mp4",""
"","","","call-function","536","1152887","0.0-536.0","kqohc30j","","","","","","","",""
"4285.564999999944","{""judgement"":1}","[0]","survey-likert","537","1157173","0.0-537.0","kqohc30j","","","","","","","","0"
"2675.524999999907","{""confidence"":0}","[0]","survey-likert","538","1159850","0.0-538.0","kqohc30j","","","","","","","",""
"","","","call-function","539","1159851","0.0-539.0","kqohc30j","","","","","","","",""
"null","","","html-keyboard-response","540","1161355","0.0-540.0","kqohc30j","","<span style=""color:Black; font-size:50px;"">Agent A","null","","","","",""
"null","","","video-keyboard-response","541","1164434","0.0-541.0","kqohc30j","","","null","","Agent A","scrambled","STIM_SET_1/1160127.bmp_pp90_L2_V1.0_scrambled_freeview_isoFalse.mp4",""
"null","","","html-keyboard-response","542","1165939","0.0-542.0","kqohc30j","","<span style=""color:Black; font-size:50px;"">Agent B","null","","","","",""
"null","","","video-keyboard-response","543","1169017","0.0-543.0","kqohc30j","","","null","","Agent B","veridical","STIM_SET_1/1160127.bmp_pp90_L2_V1.0_veridical_freeview_isoFalse.mp4",""
"","","","call-function","544","1169018","0.0-544.0","kqohc30j","","","","","","","",""
"1956.1450000000186","{""judgement"":1}","[0]","survey-likert","545","1170975","0.0-545.0","kqohc30j","","","","","","","","1"
"1462.2750000001397","{""confidence"":0}","[0]","survey-likert","546","1172439","0.0-546.0","kqohc30j","","","","","","","",""
"","","","call-function","547","1172439","0.0-547.0","kqohc30j","","","","","","","",""
"null","","","html-keyboard-response","548","1173941","0.0-548.0","kqohc30j","","<span style=""color:Black; font-size:50px;"">Agent A","null","","","","",""
"null","","","video-keyboard-response","549","1177056","0.0-549.0","kqohc30j","","","null","","Agent A","veridical","STIM_SET_1/1592499.bmp_pp96_L2_V1.0_veridical_freeview_isoFalse.mp4",""
"null","","","html-keyboard-response","550","1178559","0.0-550.0","kqohc30j","","<span style=""color:Black; font-size:50px;"">Agent B","null","","","","",""
"null","","","video-keyboard-response","551","1181673","0.0-551.0","kqohc30j","","","null","","Agent B","scrambled","STIM_SET_1/1592499.bmp_pp96_L2_V1.0_scrambled_freeview_isoFalse.mp4",""
"","","","call-function","552","1181674","0.0-552.0","kqohc30j","","","","","","","",""
"1875.2549999998882","{""judgement"":0}","[0]","survey-likert","553","1183550","0.0-553.0","kqohc30j","","","","","","","","0"
"872.8200000000652","{""confidence"":1}","[0]","survey-likert","554","1184424","0.0-554.0","kqohc30j","","","","","","","",""
"","","","call-function","555","1184424","0.0-555.0","kqohc30j","","","","","","","",""
"null","","","html-keyboard-response","556","1185926","0.0-556.0","kqohc30j","","<span style=""color:Black; font-size:50px;"">Agent A","null","","","","",""
"null","","","video-keyboard-response","557","1189042","0.0-557.0","kqohc30j","","","null","","Agent A","scrambled","STIM_SET_1/498253.bmp_pp67_L2_V1.0_scrambled_freeview_isoFalse.mp4",""
"null","","","html-keyboard-response","558","1190545","0.0-558.0","kqohc30j","","<span style=""color:Black; font-size:50px;"">Agent B","null","","","","",""
"null","","","video-keyboard-response","559","1193662","0.0-559.0","kqohc30j","","","null","","Agent B","veridical","STIM_SET_1/498253.bmp_pp67_L2_V1.0_veridical_freeview_isoFalse.mp4",""
"","","","call-function","560","1193662","0.0-560.0","kqohc30j","","","","","","","",""
"2869.8349999999627","{""judgement"":1}","[0]","survey-likert","561","1196533","0.0-561.0","kqohc30j","","","","","","","","1"
"1117.7949999999255","{""confidence"":0}","[0]","survey-likert","562","1197652","0.0-562.0","kqohc30j","","","","","","","",""
"","","","call-function","563","1197652","0.0-563.0","kqohc30j","","","","","","","",""
"null","","","html-keyboard-response","564","1199154","0.0-564.0","kqohc30j","","<span style=""color:Black; font-size:50px;"">Agent A","null","","","","",""
"null","","","video-keyboard-response","565","1202268","0.0-565.0","kqohc30j","","","null","","Agent A","veridical","STIM_SET_1/1592286.bmp_pp52_L1_V1.0_veridical_freeview_isoFalse.mp4",""
"null","","","html-keyboard-response","566","1203774","0.0-566.0","kqohc30j","","<span style=""color:Black; font-size:50px;"">Agent B","null","","","","",""
"null","","","video-keyboard-response","567","1206890","0.0-567.0","kqohc30j","","","null","","Agent B","scrambled","STIM_SET_1/1592286.bmp_pp52_L1_V1.0_scrambled_freeview_isoFalse.mp4",""
"","","","call-function","568","1206891","0.0-568.0","kqohc30j","","","","","","","",""
"1837.589999999851","{""judgement"":0}","[0]","survey-likert","569","1208729","0.0-569.0","kqohc30j","","","","","","","","0"
"2194.2700000000186","{""confidence"":0}","[0]","survey-likert","570","1210926","0.0-570.0","kqohc30j","","","","","","","",""
"","","","call-function","571","1210926","0.0-571.0","kqohc30j","","","","","","","",""
"null","","","html-keyboard-response","572","1212432","0.0-572.0","kqohc30j","","<span style=""color:Black; font-size:50px;"">Agent A","null","","","","",""
"null","","","video-keyboard-response","573","1215507","0.0-573.0","kqohc30j","","","null","","Agent A","scrambled","STIM_SET_1/1593041.bmp_pp58_L1_V1.0_scrambled_freeview_isoFalse.mp4",""
"null","","","html-keyboard-response","574","1217009","0.0-574.0","kqohc30j","","<span style=""color:Black; font-size:50px;"">Agent B","null","","","","",""
"null","","","video-keyboard-response","575","1220083","0.0-575.0","kqohc30j","","","null","","Agent B","veridical","STIM_SET_1/1593041.bmp_pp58_L1_V1.0_veridical_freeview_isoFalse.mp4",""
"","","","call-function","576","1220083","0.0-576.0","kqohc30j","","","","","","","",""
"3073.0749999999534","{""judgement"":0}","[0]","survey-likert","577","1223157","0.0-577.0","kqohc30j","","","","","","","","1"
"2297.524999999907","{""confidence"":1}","[0]","survey-likert","578","1225456","0.0-578.0","kqohc30j","","","","","","","",""
"2035.2150000000838","","","instructions","579","1227492","0.0-579.0","kqohc30j","[{""page_index"":0,""viewing_time"":2035.0750000001863}]","","","","","","",""
"2743.405000000028","","","instructions","580","1230235","0.0-580.0","kqohc30j","[{""page_index"":0,""viewing_time"":2743.304999999935}]","","","","","","",""
"20944.019999999786","{""post-1"":1}","[0]","survey-likert","581","1251181","0.0-581.0","kqohc30j","","","","","","","",""
"6765.564999999944","{""post-1"":0}","[0]","survey-likert","582","1257948","0.0-582.0","kqohc30j","","","","","","","",""
"15947.779999999795","{""post-2"":1}","[0]","survey-likert","583","1273897","0.0-583.0","kqohc30j","","","","","","","",""
"4115.319999999832","{""post-2"":0}","[0]","survey-likert","584","1278014","0.0-584.0","kqohc30j","","","","","","","",""
"6398.800000000047","{""post-3"":2}","[0]","survey-likert","585","1284415","0.0-585.0","kqohc30j","","","","","","","",""
"3990.2649999998976","{""post-3"":0}","[0]","survey-likert","586","1288406","0.0-586.0","kqohc30j","","","","","","","",""
"5944.459999999963","{""post-4"":1}","[0]","survey-likert","587","1294352","0.0-587.0","kqohc30j","","","","","","","",""
"4104.969999999972","{""post-4"":0}","[0]","survey-likert","588","1298458","0.0-588.0","kqohc30j","","","","","","","",""
"9499.780000000028","{""post-5"":1}","[0]","survey-likert","589","1307959","0.0-589.0","kqohc30j","","","","","","","",""
"3357.2650000001304","{""post-5"":3}","[0]","survey-likert","590","1311318","0.0-590.0","kqohc30j","","","","","","","",""
"61398.814999999944","{""Q0"":""The videos I judged to be more human shifted attention in a manner that seemed more \""natural\"" to me, whereas the robotic videos felt as if the bright spots were randomized. ""}","","survey-text","591","1372722","0.0-591.0","kqohc30j","","","","","","","",""
"34878.96499999985","{""Q0"":""I relied on judging whether the shifting attention seemed natural or not. The more random jumps there were, the more robotic the agent seemed. ""}","","survey-text","592","1407605","0.0-592.0","kqohc30j","","","","","","","",""
"32813.460000000196","{""Q0"":""At times it was very hard to tell which video had the more unnatural shifting of attention, especially in scenes with no humans in them. ""}","","survey-text","593","1440422","0.0-593.0","kqohc30j","","","","","","","",""
"2930.719999999972","","","instructions","594","1443353","0.0-594.0","kqohc30j","[{""page_index"":0,""viewing_time"":2930.5750000001863}]","","","","","","",""
"44824.5","{""Experimenter_end"":[""Printed ID# kqohc30j on consent form"",""Given subject SONA credit or payment"",""Given the subject debrief form""]}","[0]","survey-multi-select","595","1488180","0.0-595.0","kqohc30j","","","","","","","",""
