"rt","responses","question_order","trial_type","trial_index","time_elapsed","internal_node_id","ID","view_history","stimulus","key_press","value","agent","condition","image","correct_answer"
"120459.75000000001","{""Experimenter"":[""Confirmed subject's identity"",""Confirmed normal or corrected-to-normal vision"",""Obtained consent (signature and date)"",""Checked the test room lighting"",""Checked computer screen lighting"",""Checked distance from screen to chin rest (50cm)"",""Cleaned and adjusted chin rest"",""Counterbalanced the order of the tasks"",""Opened the experiment in Firefox"",""Made the experiment full screen"",""Encouraged subject to silence phone, put away distractors, etc.""]}","[0]","survey-multi-select","0","120467","0.0-0.0","lddhfboh","","","","","","","",""
"52744.380000000005","","","instructions","1","173213","0.0-1.0","lddhfboh","[{""page_index"":0,""viewing_time"":52744.22}]","","","","","","",""
"8456.279999999999","{""Age"":6,""Sex"":0,""Gender"":0}","[0,1,2]","survey-likert","2","181671","0.0-2.0","lddhfboh","","","","","","","",""
"8491.964999999997","","","instructions","3","190164","0.0-3.0","lddhfboh","[{""page_index"":0,""viewing_time"":5469.8399999999965},{""page_index"":1,""viewing_time"":1409.9300000000221},{""page_index"":2,""viewing_time"":1612.0649999999732}]","","","","","","",""
"1340.4899999999907","","","instructions","4","191505","0.0-4.0","lddhfboh","[{""page_index"":0,""viewing_time"":1340.3800000000047}]","","","","","","",""
"null","","","video-keyboard-response","5","194582","0.0-5.0","lddhfboh","","","null","","","","",""
"9598.86500000002","","","instructions","6","204182","0.0-6.0","lddhfboh","[{""page_index"":0,""viewing_time"":1235.1650000000081},{""page_index"":1,""viewing_time"":1652.2699999999895},{""page_index"":2,""viewing_time"":6710.8399999999965}]","","","","","","",""
"2895.2299999999814","","","instructions","7","207078","0.0-7.0","lddhfboh","[{""page_index"":0,""viewing_time"":2895.1199999999953}]","","","","","","",""
"1140.8150000000023","","","instructions","8","208220","0.0-8.0","lddhfboh","[{""page_index"":0,""viewing_time"":1140.7049999999872}]","","","","","","",""
"null","","","video-keyboard-response","9","211293","0.0-9.0","lddhfboh","","","null","","","","",""
"6255.304999999993","","","instructions","10","217549","0.0-10.0","lddhfboh","[{""page_index"":0,""viewing_time"":1242.0849999999919},{""page_index"":1,""viewing_time"":1182.9750000000058},{""page_index"":2,""viewing_time"":3830.109999999986}]","","","","","","",""
"1382.5750000000116","","","instructions","11","218932","0.0-11.0","lddhfboh","[{""page_index"":0,""viewing_time"":1382.4550000000163}]","","","","","","",""
"","","","call-function","12","218933","0.0-12.0","lddhfboh","","","","","","","",""
"null","","","html-keyboard-response","13","220435","0.0-13.0","lddhfboh","","<span style=""color:Black; font-size:50px;"">Agent A","null","","","","",""
"null","","","video-keyboard-response","14","223193","0.0-14.0","lddhfboh","","","null","","Agent A","veridical","FOR_REV_MAP_BLOBBY_STIM/1592129.bmp_pp153_L3_V1.0_veridical_freeview_isoTrue_fps144.mp4",""
"null","","","html-keyboard-response","15","224694","0.0-15.0","lddhfboh","","<span style=""color:Black; font-size:50px;"">Agent B","null","","","","",""
"null","","","video-keyboard-response","16","227454","0.0-16.0","lddhfboh","","","null","","Agent B","scrambled","FOR_REV_MAP_BLOBBY_STIM/1592129.bmp_pp153_L3_V1.0_veridical_freeview_isoTrue_fps144_reversed_REAL.mp4",""
"","","","call-function","17","227455","0.0-17.0","lddhfboh","","","","","","","",""
"1398.1199999999953","{""judgement"":0}","[0]","survey-likert","18","228854","0.0-18.0","lddhfboh","","","","","","","","0"
"1193.0249999999942","{""confidence"":3}","[0]","survey-likert","19","230048","0.0-19.0","lddhfboh","","","","","","","",""
"","","","call-function","20","230048","0.0-20.0","lddhfboh","","","","","","","",""
"null","","","html-keyboard-response","21","231553","0.0-21.0","lddhfboh","","<span style=""color:Black; font-size:50px;"">Agent A","null","","","","",""
"null","","","video-keyboard-response","22","234323","0.0-22.0","lddhfboh","","","null","","Agent A","scrambled","FOR_REV_MAP_BLOBBY_STIM/713328.bmp_pp86_L2_V1.0_veridical_freeview_isoTrue_fps144_reversed_REAL.mp4",""
"null","","","html-keyboard-response","23","235830","0.0-23.0","lddhfboh","","<span style=""color:Black; font-size:50px;"">Agent B","null","","","","",""
"null","","","video-keyboard-response","24","238598","0.0-24.0","lddhfboh","","","null","","Agent B","veridical","FOR_REV_MAP_BLOBBY_STIM/713328.bmp_pp86_L2_V1.0_veridical_freeview_isoTrue_fps144.mp4",""
"","","","call-function","25","238599","0.0-25.0","lddhfboh","","","","","","","",""
"1551.6900000000023","{""judgement"":0}","[0]","survey-likert","26","240151","0.0-26.0","lddhfboh","","","","","","","","1"
"1128.820000000007","{""confidence"":2}","[0]","survey-likert","27","241281","0.0-27.0","lddhfboh","","","","","","","",""
"","","","call-function","28","241282","0.0-28.0","lddhfboh","","","","","","","",""
"null","","","html-keyboard-response","29","242783","0.0-29.0","lddhfboh","","<span style=""color:Black; font-size:50px;"">Agent A","null","","","","",""
"null","","","video-keyboard-response","30","244674","0.0-30.0","lddhfboh","","","null","","Agent A","scrambled","FOR_REV_MAP_BLOBBY_STIM/285946.bmp_pp79_L2_V1.0_veridical_freeview_isoTrue_fps144_reversed_REAL.mp4",""
"null","","","html-keyboard-response","31","246175","0.0-31.0","lddhfboh","","<span style=""color:Black; font-size:50px;"">Agent B","null","","","","",""
"null","","","video-keyboard-response","32","248066","0.0-32.0","lddhfboh","","","null","","Agent B","veridical","FOR_REV_MAP_BLOBBY_STIM/285946.bmp_pp79_L2_V1.0_veridical_freeview_isoTrue_fps144.mp4",""
"","","","call-function","33","248067","0.0-33.0","lddhfboh","","","","","","","",""
"1582.445000000007","{""judgement"":0}","[0]","survey-likert","34","249650","0.0-34.0","lddhfboh","","","","","","","","1"
"1529.1999999999825","{""confidence"":0}","[0]","survey-likert","35","251180","0.0-35.0","lddhfboh","","","","","","","",""
"","","","call-function","36","251181","0.0-36.0","lddhfboh","","","","","","","",""
"null","","","html-keyboard-response","37","252684","0.0-37.0","lddhfboh","","<span style=""color:Black; font-size:50px;"">Agent A","null","","","","",""
"null","","","video-keyboard-response","38","255442","0.0-38.0","lddhfboh","","","null","","Agent A","scrambled","FOR_REV_MAP_BLOBBY_STIM/1160247.bmp_pp54_L2_V1.0_veridical_freeview_isoTrue_fps144_reversed_REAL.mp4",""
"null","","","html-keyboard-response","39","256944","0.0-39.0","lddhfboh","","<span style=""color:Black; font-size:50px;"">Agent B","null","","","","",""
"null","","","video-keyboard-response","40","259705","0.0-40.0","lddhfboh","","","null","","Agent B","veridical","FOR_REV_MAP_BLOBBY_STIM/1160247.bmp_pp54_L2_V1.0_veridical_freeview_isoTrue_fps144.mp4",""
"","","","call-function","41","259705","0.0-41.0","lddhfboh","","","","","","","",""
"1838.2850000000035","{""judgement"":1}","[0]","survey-likert","42","261544","0.0-42.0","lddhfboh","","","","","","","","1"
"1101.109999999986","{""confidence"":1}","[0]","survey-likert","43","262646","0.0-43.0","lddhfboh","","","","","","","",""
"","","","call-function","44","262647","0.0-44.0","lddhfboh","","","","","","","",""
"null","","","html-keyboard-response","45","264149","0.0-45.0","lddhfboh","","<span style=""color:Black; font-size:50px;"">Agent A","null","","","","",""
"null","","","video-keyboard-response","46","266947","0.0-46.0","lddhfboh","","","null","","Agent A","scrambled","FOR_REV_MAP_BLOBBY_STIM/1592305.bmp_pp65_L3_V1.0_veridical_freeview_isoTrue_fps144_reversed_REAL.mp4",""
"null","","","html-keyboard-response","47","268452","0.0-47.0","lddhfboh","","<span style=""color:Black; font-size:50px;"">Agent B","null","","","","",""
"null","","","video-keyboard-response","48","271253","0.0-48.0","lddhfboh","","","null","","Agent B","veridical","FOR_REV_MAP_BLOBBY_STIM/1592305.bmp_pp65_L3_V1.0_veridical_freeview_isoTrue_fps144.mp4",""
"","","","call-function","49","271253","0.0-49.0","lddhfboh","","","","","","","",""
"2261.1849999999977","{""judgement"":0}","[0]","survey-likert","50","273515","0.0-50.0","lddhfboh","","","","","","","","1"
"1124.8949999999604","{""confidence"":2}","[0]","survey-likert","51","274641","0.0-51.0","lddhfboh","","","","","","","",""
"","","","call-function","52","274642","0.0-52.0","lddhfboh","","","","","","","",""
"null","","","html-keyboard-response","53","276145","0.0-53.0","lddhfboh","","<span style=""color:Black; font-size:50px;"">Agent A","null","","","","",""
"null","","","video-keyboard-response","54","278961","0.0-54.0","lddhfboh","","","null","","Agent A","veridical","FOR_REV_MAP_BLOBBY_STIM/1592857.bmp_pp52_L1_V1.0_veridical_freeview_isoTrue_fps144.mp4",""
"null","","","html-keyboard-response","55","280464","0.0-55.0","lddhfboh","","<span style=""color:Black; font-size:50px;"">Agent B","null","","","","",""
"null","","","video-keyboard-response","56","283292","0.0-56.0","lddhfboh","","","null","","Agent B","scrambled","FOR_REV_MAP_BLOBBY_STIM/1592857.bmp_pp52_L1_V1.0_veridical_freeview_isoTrue_fps144_reversed_REAL.mp4",""
"","","","call-function","57","283292","0.0-57.0","lddhfboh","","","","","","","",""
"1495.2200000000303","{""judgement"":0}","[0]","survey-likert","58","284788","0.0-58.0","lddhfboh","","","","","","","","0"
"906.1299999999464","{""confidence"":1}","[0]","survey-likert","59","285695","0.0-59.0","lddhfboh","","","","","","","",""
"","","","call-function","60","285696","0.0-60.0","lddhfboh","","","","","","","",""
"null","","","html-keyboard-response","61","287196","0.0-61.0","lddhfboh","","<span style=""color:Black; font-size:50px;"">Agent A","null","","","","",""
"null","","","video-keyboard-response","62","289995","0.0-62.0","lddhfboh","","","null","","Agent A","scrambled","FOR_REV_MAP_BLOBBY_STIM/498258.bmp_pp51_L1_V1.0_veridical_freeview_isoTrue_fps144_reversed_REAL.mp4",""
"null","","","html-keyboard-response","63","291499","0.0-63.0","lddhfboh","","<span style=""color:Black; font-size:50px;"">Agent B","null","","","","",""
"null","","","video-keyboard-response","64","294296","0.0-64.0","lddhfboh","","","null","","Agent B","veridical","FOR_REV_MAP_BLOBBY_STIM/498258.bmp_pp51_L1_V1.0_veridical_freeview_isoTrue_fps144.mp4",""
"","","","call-function","65","294296","0.0-65.0","lddhfboh","","","","","","","",""
"1267.155000000028","{""judgement"":0}","[0]","survey-likert","66","295564","0.0-66.0","lddhfboh","","","","","","","","1"
"1523.914999999979","{""confidence"":3}","[0]","survey-likert","67","297089","0.0-67.0","lddhfboh","","","","","","","",""
"","","","call-function","68","297090","0.0-68.0","lddhfboh","","","","","","","",""
"null","","","html-keyboard-response","69","298593","0.0-69.0","lddhfboh","","<span style=""color:Black; font-size:50px;"">Agent A","null","","","","",""
"null","","","video-keyboard-response","70","301210","0.0-70.0","lddhfboh","","","null","","Agent A","scrambled","FOR_REV_MAP_BLOBBY_STIM/1159874.bmp_pp96_L2_V1.0_veridical_freeview_isoTrue_fps144_reversed_REAL.mp4",""
"null","","","html-keyboard-response","71","302716","0.0-71.0","lddhfboh","","<span style=""color:Black; font-size:50px;"">Agent B","null","","","","",""
"null","","","video-keyboard-response","72","305332","0.0-72.0","lddhfboh","","","null","","Agent B","veridical","FOR_REV_MAP_BLOBBY_STIM/1159874.bmp_pp96_L2_V1.0_veridical_freeview_isoTrue_fps144.mp4",""
"","","","call-function","73","305333","0.0-73.0","lddhfboh","","","","","","","",""
"2063.6149999999907","{""judgement"":0}","[0]","survey-likert","74","307398","0.0-74.0","lddhfboh","","","","","","","","1"
"803.210000000021","{""confidence"":1}","[0]","survey-likert","75","308202","0.0-75.0","lddhfboh","","","","","","","",""
"","","","call-function","76","308203","0.0-76.0","lddhfboh","","","","","","","",""
"null","","","html-keyboard-response","77","309707","0.0-77.0","lddhfboh","","<span style=""color:Black; font-size:50px;"">Agent A","null","","","","",""
"null","","","video-keyboard-response","78","312466","0.0-78.0","lddhfboh","","","null","","Agent A","veridical","FOR_REV_MAP_BLOBBY_STIM/1159325.bmp_pp67_L2_V1.0_veridical_freeview_isoTrue_fps144.mp4",""
"null","","","html-keyboard-response","79","313971","0.0-79.0","lddhfboh","","<span style=""color:Black; font-size:50px;"">Agent B","null","","","","",""
"null","","","video-keyboard-response","80","316728","0.0-80.0","lddhfboh","","","null","","Agent B","scrambled","FOR_REV_MAP_BLOBBY_STIM/1159325.bmp_pp67_L2_V1.0_veridical_freeview_isoTrue_fps144_reversed_REAL.mp4",""
"","","","call-function","81","316728","0.0-81.0","lddhfboh","","","","","","","",""
"1506.9749999999767","{""judgement"":0}","[0]","survey-likert","82","318236","0.0-82.0","lddhfboh","","","","","","","","0"
"2131.875","{""confidence"":2}","[0]","survey-likert","83","320369","0.0-83.0","lddhfboh","","","","","","","",""
"","","","call-function","84","320370","0.0-84.0","lddhfboh","","","","","","","",""
"null","","","html-keyboard-response","85","321873","0.0-85.0","lddhfboh","","<span style=""color:Black; font-size:50px;"">Agent A","null","","","","",""
"null","","","video-keyboard-response","86","324802","0.0-86.0","lddhfboh","","","null","","Agent A","veridical","FOR_REV_MAP_BLOBBY_STIM/498025.bmp_pp81_L1_V1.0_veridical_freeview_isoTrue_fps144.mp4",""
"null","","","html-keyboard-response","87","326305","0.0-87.0","lddhfboh","","<span style=""color:Black; font-size:50px;"">Agent B","null","","","","",""
"null","","","video-keyboard-response","88","329229","0.0-88.0","lddhfboh","","","null","","Agent B","scrambled","FOR_REV_MAP_BLOBBY_STIM/498025.bmp_pp81_L1_V1.0_veridical_freeview_isoTrue_fps144_reversed_REAL.mp4",""
"","","","call-function","89","329230","0.0-89.0","lddhfboh","","","","","","","",""
"1473.1450000000186","{""judgement"":0}","[0]","survey-likert","90","330704","0.0-90.0","lddhfboh","","","","","","","","0"
"868.9199999999837","{""confidence"":1}","[0]","survey-likert","91","331575","0.0-91.0","lddhfboh","","","","","","","",""
"2986.1600000000326","","","instructions","92","334562","0.0-92.0","lddhfboh","[{""page_index"":0,""viewing_time"":1404.5050000000047},{""page_index"":1,""viewing_time"":807.6300000000047},{""page_index"":2,""viewing_time"":773.8600000000442}]","","","","","","",""
"3526.2750000000233","","","instructions","93","338090","0.0-93.0","lddhfboh","[{""page_index"":0,""viewing_time"":1308.0900000000256},{""page_index"":1,""viewing_time"":1476.8949999999604},{""page_index"":2,""viewing_time"":741.0650000000023}]","","","","","","",""
"","","","call-function","94","338091","0.0-94.0","lddhfboh","","","","","","","",""
"null","","","html-keyboard-response","95","339592","0.0-95.0","lddhfboh","","<span style=""color:Black; font-size:50px;"">Agent A","null","","","","",""
"null","","","video-keyboard-response","96","342319","0.0-96.0","lddhfboh","","","null","","Agent A","veridical","FOR_REV_MAP_BLOBBY_STIM/285959.bmp_pp93_L1_V1.0_veridical_freeview_isoTrue_fps144.mp4",""
"null","","","html-keyboard-response","97","343824","0.0-97.0","lddhfboh","","<span style=""color:Black; font-size:50px;"">Agent B","null","","","","",""
"null","","","video-keyboard-response","98","346554","0.0-98.0","lddhfboh","","","null","","Agent B","scrambled","FOR_REV_MAP_BLOBBY_STIM/285959.bmp_pp93_L1_V1.0_veridical_freeview_isoTrue_fps144_reversed_REAL.mp4",""
"","","","call-function","99","346555","0.0-99.0","lddhfboh","","","","","","","",""
"2940.3250000000116","{""judgement"":1}","[0]","survey-likert","100","349496","0.0-100.0","lddhfboh","","","","","","","","0"
"874.9650000000256","{""confidence"":1}","[0]","survey-likert","101","350373","0.0-101.0","lddhfboh","","","","","","","",""
"","","","call-function","102","350373","0.0-102.0","lddhfboh","","","","","","","",""
"null","","","html-keyboard-response","103","351877","0.0-103.0","lddhfboh","","<span style=""color:Black; font-size:50px;"">Agent A","null","","","","",""
"null","","","video-keyboard-response","104","354707","0.0-104.0","lddhfboh","","","null","","Agent A","veridical","FOR_REV_MAP_BLOBBY_STIM/498261.bmp_pp84_L3_V1.0_veridical_freeview_isoTrue_fps144.mp4",""
"null","","","html-keyboard-response","105","356213","0.0-105.0","lddhfboh","","<span style=""color:Black; font-size:50px;"">Agent B","null","","","","",""
"null","","","video-keyboard-response","106","359052","0.0-106.0","lddhfboh","","","null","","Agent B","scrambled","FOR_REV_MAP_BLOBBY_STIM/498261.bmp_pp84_L3_V1.0_veridical_freeview_isoTrue_fps144_reversed_REAL.mp4",""
"","","","call-function","107","359053","0.0-107.0","lddhfboh","","","","","","","",""
"1333.6849999999977","{""judgement"":0}","[0]","survey-likert","108","360387","0.0-108.0","lddhfboh","","","","","","","","0"
"2252.149999999965","{""confidence"":2}","[0]","survey-likert","109","362641","0.0-109.0","lddhfboh","","","","","","","",""
"","","","call-function","110","362641","0.0-110.0","lddhfboh","","","","","","","",""
"null","","","html-keyboard-response","111","364143","0.0-111.0","lddhfboh","","<span style=""color:Black; font-size:50px;"">Agent A","null","","","","",""
"null","","","video-keyboard-response","112","366831","0.0-112.0","lddhfboh","","","null","","Agent A","veridical","FOR_REV_MAP_BLOBBY_STIM/1592038.bmp_pp79_L2_V1.0_veridical_freeview_isoTrue_fps144.mp4",""
"null","","","html-keyboard-response","113","368337","0.0-113.0","lddhfboh","","<span style=""color:Black; font-size:50px;"">Agent B","null","","","","",""
"null","","","video-keyboard-response","114","371025","0.0-114.0","lddhfboh","","","null","","Agent B","scrambled","FOR_REV_MAP_BLOBBY_STIM/1592038.bmp_pp79_L2_V1.0_veridical_freeview_isoTrue_fps144_reversed_REAL.mp4",""
"","","","call-function","115","371026","0.0-115.0","lddhfboh","","","","","","","",""
"1312.625","{""judgement"":0}","[0]","survey-likert","116","372339","0.0-116.0","lddhfboh","","","","","","","","0"
"1136.4899999999907","{""confidence"":2}","[0]","survey-likert","117","373477","0.0-117.0","lddhfboh","","","","","","","",""
"","","","call-function","118","373477","0.0-118.0","lddhfboh","","","","","","","",""
"null","","","html-keyboard-response","119","374980","0.0-119.0","lddhfboh","","<span style=""color:Black; font-size:50px;"">Agent A","null","","","","",""
"null","","","video-keyboard-response","120","377831","0.0-120.0","lddhfboh","","","null","","Agent A","scrambled","FOR_REV_MAP_BLOBBY_STIM/498326.bmp_pp57_L1_V1.0_veridical_freeview_isoTrue_fps144_reversed_REAL.mp4",""
"null","","","html-keyboard-response","121","379334","0.0-121.0","lddhfboh","","<span style=""color:Black; font-size:50px;"">Agent B","null","","","","",""
"null","","","video-keyboard-response","122","382184","0.0-122.0","lddhfboh","","","null","","Agent B","veridical","FOR_REV_MAP_BLOBBY_STIM/498326.bmp_pp57_L1_V1.0_veridical_freeview_isoTrue_fps144.mp4",""
"","","","call-function","123","382184","0.0-123.0","lddhfboh","","","","","","","",""
"1796","{""judgement"":1}","[0]","survey-likert","124","383981","0.0-124.0","lddhfboh","","","","","","","","1"
"972.1149999999907","{""confidence"":2}","[0]","survey-likert","125","384954","0.0-125.0","lddhfboh","","","","","","","",""
"","","","call-function","126","384955","0.0-126.0","lddhfboh","","","","","","","",""
"null","","","html-keyboard-response","127","386459","0.0-127.0","lddhfboh","","<span style=""color:Black; font-size:50px;"">Agent A","null","","","","",""
"null","","","video-keyboard-response","128","389031","0.0-128.0","lddhfboh","","","null","","Agent A","veridical","FOR_REV_MAP_BLOBBY_STIM/498398.bmp_pp81_L1_V1.0_veridical_freeview_isoTrue_fps144.mp4",""
"null","","","html-keyboard-response","129","390538","0.0-129.0","lddhfboh","","<span style=""color:Black; font-size:50px;"">Agent B","null","","","","",""
"null","","","video-keyboard-response","130","393106","0.0-130.0","lddhfboh","","","null","","Agent B","scrambled","FOR_REV_MAP_BLOBBY_STIM/498398.bmp_pp81_L1_V1.0_veridical_freeview_isoTrue_fps144_reversed_REAL.mp4",""
"","","","call-function","131","393107","0.0-131.0","lddhfboh","","","","","","","",""
"1998.6699999999837","{""judgement"":1}","[0]","survey-likert","132","395107","0.0-132.0","lddhfboh","","","","","","","","0"
"1211.085000000021","{""confidence"":0}","[0]","survey-likert","133","396319","0.0-133.0","lddhfboh","","","","","","","",""
"","","","call-function","134","396320","0.0-134.0","lddhfboh","","","","","","","",""
"null","","","html-keyboard-response","135","397822","0.0-135.0","lddhfboh","","<span style=""color:Black; font-size:50px;"">Agent A","null","","","","",""
"null","","","video-keyboard-response","136","400571","0.0-136.0","lddhfboh","","","null","","Agent A","scrambled","FOR_REV_MAP_BLOBBY_STIM/1159819.bmp_pp151_L1_V1.0_veridical_freeview_isoTrue_fps144_reversed_REAL.mp4",""
"null","","","html-keyboard-response","137","402073","0.0-137.0","lddhfboh","","<span style=""color:Black; font-size:50px;"">Agent B","null","","","","",""
"null","","","video-keyboard-response","138","404822","0.0-138.0","lddhfboh","","","null","","Agent B","veridical","FOR_REV_MAP_BLOBBY_STIM/1159819.bmp_pp151_L1_V1.0_veridical_freeview_isoTrue_fps144.mp4",""
"","","","call-function","139","404822","0.0-139.0","lddhfboh","","","","","","","",""
"1948.445000000007","{""judgement"":0}","[0]","survey-likert","140","406772","0.0-140.0","lddhfboh","","","","","","","","1"
"1265.539999999979","{""confidence"":1}","[0]","survey-likert","141","408038","0.0-141.0","lddhfboh","","","","","","","",""
"","","","call-function","142","408039","0.0-142.0","lddhfboh","","","","","","","",""
"null","","","html-keyboard-response","143","409544","0.0-143.0","lddhfboh","","<span style=""color:Black; font-size:50px;"">Agent A","null","","","","",""
"null","","","video-keyboard-response","144","412136","0.0-144.0","lddhfboh","","","null","","Agent A","scrambled","FOR_REV_MAP_BLOBBY_STIM/713633.bmp_pp58_L1_V1.0_veridical_freeview_isoTrue_fps144_reversed_REAL.mp4",""
"null","","","html-keyboard-response","145","413639","0.0-145.0","lddhfboh","","<span style=""color:Black; font-size:50px;"">Agent B","null","","","","",""
"null","","","video-keyboard-response","146","416229","0.0-146.0","lddhfboh","","","null","","Agent B","veridical","FOR_REV_MAP_BLOBBY_STIM/713633.bmp_pp58_L1_V1.0_veridical_freeview_isoTrue_fps144.mp4",""
"","","","call-function","147","416229","0.0-147.0","lddhfboh","","","","","","","",""
"1316.640000000014","{""judgement"":0}","[0]","survey-likert","148","417547","0.0-148.0","lddhfboh","","","","","","","","1"
"1334.5750000000116","{""confidence"":2}","[0]","survey-likert","149","418882","0.0-149.0","lddhfboh","","","","","","","",""
"","","","call-function","150","418883","0.0-150.0","lddhfboh","","","","","","","",""
"null","","","html-keyboard-response","151","420385","0.0-151.0","lddhfboh","","<span style=""color:Black; font-size:50px;"">Agent A","null","","","","",""
"null","","","video-keyboard-response","152","423199","0.0-152.0","lddhfboh","","","null","","Agent A","scrambled","FOR_REV_MAP_BLOBBY_STIM/1159508.bmp_pp151_L1_V1.0_veridical_freeview_isoTrue_fps144_reversed_REAL.mp4",""
"null","","","html-keyboard-response","153","424702","0.0-153.0","lddhfboh","","<span style=""color:Black; font-size:50px;"">Agent B","null","","","","",""
"null","","","video-keyboard-response","154","427522","0.0-154.0","lddhfboh","","","null","","Agent B","veridical","FOR_REV_MAP_BLOBBY_STIM/1159508.bmp_pp151_L1_V1.0_veridical_freeview_isoTrue_fps144.mp4",""
"","","","call-function","155","427523","0.0-155.0","lddhfboh","","","","","","","",""
"2991.1449999999604","{""judgement"":1}","[0]","survey-likert","156","430515","0.0-156.0","lddhfboh","","","","","","","","1"
"1290.015000000014","{""confidence"":1}","[0]","survey-likert","157","431806","0.0-157.0","lddhfboh","","","","","","","",""
"","","","call-function","158","431807","0.0-158.0","lddhfboh","","","","","","","",""
"null","","","html-keyboard-response","159","433308","0.0-159.0","lddhfboh","","<span style=""color:Black; font-size:50px;"">Agent A","null","","","","",""
"null","","","video-keyboard-response","160","436108","0.0-160.0","lddhfboh","","","null","","Agent A","scrambled","FOR_REV_MAP_BLOBBY_STIM/1591781.bmp_pp63_L1_V1.0_veridical_freeview_isoTrue_fps144_reversed_REAL.mp4",""
"null","","","html-keyboard-response","161","437612","0.0-161.0","lddhfboh","","<span style=""color:Black; font-size:50px;"">Agent B","null","","","","",""
"null","","","video-keyboard-response","162","440411","0.0-162.0","lddhfboh","","","null","","Agent B","veridical","FOR_REV_MAP_BLOBBY_STIM/1591781.bmp_pp63_L1_V1.0_veridical_freeview_isoTrue_fps144.mp4",""
"","","","call-function","163","440411","0.0-163.0","lddhfboh","","","","","","","",""
"1855.4799999999814","{""judgement"":1}","[0]","survey-likert","164","442267","0.0-164.0","lddhfboh","","","","","","","","1"
"1184.960000000021","{""confidence"":0}","[0]","survey-likert","165","443453","0.0-165.0","lddhfboh","","","","","","","",""
"","","","call-function","166","443454","0.0-166.0","lddhfboh","","","","","","","",""
"null","","","html-keyboard-response","167","444959","0.0-167.0","lddhfboh","","<span style=""color:Black; font-size:50px;"">Agent A","null","","","","",""
"null","","","video-keyboard-response","168","447796","0.0-168.0","lddhfboh","","","null","","Agent A","scrambled","FOR_REV_MAP_BLOBBY_STIM/713829.bmp_pp60_L3_V1.0_veridical_freeview_isoTrue_fps144_reversed_REAL.mp4",""
"null","","","html-keyboard-response","169","449299","0.0-169.0","lddhfboh","","<span style=""color:Black; font-size:50px;"">Agent B","null","","","","",""
"null","","","video-keyboard-response","170","452138","0.0-170.0","lddhfboh","","","null","","Agent B","veridical","FOR_REV_MAP_BLOBBY_STIM/713829.bmp_pp60_L3_V1.0_veridical_freeview_isoTrue_fps144.mp4",""
"","","","call-function","171","452139","0.0-171.0","lddhfboh","","","","","","","",""
"1507.625","{""judgement"":1}","[0]","survey-likert","172","453648","0.0-172.0","lddhfboh","","","","","","","","1"
"1851.820000000007","{""confidence"":3}","[0]","survey-likert","173","455501","0.0-173.0","lddhfboh","","","","","","","",""
"2290.164999999979","","","instructions","174","457793","0.0-174.0","lddhfboh","[{""page_index"":0,""viewing_time"":1624.085000000021},{""page_index"":1,""viewing_time"":365.945000000007},{""page_index"":2,""viewing_time"":299.9649999999674}]","","","","","","",""
"1140.740000000049","","","instructions","175","458934","0.0-175.0","lddhfboh","[{""page_index"":0,""viewing_time"":147.53000000002794},{""page_index"":1,""viewing_time"":580.1350000000093},{""page_index"":2,""viewing_time"":412.95999999996275}]","","","","","","",""
"","","","call-function","176","458935","0.0-176.0","lddhfboh","","","","","","","",""
"null","","","html-keyboard-response","177","460437","0.0-177.0","lddhfboh","","<span style=""color:Black; font-size:50px;"">Agent A","null","","","","",""
"null","","","video-keyboard-response","178","463201","0.0-178.0","lddhfboh","","","null","","Agent A","veridical","FOR_REV_MAP_BLOBBY_STIM/1592044.bmp_pp94_L2_V1.0_veridical_freeview_isoTrue_fps144.mp4",""
"null","","","html-keyboard-response","179","464705","0.0-179.0","lddhfboh","","<span style=""color:Black; font-size:50px;"">Agent B","null","","","","",""
"null","","","video-keyboard-response","180","467465","0.0-180.0","lddhfboh","","","null","","Agent B","scrambled","FOR_REV_MAP_BLOBBY_STIM/1592044.bmp_pp94_L2_V1.0_veridical_freeview_isoTrue_fps144_reversed_REAL.mp4",""
"","","","call-function","181","467466","0.0-181.0","lddhfboh","","","","","","","",""
"1241.3300000000163","{""judgement"":1}","[0]","survey-likert","182","468708","0.0-182.0","lddhfboh","","","","","","","","0"
"1271.304999999993","{""confidence"":2}","[0]","survey-likert","183","469981","0.0-183.0","lddhfboh","","","","","","","",""
"","","","call-function","184","469981","0.0-184.0","lddhfboh","","","","","","","",""
"null","","","html-keyboard-response","185","471484","0.0-185.0","lddhfboh","","<span style=""color:Black; font-size:50px;"">Agent A","null","","","","",""
"null","","","video-keyboard-response","186","474305","0.0-186.0","lddhfboh","","","null","","Agent A","scrambled","FOR_REV_MAP_BLOBBY_STIM/107955.bmp_pp90_L2_V1.0_veridical_freeview_isoTrue_fps144_reversed_REAL.mp4",""
"null","","","html-keyboard-response","187","475810","0.0-187.0","lddhfboh","","<span style=""color:Black; font-size:50px;"">Agent B","null","","","","",""
"null","","","video-keyboard-response","188","478638","0.0-188.0","lddhfboh","","","null","","Agent B","veridical","FOR_REV_MAP_BLOBBY_STIM/107955.bmp_pp90_L2_V1.0_veridical_freeview_isoTrue_fps144.mp4",""
"","","","call-function","189","478639","0.0-189.0","lddhfboh","","","","","","","",""
"1540.179999999993","{""judgement"":1}","[0]","survey-likert","190","480180","0.0-190.0","lddhfboh","","","","","","","","1"
"951.6699999999837","{""confidence"":1}","[0]","survey-likert","191","481132","0.0-191.0","lddhfboh","","","","","","","",""
"","","","call-function","192","481133","0.0-192.0","lddhfboh","","","","","","","",""
"null","","","html-keyboard-response","193","482638","0.0-193.0","lddhfboh","","<span style=""color:Black; font-size:50px;"">Agent A","null","","","","",""
"null","","","video-keyboard-response","194","485405","0.0-194.0","lddhfboh","","","null","","Agent A","veridical","FOR_REV_MAP_BLOBBY_STIM/1592017.bmp_pp154_L1_V1.0_veridical_freeview_isoTrue_fps144.mp4",""
"null","","","html-keyboard-response","195","486906","0.0-195.0","lddhfboh","","<span style=""color:Black; font-size:50px;"">Agent B","null","","","","",""
"null","","","video-keyboard-response","196","489671","0.0-196.0","lddhfboh","","","null","","Agent B","scrambled","FOR_REV_MAP_BLOBBY_STIM/1592017.bmp_pp154_L1_V1.0_veridical_freeview_isoTrue_fps144_reversed_REAL.mp4",""
"","","","call-function","197","489671","0.0-197.0","lddhfboh","","","","","","","",""
"1066.149999999965","{""judgement"":0}","[0]","survey-likert","198","490738","0.0-198.0","lddhfboh","","","","","","","","0"
"1729.4950000000536","{""confidence"":1}","[0]","survey-likert","199","492469","0.0-199.0","lddhfboh","","","","","","","",""
"","","","call-function","200","492469","0.0-200.0","lddhfboh","","","","","","","",""
"null","","","html-keyboard-response","201","493970","0.0-201.0","lddhfboh","","<span style=""color:Black; font-size:50px;"">Agent A","null","","","","",""
"null","","","video-keyboard-response","202","496761","0.0-202.0","lddhfboh","","","null","","Agent A","scrambled","FOR_REV_MAP_BLOBBY_STIM/1592567.bmp_pp70_L2_V1.0_veridical_freeview_isoTrue_fps144_reversed_REAL.mp4",""
"null","","","html-keyboard-response","203","498266","0.0-203.0","lddhfboh","","<span style=""color:Black; font-size:50px;"">Agent B","null","","","","",""
"null","","","video-keyboard-response","204","501051","0.0-204.0","lddhfboh","","","null","","Agent B","veridical","FOR_REV_MAP_BLOBBY_STIM/1592567.bmp_pp70_L2_V1.0_veridical_freeview_isoTrue_fps144.mp4",""
"","","","call-function","205","501052","0.0-205.0","lddhfboh","","","","","","","",""
"1850.3549999999814","{""judgement"":0}","[0]","survey-likert","206","502903","0.0-206.0","lddhfboh","","","","","","","","1"
"1364.734999999986","{""confidence"":2}","[0]","survey-likert","207","504269","0.0-207.0","lddhfboh","","","","","","","",""
"","","","call-function","208","504269","0.0-208.0","lddhfboh","","","","","","","",""
"null","","","html-keyboard-response","209","505772","0.0-209.0","lddhfboh","","<span style=""color:Black; font-size:50px;"">Agent A","null","","","","",""
"null","","","video-keyboard-response","210","508543","0.0-210.0","lddhfboh","","","null","","Agent A","scrambled","FOR_REV_MAP_BLOBBY_STIM/150463.bmp_pp55_L3_V1.0_veridical_freeview_isoTrue_fps144_reversed_REAL.mp4",""
"null","","","html-keyboard-response","211","510046","0.0-211.0","lddhfboh","","<span style=""color:Black; font-size:50px;"">Agent B","null","","","","",""
"null","","","video-keyboard-response","212","512818","0.0-212.0","lddhfboh","","","null","","Agent B","veridical","FOR_REV_MAP_BLOBBY_STIM/150463.bmp_pp55_L3_V1.0_veridical_freeview_isoTrue_fps144.mp4",""
"","","","call-function","213","512818","0.0-213.0","lddhfboh","","","","","","","",""
"1346.3799999999464","{""judgement"":1}","[0]","survey-likert","214","514166","0.0-214.0","lddhfboh","","","","","","","","1"
"1349.695000000007","{""confidence"":1}","[0]","survey-likert","215","515516","0.0-215.0","lddhfboh","","","","","","","",""
"","","","call-function","216","515517","0.0-216.0","lddhfboh","","","","","","","",""
"null","","","html-keyboard-response","217","517018","0.0-217.0","lddhfboh","","<span style=""color:Black; font-size:50px;"">Agent A","null","","","","",""
"null","","","video-keyboard-response","218","519851","0.0-218.0","lddhfboh","","","null","","Agent A","scrambled","FOR_REV_MAP_BLOBBY_STIM/713742.bmp_pp91_L3_V1.0_veridical_freeview_isoTrue_fps144_reversed_REAL.mp4",""
"null","","","html-keyboard-response","219","521354","0.0-219.0","lddhfboh","","<span style=""color:Black; font-size:50px;"">Agent B","null","","","","",""
"null","","","video-keyboard-response","220","524189","0.0-220.0","lddhfboh","","","null","","Agent B","veridical","FOR_REV_MAP_BLOBBY_STIM/713742.bmp_pp91_L3_V1.0_veridical_freeview_isoTrue_fps144.mp4",""
"","","","call-function","221","524190","0.0-221.0","lddhfboh","","","","","","","",""
"1227.984999999986","{""judgement"":1}","[0]","survey-likert","222","525418","0.0-222.0","lddhfboh","","","","","","","","1"
"1578.9400000000605","{""confidence"":2}","[0]","survey-likert","223","526999","0.0-223.0","lddhfboh","","","","","","","",""
"","","","call-function","224","526999","0.0-224.0","lddhfboh","","","","","","","",""
"null","","","html-keyboard-response","225","528502","0.0-225.0","lddhfboh","","<span style=""color:Black; font-size:50px;"">Agent A","null","","","","",""
"null","","","video-keyboard-response","226","530592","0.0-226.0","lddhfboh","","","null","","Agent A","veridical","FOR_REV_MAP_BLOBBY_STIM/1159973.bmp_pp98_L1_V1.0_veridical_freeview_isoTrue_fps144.mp4",""
"null","","","html-keyboard-response","227","532098","0.0-227.0","lddhfboh","","<span style=""color:Black; font-size:50px;"">Agent B","null","","","","",""
"null","","","video-keyboard-response","228","534188","0.0-228.0","lddhfboh","","","null","","Agent B","scrambled","FOR_REV_MAP_BLOBBY_STIM/1159973.bmp_pp98_L1_V1.0_veridical_freeview_isoTrue_fps144_reversed_REAL.mp4",""
"","","","call-function","229","534188","0.0-229.0","lddhfboh","","","","","","","",""
"4118.729999999981","{""judgement"":1}","[0]","survey-likert","230","538308","0.0-230.0","lddhfboh","","","","","","","","0"
"1668.7949999999255","{""confidence"":0}","[0]","survey-likert","231","539977","0.0-231.0","lddhfboh","","","","","","","",""
"","","","call-function","232","539978","0.0-232.0","lddhfboh","","","","","","","",""
"null","","","html-keyboard-response","233","541479","0.0-233.0","lddhfboh","","<span style=""color:Black; font-size:50px;"">Agent A","null","","","","",""
"null","","","video-keyboard-response","234","544204","0.0-234.0","lddhfboh","","","null","","Agent A","scrambled","FOR_REV_MAP_BLOBBY_STIM/285715.bmp_pp67_L2_V1.0_veridical_freeview_isoTrue_fps144_reversed_REAL.mp4",""
"null","","","html-keyboard-response","235","545707","0.0-235.0","lddhfboh","","<span style=""color:Black; font-size:50px;"">Agent B","null","","","","",""
"null","","","video-keyboard-response","236","548440","0.0-236.0","lddhfboh","","","null","","Agent B","veridical","FOR_REV_MAP_BLOBBY_STIM/285715.bmp_pp67_L2_V1.0_veridical_freeview_isoTrue_fps144.mp4",""
"","","","call-function","237","548441","0.0-237.0","lddhfboh","","","","","","","",""
"2063.4749999999767","{""judgement"":0}","[0]","survey-likert","238","550506","0.0-238.0","lddhfboh","","","","","","","","1"
"1443.625","{""confidence"":2}","[0]","survey-likert","239","551951","0.0-239.0","lddhfboh","","","","","","","",""
"","","","call-function","240","551951","0.0-240.0","lddhfboh","","","","","","","",""
"null","","","html-keyboard-response","241","553454","0.0-241.0","lddhfboh","","<span style=""color:Black; font-size:50px;"">Agent A","null","","","","",""
"null","","","video-keyboard-response","242","556235","0.0-242.0","lddhfboh","","","null","","Agent A","scrambled","FOR_REV_MAP_BLOBBY_STIM/1159860.bmp_pp152_L2_V1.0_veridical_freeview_isoTrue_fps144_reversed_REAL.mp4",""
"null","","","html-keyboard-response","243","557740","0.0-243.0","lddhfboh","","<span style=""color:Black; font-size:50px;"">Agent B","null","","","","",""
"null","","","video-keyboard-response","244","560523","0.0-244.0","lddhfboh","","","null","","Agent B","veridical","FOR_REV_MAP_BLOBBY_STIM/1159860.bmp_pp152_L2_V1.0_veridical_freeview_isoTrue_fps144.mp4",""
"","","","call-function","245","560524","0.0-245.0","lddhfboh","","","","","","","",""
"1336.0350000000326","{""judgement"":0}","[0]","survey-likert","246","561862","0.0-246.0","lddhfboh","","","","","","","","1"
"1028.0200000000186","{""confidence"":2}","[0]","survey-likert","247","562891","0.0-247.0","lddhfboh","","","","","","","",""
"","","","call-function","248","562892","0.0-248.0","lddhfboh","","","","","","","",""
"null","","","html-keyboard-response","249","564397","0.0-249.0","lddhfboh","","<span style=""color:Black; font-size:50px;"">Agent A","null","","","","",""
"null","","","video-keyboard-response","250","566812","0.0-250.0","lddhfboh","","","null","","Agent A","scrambled","FOR_REV_MAP_BLOBBY_STIM/1592951.bmp_pp80_L3_V1.0_veridical_freeview_isoTrue_fps144_reversed_REAL.mp4",""
"null","","","html-keyboard-response","251","568314","0.0-251.0","lddhfboh","","<span style=""color:Black; font-size:50px;"">Agent B","null","","","","",""
"null","","","video-keyboard-response","252","570730","0.0-252.0","lddhfboh","","","null","","Agent B","veridical","FOR_REV_MAP_BLOBBY_STIM/1592951.bmp_pp80_L3_V1.0_veridical_freeview_isoTrue_fps144.mp4",""
"","","","call-function","253","570731","0.0-253.0","lddhfboh","","","","","","","",""
"1341.25","{""judgement"":0}","[0]","survey-likert","254","572073","0.0-254.0","lddhfboh","","","","","","","","1"
"1077.9899999999907","{""confidence"":2}","[0]","survey-likert","255","573152","0.0-255.0","lddhfboh","","","","","","","",""
"1296.594999999972","","","instructions","256","574449","0.0-256.0","lddhfboh","[{""page_index"":0,""viewing_time"":773.3699999999953},{""page_index"":1,""viewing_time"":327.14000000001397},{""page_index"":2,""viewing_time"":195.91500000003725}]","","","","","","",""
"1236.420000000042","","","instructions","257","575686","0.0-257.0","lddhfboh","[{""page_index"":0,""viewing_time"":387.3950000000186},{""page_index"":1,""viewing_time"":413.99499999999534},{""page_index"":2,""viewing_time"":434.90500000002794}]","","","","","","",""
"","","","call-function","258","575687","0.0-258.0","lddhfboh","","","","","","","",""
"null","","","html-keyboard-response","259","577188","0.0-259.0","lddhfboh","","<span style=""color:Black; font-size:50px;"">Agent A","null","","","","",""
"null","","","video-keyboard-response","260","580008","0.0-260.0","lddhfboh","","","null","","Agent A","veridical","FOR_REV_MAP_BLOBBY_STIM/713381.bmp_pp82_L2_V1.0_veridical_freeview_isoTrue_fps144.mp4",""
"null","","","html-keyboard-response","261","581510","0.0-261.0","lddhfboh","","<span style=""color:Black; font-size:50px;"">Agent B","null","","","","",""
"null","","","video-keyboard-response","262","584335","0.0-262.0","lddhfboh","","","null","","Agent B","scrambled","FOR_REV_MAP_BLOBBY_STIM/713381.bmp_pp82_L2_V1.0_veridical_freeview_isoTrue_fps144_reversed_REAL.mp4",""
"","","","call-function","263","584335","0.0-263.0","lddhfboh","","","","","","","",""
"1300.6049999999814","{""judgement"":1}","[0]","survey-likert","264","585637","0.0-264.0","lddhfboh","","","","","","","","0"
"1748.9049999999115","{""confidence"":1}","[0]","survey-likert","265","587387","0.0-265.0","lddhfboh","","","","","","","",""
"","","","call-function","266","587387","0.0-266.0","lddhfboh","","","","","","","",""
"null","","","html-keyboard-response","267","588889","0.0-267.0","lddhfboh","","<span style=""color:Black; font-size:50px;"">Agent A","null","","","","",""
"null","","","video-keyboard-response","268","591671","0.0-268.0","lddhfboh","","","null","","Agent A","scrambled","FOR_REV_MAP_BLOBBY_STIM/285932.bmp_pp64_L1_V1.0_veridical_freeview_isoTrue_fps144_reversed_REAL.mp4",""
"null","","","html-keyboard-response","269","593174","0.0-269.0","lddhfboh","","<span style=""color:Black; font-size:50px;"">Agent B","null","","","","",""
"null","","","video-keyboard-response","270","595951","0.0-270.0","lddhfboh","","","null","","Agent B","veridical","FOR_REV_MAP_BLOBBY_STIM/285932.bmp_pp64_L1_V1.0_veridical_freeview_isoTrue_fps144.mp4",""
"","","","call-function","271","595952","0.0-271.0","lddhfboh","","","","","","","",""
"1200.9350000000559","{""judgement"":0}","[0]","survey-likert","272","597154","0.0-272.0","lddhfboh","","","","","","","","1"
"1261.594999999972","{""confidence"":2}","[0]","survey-likert","273","598417","0.0-273.0","lddhfboh","","","","","","","",""
"","","","call-function","274","598417","0.0-274.0","lddhfboh","","","","","","","",""
"null","","","html-keyboard-response","275","599918","0.0-275.0","lddhfboh","","<span style=""color:Black; font-size:50px;"">Agent A","null","","","","",""
"null","","","video-keyboard-response","276","602604","0.0-276.0","lddhfboh","","","null","","Agent A","scrambled","FOR_REV_MAP_BLOBBY_STIM/713788.bmp_pp52_L1_V1.0_veridical_freeview_isoTrue_fps144_reversed_REAL.mp4",""
"null","","","html-keyboard-response","277","604110","0.0-277.0","lddhfboh","","<span style=""color:Black; font-size:50px;"">Agent B","null","","","","",""
"null","","","video-keyboard-response","278","606791","0.0-278.0","lddhfboh","","","null","","Agent B","veridical","FOR_REV_MAP_BLOBBY_STIM/713788.bmp_pp52_L1_V1.0_veridical_freeview_isoTrue_fps144.mp4",""
"","","","call-function","279","606792","0.0-279.0","lddhfboh","","","","","","","",""
"2352.0650000000605","{""judgement"":0}","[0]","survey-likert","280","609145","0.0-280.0","lddhfboh","","","","","","","","1"
"1004.9749999999767","{""confidence"":0}","[0]","survey-likert","281","610151","0.0-281.0","lddhfboh","","","","","","","",""
"","","","call-function","282","610151","0.0-282.0","lddhfboh","","","","","","","",""
"null","","","html-keyboard-response","283","611655","0.0-283.0","lddhfboh","","<span style=""color:Black; font-size:50px;"">Agent A","null","","","","",""
"null","","","video-keyboard-response","284","614489","0.0-284.0","lddhfboh","","","null","","Agent A","scrambled","FOR_REV_MAP_BLOBBY_STIM/1160204.bmp_pp54_L2_V1.0_veridical_freeview_isoTrue_fps144_reversed_REAL.mp4",""
"null","","","html-keyboard-response","285","615992","0.0-285.0","lddhfboh","","<span style=""color:Black; font-size:50px;"">Agent B","null","","","","",""
"null","","","video-keyboard-response","286","618828","0.0-286.0","lddhfboh","","","null","","Agent B","veridical","FOR_REV_MAP_BLOBBY_STIM/1160204.bmp_pp54_L2_V1.0_veridical_freeview_isoTrue_fps144.mp4",""
"","","","call-function","287","618829","0.0-287.0","lddhfboh","","","","","","","",""
"1763.6599999999162","{""judgement"":1}","[0]","survey-likert","288","620594","0.0-288.0","lddhfboh","","","","","","","","1"
"1410.9899999999907","{""confidence"":2}","[0]","survey-likert","289","622006","0.0-289.0","lddhfboh","","","","","","","",""
"","","","call-function","290","622006","0.0-290.0","lddhfboh","","","","","","","",""
"null","","","html-keyboard-response","291","623512","0.0-291.0","lddhfboh","","<span style=""color:Black; font-size:50px;"">Agent A","null","","","","",""
"null","","","video-keyboard-response","292","626377","0.0-292.0","lddhfboh","","","null","","Agent A","veridical","FOR_REV_MAP_BLOBBY_STIM/1160189.bmp_pp64_L1_V1.0_veridical_freeview_isoTrue_fps144.mp4",""
"null","","","html-keyboard-response","293","627880","0.0-293.0","lddhfboh","","<span style=""color:Black; font-size:50px;"">Agent B","null","","","","",""
"null","","","video-keyboard-response","294","630734","0.0-294.0","lddhfboh","","","null","","Agent B","scrambled","FOR_REV_MAP_BLOBBY_STIM/1160189.bmp_pp64_L1_V1.0_veridical_freeview_isoTrue_fps144_reversed_REAL.mp4",""
"","","","call-function","295","630734","0.0-295.0","lddhfboh","","","","","","","",""
"1686.390000000014","{""judgement"":0}","[0]","survey-likert","296","632422","0.0-296.0","lddhfboh","","","","","","","","0"
"1440.8950000000186","{""confidence"":3}","[0]","survey-likert","297","633864","0.0-297.0","lddhfboh","","","","","","","",""
"","","","call-function","298","633864","0.0-298.0","lddhfboh","","","","","","","",""
"null","","","html-keyboard-response","299","635365","0.0-299.0","lddhfboh","","<span style=""color:Black; font-size:50px;"">Agent A","null","","","","",""
"null","","","video-keyboard-response","300","638051","0.0-300.0","lddhfboh","","","null","","Agent A","scrambled","FOR_REV_MAP_BLOBBY_STIM/1592350.bmp_pp55_L3_V1.0_veridical_freeview_isoTrue_fps144_reversed_REAL.mp4",""
"null","","","html-keyboard-response","301","639553","0.0-301.0","lddhfboh","","<span style=""color:Black; font-size:50px;"">Agent B","null","","","","",""
"null","","","video-keyboard-response","302","642250","0.0-302.0","lddhfboh","","","null","","Agent B","veridical","FOR_REV_MAP_BLOBBY_STIM/1592350.bmp_pp55_L3_V1.0_veridical_freeview_isoTrue_fps144.mp4",""
"","","","call-function","303","642251","0.0-303.0","lddhfboh","","","","","","","",""
"1370.1199999999953","{""judgement"":1}","[0]","survey-likert","304","643622","0.0-304.0","lddhfboh","","","","","","","","1"
"1156.9100000000326","{""confidence"":1}","[0]","survey-likert","305","644780","0.0-305.0","lddhfboh","","","","","","","",""
"","","","call-function","306","644780","0.0-306.0","lddhfboh","","","","","","","",""
"null","","","html-keyboard-response","307","646282","0.0-307.0","lddhfboh","","<span style=""color:Black; font-size:50px;"">Agent A","null","","","","",""
"null","","","video-keyboard-response","308","649014","0.0-308.0","lddhfboh","","","null","","Agent A","scrambled","FOR_REV_MAP_BLOBBY_STIM/1159956.bmp_pp59_L3_V1.0_veridical_freeview_isoTrue_fps144_reversed_REAL.mp4",""
"null","","","html-keyboard-response","309","650517","0.0-309.0","lddhfboh","","<span style=""color:Black; font-size:50px;"">Agent B","null","","","","",""
"null","","","video-keyboard-response","310","653254","0.0-310.0","lddhfboh","","","null","","Agent B","veridical","FOR_REV_MAP_BLOBBY_STIM/1159956.bmp_pp59_L3_V1.0_veridical_freeview_isoTrue_fps144.mp4",""
"","","","call-function","311","653254","0.0-311.0","lddhfboh","","","","","","","",""
"1553.5700000000652","{""judgement"":1}","[0]","survey-likert","312","654809","0.0-312.0","lddhfboh","","","","","","","","1"
"1425.8500000000931","{""confidence"":0}","[0]","survey-likert","313","656236","0.0-313.0","lddhfboh","","","","","","","",""
"","","","call-function","314","656236","0.0-314.0","lddhfboh","","","","","","","",""
"null","","","html-keyboard-response","315","657740","0.0-315.0","lddhfboh","","<span style=""color:Black; font-size:50px;"">Agent A","null","","","","",""
"null","","","video-keyboard-response","316","660525","0.0-316.0","lddhfboh","","","null","","Agent A","scrambled","FOR_REV_MAP_BLOBBY_STIM/498372.bmp_pp95_L2_V1.0_veridical_freeview_isoTrue_fps144_reversed_REAL.mp4",""
"null","","","html-keyboard-response","317","662026","0.0-317.0","lddhfboh","","<span style=""color:Black; font-size:50px;"">Agent B","null","","","","",""
"null","","","video-keyboard-response","318","664807","0.0-318.0","lddhfboh","","","null","","Agent B","veridical","FOR_REV_MAP_BLOBBY_STIM/498372.bmp_pp95_L2_V1.0_veridical_freeview_isoTrue_fps144.mp4",""
"","","","call-function","319","664807","0.0-319.0","lddhfboh","","","","","","","",""
"3213.689999999944","{""judgement"":0}","[0]","survey-likert","320","668022","0.0-320.0","lddhfboh","","","","","","","","1"
"2056.439999999944","{""confidence"":1}","[0]","survey-likert","321","670080","0.0-321.0","lddhfboh","","","","","","","",""
"","","","call-function","322","670080","0.0-322.0","lddhfboh","","","","","","","",""
"null","","","html-keyboard-response","323","671582","0.0-323.0","lddhfboh","","<span style=""color:Black; font-size:50px;"">Agent A","null","","","","",""
"null","","","video-keyboard-response","324","674384","0.0-324.0","lddhfboh","","","null","","Agent A","scrambled","FOR_REV_MAP_BLOBBY_STIM/713274.bmp_pp73_L3_V1.0_veridical_freeview_isoTrue_fps144_reversed_REAL.mp4",""
"null","","","html-keyboard-response","325","675890","0.0-325.0","lddhfboh","","<span style=""color:Black; font-size:50px;"">Agent B","null","","","","",""
"null","","","video-keyboard-response","326","678688","0.0-326.0","lddhfboh","","","null","","Agent B","veridical","FOR_REV_MAP_BLOBBY_STIM/713274.bmp_pp73_L3_V1.0_veridical_freeview_isoTrue_fps144.mp4",""
"","","","call-function","327","678690","0.0-327.0","lddhfboh","","","","","","","",""
"1566.170000000042","{""judgement"":1}","[0]","survey-likert","328","680257","0.0-328.0","lddhfboh","","","","","","","","1"
"2728.4949999999953","{""confidence"":3}","[0]","survey-likert","329","682987","0.0-329.0","lddhfboh","","","","","","","",""
"","","","call-function","330","682988","0.0-330.0","lddhfboh","","","","","","","",""
"null","","","html-keyboard-response","331","684494","0.0-331.0","lddhfboh","","<span style=""color:Black; font-size:50px;"">Agent A","null","","","","",""
"null","","","video-keyboard-response","332","687322","0.0-332.0","lddhfboh","","","null","","Agent A","veridical","FOR_REV_MAP_BLOBBY_STIM/713770.bmp_pp89_L1_V1.0_veridical_freeview_isoTrue_fps144.mp4",""
"null","","","html-keyboard-response","333","688824","0.0-333.0","lddhfboh","","<span style=""color:Black; font-size:50px;"">Agent B","null","","","","",""
"null","","","video-keyboard-response","334","691634","0.0-334.0","lddhfboh","","","null","","Agent B","scrambled","FOR_REV_MAP_BLOBBY_STIM/713770.bmp_pp89_L1_V1.0_veridical_freeview_isoTrue_fps144_reversed_REAL.mp4",""
"","","","call-function","335","691635","0.0-335.0","lddhfboh","","","","","","","",""
"2047.4100000000326","{""judgement"":0}","[0]","survey-likert","336","693683","0.0-336.0","lddhfboh","","","","","","","","0"
"986.8250000000698","{""confidence"":2}","[0]","survey-likert","337","694671","0.0-337.0","lddhfboh","","","","","","","",""
"1170.4949999999953","","","instructions","338","695843","0.0-338.0","lddhfboh","[{""page_index"":0,""viewing_time"":778.3800000000047},{""page_index"":1,""viewing_time"":203.9200000000419},{""page_index"":2,""viewing_time"":188.03000000002794}]","","","","","","",""
"1432.3150000000605","","","instructions","339","697275","0.0-339.0","lddhfboh","[{""page_index"":0,""viewing_time"":666.2950000000419},{""page_index"":1,""viewing_time"":344.99499999999534},{""page_index"":2,""viewing_time"":420.9199999999255}]","","","","","","",""
"","","","call-function","340","697276","0.0-340.0","lddhfboh","","","","","","","",""
"null","","","html-keyboard-response","341","698777","0.0-341.0","lddhfboh","","<span style=""color:Black; font-size:50px;"">Agent A","null","","","","",""
"null","","","video-keyboard-response","342","701585","0.0-342.0","lddhfboh","","","null","","Agent A","veridical","FOR_REV_MAP_BLOBBY_STIM/1592314.bmp_pp100_L3_V1.0_veridical_freeview_isoTrue_fps144.mp4",""
"null","","","html-keyboard-response","343","703090","0.0-343.0","lddhfboh","","<span style=""color:Black; font-size:50px;"">Agent B","null","","","","",""
"null","","","video-keyboard-response","344","705903","0.0-344.0","lddhfboh","","","null","","Agent B","scrambled","FOR_REV_MAP_BLOBBY_STIM/1592314.bmp_pp100_L3_V1.0_veridical_freeview_isoTrue_fps144_reversed_REAL.mp4",""
"","","","call-function","345","705903","0.0-345.0","lddhfboh","","","","","","","",""
"1195.8699999999953","{""judgement"":0}","[0]","survey-likert","346","707100","0.0-346.0","lddhfboh","","","","","","","","0"
"1306.0999999999767","{""confidence"":1}","[0]","survey-likert","347","708407","0.0-347.0","lddhfboh","","","","","","","",""
"","","","call-function","348","708408","0.0-348.0","lddhfboh","","","","","","","",""
"null","","","html-keyboard-response","349","709911","0.0-349.0","lddhfboh","","<span style=""color:Black; font-size:50px;"">Agent A","null","","","","",""
"null","","","video-keyboard-response","350","712758","0.0-350.0","lddhfboh","","","null","","Agent A","veridical","FOR_REV_MAP_BLOBBY_STIM/498396.bmp_pp99_L2_V1.0_veridical_freeview_isoTrue_fps144.mp4",""
"null","","","html-keyboard-response","351","714264","0.0-351.0","lddhfboh","","<span style=""color:Black; font-size:50px;"">Agent B","null","","","","",""
"null","","","video-keyboard-response","352","717115","0.0-352.0","lddhfboh","","","null","","Agent B","scrambled","FOR_REV_MAP_BLOBBY_STIM/498396.bmp_pp99_L2_V1.0_veridical_freeview_isoTrue_fps144_reversed_REAL.mp4",""
"","","","call-function","353","717115","0.0-353.0","lddhfboh","","","","","","","",""
"1481.8050000000512","{""judgement"":0}","[0]","survey-likert","354","718598","0.0-354.0","lddhfboh","","","","","","","","0"
"2680.3499999999767","{""confidence"":0}","[0]","survey-likert","355","721279","0.0-355.0","lddhfboh","","","","","","","",""
"","","","call-function","356","721280","0.0-356.0","lddhfboh","","","","","","","",""
"null","","","html-keyboard-response","357","722785","0.0-357.0","lddhfboh","","<span style=""color:Black; font-size:50px;"">Agent A","null","","","","",""
"null","","","video-keyboard-response","358","725586","0.0-358.0","lddhfboh","","","null","","Agent A","veridical","FOR_REV_MAP_BLOBBY_STIM/1592150.bmp_pp77_L3_V1.0_veridical_freeview_isoTrue_fps144.mp4",""
"null","","","html-keyboard-response","359","727091","0.0-359.0","lddhfboh","","<span style=""color:Black; font-size:50px;"">Agent B","null","","","","",""
"null","","","video-keyboard-response","360","729889","0.0-360.0","lddhfboh","","","null","","Agent B","scrambled","FOR_REV_MAP_BLOBBY_STIM/1592150.bmp_pp77_L3_V1.0_veridical_freeview_isoTrue_fps144_reversed_REAL.mp4",""
"","","","call-function","361","729889","0.0-361.0","lddhfboh","","","","","","","",""
"1892.875","{""judgement"":0}","[0]","survey-likert","362","731783","0.0-362.0","lddhfboh","","","","","","","","0"
"1052.7150000000838","{""confidence"":2}","[0]","survey-likert","363","732837","0.0-363.0","lddhfboh","","","","","","","",""
"","","","call-function","364","732837","0.0-364.0","lddhfboh","","","","","","","",""
"null","","","html-keyboard-response","365","734341","0.0-365.0","lddhfboh","","<span style=""color:Black; font-size:50px;"">Agent A","null","","","","",""
"null","","","video-keyboard-response","366","737146","0.0-366.0","lddhfboh","","","null","","Agent A","veridical","FOR_REV_MAP_BLOBBY_STIM/1592530.bmp_pp75_L1_V1.0_veridical_freeview_isoTrue_fps144.mp4",""
"null","","","html-keyboard-response","367","738652","0.0-367.0","lddhfboh","","<span style=""color:Black; font-size:50px;"">Agent B","null","","","","",""
"null","","","video-keyboard-response","368","741463","0.0-368.0","lddhfboh","","","null","","Agent B","scrambled","FOR_REV_MAP_BLOBBY_STIM/1592530.bmp_pp75_L1_V1.0_veridical_freeview_isoTrue_fps144_reversed_REAL.mp4",""
"","","","call-function","369","741464","0.0-369.0","lddhfboh","","","","","","","",""
"3227.890000000014","{""judgement"":0}","[0]","survey-likert","370","744693","0.0-370.0","lddhfboh","","","","","","","","0"
"2336.030000000028","{""confidence"":2}","[0]","survey-likert","371","747030","0.0-371.0","lddhfboh","","","","","","","",""
"","","","call-function","372","747030","0.0-372.0","lddhfboh","","","","","","","",""
"null","","","html-keyboard-response","373","748533","0.0-373.0","lddhfboh","","<span style=""color:Black; font-size:50px;"">Agent A","null","","","","",""
"null","","","video-keyboard-response","374","751340","0.0-374.0","lddhfboh","","","null","","Agent A","scrambled","FOR_REV_MAP_BLOBBY_STIM/1591920.bmp_pp97_L3_V1.0_veridical_freeview_isoTrue_fps144_reversed_REAL.mp4",""
"null","","","html-keyboard-response","375","752846","0.0-375.0","lddhfboh","","<span style=""color:Black; font-size:50px;"">Agent B","null","","","","",""
"null","","","video-keyboard-response","376","755650","0.0-376.0","lddhfboh","","","null","","Agent B","veridical","FOR_REV_MAP_BLOBBY_STIM/1591920.bmp_pp97_L3_V1.0_veridical_freeview_isoTrue_fps144.mp4",""
"","","","call-function","377","755650","0.0-377.0","lddhfboh","","","","","","","",""
"1613.579999999958","{""judgement"":1}","[0]","survey-likert","378","757265","0.0-378.0","lddhfboh","","","","","","","","1"
"1273.1549999999115","{""confidence"":1}","[0]","survey-likert","379","758539","0.0-379.0","lddhfboh","","","","","","","",""
"","","","call-function","380","758539","0.0-380.0","lddhfboh","","","","","","","",""
"null","","","html-keyboard-response","381","760044","0.0-381.0","lddhfboh","","<span style=""color:Black; font-size:50px;"">Agent A","null","","","","",""
"null","","","video-keyboard-response","382","762818","0.0-382.0","lddhfboh","","","null","","Agent A","veridical","FOR_REV_MAP_BLOBBY_STIM/285684.bmp_pp80_L3_V1.0_veridical_freeview_isoTrue_fps144.mp4",""
"null","","","html-keyboard-response","383","764321","0.0-383.0","lddhfboh","","<span style=""color:Black; font-size:50px;"">Agent B","null","","","","",""
"null","","","video-keyboard-response","384","767083","0.0-384.0","lddhfboh","","","null","","Agent B","scrambled","FOR_REV_MAP_BLOBBY_STIM/285684.bmp_pp80_L3_V1.0_veridical_freeview_isoTrue_fps144_reversed_REAL.mp4",""
"","","","call-function","385","767084","0.0-385.0","lddhfboh","","","","","","","",""
"1162.4649999999674","{""judgement"":0}","[0]","survey-likert","386","768247","0.0-386.0","lddhfboh","","","","","","","","0"
"1125.8300000000745","{""confidence"":3}","[0]","survey-likert","387","769375","0.0-387.0","lddhfboh","","","","","","","",""
"","","","call-function","388","769375","0.0-388.0","lddhfboh","","","","","","","",""
"null","","","html-keyboard-response","389","770876","0.0-389.0","lddhfboh","","<span style=""color:Black; font-size:50px;"">Agent A","null","","","","",""
"null","","","video-keyboard-response","390","773684","0.0-390.0","lddhfboh","","","null","","Agent A","veridical","FOR_REV_MAP_BLOBBY_STIM/713689.bmp_pp153_L3_V1.0_veridical_freeview_isoTrue_fps144.mp4",""
"null","","","html-keyboard-response","391","775185","0.0-391.0","lddhfboh","","<span style=""color:Black; font-size:50px;"">Agent B","null","","","","",""
"null","","","video-keyboard-response","392","777991","0.0-392.0","lddhfboh","","","null","","Agent B","scrambled","FOR_REV_MAP_BLOBBY_STIM/713689.bmp_pp153_L3_V1.0_veridical_freeview_isoTrue_fps144_reversed_REAL.mp4",""
"","","","call-function","393","777992","0.0-393.0","lddhfboh","","","","","","","",""
"1190.670000000042","{""judgement"":0}","[0]","survey-likert","394","779183","0.0-394.0","lddhfboh","","","","","","","","0"
"990.6600000000326","{""confidence"":1}","[0]","survey-likert","395","780175","0.0-395.0","lddhfboh","","","","","","","",""
"","","","call-function","396","780176","0.0-396.0","lddhfboh","","","","","","","",""
"null","","","html-keyboard-response","397","781679","0.0-397.0","lddhfboh","","<span style=""color:Black; font-size:50px;"">Agent A","null","","","","",""
"null","","","video-keyboard-response","398","784504","0.0-398.0","lddhfboh","","","null","","Agent A","veridical","FOR_REV_MAP_BLOBBY_STIM/713920.bmp_pp76_L1_V1.0_veridical_freeview_isoTrue_fps144.mp4",""
"null","","","html-keyboard-response","399","786007","0.0-399.0","lddhfboh","","<span style=""color:Black; font-size:50px;"">Agent B","null","","","","",""
"null","","","video-keyboard-response","400","788830","0.0-400.0","lddhfboh","","","null","","Agent B","scrambled","FOR_REV_MAP_BLOBBY_STIM/713920.bmp_pp76_L1_V1.0_veridical_freeview_isoTrue_fps144_reversed_REAL.mp4",""
"","","","call-function","401","788830","0.0-401.0","lddhfboh","","","","","","","",""
"2449.8399999999674","{""judgement"":1}","[0]","survey-likert","402","791281","0.0-402.0","lddhfboh","","","","","","","","0"
"897.515000000014","{""confidence"":1}","[0]","survey-likert","403","792180","0.0-403.0","lddhfboh","","","","","","","",""
"","","","call-function","404","792181","0.0-404.0","lddhfboh","","","","","","","",""
"null","","","html-keyboard-response","405","793683","0.0-405.0","lddhfboh","","<span style=""color:Black; font-size:50px;"">Agent A","null","","","","",""
"null","","","video-keyboard-response","406","796457","0.0-406.0","lddhfboh","","","null","","Agent A","veridical","FOR_REV_MAP_BLOBBY_STIM/150277.bmp_pp65_L3_V1.0_veridical_freeview_isoTrue_fps144.mp4",""
"null","","","html-keyboard-response","407","797960","0.0-407.0","lddhfboh","","<span style=""color:Black; font-size:50px;"">Agent B","null","","","","",""
"null","","","video-keyboard-response","408","800744","0.0-408.0","lddhfboh","","","null","","Agent B","scrambled","FOR_REV_MAP_BLOBBY_STIM/150277.bmp_pp65_L3_V1.0_veridical_freeview_isoTrue_fps144_reversed_REAL.mp4",""
"","","","call-function","409","800745","0.0-409.0","lddhfboh","","","","","","","",""
"2562.6350000000093","{""judgement"":0}","[0]","survey-likert","410","803309","0.0-410.0","lddhfboh","","","","","","","","0"
"1287","{""confidence"":2}","[0]","survey-likert","411","804598","0.0-411.0","lddhfboh","","","","","","","",""
"","","","call-function","412","804599","0.0-412.0","lddhfboh","","","","","","","",""
"null","","","html-keyboard-response","413","806100","0.0-413.0","lddhfboh","","<span style=""color:Black; font-size:50px;"">Agent A","null","","","","",""
"null","","","video-keyboard-response","414","808860","0.0-414.0","lddhfboh","","","null","","Agent A","scrambled","FOR_REV_MAP_BLOBBY_STIM/1592747.bmp_pp53_L2_V1.0_veridical_freeview_isoTrue_fps144_reversed_REAL.mp4",""
"null","","","html-keyboard-response","415","810362","0.0-415.0","lddhfboh","","<span style=""color:Black; font-size:50px;"">Agent B","null","","","","",""
"null","","","video-keyboard-response","416","813118","0.0-416.0","lddhfboh","","","null","","Agent B","veridical","FOR_REV_MAP_BLOBBY_STIM/1592747.bmp_pp53_L2_V1.0_veridical_freeview_isoTrue_fps144.mp4",""
"","","","call-function","417","813119","0.0-417.0","lddhfboh","","","","","","","",""
"1535.6450000000186","{""judgement"":1}","[0]","survey-likert","418","814656","0.0-418.0","lddhfboh","","","","","","","","1"
"1419.3100000000559","{""confidence"":2}","[0]","survey-likert","419","816076","0.0-419.0","lddhfboh","","","","","","","",""
"1288.0299999999115","","","instructions","420","817365","0.0-420.0","lddhfboh","[{""page_index"":0,""viewing_time"":790.890000000014},{""page_index"":1,""viewing_time"":309.17499999993015},{""page_index"":2,""viewing_time"":187.80500000005122}]","","","","","","",""
"2043.170000000042","","","instructions","421","819409","0.0-421.0","lddhfboh","[{""page_index"":0,""viewing_time"":365.9749999999767},{""page_index"":1,""viewing_time"":620.9450000000652},{""page_index"":2,""viewing_time"":1056.1350000000093}]","","","","","","",""
"","","","call-function","422","819409","0.0-422.0","lddhfboh","","","","","","","",""
"null","","","html-keyboard-response","423","820912","0.0-423.0","lddhfboh","","<span style=""color:Black; font-size:50px;"">Agent A","null","","","","",""
"null","","","video-keyboard-response","424","823599","0.0-424.0","lddhfboh","","","null","","Agent A","veridical","FOR_REV_MAP_BLOBBY_STIM/713858.bmp_pp57_L1_V1.0_veridical_freeview_isoTrue_fps144.mp4",""
"null","","","html-keyboard-response","425","825105","0.0-425.0","lddhfboh","","<span style=""color:Black; font-size:50px;"">Agent B","null","","","","",""
"null","","","video-keyboard-response","426","827800","0.0-426.0","lddhfboh","","","null","","Agent B","scrambled","FOR_REV_MAP_BLOBBY_STIM/713858.bmp_pp57_L1_V1.0_veridical_freeview_isoTrue_fps144_reversed_REAL.mp4",""
"","","","call-function","427","827801","0.0-427.0","lddhfboh","","","","","","","",""
"1285.2850000000326","{""judgement"":0}","[0]","survey-likert","428","829087","0.0-428.0","lddhfboh","","","","","","","","0"
"2091.944999999949","{""confidence"":2}","[0]","survey-likert","429","831180","0.0-429.0","lddhfboh","","","","","","","",""
"","","","call-function","430","831181","0.0-430.0","lddhfboh","","","","","","","",""
"null","","","html-keyboard-response","431","832682","0.0-431.0","lddhfboh","","<span style=""color:Black; font-size:50px;"">Agent A","null","","","","",""
"null","","","video-keyboard-response","432","835481","0.0-432.0","lddhfboh","","","null","","Agent A","scrambled","FOR_REV_MAP_BLOBBY_STIM/1159392.bmp_pp96_L2_V1.0_veridical_freeview_isoTrue_fps144_reversed_REAL.mp4",""
"null","","","html-keyboard-response","433","836983","0.0-433.0","lddhfboh","","<span style=""color:Black; font-size:50px;"">Agent B","null","","","","",""
"null","","","video-keyboard-response","434","839782","0.0-434.0","lddhfboh","","","null","","Agent B","veridical","FOR_REV_MAP_BLOBBY_STIM/1159392.bmp_pp96_L2_V1.0_veridical_freeview_isoTrue_fps144.mp4",""
"","","","call-function","435","839784","0.0-435.0","lddhfboh","","","","","","","",""
"3608.6500000000233","{""judgement"":0}","[0]","survey-likert","436","843393","0.0-436.0","lddhfboh","","","","","","","","1"
"1000.984999999986","{""confidence"":1}","[0]","survey-likert","437","844395","0.0-437.0","lddhfboh","","","","","","","",""
"","","","call-function","438","844396","0.0-438.0","lddhfboh","","","","","","","",""
"null","","","html-keyboard-response","439","845897","0.0-439.0","lddhfboh","","<span style=""color:Black; font-size:50px;"">Agent A","null","","","","",""
"null","","","video-keyboard-response","440","848723","0.0-440.0","lddhfboh","","","null","","Agent A","scrambled","FOR_REV_MAP_BLOBBY_STIM/1592025.bmp_pp68_L1_V1.0_veridical_freeview_isoTrue_fps144_reversed_REAL.mp4",""
"null","","","html-keyboard-response","441","850225","0.0-441.0","lddhfboh","","<span style=""color:Black; font-size:50px;"">Agent B","null","","","","",""
"null","","","video-keyboard-response","442","853051","0.0-442.0","lddhfboh","","","null","","Agent B","veridical","FOR_REV_MAP_BLOBBY_STIM/1592025.bmp_pp68_L1_V1.0_veridical_freeview_isoTrue_fps144.mp4",""
"","","","call-function","443","853051","0.0-443.0","lddhfboh","","","","","","","",""
"5191.814999999944","{""judgement"":0}","[0]","survey-likert","444","858244","0.0-444.0","lddhfboh","","","","","","","","1"
"1310.9799999999814","{""confidence"":1}","[0]","survey-likert","445","859556","0.0-445.0","lddhfboh","","","","","","","",""
"","","","call-function","446","859557","0.0-446.0","lddhfboh","","","","","","","",""
"null","","","html-keyboard-response","447","861059","0.0-447.0","lddhfboh","","<span style=""color:Black; font-size:50px;"">Agent A","null","","","","",""
"null","","","video-keyboard-response","448","863913","0.0-448.0","lddhfboh","","","null","","Agent A","scrambled","FOR_REV_MAP_BLOBBY_STIM/1592201.bmp_pp97_L3_V1.0_veridical_freeview_isoTrue_fps144_reversed_REAL.mp4",""
"null","","","html-keyboard-response","449","865416","0.0-449.0","lddhfboh","","<span style=""color:Black; font-size:50px;"">Agent B","null","","","","",""
"null","","","video-keyboard-response","450","868271","0.0-450.0","lddhfboh","","","null","","Agent B","veridical","FOR_REV_MAP_BLOBBY_STIM/1592201.bmp_pp97_L3_V1.0_veridical_freeview_isoTrue_fps144.mp4",""
"","","","call-function","451","868272","0.0-451.0","lddhfboh","","","","","","","",""
"2022.234999999986","{""judgement"":0}","[0]","survey-likert","452","870295","0.0-452.0","lddhfboh","","","","","","","","1"
"1114.8100000000559","{""confidence"":2}","[0]","survey-likert","453","871411","0.0-453.0","lddhfboh","","","","","","","",""
"","","","call-function","454","871412","0.0-454.0","lddhfboh","","","","","","","",""
"null","","","html-keyboard-response","455","872915","0.0-455.0","lddhfboh","","<span style=""color:Black; font-size:50px;"">Agent A","null","","","","",""
"null","","","video-keyboard-response","456","875639","0.0-456.0","lddhfboh","","","null","","Agent A","scrambled","FOR_REV_MAP_BLOBBY_STIM/1591975.bmp_pp88_L2_V1.0_veridical_freeview_isoTrue_fps144_reversed_REAL.mp4",""
"null","","","html-keyboard-response","457","877141","0.0-457.0","lddhfboh","","<span style=""color:Black; font-size:50px;"">Agent B","null","","","","",""
"null","","","video-keyboard-response","458","879870","0.0-458.0","lddhfboh","","","null","","Agent B","veridical","FOR_REV_MAP_BLOBBY_STIM/1591975.bmp_pp88_L2_V1.0_veridical_freeview_isoTrue_fps144.mp4",""
"","","","call-function","459","879870","0.0-459.0","lddhfboh","","","","","","","",""
"1728.0349999999162","{""judgement"":1}","[0]","survey-likert","460","881599","0.0-460.0","lddhfboh","","","","","","","","1"
"1059.0349999999162","{""confidence"":3}","[0]","survey-likert","461","882659","0.0-461.0","lddhfboh","","","","","","","",""
"","","","call-function","462","882660","0.0-462.0","lddhfboh","","","","","","","",""
"null","","","html-keyboard-response","463","884163","0.0-463.0","lddhfboh","","<span style=""color:Black; font-size:50px;"">Agent A","null","","","","",""
"null","","","video-keyboard-response","464","886937","0.0-464.0","lddhfboh","","","null","","Agent A","veridical","FOR_REV_MAP_BLOBBY_STIM/1160049.bmp_pp53_L2_V1.0_veridical_freeview_isoTrue_fps144.mp4",""
"null","","","html-keyboard-response","465","888440","0.0-465.0","lddhfboh","","<span style=""color:Black; font-size:50px;"">Agent B","null","","","","",""
"null","","","video-keyboard-response","466","891220","0.0-466.0","lddhfboh","","","null","","Agent B","scrambled","FOR_REV_MAP_BLOBBY_STIM/1160049.bmp_pp53_L2_V1.0_veridical_freeview_isoTrue_fps144_reversed_REAL.mp4",""
"","","","call-function","467","891221","0.0-467.0","lddhfboh","","","","","","","",""
"2699.185000000056","{""judgement"":0}","[0]","survey-likert","468","893921","0.0-468.0","lddhfboh","","","","","","","","0"
"814.6800000000512","{""confidence"":1}","[0]","survey-likert","469","894737","0.0-469.0","lddhfboh","","","","","","","",""
"","","","call-function","470","894738","0.0-470.0","lddhfboh","","","","","","","",""
"null","","","html-keyboard-response","471","896239","0.0-471.0","lddhfboh","","<span style=""color:Black; font-size:50px;"">Agent A","null","","","","",""
"null","","","video-keyboard-response","472","899035","0.0-472.0","lddhfboh","","","null","","Agent A","veridical","FOR_REV_MAP_BLOBBY_STIM/286034.bmp_pp69_L3_V1.0_veridical_freeview_isoTrue_fps144.mp4",""
"null","","","html-keyboard-response","473","900540","0.0-473.0","lddhfboh","","<span style=""color:Black; font-size:50px;"">Agent B","null","","","","",""
"null","","","video-keyboard-response","474","903335","0.0-474.0","lddhfboh","","","null","","Agent B","scrambled","FOR_REV_MAP_BLOBBY_STIM/286034.bmp_pp69_L3_V1.0_veridical_freeview_isoTrue_fps144_reversed_REAL.mp4",""
"","","","call-function","475","903336","0.0-475.0","lddhfboh","","","","","","","",""
"1565.509999999893","{""judgement"":0}","[0]","survey-likert","476","904902","0.0-476.0","lddhfboh","","","","","","","","0"
"2036.3049999999348","{""confidence"":0}","[0]","survey-likert","477","906941","0.0-477.0","lddhfboh","","","","","","","",""
"","","","call-function","478","906942","0.0-478.0","lddhfboh","","","","","","","",""
"null","","","html-keyboard-response","479","908446","0.0-479.0","lddhfboh","","<span style=""color:Black; font-size:50px;"">Agent A","null","","","","",""
"null","","","video-keyboard-response","480","911244","0.0-480.0","lddhfboh","","","null","","Agent A","scrambled","FOR_REV_MAP_BLOBBY_STIM/1592921.bmp_pp69_L3_V1.0_veridical_freeview_isoTrue_fps144_reversed_REAL.mp4",""
"null","","","html-keyboard-response","481","912748","0.0-481.0","lddhfboh","","<span style=""color:Black; font-size:50px;"">Agent B","null","","","","",""
"null","","","video-keyboard-response","482","915551","0.0-482.0","lddhfboh","","","null","","Agent B","veridical","FOR_REV_MAP_BLOBBY_STIM/1592921.bmp_pp69_L3_V1.0_veridical_freeview_isoTrue_fps144.mp4",""
"","","","call-function","483","915552","0.0-483.0","lddhfboh","","","","","","","",""
"2261.3950000000186","{""judgement"":1}","[0]","survey-likert","484","917815","0.0-484.0","lddhfboh","","","","","","","","1"
"1076.6450000000186","{""confidence"":2}","[0]","survey-likert","485","918893","0.0-485.0","lddhfboh","","","","","","","",""
"","","","call-function","486","918893","0.0-486.0","lddhfboh","","","","","","","",""
"null","","","html-keyboard-response","487","920399","0.0-487.0","lddhfboh","","<span style=""color:Black; font-size:50px;"">Agent A","null","","","","",""
"null","","","video-keyboard-response","488","923157","0.0-488.0","lddhfboh","","","null","","Agent A","veridical","FOR_REV_MAP_BLOBBY_STIM/1592047.bmp_pp51_L1_V1.0_veridical_freeview_isoTrue_fps144.mp4",""
"null","","","html-keyboard-response","489","924660","0.0-489.0","lddhfboh","","<span style=""color:Black; font-size:50px;"">Agent B","null","","","","",""
"null","","","video-keyboard-response","490","927428","0.0-490.0","lddhfboh","","","null","","Agent B","scrambled","FOR_REV_MAP_BLOBBY_STIM/1592047.bmp_pp51_L1_V1.0_veridical_freeview_isoTrue_fps144_reversed_REAL.mp4",""
"","","","call-function","491","927429","0.0-491.0","lddhfboh","","","","","","","",""
"1271.9499999999534","{""judgement"":1}","[0]","survey-likert","492","928701","0.0-492.0","lddhfboh","","","","","","","","0"
"1341.7399999999907","{""confidence"":2}","[0]","survey-likert","493","930044","0.0-493.0","lddhfboh","","","","","","","",""
"","","","call-function","494","930045","0.0-494.0","lddhfboh","","","","","","","",""
"null","","","html-keyboard-response","495","931551","0.0-495.0","lddhfboh","","<span style=""color:Black; font-size:50px;"">Agent A","null","","","","",""
"null","","","video-keyboard-response","496","934336","0.0-496.0","lddhfboh","","","null","","Agent A","veridical","FOR_REV_MAP_BLOBBY_STIM/1592289.bmp_pp92_L3_V1.0_veridical_freeview_isoTrue_fps144.mp4",""
"null","","","html-keyboard-response","497","935837","0.0-497.0","lddhfboh","","<span style=""color:Black; font-size:50px;"">Agent B","null","","","","",""
"null","","","video-keyboard-response","498","938625","0.0-498.0","lddhfboh","","","null","","Agent B","scrambled","FOR_REV_MAP_BLOBBY_STIM/1592289.bmp_pp92_L3_V1.0_veridical_freeview_isoTrue_fps144_reversed_REAL.mp4",""
"","","","call-function","499","938625","0.0-499.0","lddhfboh","","","","","","","",""
"2016.265000000014","{""judgement"":1}","[0]","survey-likert","500","940642","0.0-500.0","lddhfboh","","","","","","","","0"
"1336.8899999998976","{""confidence"":1}","[0]","survey-likert","501","941981","0.0-501.0","lddhfboh","","","","","","","",""
"1154.0349999999162","","","instructions","502","943135","0.0-502.0","lddhfboh","[{""page_index"":0,""viewing_time"":701.8049999999348},{""page_index"":1,""viewing_time"":288.89000000001397},{""page_index"":2,""viewing_time"":163.06500000006054}]","","","","","","",""
"2481.375","","","instructions","503","945617","0.0-503.0","lddhfboh","[{""page_index"":0,""viewing_time"":145.25},{""page_index"":1,""viewing_time"":1719.015000000014},{""page_index"":2,""viewing_time"":617}]","","","","","","",""
"","","","call-function","504","945618","0.0-504.0","lddhfboh","","","","","","","",""
"null","","","html-keyboard-response","505","947119","0.0-505.0","lddhfboh","","<span style=""color:Black; font-size:50px;"">Agent A","null","","","","",""
"null","","","video-keyboard-response","506","949920","0.0-506.0","lddhfboh","","","null","","Agent A","veridical","FOR_REV_MAP_BLOBBY_STIM/107909.bmp_pp95_L2_V1.0_veridical_freeview_isoTrue_fps144.mp4",""
"null","","","html-keyboard-response","507","951424","0.0-507.0","lddhfboh","","<span style=""color:Black; font-size:50px;"">Agent B","null","","","","",""
"null","","","video-keyboard-response","508","954222","0.0-508.0","lddhfboh","","","null","","Agent B","scrambled","FOR_REV_MAP_BLOBBY_STIM/107909.bmp_pp95_L2_V1.0_veridical_freeview_isoTrue_fps144_reversed_REAL.mp4",""
"","","","call-function","509","954222","0.0-509.0","lddhfboh","","","","","","","",""
"1942.8649999999907","{""judgement"":1}","[0]","survey-likert","510","956166","0.0-510.0","lddhfboh","","","","","","","","0"
"1539.9399999999441","{""confidence"":1}","[0]","survey-likert","511","957707","0.0-511.0","lddhfboh","","","","","","","",""
"","","","call-function","512","957708","0.0-512.0","lddhfboh","","","","","","","",""
"null","","","html-keyboard-response","513","959211","0.0-513.0","lddhfboh","","<span style=""color:Black; font-size:50px;"">Agent A","null","","","","",""
"null","","","video-keyboard-response","514","962015","0.0-514.0","lddhfboh","","","null","","Agent A","scrambled","FOR_REV_MAP_BLOBBY_STIM/713652.bmp_pp89_L1_V1.0_veridical_freeview_isoTrue_fps144_reversed_REAL.mp4",""
"null","","","html-keyboard-response","515","963517","0.0-515.0","lddhfboh","","<span style=""color:Black; font-size:50px;"">Agent B","null","","","","",""
"null","","","video-keyboard-response","516","966326","0.0-516.0","lddhfboh","","","null","","Agent B","veridical","FOR_REV_MAP_BLOBBY_STIM/713652.bmp_pp89_L1_V1.0_veridical_freeview_isoTrue_fps144.mp4",""
"","","","call-function","517","966326","0.0-517.0","lddhfboh","","","","","","","",""
"1544.9399999999441","{""judgement"":0}","[0]","survey-likert","518","967872","0.0-518.0","lddhfboh","","","","","","","","1"
"1047.015000000014","{""confidence"":1}","[0]","survey-likert","519","968920","0.0-519.0","lddhfboh","","","","","","","",""
"","","","call-function","520","968921","0.0-520.0","lddhfboh","","","","","","","",""
"null","","","html-keyboard-response","521","970425","0.0-521.0","lddhfboh","","<span style=""color:Black; font-size:50px;"">Agent A","null","","","","",""
"null","","","video-keyboard-response","522","973210","0.0-522.0","lddhfboh","","","null","","Agent A","scrambled","FOR_REV_MAP_BLOBBY_STIM/713790.bmp_pp100_L3_V1.0_veridical_freeview_isoTrue_fps144_reversed_REAL.mp4",""
"null","","","html-keyboard-response","523","974717","0.0-523.0","lddhfboh","","<span style=""color:Black; font-size:50px;"">Agent B","null","","","","",""
"null","","","video-keyboard-response","524","977495","0.0-524.0","lddhfboh","","","null","","Agent B","veridical","FOR_REV_MAP_BLOBBY_STIM/713790.bmp_pp100_L3_V1.0_veridical_freeview_isoTrue_fps144.mp4",""
"","","","call-function","525","977495","0.0-525.0","lddhfboh","","","","","","","",""
"1183.0200000000186","{""judgement"":1}","[0]","survey-likert","526","978679","0.0-526.0","lddhfboh","","","","","","","","1"
"1225.0499999999302","{""confidence"":1}","[0]","survey-likert","527","979905","0.0-527.0","lddhfboh","","","","","","","",""
"","","","call-function","528","979906","0.0-528.0","lddhfboh","","","","","","","",""
"null","","","html-keyboard-response","529","981410","0.0-529.0","lddhfboh","","<span style=""color:Black; font-size:50px;"">Agent A","null","","","","",""
"null","","","video-keyboard-response","530","984330","0.0-530.0","lddhfboh","","","null","","Agent A","veridical","FOR_REV_MAP_BLOBBY_STIM/1592568.bmp_pp71_L1_V1.0_veridical_freeview_isoTrue_fps144.mp4",""
"null","","","html-keyboard-response","531","985834","0.0-531.0","lddhfboh","","<span style=""color:Black; font-size:50px;"">Agent B","null","","","","",""
"null","","","video-keyboard-response","532","988757","0.0-532.0","lddhfboh","","","null","","Agent B","scrambled","FOR_REV_MAP_BLOBBY_STIM/1592568.bmp_pp71_L1_V1.0_veridical_freeview_isoTrue_fps144_reversed_REAL.mp4",""
"","","","call-function","533","988757","0.0-533.0","lddhfboh","","","","","","","",""
"1365.4949999999953","{""judgement"":0}","[0]","survey-likert","534","990124","0.0-534.0","lddhfboh","","","","","","","","0"
"1930.859999999986","{""confidence"":2}","[0]","survey-likert","535","992056","0.0-535.0","lddhfboh","","","","","","","",""
"","","","call-function","536","992056","0.0-536.0","lddhfboh","","","","","","","",""
"null","","","html-keyboard-response","537","993560","0.0-537.0","lddhfboh","","<span style=""color:Black; font-size:50px;"">Agent A","null","","","","",""
"null","","","video-keyboard-response","538","996317","0.0-538.0","lddhfboh","","","null","","Agent A","veridical","FOR_REV_MAP_BLOBBY_STIM/1592168.bmp_pp71_L1_V1.0_veridical_freeview_isoTrue_fps144.mp4",""
"null","","","html-keyboard-response","539","997820","0.0-539.0","lddhfboh","","<span style=""color:Black; font-size:50px;"">Agent B","null","","","","",""
"null","","","video-keyboard-response","540","1000577","0.0-540.0","lddhfboh","","","null","","Agent B","scrambled","FOR_REV_MAP_BLOBBY_STIM/1592168.bmp_pp71_L1_V1.0_veridical_freeview_isoTrue_fps144_reversed_REAL.mp4",""
"","","","call-function","541","1000577","0.0-541.0","lddhfboh","","","","","","","",""
"2575.6450000000186","{""judgement"":0}","[0]","survey-likert","542","1003154","0.0-542.0","lddhfboh","","","","","","","","0"
"840.4000000000233","{""confidence"":1}","[0]","survey-likert","543","1003995","0.0-543.0","lddhfboh","","","","","","","",""
"","","","call-function","544","1003996","0.0-544.0","lddhfboh","","","","","","","",""
"null","","","html-keyboard-response","545","1005500","0.0-545.0","lddhfboh","","<span style=""color:Black; font-size:50px;"">Agent A","null","","","","",""
"null","","","video-keyboard-response","546","1008175","0.0-546.0","lddhfboh","","","null","","Agent A","veridical","FOR_REV_MAP_BLOBBY_STIM/61513.bmp_pp75_L1_V1.0_veridical_freeview_isoTrue_fps144.mp4",""
"null","","","html-keyboard-response","547","1009676","0.0-547.0","lddhfboh","","<span style=""color:Black; font-size:50px;"">Agent B","null","","","","",""
"null","","","video-keyboard-response","548","1012348","0.0-548.0","lddhfboh","","","null","","Agent B","scrambled","FOR_REV_MAP_BLOBBY_STIM/61513.bmp_pp75_L1_V1.0_veridical_freeview_isoTrue_fps144_reversed_REAL.mp4",""
"","","","call-function","549","1012349","0.0-549.0","lddhfboh","","","","","","","",""
"1194.6300000000047","{""judgement"":1}","[0]","survey-likert","550","1013544","0.0-550.0","lddhfboh","","","","","","","","0"
"2059.5899999999674","{""confidence"":2}","[0]","survey-likert","551","1015606","0.0-551.0","lddhfboh","","","","","","","",""
"","","","call-function","552","1015606","0.0-552.0","lddhfboh","","","","","","","",""
"null","","","html-keyboard-response","553","1017111","0.0-553.0","lddhfboh","","<span style=""color:Black; font-size:50px;"">Agent A","null","","","","",""
"null","","","video-keyboard-response","554","1019845","0.0-554.0","lddhfboh","","","null","","Agent A","scrambled","FOR_REV_MAP_BLOBBY_STIM/1159592.bmp_pp91_L3_V1.0_veridical_freeview_isoTrue_fps144_reversed_REAL.mp4",""
"null","","","html-keyboard-response","555","1021348","0.0-555.0","lddhfboh","","<span style=""color:Black; font-size:50px;"">Agent B","null","","","","",""
"null","","","video-keyboard-response","556","1024071","0.0-556.0","lddhfboh","","","null","","Agent B","veridical","FOR_REV_MAP_BLOBBY_STIM/1159592.bmp_pp91_L3_V1.0_veridical_freeview_isoTrue_fps144.mp4",""
"","","","call-function","557","1024071","0.0-557.0","lddhfboh","","","","","","","",""
"1590.2750000000233","{""judgement"":0}","[0]","survey-likert","558","1025663","0.0-558.0","lddhfboh","","","","","","","","1"
"1472.8700000001118","{""confidence"":2}","[0]","survey-likert","559","1027138","0.0-559.0","lddhfboh","","","","","","","",""
"","","","call-function","560","1027139","0.0-560.0","lddhfboh","","","","","","","",""
"null","","","html-keyboard-response","561","1028642","0.0-561.0","lddhfboh","","<span style=""color:Black; font-size:50px;"">Agent A","null","","","","",""
"null","","","video-keyboard-response","562","1031409","0.0-562.0","lddhfboh","","","null","","Agent A","scrambled","FOR_REV_MAP_BLOBBY_STIM/1159329.bmp_pp61_L2_V1.0_veridical_freeview_isoTrue_fps144_reversed_REAL.mp4",""
"null","","","html-keyboard-response","563","1032915","0.0-563.0","lddhfboh","","<span style=""color:Black; font-size:50px;"">Agent B","null","","","","",""
"null","","","video-keyboard-response","564","1035677","0.0-564.0","lddhfboh","","","null","","Agent B","veridical","FOR_REV_MAP_BLOBBY_STIM/1159329.bmp_pp61_L2_V1.0_veridical_freeview_isoTrue_fps144.mp4",""
"","","","call-function","565","1035678","0.0-565.0","lddhfboh","","","","","","","",""
"1025.615000000107","{""judgement"":1}","[0]","survey-likert","566","1036705","0.0-566.0","lddhfboh","","","","","","","","1"
"1681.7200000000885","{""confidence"":3}","[0]","survey-likert","567","1038388","0.0-567.0","lddhfboh","","","","","","","",""
"","","","call-function","568","1038388","0.0-568.0","lddhfboh","","","","","","","",""
"null","","","html-keyboard-response","569","1039894","0.0-569.0","lddhfboh","","<span style=""color:Black; font-size:50px;"">Agent A","null","","","","",""
"null","","","video-keyboard-response","570","1042650","0.0-570.0","lddhfboh","","","null","","Agent A","veridical","FOR_REV_MAP_BLOBBY_STIM/1592298.bmp_pp56_L3_V1.0_veridical_freeview_isoTrue_fps144.mp4",""
"null","","","html-keyboard-response","571","1044153","0.0-571.0","lddhfboh","","<span style=""color:Black; font-size:50px;"">Agent B","null","","","","",""
"null","","","video-keyboard-response","572","1046921","0.0-572.0","lddhfboh","","","null","","Agent B","scrambled","FOR_REV_MAP_BLOBBY_STIM/1592298.bmp_pp56_L3_V1.0_veridical_freeview_isoTrue_fps144_reversed_REAL.mp4",""
"","","","call-function","573","1046921","0.0-573.0","lddhfboh","","","","","","","",""
"1940.234999999986","{""judgement"":0}","[0]","survey-likert","574","1048862","0.0-574.0","lddhfboh","","","","","","","","0"
"1451.094999999972","{""confidence"":3}","[0]","survey-likert","575","1050315","0.0-575.0","lddhfboh","","","","","","","",""
"","","","call-function","576","1050315","0.0-576.0","lddhfboh","","","","","","","",""
"null","","","html-keyboard-response","577","1051817","0.0-577.0","lddhfboh","","<span style=""color:Black; font-size:50px;"">Agent A","null","","","","",""
"null","","","video-keyboard-response","578","1054525","0.0-578.0","lddhfboh","","","null","","Agent A","scrambled","FOR_REV_MAP_BLOBBY_STIM/1159427.bmp_pp98_L1_V1.0_veridical_freeview_isoTrue_fps144_reversed_REAL.mp4",""
"null","","","html-keyboard-response","579","1056029","0.0-579.0","lddhfboh","","<span style=""color:Black; font-size:50px;"">Agent B","null","","","","",""
"null","","","video-keyboard-response","580","1058740","0.0-580.0","lddhfboh","","","null","","Agent B","veridical","FOR_REV_MAP_BLOBBY_STIM/1159427.bmp_pp98_L1_V1.0_veridical_freeview_isoTrue_fps144.mp4",""
"","","","call-function","581","1058741","0.0-581.0","lddhfboh","","","","","","","",""
"9161.715000000084","{""judgement"":0}","[0]","survey-likert","582","1067903","0.0-582.0","lddhfboh","","","","","","","","1"
"864.8950000000186","{""confidence"":1}","[0]","survey-likert","583","1068769","0.0-583.0","lddhfboh","","","","","","","",""
"994.4750000000931","","","instructions","584","1069764","0.0-584.0","lddhfboh","[{""page_index"":0,""viewing_time"":994.3249999999534}]","","","","","","",""
"725.4350000000559","","","instructions","585","1070490","0.0-585.0","lddhfboh","[{""page_index"":0,""viewing_time"":725.3200000000652}]","","","","","","",""
"12665.850000000093","{""post-1"":1}","[0]","survey-likert","586","1083157","0.0-586.0","lddhfboh","","","","","","","",""
"5713.905000000028","{""post-1"":1}","[0]","survey-likert","587","1088873","0.0-587.0","lddhfboh","","","","","","","",""
"3905.804999999935","{""post-2"":1}","[0]","survey-likert","588","1092780","0.0-588.0","lddhfboh","","","","","","","",""
"3340.714999999851","{""post-2"":1}","[0]","survey-likert","589","1096121","0.0-589.0","lddhfboh","","","","","","","",""
"10390.910000000149","{""post-3"":2}","[0]","survey-likert","590","1106514","0.0-590.0","lddhfboh","","","","","","","",""
"2530.75","{""post-3"":0}","[0]","survey-likert","591","1109045","0.0-591.0","lddhfboh","","","","","","","",""
"25963.25500000012","{""post-4"":1}","[0]","survey-likert","592","1135011","0.0-592.0","lddhfboh","","","","","","","",""
"2494.5800000000745","{""post-4"":0}","[0]","survey-likert","593","1137507","0.0-593.0","lddhfboh","","","","","","","",""
"4704.73499999987","{""post-5"":2}","[0]","survey-likert","594","1142214","0.0-594.0","lddhfboh","","","","","","","",""
"4072.399999999907","{""post-5"":2}","[0]","survey-likert","595","1146288","0.0-595.0","lddhfboh","","","","","","","",""
"22792.60499999998","{""Q0"":""Second part here really threw me through the ringer""}","","survey-text","596","1169086","0.0-596.0","lddhfboh","","","","","","","",""
"104178.3999999999","{""Q0"":""I tried to locate/visualize points of interest in each trial based on where the hotspots were concentrated and then tried to consider how a real human would actually attend to such focal points""}","","survey-text","597","1273268","0.0-597.0","lddhfboh","","","","","","","",""
"50083.35999999987","{""Q0"":""Sometimes I would be almost unable to come up with differences of any real significance between the two viewpoints on a given trial""}","","survey-text","598","1323356","0.0-598.0","lddhfboh","","","","","","","",""
"916.4450000000652","","","instructions","599","1324274","0.0-599.0","lddhfboh","[{""page_index"":0,""viewing_time"":916.2100000001956}]","","","","","","",""
"164722.8799999999","{""Experimenter_end"":[""Printed ID# lddhfboh on consent form"",""Given subject SONA credit or payment"",""Given the subject debrief form""]}","[0]","survey-multi-select","600","1489001","0.0-600.0","lddhfboh","","","","","","","",""
