"rt","responses","question_order","trial_type","trial_index","time_elapsed","internal_node_id","ID","view_history","stimulus","key_press","value","agent","condition","image","correct_answer"
"9049.61","{""Experimenter"":[""Confirmed subject's identity"",""Confirmed normal or corrected-to-normal vision"",""Obtained consent (signature and date)"",""Checked the test room lighting"",""Checked computer screen lighting"",""Checked distance from screen to chin rest (50cm)"",""Cleaned and adjusted chin rest"",""Counterbalanced the order of the tasks"",""Opened the experiment in Firefox"",""Made the experiment full screen"",""Encouraged subject to silence phone, put away distractors, etc.""]}","[0]","survey-multi-select","0","9059","0.0-0.0","lphmzv2n","","","","","","","",""
"2633608.3699999996","","","instructions","1","2642675","0.0-1.0","lphmzv2n","[{""page_index"":0,""viewing_time"":2633607.7399999998}]","","","","","","",""
"26382.055000000168","","","instructions","2","2669058","0.0-2.0","lphmzv2n","[{""page_index"":0,""viewing_time"":5778.430000000168},{""page_index"":1,""viewing_time"":1243.9899999997579},{""page_index"":2,""viewing_time"":19359.450000000186}]","","","","","","",""
"1951.125","","","instructions","3","2671010","0.0-3.0","lphmzv2n","[{""page_index"":0,""viewing_time"":1951.0200000000186}]","","","","","","",""
"null","","","video-keyboard-response","4","2674088","0.0-4.0","lphmzv2n","","","null","","","","",""
"8193.584999999963","","","instructions","5","2682282","0.0-5.0","lphmzv2n","[{""page_index"":0,""viewing_time"":2552.4950000001118},{""page_index"":1,""viewing_time"":3163.8950000000186},{""page_index"":2,""viewing_time"":2477.0849999999627}]","","","","","","",""
"2084.6400000001304","","","instructions","6","2684367","0.0-6.0","lphmzv2n","[{""page_index"":0,""viewing_time"":2084.535000000149}]","","","","","","",""
"911.5649999999441","","","instructions","7","2685279","0.0-7.0","lphmzv2n","[{""page_index"":0,""viewing_time"":911.3449999997392}]","","","","","","",""
"null","","","video-keyboard-response","8","2688356","0.0-8.0","lphmzv2n","","","null","","","","",""
"12143.549999999814","","","instructions","9","2700500","0.0-9.0","lphmzv2n","[{""page_index"":0,""viewing_time"":1591.904999999795},{""page_index"":1,""viewing_time"":3870.4300000001676},{""page_index"":2,""viewing_time"":6681.0800000000745}]","","","","","","",""
"2723.445000000298","","","instructions","10","2703224","0.0-10.0","lphmzv2n","[{""page_index"":0,""viewing_time"":2723.3300000000745}]","","","","","","",""
"","","","call-function","11","2703225","0.0-11.0","lphmzv2n","","","","","","","",""
"null","","","html-keyboard-response","12","2704732","0.0-12.0","lphmzv2n","","<span style=""color:Black; font-size:50px;"">Agent A","null","","","","",""
"null","","","video-keyboard-response","13","2707815","0.0-13.0","lphmzv2n","","","null","","Agent A","scrambled","STIM_SET_2/1591781.bmp_pp63_L1_V1.0_scrambled_freeview_isoTrue.mp4",""
"null","","","html-keyboard-response","14","2709322","0.0-14.0","lphmzv2n","","<span style=""color:Black; font-size:50px;"">Agent B","null","","","","",""
"null","","","video-keyboard-response","15","2712401","0.0-15.0","lphmzv2n","","","null","","Agent B","veridical","STIM_SET_2/1591781.bmp_pp63_L1_V1.0_veridical_freeview_isoTrue.mp4",""
"","","","call-function","16","2712402","0.0-16.0","lphmzv2n","","","","","","","",""
"3103.6749999998137","{""judgement"":0}","[0]","survey-likert","17","2715507","0.0-17.0","lphmzv2n","","","","","","","","1"
"3336.9599999999627","{""confidence"":2}","[0]","survey-likert","18","2718845","0.0-18.0","lphmzv2n","","","","","","","",""
"","","","call-function","19","2718845","0.0-19.0","lphmzv2n","","","","","","","",""
"null","","","html-keyboard-response","20","2720350","0.0-20.0","lphmzv2n","","<span style=""color:Black; font-size:50px;"">Agent A","null","","","","",""
"null","","","video-keyboard-response","21","2723447","0.0-21.0","lphmzv2n","","","null","","Agent A","scrambled","STIM_SET_2/1592038.bmp_pp79_L2_V1.0_scrambled_freeview_isoTrue.mp4",""
"null","","","html-keyboard-response","22","2724949","0.0-22.0","lphmzv2n","","<span style=""color:Black; font-size:50px;"">Agent B","null","","","","",""
"null","","","video-keyboard-response","23","2728045","0.0-23.0","lphmzv2n","","","null","","Agent B","veridical","STIM_SET_2/1592038.bmp_pp79_L2_V1.0_veridical_freeview_isoTrue.mp4",""
"","","","call-function","24","2728045","0.0-24.0","lphmzv2n","","","","","","","",""
"2132.814999999944","{""judgement"":0}","[0]","survey-likert","25","2730179","0.0-25.0","lphmzv2n","","","","","","","","1"
"3201.385000000242","{""confidence"":2}","[0]","survey-likert","26","2733382","0.0-26.0","lphmzv2n","","","","","","","",""
"","","","call-function","27","2733383","0.0-27.0","lphmzv2n","","","","","","","",""
"null","","","html-keyboard-response","28","2734887","0.0-28.0","lphmzv2n","","<span style=""color:Black; font-size:50px;"">Agent A","null","","","","",""
"null","","","video-keyboard-response","29","2737960","0.0-29.0","lphmzv2n","","","null","","Agent A","veridical","STIM_SET_2/1159874.bmp_pp96_L2_V1.0_veridical_freeview_isoTrue.mp4",""
"null","","","html-keyboard-response","30","2739465","0.0-30.0","lphmzv2n","","<span style=""color:Black; font-size:50px;"">Agent B","null","","","","",""
"null","","","video-keyboard-response","31","2742542","0.0-31.0","lphmzv2n","","","null","","Agent B","scrambled","STIM_SET_2/1159874.bmp_pp96_L2_V1.0_scrambled_freeview_isoTrue.mp4",""
"","","","call-function","32","2742543","0.0-32.0","lphmzv2n","","","","","","","",""
"3266.9449999998324","{""judgement"":0}","[0]","survey-likert","33","2745811","0.0-33.0","lphmzv2n","","","","","","","","0"
"1921.0449999999255","{""confidence"":2}","[0]","survey-likert","34","2747733","0.0-34.0","lphmzv2n","","","","","","","",""
"","","","call-function","35","2747733","0.0-35.0","lphmzv2n","","","","","","","",""
"null","","","html-keyboard-response","36","2749237","0.0-36.0","lphmzv2n","","<span style=""color:Black; font-size:50px;"">Agent A","null","","","","",""
"null","","","video-keyboard-response","37","2752309","0.0-37.0","lphmzv2n","","","null","","Agent A","veridical","STIM_SET_2/1159973.bmp_pp98_L1_V1.0_veridical_freeview_isoTrue.mp4",""
"null","","","html-keyboard-response","38","2753813","0.0-38.0","lphmzv2n","","<span style=""color:Black; font-size:50px;"">Agent B","null","","","","",""
"null","","","video-keyboard-response","39","2756885","0.0-39.0","lphmzv2n","","","null","","Agent B","scrambled","STIM_SET_2/1159973.bmp_pp98_L1_V1.0_scrambled_freeview_isoTrue.mp4",""
"","","","call-function","40","2756886","0.0-40.0","lphmzv2n","","","","","","","",""
"2271.5800000000745","{""judgement"":0}","[0]","survey-likert","41","2759158","0.0-41.0","lphmzv2n","","","","","","","","0"
"1700.5449999999255","{""confidence"":0}","[0]","survey-likert","42","2760860","0.0-42.0","lphmzv2n","","","","","","","",""
"","","","call-function","43","2760860","0.0-43.0","lphmzv2n","","","","","","","",""
"null","","","html-keyboard-response","44","2762362","0.0-44.0","lphmzv2n","","<span style=""color:Black; font-size:50px;"">Agent A","null","","","","",""
"null","","","video-keyboard-response","45","2765470","0.0-45.0","lphmzv2n","","","null","","Agent A","veridical","STIM_SET_2/713770.bmp_pp89_L1_V1.0_veridical_freeview_isoTrue.mp4",""
"null","","","html-keyboard-response","46","2766972","0.0-46.0","lphmzv2n","","<span style=""color:Black; font-size:50px;"">Agent B","null","","","","",""
"null","","","video-keyboard-response","47","2770076","0.0-47.0","lphmzv2n","","","null","","Agent B","scrambled","STIM_SET_2/713770.bmp_pp89_L1_V1.0_scrambled_freeview_isoTrue.mp4",""
"","","","call-function","48","2770076","0.0-48.0","lphmzv2n","","","","","","","",""
"2160.1800000001676","{""judgement"":0}","[0]","survey-likert","49","2772237","0.0-49.0","lphmzv2n","","","","","","","","0"
"1631.2050000000745","{""confidence"":1}","[0]","survey-likert","50","2773870","0.0-50.0","lphmzv2n","","","","","","","",""
"","","","call-function","51","2773870","0.0-51.0","lphmzv2n","","","","","","","",""
"null","","","html-keyboard-response","52","2775376","0.0-52.0","lphmzv2n","","<span style=""color:Black; font-size:50px;"">Agent A","null","","","","",""
"null","","","video-keyboard-response","53","2778477","0.0-53.0","lphmzv2n","","","null","","Agent A","scrambled","STIM_SET_2/1159819.bmp_pp151_L1_V1.0_scrambled_freeview_isoTrue.mp4",""
"null","","","html-keyboard-response","54","2779984","0.0-54.0","lphmzv2n","","<span style=""color:Black; font-size:50px;"">Agent B","null","","","","",""
"null","","","video-keyboard-response","55","2783083","0.0-55.0","lphmzv2n","","","null","","Agent B","veridical","STIM_SET_2/1159819.bmp_pp151_L1_V1.0_veridical_freeview_isoTrue.mp4",""
"","","","call-function","56","2783084","0.0-56.0","lphmzv2n","","","","","","","",""
"2117.8349999999627","{""judgement"":1}","[0]","survey-likert","57","2785202","0.0-57.0","lphmzv2n","","","","","","","","1"
"1509.0749999997206","{""confidence"":1}","[0]","survey-likert","58","2786713","0.0-58.0","lphmzv2n","","","","","","","",""
"","","","call-function","59","2786713","0.0-59.0","lphmzv2n","","","","","","","",""
"null","","","html-keyboard-response","60","2788218","0.0-60.0","lphmzv2n","","<span style=""color:Black; font-size:50px;"">Agent A","null","","","","",""
"null","","","video-keyboard-response","61","2791319","0.0-61.0","lphmzv2n","","","null","","Agent A","veridical","STIM_SET_2/1592857.bmp_pp52_L1_V1_veridical_freeview_isoTrue.mp4",""
"null","","","html-keyboard-response","62","2792826","0.0-62.0","lphmzv2n","","<span style=""color:Black; font-size:50px;"">Agent B","null","","","","",""
"null","","","video-keyboard-response","63","2795927","0.0-63.0","lphmzv2n","","","null","","Agent B","scrambled","STIM_SET_2/1592857.bmp_pp52_L1_V1_scrambled_freeview_isoTrue.mp4",""
"","","","call-function","64","2795928","0.0-64.0","lphmzv2n","","","","","","","",""
"1819.0550000001676","{""judgement"":0}","[0]","survey-likert","65","2797747","0.0-65.0","lphmzv2n","","","","","","","","0"
"2694.1400000001304","{""confidence"":1}","[0]","survey-likert","66","2800443","0.0-66.0","lphmzv2n","","","","","","","",""
"","","","call-function","67","2800443","0.0-67.0","lphmzv2n","","","","","","","",""
"null","","","html-keyboard-response","68","2801947","0.0-68.0","lphmzv2n","","<span style=""color:Black; font-size:50px;"">Agent A","null","","","","",""
"null","","","video-keyboard-response","69","2805013","0.0-69.0","lphmzv2n","","","null","","Agent A","scrambled","STIM_SET_2/1159860.bmp_pp152_L2_V1.0_scrambled_freeview_isoTrue.mp4",""
"null","","","html-keyboard-response","70","2806519","0.0-70.0","lphmzv2n","","<span style=""color:Black; font-size:50px;"">Agent B","null","","","","",""
"null","","","video-keyboard-response","71","2809590","0.0-71.0","lphmzv2n","","","null","","Agent B","veridical","STIM_SET_2/1159860.bmp_pp152_L2_V1.0_veridical_freeview_isoTrue.mp4",""
"","","","call-function","72","2809591","0.0-72.0","lphmzv2n","","","","","","","",""
"2896.9449999998324","{""judgement"":0}","[0]","survey-likert","73","2812489","0.0-73.0","lphmzv2n","","","","","","","","1"
"1894.285000000149","{""confidence"":0}","[0]","survey-likert","74","2814384","0.0-74.0","lphmzv2n","","","","","","","",""
"","","","call-function","75","2814384","0.0-75.0","lphmzv2n","","","","","","","",""
"null","","","html-keyboard-response","76","2815885","0.0-76.0","lphmzv2n","","<span style=""color:Black; font-size:50px;"">Agent A","null","","","","",""
"null","","","video-keyboard-response","77","2818955","0.0-77.0","lphmzv2n","","","null","","Agent A","veridical","STIM_SET_2/150463.bmp_pp55_L3_V1.0_veridical_freeview_isoTrue.mp4",""
"null","","","html-keyboard-response","78","2820460","0.0-78.0","lphmzv2n","","<span style=""color:Black; font-size:50px;"">Agent B","null","","","","",""
"null","","","video-keyboard-response","79","2823532","0.0-79.0","lphmzv2n","","","null","","Agent B","scrambled","STIM_SET_2/150463.bmp_pp55_L3_V1.0_scrambled_freeview_isoTrue.mp4",""
"","","","call-function","80","2823533","0.0-80.0","lphmzv2n","","","","","","","",""
"1824.3500000000931","{""judgement"":0}","[0]","survey-likert","81","2825358","0.0-81.0","lphmzv2n","","","","","","","","0"
"2403.339999999851","{""confidence"":2}","[0]","survey-likert","82","2827763","0.0-82.0","lphmzv2n","","","","","","","",""
"","","","call-function","83","2827763","0.0-83.0","lphmzv2n","","","","","","","",""
"null","","","html-keyboard-response","84","2829267","0.0-84.0","lphmzv2n","","<span style=""color:Black; font-size:50px;"">Agent A","null","","","","",""
"null","","","video-keyboard-response","85","2832324","0.0-85.0","lphmzv2n","","","null","","Agent A","veridical","STIM_SET_2/1592017.bmp_pp154_L1_V1.0_veridical_freeview_isoTrue.mp4",""
"null","","","html-keyboard-response","86","2833831","0.0-86.0","lphmzv2n","","<span style=""color:Black; font-size:50px;"">Agent B","null","","","","",""
"null","","","video-keyboard-response","87","2836897","0.0-87.0","lphmzv2n","","","null","","Agent B","scrambled","STIM_SET_2/1592017.bmp_pp154_L1_V1.0_scrambled_freeview_isoTrue.mp4",""
"","","","call-function","88","2836898","0.0-88.0","lphmzv2n","","","","","","","",""
"1780.4449999998324","{""judgement"":0}","[0]","survey-likert","89","2838681","0.0-89.0","lphmzv2n","","","","","","","","0"
"2838.885000000242","{""confidence"":3}","[0]","survey-likert","90","2841521","0.0-90.0","lphmzv2n","","","","","","","",""
"32286.580000000075","","","instructions","91","2873809","0.0-91.0","lphmzv2n","[{""page_index"":0,""viewing_time"":3261.3799999998882},{""page_index"":1,""viewing_time"":1959.3400000003166},{""page_index"":2,""viewing_time"":27065.654999999795}]","","","","","","",""
"4328.089999999851","","","instructions","92","2878138","0.0-92.0","lphmzv2n","[{""page_index"":0,""viewing_time"":1058.0099999997765},{""page_index"":1,""viewing_time"":2517.060000000056},{""page_index"":2,""viewing_time"":752.9150000000373}]","","","","","","",""
"","","","call-function","93","2878138","0.0-93.0","lphmzv2n","","","","","","","",""
"null","","","html-keyboard-response","94","2879640","0.0-94.0","lphmzv2n","","<span style=""color:Black; font-size:50px;"">Agent A","null","","","","",""
"null","","","video-keyboard-response","95","2882719","0.0-95.0","lphmzv2n","","","null","","Agent A","veridical","STIM_SET_2/498025.bmp_pp81_L1_V1.0_veridical_freeview_isoTrue.mp4",""
"null","","","html-keyboard-response","96","2884221","0.0-96.0","lphmzv2n","","<span style=""color:Black; font-size:50px;"">Agent B","null","","","","",""
"null","","","video-keyboard-response","97","2887298","0.0-97.0","lphmzv2n","","","null","","Agent B","scrambled","STIM_SET_2/498025.bmp_pp81_L1_V1.0_scrambled_freeview_isoTrue.mp4",""
"","","","call-function","98","2887298","0.0-98.0","lphmzv2n","","","","","","","",""
"1817.4199999999255","{""judgement"":0}","[0]","survey-likert","99","2889117","0.0-99.0","lphmzv2n","","","","","","","","0"
"2792.4599999999627","{""confidence"":2}","[0]","survey-likert","100","2891911","0.0-100.0","lphmzv2n","","","","","","","",""
"","","","call-function","101","2891911","0.0-101.0","lphmzv2n","","","","","","","",""
"null","","","html-keyboard-response","102","2893415","0.0-102.0","lphmzv2n","","<span style=""color:Black; font-size:50px;"">Agent A","null","","","","",""
"null","","","video-keyboard-response","103","2896495","0.0-103.0","lphmzv2n","","","null","","Agent A","veridical","STIM_SET_2/713742.bmp_pp91_L3_V1.0_veridical_freeview_isoTrue.mp4",""
"null","","","html-keyboard-response","104","2897997","0.0-104.0","lphmzv2n","","<span style=""color:Black; font-size:50px;"">Agent B","null","","","","",""
"null","","","video-keyboard-response","105","2901073","0.0-105.0","lphmzv2n","","","null","","Agent B","scrambled","STIM_SET_2/713742.bmp_pp91_L3_V1.0_scrambled_freeview_isoTrue.mp4",""
"","","","call-function","106","2901074","0.0-106.0","lphmzv2n","","","","","","","",""
"1758.4849999998696","{""judgement"":0}","[0]","survey-likert","107","2902833","0.0-107.0","lphmzv2n","","","","","","","","0"
"1473.1349999997765","{""confidence"":1}","[0]","survey-likert","108","2904307","0.0-108.0","lphmzv2n","","","","","","","",""
"","","","call-function","109","2904307","0.0-109.0","lphmzv2n","","","","","","","",""
"null","","","html-keyboard-response","110","2905813","0.0-110.0","lphmzv2n","","<span style=""color:Black; font-size:50px;"">Agent A","null","","","","",""
"null","","","video-keyboard-response","111","2908904","0.0-111.0","lphmzv2n","","","null","","Agent A","scrambled","STIM_SET_2/285946.bmp_pp79_L2_V1.0_scrambled_freeview_isoTrue.mp4",""
"null","","","html-keyboard-response","112","2910406","0.0-112.0","lphmzv2n","","<span style=""color:Black; font-size:50px;"">Agent B","null","","","","",""
"null","","","video-keyboard-response","113","2913492","0.0-113.0","lphmzv2n","","","null","","Agent B","veridical","STIM_SET_2/285946.bmp_pp79_L2_V1.0_veridical_freeview_isoTrue.mp4",""
"","","","call-function","114","2913493","0.0-114.0","lphmzv2n","","","","","","","",""
"6340.3300000000745","{""judgement"":0}","[0]","survey-likert","115","2919834","0.0-115.0","lphmzv2n","","","","","","","","1"
"1514.619999999646","{""confidence"":0}","[0]","survey-likert","116","2921350","0.0-116.0","lphmzv2n","","","","","","","",""
"","","","call-function","117","2921350","0.0-117.0","lphmzv2n","","","","","","","",""
"null","","","html-keyboard-response","118","2922855","0.0-118.0","lphmzv2n","","<span style=""color:Black; font-size:50px;"">Agent A","null","","","","",""
"null","","","video-keyboard-response","119","2925952","0.0-119.0","lphmzv2n","","","null","","Agent A","scrambled","STIM_SET_2/1592044.bmp_pp94_L2_V1.0_scrambled_freeview_isoTrue.mp4",""
"null","","","html-keyboard-response","120","2927457","0.0-120.0","lphmzv2n","","<span style=""color:Black; font-size:50px;"">Agent B","null","","","","",""
"null","","","video-keyboard-response","121","2930552","0.0-121.0","lphmzv2n","","","null","","Agent B","veridical","STIM_SET_2/1592044.bmp_pp94_L2_V1.0_veridical_freeview_isoTrue.mp4",""
"","","","call-function","122","2930552","0.0-122.0","lphmzv2n","","","","","","","",""
"1653.5849999999627","{""judgement"":1}","[0]","survey-likert","123","2932207","0.0-123.0","lphmzv2n","","","","","","","","1"
"1811.2099999999627","{""confidence"":1}","[0]","survey-likert","124","2934019","0.0-124.0","lphmzv2n","","","","","","","",""
"","","","call-function","125","2934019","0.0-125.0","lphmzv2n","","","","","","","",""
"null","","","html-keyboard-response","126","2935524","0.0-126.0","lphmzv2n","","<span style=""color:Black; font-size:50px;"">Agent A","null","","","","",""
"null","","","video-keyboard-response","127","2938629","0.0-127.0","lphmzv2n","","","null","","Agent A","veridical","STIM_SET_2/107909.bmp_pp95_L2_V1.0_veridical_freeview_isoTrue.mp4",""
"null","","","html-keyboard-response","128","2940136","0.0-128.0","lphmzv2n","","<span style=""color:Black; font-size:50px;"">Agent B","null","","","","",""
"null","","","video-keyboard-response","129","2943247","0.0-129.0","lphmzv2n","","","null","","Agent B","scrambled","STIM_SET_2/107909.bmp_pp95_L2_V1.0_scrambled_freeview_isoTrue.mp4",""
"","","","call-function","130","2943247","0.0-130.0","lphmzv2n","","","","","","","",""
"1931.5649999999441","{""judgement"":0}","[0]","survey-likert","131","2945179","0.0-131.0","lphmzv2n","","","","","","","","0"
"1275.5749999997206","{""confidence"":0}","[0]","survey-likert","132","2946457","0.0-132.0","lphmzv2n","","","","","","","",""
"","","","call-function","133","2946457","0.0-133.0","lphmzv2n","","","","","","","",""
"null","","","html-keyboard-response","134","2947960","0.0-134.0","lphmzv2n","","<span style=""color:Black; font-size:50px;"">Agent A","null","","","","",""
"null","","","video-keyboard-response","135","2951038","0.0-135.0","lphmzv2n","","","null","","Agent A","veridical","STIM_SET_2/1592168.bmp_pp71_L1_V1.0_veridical_freeview_isoTrue.mp4",""
"null","","","html-keyboard-response","136","2952541","0.0-136.0","lphmzv2n","","<span style=""color:Black; font-size:50px;"">Agent B","null","","","","",""
"null","","","video-keyboard-response","137","2955643","0.0-137.0","lphmzv2n","","","null","","Agent B","scrambled","STIM_SET_2/1592168.bmp_pp71_L1_V1.0_scrambled_freeview_isoTrue.mp4",""
"","","","call-function","138","2955643","0.0-138.0","lphmzv2n","","","","","","","",""
"2466.0699999998324","{""judgement"":1}","[0]","survey-likert","139","2958111","0.0-139.0","lphmzv2n","","","","","","","","0"
"1472.2050000000745","{""confidence"":1}","[0]","survey-likert","140","2959585","0.0-140.0","lphmzv2n","","","","","","","",""
"","","","call-function","141","2959586","0.0-141.0","lphmzv2n","","","","","","","",""
"null","","","html-keyboard-response","142","2961088","0.0-142.0","lphmzv2n","","<span style=""color:Black; font-size:50px;"">Agent A","null","","","","",""
"null","","","video-keyboard-response","143","2964158","0.0-143.0","lphmzv2n","","","null","","Agent A","scrambled","STIM_SET_2/1592747.bmp_pp53_L2_V1.0_scrambled_freeview_isoTrue.mp4",""
"null","","","html-keyboard-response","144","2965661","0.0-144.0","lphmzv2n","","<span style=""color:Black; font-size:50px;"">Agent B","null","","","","",""
"null","","","video-keyboard-response","145","2968737","0.0-145.0","lphmzv2n","","","null","","Agent B","veridical","STIM_SET_2/1592747.bmp_pp53_L2_V1.0_veridical_freeview_isoTrue.mp4",""
"","","","call-function","146","2968737","0.0-146.0","lphmzv2n","","","","","","","",""
"1795.7900000000373","{""judgement"":1}","[0]","survey-likert","147","2970534","0.0-147.0","lphmzv2n","","","","","","","","1"
"2938.9500000001863","{""confidence"":1}","[0]","survey-likert","148","2973474","0.0-148.0","lphmzv2n","","","","","","","",""
"","","","call-function","149","2973475","0.0-149.0","lphmzv2n","","","","","","","",""
"null","","","html-keyboard-response","150","2974981","0.0-150.0","lphmzv2n","","<span style=""color:Black; font-size:50px;"">Agent A","null","","","","",""
"null","","","video-keyboard-response","151","2978061","0.0-151.0","lphmzv2n","","","null","","Agent A","scrambled","STIM_SET_2/713633.bmp_pp58_L1_V1.0_scrambled_freeview_isoTrue.mp4",""
"null","","","html-keyboard-response","152","2979563","0.0-152.0","lphmzv2n","","<span style=""color:Black; font-size:50px;"">Agent B","null","","","","",""
"null","","","video-keyboard-response","153","2982665","0.0-153.0","lphmzv2n","","","null","","Agent B","veridical","STIM_SET_2/713633.bmp_pp58_L1_V1.0_veridical_freeview_isoTrue.mp4",""
"","","","call-function","154","2982665","0.0-154.0","lphmzv2n","","","","","","","",""
"1479.1650000000373","{""judgement"":0}","[0]","survey-likert","155","2984145","0.0-155.0","lphmzv2n","","","","","","","","1"
"2064.1800000001676","{""confidence"":1}","[0]","survey-likert","156","2986211","0.0-156.0","lphmzv2n","","","","","","","",""
"","","","call-function","157","2986211","0.0-157.0","lphmzv2n","","","","","","","",""
"null","","","html-keyboard-response","158","2987712","0.0-158.0","lphmzv2n","","<span style=""color:Black; font-size:50px;"">Agent A","null","","","","",""
"null","","","video-keyboard-response","159","2990803","0.0-159.0","lphmzv2n","","","null","","Agent A","scrambled","STIM_SET_2/1592567.bmp_pp70_L2_V1.0_scrambled_freeview_isoTrue.mp4",""
"null","","","html-keyboard-response","160","2992308","0.0-160.0","lphmzv2n","","<span style=""color:Black; font-size:50px;"">Agent B","null","","","","",""
"null","","","video-keyboard-response","161","2995397","0.0-161.0","lphmzv2n","","","null","","Agent B","veridical","STIM_SET_2/1592567.bmp_pp70_L2_V1.0_veridical_freeview_isoTrue.mp4",""
"","","","call-function","162","2995397","0.0-162.0","lphmzv2n","","","","","","","",""
"1724.125","{""judgement"":1}","[0]","survey-likert","163","2997122","0.0-163.0","lphmzv2n","","","","","","","","1"
"1750.3549999999814","{""confidence"":1}","[0]","survey-likert","164","2998873","0.0-164.0","lphmzv2n","","","","","","","",""
"","","","call-function","165","2998874","0.0-165.0","lphmzv2n","","","","","","","",""
"null","","","html-keyboard-response","166","3000377","0.0-166.0","lphmzv2n","","<span style=""color:Black; font-size:50px;"">Agent A","null","","","","",""
"null","","","video-keyboard-response","167","3003478","0.0-167.0","lphmzv2n","","","null","","Agent A","scrambled","STIM_SET_2/1159329.bmp_pp61_L2_V1.0_scrambled_freeview_isoTrue.mp4",""
"null","","","html-keyboard-response","168","3004983","0.0-168.0","lphmzv2n","","<span style=""color:Black; font-size:50px;"">Agent B","null","","","","",""
"null","","","video-keyboard-response","169","3008083","0.0-169.0","lphmzv2n","","","null","","Agent B","veridical","STIM_SET_2/1159329.bmp_pp61_L2_V1.0_veridical_freeview_isoTrue.mp4",""
"","","","call-function","170","3008083","0.0-170.0","lphmzv2n","","","","","","","",""
"1864.1850000000559","{""judgement"":1}","[0]","survey-likert","171","3009948","0.0-171.0","lphmzv2n","","","","","","","","1"
"1787.8199999998324","{""confidence"":0}","[0]","survey-likert","172","3011737","0.0-172.0","lphmzv2n","","","","","","","",""
"34704.375","","","instructions","173","3046442","0.0-173.0","lphmzv2n","[{""page_index"":0,""viewing_time"":3570.4799999999814},{""page_index"":1,""viewing_time"":21453.540000000037},{""page_index"":2,""viewing_time"":9680.145000000019}]","","","","","","",""
"3046.8249999997206","","","instructions","174","3049489","0.0-174.0","lphmzv2n","[{""page_index"":0,""viewing_time"":993.3299999996088},{""page_index"":1,""viewing_time"":1186.9650000003166},{""page_index"":2,""viewing_time"":866.4099999996834}]","","","","","","",""
"","","","call-function","175","3049490","0.0-175.0","lphmzv2n","","","","","","","",""
"null","","","html-keyboard-response","176","3050993","0.0-176.0","lphmzv2n","","<span style=""color:Black; font-size:50px;"">Agent A","null","","","","",""
"null","","","video-keyboard-response","177","3054067","0.0-177.0","lphmzv2n","","","null","","Agent A","veridical","STIM_SET_2/713274.bmp_pp73_L3_V1.0_veridical_freeview_isoTrue.mp4",""
"null","","","html-keyboard-response","178","3055569","0.0-178.0","lphmzv2n","","<span style=""color:Black; font-size:50px;"">Agent B","null","","","","",""
"null","","","video-keyboard-response","179","3058644","0.0-179.0","lphmzv2n","","","null","","Agent B","scrambled","STIM_SET_2/713274.bmp_pp73_L3_V1.0_scrambled_freeview_isoTrue.mp4",""
"","","","call-function","180","3058644","0.0-180.0","lphmzv2n","","","","","","","",""
"1611.9250000002794","{""judgement"":0}","[0]","survey-likert","181","3060257","0.0-181.0","lphmzv2n","","","","","","","","0"
"1361.7000000001863","{""confidence"":2}","[0]","survey-likert","182","3061620","0.0-182.0","lphmzv2n","","","","","","","",""
"","","","call-function","183","3061621","0.0-183.0","lphmzv2n","","","","","","","",""
"null","","","html-keyboard-response","184","3063127","0.0-184.0","lphmzv2n","","<span style=""color:Black; font-size:50px;"">Agent A","null","","","","",""
"null","","","video-keyboard-response","185","3066199","0.0-185.0","lphmzv2n","","","null","","Agent A","veridical","STIM_SET_2/1592530.bmp_pp75_L1_V1.0_veridical_freeview_isoTrue.mp4",""
"null","","","html-keyboard-response","186","3067706","0.0-186.0","lphmzv2n","","<span style=""color:Black; font-size:50px;"">Agent B","null","","","","",""
"null","","","video-keyboard-response","187","3070779","0.0-187.0","lphmzv2n","","","null","","Agent B","scrambled","STIM_SET_2/1592530.bmp_pp75_L1_V1.0_scrambled_freeview_isoTrue.mp4",""
"","","","call-function","188","3070780","0.0-188.0","lphmzv2n","","","","","","","",""
"1599.7250000000931","{""judgement"":1}","[0]","survey-likert","189","3072381","0.0-189.0","lphmzv2n","","","","","","","","0"
"2684.1099999998696","{""confidence"":2}","[0]","survey-likert","190","3075067","0.0-190.0","lphmzv2n","","","","","","","",""
"","","","call-function","191","3075068","0.0-191.0","lphmzv2n","","","","","","","",""
"null","","","html-keyboard-response","192","3076575","0.0-192.0","lphmzv2n","","<span style=""color:Black; font-size:50px;"">Agent A","null","","","","",""
"null","","","video-keyboard-response","193","3079648","0.0-193.0","lphmzv2n","","","null","","Agent A","veridical","STIM_SET_2/1592129.bmp_pp153_L3_V1.0_veridical_freeview_isoTrue.mp4",""
"null","","","html-keyboard-response","194","3081151","0.0-194.0","lphmzv2n","","<span style=""color:Black; font-size:50px;"">Agent B","null","","","","",""
"null","","","video-keyboard-response","195","3084223","0.0-195.0","lphmzv2n","","","null","","Agent B","scrambled","STIM_SET_2/1592129.bmp_pp153_L3_V1.0_scrambled_freeview_isoTrue.mp4",""
"","","","call-function","196","3084223","0.0-196.0","lphmzv2n","","","","","","","",""
"2238.81500000041","{""judgement"":1}","[0]","survey-likert","197","3086463","0.0-197.0","lphmzv2n","","","","","","","","0"
"1582.0849999999627","{""confidence"":1}","[0]","survey-likert","198","3088047","0.0-198.0","lphmzv2n","","","","","","","",""
"","","","call-function","199","3088047","0.0-199.0","lphmzv2n","","","","","","","",""
"null","","","html-keyboard-response","200","3089551","0.0-200.0","lphmzv2n","","<span style=""color:Black; font-size:50px;"">Agent A","null","","","","",""
"null","","","video-keyboard-response","201","3092625","0.0-201.0","lphmzv2n","","","null","","Agent A","scrambled","STIM_SET_2/1592201.bmp_pp97_L3_V1.0_scrambled_freeview_isoTrue.mp4",""
"null","","","html-keyboard-response","202","3094126","0.0-202.0","lphmzv2n","","<span style=""color:Black; font-size:50px;"">Agent B","null","","","","",""
"null","","","video-keyboard-response","203","3097198","0.0-203.0","lphmzv2n","","","null","","Agent B","veridical","STIM_SET_2/1592201.bmp_pp97_L3_V1.0_veridical_freeview_isoTrue.mp4",""
"","","","call-function","204","3097198","0.0-204.0","lphmzv2n","","","","","","","",""
"1872.0149999996647","{""judgement"":1}","[0]","survey-likert","205","3099071","0.0-205.0","lphmzv2n","","","","","","","","1"
"1308.154999999795","{""confidence"":0}","[0]","survey-likert","206","3100381","0.0-206.0","lphmzv2n","","","","","","","",""
"","","","call-function","207","3100381","0.0-207.0","lphmzv2n","","","","","","","",""
"null","","","html-keyboard-response","208","3101885","0.0-208.0","lphmzv2n","","<span style=""color:Black; font-size:50px;"">Agent A","null","","","","",""
"null","","","video-keyboard-response","209","3104987","0.0-209.0","lphmzv2n","","","null","","Agent A","scrambled","STIM_SET_2/1592921.bmp_pp69_L3_V1.0_scrambled_freeview_isoTrue.mp4",""
"null","","","html-keyboard-response","210","3106490","0.0-210.0","lphmzv2n","","<span style=""color:Black; font-size:50px;"">Agent B","null","","","","",""
"null","","","video-keyboard-response","211","3109591","0.0-211.0","lphmzv2n","","","null","","Agent B","veridical","STIM_SET_2/1592921.bmp_pp69_L3_V1.0_veridical_freeview_isoTrue.mp4",""
"","","","call-function","212","3109592","0.0-212.0","lphmzv2n","","","","","","","",""
"1761.5800000000745","{""judgement"":1}","[0]","survey-likert","213","3111355","0.0-213.0","lphmzv2n","","","","","","","","1"
"1247.8349999999627","{""confidence"":2}","[0]","survey-likert","214","3112603","0.0-214.0","lphmzv2n","","","","","","","",""
"","","","call-function","215","3112604","0.0-215.0","lphmzv2n","","","","","","","",""
"null","","","html-keyboard-response","216","3114105","0.0-216.0","lphmzv2n","","<span style=""color:Black; font-size:50px;"">Agent A","null","","","","",""
"null","","","video-keyboard-response","217","3117182","0.0-217.0","lphmzv2n","","","null","","Agent A","scrambled","STIM_SET_2/498398.bmp_pp81_L1_V1.0_scrambled_freeview_isoTrue.mp4",""
"null","","","html-keyboard-response","218","3118683","0.0-218.0","lphmzv2n","","<span style=""color:Black; font-size:50px;"">Agent B","null","","","","",""
"null","","","video-keyboard-response","219","3121761","0.0-219.0","lphmzv2n","","","null","","Agent B","veridical","STIM_SET_2/498398.bmp_pp81_L1_V1.0_veridical_freeview_isoTrue.mp4",""
"","","","call-function","220","3121762","0.0-220.0","lphmzv2n","","","","","","","",""
"1656.7750000003725","{""judgement"":1}","[0]","survey-likert","221","3123419","0.0-221.0","lphmzv2n","","","","","","","","1"
"1229.8850000002421","{""confidence"":1}","[0]","survey-likert","222","3124650","0.0-222.0","lphmzv2n","","","","","","","",""
"","","","call-function","223","3124651","0.0-223.0","lphmzv2n","","","","","","","",""
"null","","","html-keyboard-response","224","3126154","0.0-224.0","lphmzv2n","","<span style=""color:Black; font-size:50px;"">Agent A","null","","","","",""
"null","","","video-keyboard-response","225","3129257","0.0-225.0","lphmzv2n","","","null","","Agent A","veridical","STIM_SET_2/713920.bmp_pp76_L1_V1.0_veridical_freeview_isoTrue.mp4",""
"null","","","html-keyboard-response","226","3130759","0.0-226.0","lphmzv2n","","<span style=""color:Black; font-size:50px;"">Agent B","null","","","","",""
"null","","","video-keyboard-response","227","3133860","0.0-227.0","lphmzv2n","","","null","","Agent B","scrambled","STIM_SET_2/713920.bmp_pp76_L1_V1.0_scrambled_freeview_isoTrue.mp4",""
"","","","call-function","228","3133861","0.0-228.0","lphmzv2n","","","","","","","",""
"1796.6850000000559","{""judgement"":0}","[0]","survey-likert","229","3135659","0.0-229.0","lphmzv2n","","","","","","","","0"
"1174.4150000000373","{""confidence"":1}","[0]","survey-likert","230","3136835","0.0-230.0","lphmzv2n","","","","","","","",""
"","","","call-function","231","3136835","0.0-231.0","lphmzv2n","","","","","","","",""
"null","","","html-keyboard-response","232","3138341","0.0-232.0","lphmzv2n","","<span style=""color:Black; font-size:50px;"">Agent A","null","","","","",""
"null","","","video-keyboard-response","233","3141445","0.0-233.0","lphmzv2n","","","null","","Agent A","veridical","STIM_SET_2/1592025.bmp_pp68_L1_V1.0_veridical_freeview_isoTrue.mp4",""
"null","","","html-keyboard-response","234","3142951","0.0-234.0","lphmzv2n","","<span style=""color:Black; font-size:50px;"">Agent B","null","","","","",""
"null","","","video-keyboard-response","235","3146022","0.0-235.0","lphmzv2n","","","null","","Agent B","scrambled","STIM_SET_2/1592025.bmp_pp68_L1_V1.0_scrambled_freeview_isoTrue.mp4",""
"","","","call-function","236","3146023","0.0-236.0","lphmzv2n","","","","","","","",""
"1531.0800000000745","{""judgement"":0}","[0]","survey-likert","237","3147555","0.0-237.0","lphmzv2n","","","","","","","","0"
"1248.3849999997765","{""confidence"":2}","[0]","survey-likert","238","3148804","0.0-238.0","lphmzv2n","","","","","","","",""
"","","","call-function","239","3148805","0.0-239.0","lphmzv2n","","","","","","","",""
"null","","","html-keyboard-response","240","3150309","0.0-240.0","lphmzv2n","","<span style=""color:Black; font-size:50px;"">Agent A","null","","","","",""
"null","","","video-keyboard-response","241","3153385","0.0-241.0","lphmzv2n","","","null","","Agent A","veridical","STIM_SET_2/1592289.bmp_pp92_L3_V1.0_veridical_freeview_isoTrue.mp4",""
"null","","","html-keyboard-response","242","3154890","0.0-242.0","lphmzv2n","","<span style=""color:Black; font-size:50px;"">Agent B","null","","","","",""
"null","","","video-keyboard-response","243","3157963","0.0-243.0","lphmzv2n","","","null","","Agent B","scrambled","STIM_SET_2/1592289.bmp_pp92_L3_V1.0_scrambled_freeview_isoTrue.mp4",""
"","","","call-function","244","3157964","0.0-244.0","lphmzv2n","","","","","","","",""
"1953.0749999997206","{""judgement"":0}","[0]","survey-likert","245","3159918","0.0-245.0","lphmzv2n","","","","","","","","0"
"1415.1350000002421","{""confidence"":3}","[0]","survey-likert","246","3161334","0.0-246.0","lphmzv2n","","","","","","","",""
"","","","call-function","247","3161335","0.0-247.0","lphmzv2n","","","","","","","",""
"null","","","html-keyboard-response","248","3162838","0.0-248.0","lphmzv2n","","<span style=""color:Black; font-size:50px;"">Agent A","null","","","","",""
"null","","","video-keyboard-response","249","3165901","0.0-249.0","lphmzv2n","","","null","","Agent A","scrambled","STIM_SET_2/1159392.bmp_pp96_L2_V1.0_scrambled_freeview_isoTrue.mp4",""
"null","","","html-keyboard-response","250","3167403","0.0-250.0","lphmzv2n","","<span style=""color:Black; font-size:50px;"">Agent B","null","","","","",""
"null","","","video-keyboard-response","251","3170496","0.0-251.0","lphmzv2n","","","null","","Agent B","veridical","STIM_SET_2/1159392.bmp_pp96_L2_V1.0_veridical_freeview_isoTrue.mp4",""
"","","","call-function","252","3170496","0.0-252.0","lphmzv2n","","","","","","","",""
"2329.320000000298","{""judgement"":1}","[0]","survey-likert","253","3172826","0.0-253.0","lphmzv2n","","","","","","","","1"
"1439.839999999851","{""confidence"":0}","[0]","survey-likert","254","3174267","0.0-254.0","lphmzv2n","","","","","","","",""
"30913.41000000015","","","instructions","255","3205182","0.0-255.0","lphmzv2n","[{""page_index"":0,""viewing_time"":2131.2400000002235},{""page_index"":1,""viewing_time"":28229.084999999963},{""page_index"":2,""viewing_time"":552.8799999998882}]","","","","","","",""
"2719.6200000001118","","","instructions","256","3207903","0.0-256.0","lphmzv2n","[{""page_index"":0,""viewing_time"":721.2599999997765},{""page_index"":1,""viewing_time"":1144.9250000002794},{""page_index"":2,""viewing_time"":853.3249999997206}]","","","","","","",""
"","","","call-function","257","3207904","0.0-257.0","lphmzv2n","","","","","","","",""
"null","","","html-keyboard-response","258","3209407","0.0-258.0","lphmzv2n","","<span style=""color:Black; font-size:50px;"">Agent A","null","","","","",""
"null","","","video-keyboard-response","259","3212479","0.0-259.0","lphmzv2n","","","null","","Agent A","veridical","STIM_SET_2/1159508.bmp_pp151_L1_V1.0_veridical_freeview_isoTrue.mp4",""
"null","","","html-keyboard-response","260","3213982","0.0-260.0","lphmzv2n","","<span style=""color:Black; font-size:50px;"">Agent B","null","","","","",""
"null","","","video-keyboard-response","261","3217053","0.0-261.0","lphmzv2n","","","null","","Agent B","scrambled","STIM_SET_2/1159508.bmp_pp151_L1_V1.0_scrambled_freeview_isoTrue.mp4",""
"","","","call-function","262","3217054","0.0-262.0","lphmzv2n","","","","","","","",""
"1703.2700000000186","{""judgement"":0}","[0]","survey-likert","263","3218758","0.0-263.0","lphmzv2n","","","","","","","","0"
"1805.625","{""confidence"":3}","[0]","survey-likert","264","3220565","0.0-264.0","lphmzv2n","","","","","","","",""
"","","","call-function","265","3220566","0.0-265.0","lphmzv2n","","","","","","","",""
"null","","","html-keyboard-response","266","3222069","0.0-266.0","lphmzv2n","","<span style=""color:Black; font-size:50px;"">Agent A","null","","","","",""
"null","","","video-keyboard-response","267","3225136","0.0-267.0","lphmzv2n","","","null","","Agent A","scrambled","STIM_SET_2/498326.bmp_pp57_L1_V1.0_scrambled_freeview_isoTrue.mp4",""
"null","","","html-keyboard-response","268","3226637","0.0-268.0","lphmzv2n","","<span style=""color:Black; font-size:50px;"">Agent B","null","","","","",""
"null","","","video-keyboard-response","269","3229706","0.0-269.0","lphmzv2n","","","null","","Agent B","veridical","STIM_SET_2/498326.bmp_pp57_L1_V1.0_veridical_freeview_isoTrue.mp4",""
"","","","call-function","270","3229707","0.0-270.0","lphmzv2n","","","","","","","",""
"1632.2900000000373","{""judgement"":1}","[0]","survey-likert","271","3231340","0.0-271.0","lphmzv2n","","","","","","","","1"
"1976.6000000000931","{""confidence"":3}","[0]","survey-likert","272","3233319","0.0-272.0","lphmzv2n","","","","","","","",""
"","","","call-function","273","3233319","0.0-273.0","lphmzv2n","","","","","","","",""
"null","","","html-keyboard-response","274","3234823","0.0-274.0","lphmzv2n","","<span style=""color:Black; font-size:50px;"">Agent A","null","","","","",""
"null","","","video-keyboard-response","275","3237927","0.0-275.0","lphmzv2n","","","null","","Agent A","veridical","STIM_SET_2/713788.bmp_pp52_L1_V1.0_veridical_freeview_isoTrue.mp4",""
"null","","","html-keyboard-response","276","3239433","0.0-276.0","lphmzv2n","","<span style=""color:Black; font-size:50px;"">Agent B","null","","","","",""
"null","","","video-keyboard-response","277","3242535","0.0-277.0","lphmzv2n","","","null","","Agent B","scrambled","STIM_SET_2/713788.bmp_pp52_L1_V1.0_scrambled_freeview_isoTrue.mp4",""
"","","","call-function","278","3242536","0.0-278.0","lphmzv2n","","","","","","","",""
"1642.0749999997206","{""judgement"":0}","[0]","survey-likert","279","3244179","0.0-279.0","lphmzv2n","","","","","","","","0"
"1728.4749999996275","{""confidence"":2}","[0]","survey-likert","280","3245908","0.0-280.0","lphmzv2n","","","","","","","",""
"","","","call-function","281","3245909","0.0-281.0","lphmzv2n","","","","","","","",""
"null","","","html-keyboard-response","282","3247413","0.0-282.0","lphmzv2n","","<span style=""color:Black; font-size:50px;"">Agent A","null","","","","",""
"null","","","video-keyboard-response","283","3250516","0.0-283.0","lphmzv2n","","","null","","Agent A","veridical","STIM_SET_2/713858.bmp_pp57_L1_V1.0_veridical_freeview_isoTrue.mp4",""
"null","","","html-keyboard-response","284","3252019","0.0-284.0","lphmzv2n","","<span style=""color:Black; font-size:50px;"">Agent B","null","","","","",""
"null","","","video-keyboard-response","285","3255122","0.0-285.0","lphmzv2n","","","null","","Agent B","scrambled","STIM_SET_2/713858.bmp_pp57_L1_V1.0_scrambled_freeview_isoTrue.mp4",""
"","","","call-function","286","3255122","0.0-286.0","lphmzv2n","","","","","","","",""
"1185.5400000000373","{""judgement"":0}","[0]","survey-likert","287","3256308","0.0-287.0","lphmzv2n","","","","","","","","0"
"1097.3449999997392","{""confidence"":1}","[0]","survey-likert","288","3257407","0.0-288.0","lphmzv2n","","","","","","","",""
"","","","call-function","289","3257407","0.0-289.0","lphmzv2n","","","","","","","",""
"null","","","html-keyboard-response","290","3258912","0.0-290.0","lphmzv2n","","<span style=""color:Black; font-size:50px;"">Agent A","null","","","","",""
"null","","","video-keyboard-response","291","3262010","0.0-291.0","lphmzv2n","","","null","","Agent A","veridical","STIM_SET_2/1591975.bmp_pp88_L2_V1.0_veridical_freeview_isoTrue.mp4",""
"null","","","html-keyboard-response","292","3263515","0.0-292.0","lphmzv2n","","<span style=""color:Black; font-size:50px;"">Agent B","null","","","","",""
"null","","","video-keyboard-response","293","3266608","0.0-293.0","lphmzv2n","","","null","","Agent B","scrambled","STIM_SET_2/1591975.bmp_pp88_L2_V1.0_scrambled_freeview_isoTrue.mp4",""
"","","","call-function","294","3266608","0.0-294.0","lphmzv2n","","","","","","","",""
"2287.310000000056","{""judgement"":1}","[0]","survey-likert","295","3268897","0.0-295.0","lphmzv2n","","","","","","","","0"
"1114.1800000001676","{""confidence"":0}","[0]","survey-likert","296","3270012","0.0-296.0","lphmzv2n","","","","","","","",""
"","","","call-function","297","3270012","0.0-297.0","lphmzv2n","","","","","","","",""
"null","","","html-keyboard-response","298","3271516","0.0-298.0","lphmzv2n","","<span style=""color:Black; font-size:50px;"">Agent A","null","","","","",""
"null","","","video-keyboard-response","299","3274615","0.0-299.0","lphmzv2n","","","null","","Agent A","scrambled","STIM_SET_2/1592047.bmp_pp51_L1_V1.0_scrambled_freeview_isoTrue.mp4",""
"null","","","html-keyboard-response","300","3276119","0.0-300.0","lphmzv2n","","<span style=""color:Black; font-size:50px;"">Agent B","null","","","","",""
"null","","","video-keyboard-response","301","3279184","0.0-301.0","lphmzv2n","","","null","","Agent B","veridical","STIM_SET_2/1592047.bmp_pp51_L1_V1.0_veridical_freeview_isoTrue.mp4",""
"","","","call-function","302","3279185","0.0-302.0","lphmzv2n","","","","","","","",""
"3445.929999999702","{""judgement"":0}","[0]","survey-likert","303","3282632","0.0-303.0","lphmzv2n","","","","","","","","1"
"1271.7600000002421","{""confidence"":0}","[0]","survey-likert","304","3283905","0.0-304.0","lphmzv2n","","","","","","","",""
"","","","call-function","305","3283905","0.0-305.0","lphmzv2n","","","","","","","",""
"null","","","html-keyboard-response","306","3285411","0.0-306.0","lphmzv2n","","<span style=""color:Black; font-size:50px;"">Agent A","null","","","","",""
"null","","","video-keyboard-response","307","3288490","0.0-307.0","lphmzv2n","","","null","","Agent A","scrambled","STIM_SET_2/1592568.bmp_pp71_L1_V1.0_scrambled_freeview_isoTrue.mp4",""
"null","","","html-keyboard-response","308","3289994","0.0-308.0","lphmzv2n","","<span style=""color:Black; font-size:50px;"">Agent B","null","","","","",""
"null","","","video-keyboard-response","309","3293075","0.0-309.0","lphmzv2n","","","null","","Agent B","veridical","STIM_SET_2/1592568.bmp_pp71_L1_V1.0_veridical_freeview_isoTrue.mp4",""
"","","","call-function","310","3293075","0.0-310.0","lphmzv2n","","","","","","","",""
"1521.9899999997579","{""judgement"":1}","[0]","survey-likert","311","3294599","0.0-311.0","lphmzv2n","","","","","","","","1"
"1817.8850000002421","{""confidence"":2}","[0]","survey-likert","312","3296418","0.0-312.0","lphmzv2n","","","","","","","",""
"","","","call-function","313","3296418","0.0-313.0","lphmzv2n","","","","","","","",""
"null","","","html-keyboard-response","314","3297924","0.0-314.0","lphmzv2n","","<span style=""color:Black; font-size:50px;"">Agent A","null","","","","",""
"null","","","video-keyboard-response","315","3300997","0.0-315.0","lphmzv2n","","","null","","Agent A","scrambled","STIM_SET_2/1160189.bmp_pp64_L1_V1.0_scrambled_freeview_isoTrue.mp4",""
"null","","","html-keyboard-response","316","3302500","0.0-316.0","lphmzv2n","","<span style=""color:Black; font-size:50px;"">Agent B","null","","","","",""
"null","","","video-keyboard-response","317","3305602","0.0-317.0","lphmzv2n","","","null","","Agent B","veridical","STIM_SET_2/1160189.bmp_pp64_L1_V1.0_veridical_freeview_isoTrue.mp4",""
"","","","call-function","318","3305604","0.0-318.0","lphmzv2n","","","","","","","",""
"1648.929999999702","{""judgement"":1}","[0]","survey-likert","319","3307254","0.0-319.0","lphmzv2n","","","","","","","","1"
"1241.5949999997392","{""confidence"":2}","[0]","survey-likert","320","3308497","0.0-320.0","lphmzv2n","","","","","","","",""
"","","","call-function","321","3308498","0.0-321.0","lphmzv2n","","","","","","","",""
"null","","","html-keyboard-response","322","3310000","0.0-322.0","lphmzv2n","","<span style=""color:Black; font-size:50px;"">Agent A","null","","","","",""
"null","","","video-keyboard-response","323","3313079","0.0-323.0","lphmzv2n","","","null","","Agent A","veridical","STIM_SET_2/498372.bmp_pp95_L2_V1_veridical_freeview_isoTrue.mp4",""
"null","","","html-keyboard-response","324","3314584","0.0-324.0","lphmzv2n","","<span style=""color:Black; font-size:50px;"">Agent B","null","","","","",""
"null","","","video-keyboard-response","325","3317662","0.0-325.0","lphmzv2n","","","null","","Agent B","scrambled","STIM_SET_2/498372.bmp_pp95_L2_V1_scrambled_freeview_isoTrue.mp4",""
"","","","call-function","326","3317663","0.0-326.0","lphmzv2n","","","","","","","",""
"1358.2350000003353","{""judgement"":1}","[0]","survey-likert","327","3319022","0.0-327.0","lphmzv2n","","","","","","","","0"
"1051.3650000002235","{""confidence"":2}","[0]","survey-likert","328","3320075","0.0-328.0","lphmzv2n","","","","","","","",""
"","","","call-function","329","3320076","0.0-329.0","lphmzv2n","","","","","","","",""
"null","","","html-keyboard-response","330","3321579","0.0-330.0","lphmzv2n","","<span style=""color:Black; font-size:50px;"">Agent A","null","","","","",""
"null","","","video-keyboard-response","331","3324651","0.0-331.0","lphmzv2n","","","null","","Agent A","scrambled","STIM_SET_2/498258.bmp_pp51_L1_V1.0_scrambled_freeview_isoTrue.mp4",""
"null","","","html-keyboard-response","332","3326155","0.0-332.0","lphmzv2n","","<span style=""color:Black; font-size:50px;"">Agent B","null","","","","",""
"null","","","video-keyboard-response","333","3329228","0.0-333.0","lphmzv2n","","","null","","Agent B","veridical","STIM_SET_2/498258.bmp_pp51_L1_V1.0_veridical_freeview_isoTrue.mp4",""
"","","","call-function","334","3329229","0.0-334.0","lphmzv2n","","","","","","","",""
"1552.714999999851","{""judgement"":1}","[0]","survey-likert","335","3330783","0.0-335.0","lphmzv2n","","","","","","","","1"
"1070.2000000001863","{""confidence"":2}","[0]","survey-likert","336","3331854","0.0-336.0","lphmzv2n","","","","","","","",""
"45392.90000000037","","","instructions","337","3377248","0.0-337.0","lphmzv2n","[{""page_index"":0,""viewing_time"":2141.8300000000745},{""page_index"":1,""viewing_time"":42723.90000000037},{""page_index"":2,""viewing_time"":527.019999999553}]","","","","","","",""
"2024.505000000354","","","instructions","338","3379273","0.0-338.0","lphmzv2n","[{""page_index"":0,""viewing_time"":509.3600000003353},{""page_index"":1,""viewing_time"":819.1349999997765},{""page_index"":2,""viewing_time"":695.839999999851}]","","","","","","",""
"","","","call-function","339","3379273","0.0-339.0","lphmzv2n","","","","","","","",""
"null","","","html-keyboard-response","340","3380775","0.0-340.0","lphmzv2n","","<span style=""color:Black; font-size:50px;"">Agent A","null","","","","",""
"null","","","video-keyboard-response","341","3383847","0.0-341.0","lphmzv2n","","","null","","Agent A","scrambled","STIM_SET_2/1592298.bmp_pp56_L3_V1.0_scrambled_freeview_isoTrue.mp4",""
"null","","","html-keyboard-response","342","3385350","0.0-342.0","lphmzv2n","","<span style=""color:Black; font-size:50px;"">Agent B","null","","","","",""
"null","","","video-keyboard-response","343","3388426","0.0-343.0","lphmzv2n","","","null","","Agent B","veridical","STIM_SET_2/1592298.bmp_pp56_L3_V1.0_veridical_freeview_isoTrue.mp4",""
"","","","call-function","344","3388427","0.0-344.0","lphmzv2n","","","","","","","",""
"1846.8199999998324","{""judgement"":1}","[0]","survey-likert","345","3390274","0.0-345.0","lphmzv2n","","","","","","","","1"
"1704.3199999998324","{""confidence"":1}","[0]","survey-likert","346","3391980","0.0-346.0","lphmzv2n","","","","","","","",""
"","","","call-function","347","3391980","0.0-347.0","lphmzv2n","","","","","","","",""
"null","","","html-keyboard-response","348","3393482","0.0-348.0","lphmzv2n","","<span style=""color:Black; font-size:50px;"">Agent A","null","","","","",""
"null","","","video-keyboard-response","349","3396566","0.0-349.0","lphmzv2n","","","null","","Agent A","veridical","STIM_SET_2/713790.bmp_pp100_L3_V1_veridical_freeview_isoTrue.mp4",""
"null","","","html-keyboard-response","350","3398070","0.0-350.0","lphmzv2n","","<span style=""color:Black; font-size:50px;"">Agent B","null","","","","",""
"null","","","video-keyboard-response","351","3401147","0.0-351.0","lphmzv2n","","","null","","Agent B","scrambled","STIM_SET_2/713790.bmp_pp100_L3_V1_scrambled_freeview_isoTrue.mp4",""
"","","","call-function","352","3401148","0.0-352.0","lphmzv2n","","","","","","","",""
"2043.1200000001118","{""judgement"":0}","[0]","survey-likert","353","3403192","0.0-353.0","lphmzv2n","","","","","","","","0"
"2860.814999999944","{""confidence"":1}","[0]","survey-likert","354","3406054","0.0-354.0","lphmzv2n","","","","","","","",""
"","","","call-function","355","3406054","0.0-355.0","lphmzv2n","","","","","","","",""
"null","","","html-keyboard-response","356","3407558","0.0-356.0","lphmzv2n","","<span style=""color:Black; font-size:50px;"">Agent A","null","","","","",""
"null","","","video-keyboard-response","357","3410661","0.0-357.0","lphmzv2n","","","null","","Agent A","scrambled","STIM_SET_2/107955.bmp_pp90_L2_V1.0_scrambled_freeview_isoTrue.mp4",""
"null","","","html-keyboard-response","358","3412167","0.0-358.0","lphmzv2n","","<span style=""color:Black; font-size:50px;"">Agent B","null","","","","",""
"null","","","video-keyboard-response","359","3415227","0.0-359.0","lphmzv2n","","","null","","Agent B","veridical","STIM_SET_2/107955.bmp_pp90_L2_V1.0_veridical_freeview_isoTrue.mp4",""
"","","","call-function","360","3415227","0.0-360.0","lphmzv2n","","","","","","","",""
"1693.2999999998137","{""judgement"":1}","[0]","survey-likert","361","3416921","0.0-361.0","lphmzv2n","","","","","","","","1"
"1227.5499999998137","{""confidence"":1}","[0]","survey-likert","362","3418150","0.0-362.0","lphmzv2n","","","","","","","",""
"","","","call-function","363","3418151","0.0-363.0","lphmzv2n","","","","","","","",""
"null","","","html-keyboard-response","364","3419656","0.0-364.0","lphmzv2n","","<span style=""color:Black; font-size:50px;"">Agent A","null","","","","",""
"null","","","video-keyboard-response","365","3422755","0.0-365.0","lphmzv2n","","","null","","Agent A","veridical","STIM_SET_2/1592305.bmp_pp65_L3_V1.0_veridical_freeview_isoTrue.mp4",""
"null","","","html-keyboard-response","366","3424258","0.0-366.0","lphmzv2n","","<span style=""color:Black; font-size:50px;"">Agent B","null","","","","",""
"null","","","video-keyboard-response","367","3427357","0.0-367.0","lphmzv2n","","","null","","Agent B","scrambled","STIM_SET_2/1592305.bmp_pp65_L3_V1.0_scrambled_freeview_isoTrue.mp4",""
"","","","call-function","368","3427357","0.0-368.0","lphmzv2n","","","","","","","",""
"1565.5049999998882","{""judgement"":0}","[0]","survey-likert","369","3428924","0.0-369.0","lphmzv2n","","","","","","","","0"
"1630.2150000003166","{""confidence"":2}","[0]","survey-likert","370","3430555","0.0-370.0","lphmzv2n","","","","","","","",""
"","","","call-function","371","3430556","0.0-371.0","lphmzv2n","","","","","","","",""
"null","","","html-keyboard-response","372","3432058","0.0-372.0","lphmzv2n","","<span style=""color:Black; font-size:50px;"">Agent A","null","","","","",""
"null","","","video-keyboard-response","373","3435163","0.0-373.0","lphmzv2n","","","null","","Agent A","veridical","STIM_SET_2/150277.bmp_pp65_L3_V1.0_veridical_freeview_isoTrue.mp4",""
"null","","","html-keyboard-response","374","3436667","0.0-374.0","lphmzv2n","","<span style=""color:Black; font-size:50px;"">Agent B","null","","","","",""
"null","","","video-keyboard-response","375","3439767","0.0-375.0","lphmzv2n","","","null","","Agent B","scrambled","STIM_SET_2/150277.bmp_pp65_L3_V1.0_scrambled_freeview_isoTrue.mp4",""
"","","","call-function","376","3439767","0.0-376.0","lphmzv2n","","","","","","","",""
"1348.3950000000186","{""judgement"":0}","[0]","survey-likert","377","3441116","0.0-377.0","lphmzv2n","","","","","","","","0"
"1241.4750000000931","{""confidence"":3}","[0]","survey-likert","378","3442359","0.0-378.0","lphmzv2n","","","","","","","",""
"","","","call-function","379","3442359","0.0-379.0","lphmzv2n","","","","","","","",""
"null","","","html-keyboard-response","380","3443862","0.0-380.0","lphmzv2n","","<span style=""color:Black; font-size:50px;"">Agent A","null","","","","",""
"null","","","video-keyboard-response","381","3446941","0.0-381.0","lphmzv2n","","","null","","Agent A","veridical","STIM_SET_2/1160247.bmp_pp54_L2_V1.0_veridical_freeview_isoTrue.mp4",""
"null","","","html-keyboard-response","382","3448444","0.0-382.0","lphmzv2n","","<span style=""color:Black; font-size:50px;"">Agent B","null","","","","",""
"null","","","video-keyboard-response","383","3451521","0.0-383.0","lphmzv2n","","","null","","Agent B","scrambled","STIM_SET_2/1160247.bmp_pp54_L2_V1.0_scrambled_freeview_isoTrue.mp4",""
"","","","call-function","384","3451522","0.0-384.0","lphmzv2n","","","","","","","",""
"1312.5699999998324","{""judgement"":0}","[0]","survey-likert","385","3452835","0.0-385.0","lphmzv2n","","","","","","","","0"
"1196.9750000000931","{""confidence"":2}","[0]","survey-likert","386","3454033","0.0-386.0","lphmzv2n","","","","","","","",""
"","","","call-function","387","3454033","0.0-387.0","lphmzv2n","","","","","","","",""
"null","","","html-keyboard-response","388","3455534","0.0-388.0","lphmzv2n","","<span style=""color:Black; font-size:50px;"">Agent A","null","","","","",""
"null","","","video-keyboard-response","389","3458594","0.0-389.0","lphmzv2n","","","null","","Agent A","veridical","STIM_SET_2/713328.bmp_pp86_L2_V1.0_veridical_freeview_isoTrue.mp4",""
"null","","","html-keyboard-response","390","3460096","0.0-390.0","lphmzv2n","","<span style=""color:Black; font-size:50px;"">Agent B","null","","","","",""
"null","","","video-keyboard-response","391","3463166","0.0-391.0","lphmzv2n","","","null","","Agent B","scrambled","STIM_SET_2/713328.bmp_pp86_L2_V1.0_scrambled_freeview_isoTrue.mp4",""
"","","","call-function","392","3463167","0.0-392.0","lphmzv2n","","","","","","","",""
"1404.625","{""judgement"":0}","[0]","survey-likert","393","3464573","0.0-393.0","lphmzv2n","","","","","","","","0"
"1422.035000000149","{""confidence"":3}","[0]","survey-likert","394","3465997","0.0-394.0","lphmzv2n","","","","","","","",""
"","","","call-function","395","3465997","0.0-395.0","lphmzv2n","","","","","","","",""
"null","","","html-keyboard-response","396","3467499","0.0-396.0","lphmzv2n","","<span style=""color:Black; font-size:50px;"">Agent A","null","","","","",""
"null","","","video-keyboard-response","397","3470568","0.0-397.0","lphmzv2n","","","null","","Agent A","veridical","STIM_SET_2/713829.bmp_pp60_L3_V1.0_veridical_freeview_isoTrue.mp4",""
"null","","","html-keyboard-response","398","3472070","0.0-398.0","lphmzv2n","","<span style=""color:Black; font-size:50px;"">Agent B","null","","","","",""
"null","","","video-keyboard-response","399","3475139","0.0-399.0","lphmzv2n","","","null","","Agent B","scrambled","STIM_SET_2/713829.bmp_pp60_L3_V1.0_scrambled_freeview_isoTrue.mp4",""
"","","","call-function","400","3475140","0.0-400.0","lphmzv2n","","","","","","","",""
"2216.7199999997392","{""judgement"":1}","[0]","survey-likert","401","3477358","0.0-401.0","lphmzv2n","","","","","","","","0"
"1093.0649999999441","{""confidence"":1}","[0]","survey-likert","402","3478452","0.0-402.0","lphmzv2n","","","","","","","",""
"","","","call-function","403","3478453","0.0-403.0","lphmzv2n","","","","","","","",""
"null","","","html-keyboard-response","404","3479957","0.0-404.0","lphmzv2n","","<span style=""color:Black; font-size:50px;"">Agent A","null","","","","",""
"null","","","video-keyboard-response","405","3483022","0.0-405.0","lphmzv2n","","","null","","Agent A","scrambled","STIM_SET_2/285684.bmp_pp80_L3_V1.0_scrambled_freeview_isoTrue.mp4",""
"null","","","html-keyboard-response","406","3484526","0.0-406.0","lphmzv2n","","<span style=""color:Black; font-size:50px;"">Agent B","null","","","","",""
"null","","","video-keyboard-response","407","3487594","0.0-407.0","lphmzv2n","","","null","","Agent B","veridical","STIM_SET_2/285684.bmp_pp80_L3_V1.0_veridical_freeview_isoTrue.mp4",""
"","","","call-function","408","3487594","0.0-408.0","lphmzv2n","","","","","","","",""
"2121.0400000000373","{""judgement"":1}","[0]","survey-likert","409","3489716","0.0-409.0","lphmzv2n","","","","","","","","1"
"1353.0450000003912","{""confidence"":2}","[0]","survey-likert","410","3491070","0.0-410.0","lphmzv2n","","","","","","","",""
"","","","call-function","411","3491071","0.0-411.0","lphmzv2n","","","","","","","",""
"null","","","html-keyboard-response","412","3492578","0.0-412.0","lphmzv2n","","<span style=""color:Black; font-size:50px;"">Agent A","null","","","","",""
"null","","","video-keyboard-response","413","3495682","0.0-413.0","lphmzv2n","","","null","","Agent A","scrambled","STIM_SET_2/498261.bmp_pp84_L3_V1.0_scrambled_freeview_isoTrue.mp4",""
"null","","","html-keyboard-response","414","3497185","0.0-414.0","lphmzv2n","","<span style=""color:Black; font-size:50px;"">Agent B","null","","","","",""
"null","","","video-keyboard-response","415","3500246","0.0-415.0","lphmzv2n","","","null","","Agent B","veridical","STIM_SET_2/498261.bmp_pp84_L3_V1.0_veridical_freeview_isoTrue.mp4",""
"","","","call-function","416","3500246","0.0-416.0","lphmzv2n","","","","","","","",""
"2686.6699999999255","{""judgement"":1}","[0]","survey-likert","417","3502934","0.0-417.0","lphmzv2n","","","","","","","","1"
"934.8450000002049","{""confidence"":1}","[0]","survey-likert","418","3503870","0.0-418.0","lphmzv2n","","","","","","","",""
"49758.97999999998","","","instructions","419","3553630","0.0-419.0","lphmzv2n","[{""page_index"":0,""viewing_time"":2918.285000000149},{""page_index"":1,""viewing_time"":46107.59499999974},{""page_index"":2,""viewing_time"":732.9399999999441}]","","","","","","",""
"1994.5049999998882","","","instructions","420","3555625","0.0-420.0","lphmzv2n","[{""page_index"":0,""viewing_time"":739.2050000000745},{""page_index"":1,""viewing_time"":751.179999999702},{""page_index"":2,""viewing_time"":504.0150000001304}]","","","","","","",""
"","","","call-function","421","3555626","0.0-421.0","lphmzv2n","","","","","","","",""
"null","","","html-keyboard-response","422","3557127","0.0-422.0","lphmzv2n","","<span style=""color:Black; font-size:50px;"">Agent A","null","","","","",""
"null","","","video-keyboard-response","423","3560197","0.0-423.0","lphmzv2n","","","null","","Agent A","veridical","STIM_SET_2/1592350.bmp_pp55_L3_V1.0_veridical_freeview_isoTrue.mp4",""
"null","","","html-keyboard-response","424","3561700","0.0-424.0","lphmzv2n","","<span style=""color:Black; font-size:50px;"">Agent B","null","","","","",""
"null","","","video-keyboard-response","425","3564774","0.0-425.0","lphmzv2n","","","null","","Agent B","scrambled","STIM_SET_2/1592350.bmp_pp55_L3_V1.0_scrambled_freeview_isoTrue.mp4",""
"","","","call-function","426","3564775","0.0-426.0","lphmzv2n","","","","","","","",""
"1483.2050000000745","{""judgement"":0}","[0]","survey-likert","427","3566259","0.0-427.0","lphmzv2n","","","","","","","","0"
"1021.6200000001118","{""confidence"":2}","[0]","survey-likert","428","3567282","0.0-428.0","lphmzv2n","","","","","","","",""
"","","","call-function","429","3567282","0.0-429.0","lphmzv2n","","","","","","","",""
"null","","","html-keyboard-response","430","3568785","0.0-430.0","lphmzv2n","","<span style=""color:Black; font-size:50px;"">Agent A","null","","","","",""
"null","","","video-keyboard-response","431","3571848","0.0-431.0","lphmzv2n","","","null","","Agent A","scrambled","STIM_SET_2/285715.bmp_pp67_L2_V1.0_scrambled_freeview_isoTrue.mp4",""
"null","","","html-keyboard-response","432","3573349","0.0-432.0","lphmzv2n","","<span style=""color:Black; font-size:50px;"">Agent B","null","","","","",""
"null","","","video-keyboard-response","433","3576411","0.0-433.0","lphmzv2n","","","null","","Agent B","veridical","STIM_SET_2/285715.bmp_pp67_L2_V1.0_veridical_freeview_isoTrue.mp4",""
"","","","call-function","434","3576411","0.0-434.0","lphmzv2n","","","","","","","",""
"1401.0100000002421","{""judgement"":1}","[0]","survey-likert","435","3577813","0.0-435.0","lphmzv2n","","","","","","","","1"
"1421.154999999795","{""confidence"":2}","[0]","survey-likert","436","3579235","0.0-436.0","lphmzv2n","","","","","","","",""
"","","","call-function","437","3579236","0.0-437.0","lphmzv2n","","","","","","","",""
"null","","","html-keyboard-response","438","3580742","0.0-438.0","lphmzv2n","","<span style=""color:Black; font-size:50px;"">Agent A","null","","","","",""
"null","","","video-keyboard-response","439","3583846","0.0-439.0","lphmzv2n","","","null","","Agent A","veridical","STIM_SET_2/1159956.bmp_pp59_L3_V1.0_veridical_freeview_isoTrue.mp4",""
"null","","","html-keyboard-response","440","3585349","0.0-440.0","lphmzv2n","","<span style=""color:Black; font-size:50px;"">Agent B","null","","","","",""
"null","","","video-keyboard-response","441","3588445","0.0-441.0","lphmzv2n","","","null","","Agent B","scrambled","STIM_SET_2/1159956.bmp_pp59_L3_V1.0_scrambled_freeview_isoTrue.mp4",""
"","","","call-function","442","3588445","0.0-442.0","lphmzv2n","","","","","","","",""
"2307.8650000002235","{""judgement"":0}","[0]","survey-likert","443","3590754","0.0-443.0","lphmzv2n","","","","","","","","0"
"1461.0550000001676","{""confidence"":2}","[0]","survey-likert","444","3592216","0.0-444.0","lphmzv2n","","","","","","","",""
"","","","call-function","445","3592217","0.0-445.0","lphmzv2n","","","","","","","",""
"null","","","html-keyboard-response","446","3593718","0.0-446.0","lphmzv2n","","<span style=""color:Black; font-size:50px;"">Agent A","null","","","","",""
"null","","","video-keyboard-response","447","3596815","0.0-447.0","lphmzv2n","","","null","","Agent A","veridical","STIM_SET_2/1592314.bmp_pp100_L3_V1.0_veridical_freeview_isoTrue.mp4",""
"null","","","html-keyboard-response","448","3598318","0.0-448.0","lphmzv2n","","<span style=""color:Black; font-size:50px;"">Agent B","null","","","","",""
"null","","","video-keyboard-response","449","3601408","0.0-449.0","lphmzv2n","","","null","","Agent B","scrambled","STIM_SET_2/1592314.bmp_pp100_L3_V1.0_scrambled_freeview_isoTrue.mp4",""
"","","","call-function","450","3601408","0.0-450.0","lphmzv2n","","","","","","","",""
"1772.3700000001118","{""judgement"":1}","[0]","survey-likert","451","3603181","0.0-451.0","lphmzv2n","","","","","","","","0"
"1119.875","{""confidence"":2}","[0]","survey-likert","452","3604302","0.0-452.0","lphmzv2n","","","","","","","",""
"","","","call-function","453","3604303","0.0-453.0","lphmzv2n","","","","","","","",""
"null","","","html-keyboard-response","454","3605806","0.0-454.0","lphmzv2n","","<span style=""color:Black; font-size:50px;"">Agent A","null","","","","",""
"null","","","video-keyboard-response","455","3608902","0.0-455.0","lphmzv2n","","","null","","Agent A","scrambled","STIM_SET_2/713689.bmp_pp153_L3_V1.0_scrambled_freeview_isoTrue.mp4",""
"null","","","html-keyboard-response","456","3610405","0.0-456.0","lphmzv2n","","<span style=""color:Black; font-size:50px;"">Agent B","null","","","","",""
"null","","","video-keyboard-response","457","3613507","0.0-457.0","lphmzv2n","","","null","","Agent B","veridical","STIM_SET_2/713689.bmp_pp153_L3_V1.0_veridical_freeview_isoTrue.mp4",""
"","","","call-function","458","3613508","0.0-458.0","lphmzv2n","","","","","","","",""
"1699.6650000000373","{""judgement"":1}","[0]","survey-likert","459","3615209","0.0-459.0","lphmzv2n","","","","","","","","1"
"1308.8900000001304","{""confidence"":2}","[0]","survey-likert","460","3616520","0.0-460.0","lphmzv2n","","","","","","","",""
"","","","call-function","461","3616521","0.0-461.0","lphmzv2n","","","","","","","",""
"null","","","html-keyboard-response","462","3618025","0.0-462.0","lphmzv2n","","<span style=""color:Black; font-size:50px;"">Agent A","null","","","","",""
"null","","","video-keyboard-response","463","3621085","0.0-463.0","lphmzv2n","","","null","","Agent A","scrambled","STIM_SET_2/1159325.bmp_pp67_L2_V1.0_scrambled_freeview_isoTrue.mp4",""
"null","","","html-keyboard-response","464","3622587","0.0-464.0","lphmzv2n","","<span style=""color:Black; font-size:50px;"">Agent B","null","","","","",""
"null","","","video-keyboard-response","465","3625648","0.0-465.0","lphmzv2n","","","null","","Agent B","veridical","STIM_SET_2/1159325.bmp_pp67_L2_V1.0_veridical_freeview_isoTrue.mp4",""
"","","","call-function","466","3625648","0.0-466.0","lphmzv2n","","","","","","","",""
"1883.679999999702","{""judgement"":0}","[0]","survey-likert","467","3627533","0.0-467.0","lphmzv2n","","","","","","","","1"
"1902.0550000001676","{""confidence"":1}","[0]","survey-likert","468","3629437","0.0-468.0","lphmzv2n","","","","","","","",""
"","","","call-function","469","3629437","0.0-469.0","lphmzv2n","","","","","","","",""
"null","","","html-keyboard-response","470","3630942","0.0-470.0","lphmzv2n","","<span style=""color:Black; font-size:50px;"">Agent A","null","","","","",""
"null","","","video-keyboard-response","471","3634010","0.0-471.0","lphmzv2n","","","null","","Agent A","veridical","STIM_SET_2/286034.bmp_pp69_L3_V1.0_veridical_freeview_isoTrue.mp4",""
"null","","","html-keyboard-response","472","3635517","0.0-472.0","lphmzv2n","","<span style=""color:Black; font-size:50px;"">Agent B","null","","","","",""
"null","","","video-keyboard-response","473","3638584","0.0-473.0","lphmzv2n","","","null","","Agent B","scrambled","STIM_SET_2/286034.bmp_pp69_L3_V1.0_scrambled_freeview_isoTrue.mp4",""
"","","","call-function","474","3638585","0.0-474.0","lphmzv2n","","","","","","","",""
"1599.8950000000186","{""judgement"":0}","[0]","survey-likert","475","3640186","0.0-475.0","lphmzv2n","","","","","","","","0"
"1771.9950000001118","{""confidence"":2}","[0]","survey-likert","476","3641959","0.0-476.0","lphmzv2n","","","","","","","",""
"","","","call-function","477","3641959","0.0-477.0","lphmzv2n","","","","","","","",""
"null","","","html-keyboard-response","478","3643462","0.0-478.0","lphmzv2n","","<span style=""color:Black; font-size:50px;"">Agent A","null","","","","",""
"null","","","video-keyboard-response","479","3646572","0.0-479.0","lphmzv2n","","","null","","Agent A","veridical","STIM_SET_2/1159592.bmp_pp91_L3_V1.0_veridical_freeview_isoTrue.mp4",""
"null","","","html-keyboard-response","480","3648079","0.0-480.0","lphmzv2n","","<span style=""color:Black; font-size:50px;"">Agent B","null","","","","",""
"null","","","video-keyboard-response","481","3651184","0.0-481.0","lphmzv2n","","","null","","Agent B","scrambled","STIM_SET_2/1159592.bmp_pp91_L3_V1.0_scrambled_freeview_isoTrue.mp4",""
"","","","call-function","482","3651184","0.0-482.0","lphmzv2n","","","","","","","",""
"1342.9499999997206","{""judgement"":1}","[0]","survey-likert","483","3652528","0.0-483.0","lphmzv2n","","","","","","","","0"
"1096.4000000003725","{""confidence"":2}","[0]","survey-likert","484","3653625","0.0-484.0","lphmzv2n","","","","","","","",""
"","","","call-function","485","3653626","0.0-485.0","lphmzv2n","","","","","","","",""
"null","","","html-keyboard-response","486","3655127","0.0-486.0","lphmzv2n","","<span style=""color:Black; font-size:50px;"">Agent A","null","","","","",""
"null","","","video-keyboard-response","487","3658230","0.0-487.0","lphmzv2n","","","null","","Agent A","veridical","STIM_SET_2/713381.bmp_pp82_L2_V1.0_veridical_freeview_isoTrue.mp4",""
"null","","","html-keyboard-response","488","3659732","0.0-488.0","lphmzv2n","","<span style=""color:Black; font-size:50px;"">Agent B","null","","","","",""
"null","","","video-keyboard-response","489","3662834","0.0-489.0","lphmzv2n","","","null","","Agent B","scrambled","STIM_SET_2/713381.bmp_pp82_L2_V1.0_scrambled_freeview_isoTrue.mp4",""
"","","","call-function","490","3662835","0.0-490.0","lphmzv2n","","","","","","","",""
"1610.2099999999627","{""judgement"":1}","[0]","survey-likert","491","3664446","0.0-491.0","lphmzv2n","","","","","","","","0"
"1280.7049999996088","{""confidence"":1}","[0]","survey-likert","492","3665728","0.0-492.0","lphmzv2n","","","","","","","",""
"","","","call-function","493","3665728","0.0-493.0","lphmzv2n","","","","","","","",""
"null","","","html-keyboard-response","494","3667232","0.0-494.0","lphmzv2n","","<span style=""color:Black; font-size:50px;"">Agent A","null","","","","",""
"null","","","video-keyboard-response","495","3670328","0.0-495.0","lphmzv2n","","","null","","Agent A","veridical","STIM_SET_2/713652.bmp_pp89_L1_V1_veridical_freeview_isoTrue.mp4",""
"null","","","html-keyboard-response","496","3671834","0.0-496.0","lphmzv2n","","<span style=""color:Black; font-size:50px;"">Agent B","null","","","","",""
"null","","","video-keyboard-response","497","3674928","0.0-497.0","lphmzv2n","","","null","","Agent B","scrambled","STIM_SET_2/713652.bmp_pp89_L1_V1_scrambled_freeview_isoTrue.mp4",""
"","","","call-function","498","3674929","0.0-498.0","lphmzv2n","","","","","","","",""
"1266.8700000001118","{""judgement"":0}","[0]","survey-likert","499","3676197","0.0-499.0","lphmzv2n","","","","","","","","0"
"1092.5550000001676","{""confidence"":2}","[0]","survey-likert","500","3677290","0.0-500.0","lphmzv2n","","","","","","","",""
"33584.619999999646","","","instructions","501","3710876","0.0-501.0","lphmzv2n","[{""page_index"":0,""viewing_time"":2257.6599999996834},{""page_index"":1,""viewing_time"":29905.630000000354},{""page_index"":2,""viewing_time"":1421.1599999996834}]","","","","","","",""
"1993.5349999996834","","","instructions","502","3712871","0.0-502.0","lphmzv2n","[{""page_index"":0,""viewing_time"":728.2399999997579},{""page_index"":1,""viewing_time"":685.1850000000559},{""page_index"":2,""viewing_time"":579.9900000002235}]","","","","","","",""
"","","","call-function","503","3712872","0.0-503.0","lphmzv2n","","","","","","","",""
"null","","","html-keyboard-response","504","3714375","0.0-504.0","lphmzv2n","","<span style=""color:Black; font-size:50px;"">Agent A","null","","","","",""
"null","","","video-keyboard-response","505","3717437","0.0-505.0","lphmzv2n","","","null","","Agent A","veridical","STIM_SET_2/1592951.bmp_pp80_L3_V1.0_veridical_freeview_isoTrue.mp4",""
"null","","","html-keyboard-response","506","3718944","0.0-506.0","lphmzv2n","","<span style=""color:Black; font-size:50px;"">Agent B","null","","","","",""
"null","","","video-keyboard-response","507","3722010","0.0-507.0","lphmzv2n","","","null","","Agent B","scrambled","STIM_SET_2/1592951.bmp_pp80_L3_V1.0_scrambled_freeview_isoTrue.mp4",""
"","","","call-function","508","3722011","0.0-508.0","lphmzv2n","","","","","","","",""
"2036.1850000000559","{""judgement"":0}","[0]","survey-likert","509","3724048","0.0-509.0","lphmzv2n","","","","","","","","0"
"3428.7949999999255","{""confidence"":2}","[0]","survey-likert","510","3727478","0.0-510.0","lphmzv2n","","","","","","","",""
"","","","call-function","511","3727479","0.0-511.0","lphmzv2n","","","","","","","",""
"null","","","html-keyboard-response","512","3728981","0.0-512.0","lphmzv2n","","<span style=""color:Black; font-size:50px;"">Agent A","null","","","","",""
"null","","","video-keyboard-response","513","3732056","0.0-513.0","lphmzv2n","","","null","","Agent A","veridical","STIM_SET_2/61513.bmp_pp75_L1_V1.0_veridical_freeview_isoTrue.mp4",""
"null","","","html-keyboard-response","514","3733560","0.0-514.0","lphmzv2n","","<span style=""color:Black; font-size:50px;"">Agent B","null","","","","",""
"null","","","video-keyboard-response","515","3736633","0.0-515.0","lphmzv2n","","","null","","Agent B","scrambled","STIM_SET_2/61513.bmp_pp75_L1_V1.0_scrambled_freeview_isoTrue.mp4",""
"","","","call-function","516","3736633","0.0-516.0","lphmzv2n","","","","","","","",""
"1479.0349999996834","{""judgement"":0}","[0]","survey-likert","517","3738113","0.0-517.0","lphmzv2n","","","","","","","","0"
"1375.6450000000186","{""confidence"":1}","[0]","survey-likert","518","3739490","0.0-518.0","lphmzv2n","","","","","","","",""
"","","","call-function","519","3739491","0.0-519.0","lphmzv2n","","","","","","","",""
"null","","","html-keyboard-response","520","3740997","0.0-520.0","lphmzv2n","","<span style=""color:Black; font-size:50px;"">Agent A","null","","","","",""
"null","","","video-keyboard-response","521","3744095","0.0-521.0","lphmzv2n","","","null","","Agent A","veridical","STIM_SET_2/1160049.bmp_pp53_L2_V1.0_veridical_freeview_isoTrue.mp4",""
"null","","","html-keyboard-response","522","3745602","0.0-522.0","lphmzv2n","","<span style=""color:Black; font-size:50px;"">Agent B","null","","","","",""
"null","","","video-keyboard-response","523","3748696","0.0-523.0","lphmzv2n","","","null","","Agent B","scrambled","STIM_SET_2/1160049.bmp_pp53_L2_V1.0_scrambled_freeview_isoTrue.mp4",""
"","","","call-function","524","3748696","0.0-524.0","lphmzv2n","","","","","","","",""
"2148.8449999997392","{""judgement"":0}","[0]","survey-likert","525","3750846","0.0-525.0","lphmzv2n","","","","","","","","0"
"1681.0799999996088","{""confidence"":0}","[0]","survey-likert","526","3752528","0.0-526.0","lphmzv2n","","","","","","","",""
"","","","call-function","527","3752529","0.0-527.0","lphmzv2n","","","","","","","",""
"null","","","html-keyboard-response","528","3754033","0.0-528.0","lphmzv2n","","<span style=""color:Black; font-size:50px;"">Agent A","null","","","","",""
"null","","","video-keyboard-response","529","3757090","0.0-529.0","lphmzv2n","","","null","","Agent A","scrambled","STIM_SET_2/1159427.bmp_pp98_L1_V1.0_scrambled_freeview_isoTrue.mp4",""
"null","","","html-keyboard-response","530","3758594","0.0-530.0","lphmzv2n","","<span style=""color:Black; font-size:50px;"">Agent B","null","","","","",""
"null","","","video-keyboard-response","531","3761653","0.0-531.0","lphmzv2n","","","null","","Agent B","veridical","STIM_SET_2/1159427.bmp_pp98_L1_V1.0_veridical_freeview_isoTrue.mp4",""
"","","","call-function","532","3761653","0.0-532.0","lphmzv2n","","","","","","","",""
"2625.614999999758","{""judgement"":1}","[0]","survey-likert","533","3764280","0.0-533.0","lphmzv2n","","","","","","","","1"
"1209.9599999999627","{""confidence"":0}","[0]","survey-likert","534","3765491","0.0-534.0","lphmzv2n","","","","","","","",""
"","","","call-function","535","3765491","0.0-535.0","lphmzv2n","","","","","","","",""
"null","","","html-keyboard-response","536","3766995","0.0-536.0","lphmzv2n","","<span style=""color:Black; font-size:50px;"">Agent A","null","","","","",""
"null","","","video-keyboard-response","537","3770089","0.0-537.0","lphmzv2n","","","null","","Agent A","veridical","STIM_SET_2/285932.bmp_pp64_L1_V1.0_veridical_freeview_isoTrue.mp4",""
"null","","","html-keyboard-response","538","3771592","0.0-538.0","lphmzv2n","","<span style=""color:Black; font-size:50px;"">Agent B","null","","","","",""
"null","","","video-keyboard-response","539","3774685","0.0-539.0","lphmzv2n","","","null","","Agent B","scrambled","STIM_SET_2/285932.bmp_pp64_L1_V1.0_scrambled_freeview_isoTrue.mp4",""
"","","","call-function","540","3774685","0.0-540.0","lphmzv2n","","","","","","","",""
"1983.6349999997765","{""judgement"":0}","[0]","survey-likert","541","3776670","0.0-541.0","lphmzv2n","","","","","","","","0"
"1047.0649999999441","{""confidence"":2}","[0]","survey-likert","542","3777718","0.0-542.0","lphmzv2n","","","","","","","",""
"","","","call-function","543","3777719","0.0-543.0","lphmzv2n","","","","","","","",""
"null","","","html-keyboard-response","544","3779223","0.0-544.0","lphmzv2n","","<span style=""color:Black; font-size:50px;"">Agent A","null","","","","",""
"null","","","video-keyboard-response","545","3782297","0.0-545.0","lphmzv2n","","","null","","Agent A","veridical","STIM_SET_2/498396.bmp_pp99_L2_V1.0_veridical_freeview_isoTrue.mp4",""
"null","","","html-keyboard-response","546","3783801","0.0-546.0","lphmzv2n","","<span style=""color:Black; font-size:50px;"">Agent B","null","","","","",""
"null","","","video-keyboard-response","547","3786877","0.0-547.0","lphmzv2n","","","null","","Agent B","scrambled","STIM_SET_2/498396.bmp_pp99_L2_V1.0_scrambled_freeview_isoTrue.mp4",""
"","","","call-function","548","3786877","0.0-548.0","lphmzv2n","","","","","","","",""
"1913.7450000001118","{""judgement"":0}","[0]","survey-likert","549","3788792","0.0-549.0","lphmzv2n","","","","","","","","0"
"1122.0449999999255","{""confidence"":1}","[0]","survey-likert","550","3789916","0.0-550.0","lphmzv2n","","","","","","","",""
"","","","call-function","551","3789916","0.0-551.0","lphmzv2n","","","","","","","",""
"null","","","html-keyboard-response","552","3791420","0.0-552.0","lphmzv2n","","<span style=""color:Black; font-size:50px;"">Agent A","null","","","","",""
"null","","","video-keyboard-response","553","3794521","0.0-553.0","lphmzv2n","","","null","","Agent A","veridical","STIM_SET_2/1592150.bmp_pp77_L3_V1.0_veridical_freeview_isoTrue.mp4",""
"null","","","html-keyboard-response","554","3796024","0.0-554.0","lphmzv2n","","<span style=""color:Black; font-size:50px;"">Agent B","null","","","","",""
"null","","","video-keyboard-response","555","3799090","0.0-555.0","lphmzv2n","","","null","","Agent B","scrambled","STIM_SET_2/1592150.bmp_pp77_L3_V1.0_scrambled_freeview_isoTrue.mp4",""
"","","","call-function","556","3799091","0.0-556.0","lphmzv2n","","","","","","","",""
"1352.410000000149","{""judgement"":0}","[0]","survey-likert","557","3800444","0.0-557.0","lphmzv2n","","","","","","","","0"
"1330.7150000003166","{""confidence"":2}","[0]","survey-likert","558","3801776","0.0-558.0","lphmzv2n","","","","","","","",""
"","","","call-function","559","3801777","0.0-559.0","lphmzv2n","","","","","","","",""
"null","","","html-keyboard-response","560","3803280","0.0-560.0","lphmzv2n","","<span style=""color:Black; font-size:50px;"">Agent A","null","","","","",""
"null","","","video-keyboard-response","561","3806350","0.0-561.0","lphmzv2n","","","null","","Agent A","scrambled","STIM_SET_2/1591920.bmp_pp97_L3_V1_scrambled_freeview_isoTrue.mp4",""
"null","","","html-keyboard-response","562","3807857","0.0-562.0","lphmzv2n","","<span style=""color:Black; font-size:50px;"">Agent B","null","","","","",""
"null","","","video-keyboard-response","563","3810959","0.0-563.0","lphmzv2n","","","null","","Agent B","veridical","STIM_SET_2/1591920.bmp_pp97_L3_V1_veridical_freeview_isoTrue.mp4",""
"","","","call-function","564","3810960","0.0-564.0","lphmzv2n","","","","","","","",""
"2992.220000000205","{""judgement"":1}","[0]","survey-likert","565","3813954","0.0-565.0","lphmzv2n","","","","","","","","1"
"1415.7749999999069","{""confidence"":2}","[0]","survey-likert","566","3815372","0.0-566.0","lphmzv2n","","","","","","","",""
"","","","call-function","567","3815373","0.0-567.0","lphmzv2n","","","","","","","",""
"null","","","html-keyboard-response","568","3816876","0.0-568.0","lphmzv2n","","<span style=""color:Black; font-size:50px;"">Agent A","null","","","","",""
"null","","","video-keyboard-response","569","3819947","0.0-569.0","lphmzv2n","","","null","","Agent A","scrambled","STIM_SET_2/1160204.bmp_pp54_L2_V1.0_scrambled_freeview_isoTrue.mp4",""
"null","","","html-keyboard-response","570","3821450","0.0-570.0","lphmzv2n","","<span style=""color:Black; font-size:50px;"">Agent B","null","","","","",""
"null","","","video-keyboard-response","571","3824521","0.0-571.0","lphmzv2n","","","null","","Agent B","veridical","STIM_SET_2/1160204.bmp_pp54_L2_V1.0_veridical_freeview_isoTrue.mp4",""
"","","","call-function","572","3824522","0.0-572.0","lphmzv2n","","","","","","","",""
"1597.1049999999814","{""judgement"":1}","[0]","survey-likert","573","3826120","0.0-573.0","lphmzv2n","","","","","","","","1"
"1113.9750000000931","{""confidence"":2}","[0]","survey-likert","574","3827236","0.0-574.0","lphmzv2n","","","","","","","",""
"","","","call-function","575","3827236","0.0-575.0","lphmzv2n","","","","","","","",""
"null","","","html-keyboard-response","576","3828743","0.0-576.0","lphmzv2n","","<span style=""color:Black; font-size:50px;"">Agent A","null","","","","",""
"null","","","video-keyboard-response","577","3831822","0.0-577.0","lphmzv2n","","","null","","Agent A","scrambled","STIM_SET_2/285959.bmp_pp93_L1_V1.0_scrambled_freeview_isoTrue.mp4",""
"null","","","html-keyboard-response","578","3833324","0.0-578.0","lphmzv2n","","<span style=""color:Black; font-size:50px;"">Agent B","null","","","","",""
"null","","","video-keyboard-response","579","3836402","0.0-579.0","lphmzv2n","","","null","","Agent B","veridical","STIM_SET_2/285959.bmp_pp93_L1_V1.0_veridical_freeview_isoTrue.mp4",""
"","","","call-function","580","3836403","0.0-580.0","lphmzv2n","","","","","","","",""
"1892.0500000002794","{""judgement"":0}","[0]","survey-likert","581","3838296","0.0-581.0","lphmzv2n","","","","","","","","1"
"4276.755000000354","{""confidence"":0}","[0]","survey-likert","582","3842573","0.0-582.0","lphmzv2n","","","","","","","",""
"2331.8449999997392","","","instructions","583","3844906","0.0-583.0","lphmzv2n","[{""page_index"":0,""viewing_time"":2331.7099999999627}]","","","","","","",""
"1998.7199999997392","","","instructions","584","3846905","0.0-584.0","lphmzv2n","[{""page_index"":0,""viewing_time"":1998.4799999999814}]","","","","","","",""
"11081.009999999776","{""post-1"":1}","[0]","survey-likert","585","3857987","0.0-585.0","lphmzv2n","","","","","","","",""
"4761.739999999758","{""post-1"":0}","[0]","survey-likert","586","3862750","0.0-586.0","lphmzv2n","","","","","","","",""
"8549.564999999944","{""post-2"":1}","[0]","survey-likert","587","3871301","0.0-587.0","lphmzv2n","","","","","","","",""
"4518.9749999996275","{""post-2"":0}","[0]","survey-likert","588","3875821","0.0-588.0","lphmzv2n","","","","","","","",""
"4601.680000000168","{""post-3"":3}","[0]","survey-likert","589","3880424","0.0-589.0","lphmzv2n","","","","","","","",""
"3787.885000000242","{""post-3"":0}","[0]","survey-likert","590","3884213","0.0-590.0","lphmzv2n","","","","","","","",""
"3554.6699999999255","{""post-4"":2}","[0]","survey-likert","591","3887769","0.0-591.0","lphmzv2n","","","","","","","",""
"3311.839999999851","{""post-4"":0}","[0]","survey-likert","592","3891082","0.0-592.0","lphmzv2n","","","","","","","",""
"5215.459999999963","{""post-5"":0}","[0]","survey-likert","593","3896299","0.0-593.0","lphmzv2n","","","","","","","",""
"2168.75","{""post-5"":2}","[0]","survey-likert","594","3898470","0.0-594.0","lphmzv2n","","","","","","","",""
"64227.69499999983","{""Q0"":""More time in between the videos because my eyes would see the shadow of the black box when the white screen flashed quickly in between/my eyes had a hard time adjusting. Otherwise straightforward experiment""}","","survey-text","595","3962705","0.0-595.0","lphmzv2n","","","","","","","",""
"52470.3200000003","{""Q0"":""The responses were self explanatory and easy to choose from. I tried to look for motion that was irregular in timing and made less sharp jumps far across the image.""}","","survey-text","596","4015179","0.0-596.0","lphmzv2n","","","","","","","",""
"19894.069999999832","{""Q0"":""Picking an answer in ambiguous cases, I just picked \""very unsure\""""}","","survey-text","597","4035076","0.0-597.0","lphmzv2n","","","","","","","",""
"19911.619999999646","","","instructions","598","4054989","0.0-598.0","lphmzv2n","[{""page_index"":0,""viewing_time"":19911.47999999998}]","","","","","","",""
"17123.989999999758","{""Experimenter_end"":[""Printed ID# lphmzv2n on consent form"",""Given subject SONA credit or payment"",""Given the subject debrief form""]}","[0]","survey-multi-select","599","4072116","0.0-599.0","lphmzv2n","","","","","","","",""
