"rt","responses","question_order","trial_type","trial_index","time_elapsed","internal_node_id","ID","view_history","stimulus","key_press","value","agent","condition","image","correct_answer"
"102689.95","{""Experimenter"":[""Confirmed subject's identity"",""Confirmed normal or corrected-to-normal vision"",""Obtained consent (signature and date)"",""Checked the test room lighting"",""Checked computer screen lighting"",""Checked distance from screen to chin rest (50cm)"",""Cleaned and adjusted chin rest"",""Counterbalanced the order of the tasks"",""Opened the experiment in Firefox"",""Made the experiment full screen"",""Encouraged subject to silence phone, put away distractors, etc.""]}","[0]","survey-multi-select","0","102697","0.0-0.0","n8tb5t59","","","","","","","",""
"56217.270000000004","","","instructions","1","158916","0.0-1.0","n8tb5t59","[{""page_index"":0,""viewing_time"":56217.06500000002}]","","","","","","",""
"6749.399999999994","{""Age"":1,""Sex"":1,""Gender"":1}","[0,1,2]","survey-likert","2","165668","0.0-2.0","n8tb5t59","","","","","","","",""
"6922.195000000007","","","instructions","3","172591","0.0-3.0","n8tb5t59","[{""page_index"":0,""viewing_time"":3326.1199999999953},{""page_index"":1,""viewing_time"":974.8850000000093},{""page_index"":2,""viewing_time"":2621.070000000007}]","","","","","","",""
"1519.4300000000221","","","instructions","4","174111","0.0-4.0","n8tb5t59","[{""page_index"":0,""viewing_time"":1519.3300000000163}]","","","","","","",""
"null","","","video-keyboard-response","5","177228","0.0-5.0","n8tb5t59","","","null","","","","",""
"5557.4800000000105","","","instructions","6","182786","0.0-6.0","n8tb5t59","[{""page_index"":0,""viewing_time"":2196.75},{""page_index"":1,""viewing_time"":1898.7550000000047},{""page_index"":2,""viewing_time"":1461.8699999999953}]","","","","","","",""
"1503.8349999999919","","","instructions","7","184290","0.0-7.0","n8tb5t59","[{""page_index"":0,""viewing_time"":1503.7300000000105}]","","","","","","",""
"801.625","","","instructions","8","185092","0.0-8.0","n8tb5t59","[{""page_index"":0,""viewing_time"":801.4100000000035}]","","","","","","",""
"null","","","video-keyboard-response","9","188170","0.0-9.0","n8tb5t59","","","null","","","","",""
"9468.51000000001","","","instructions","10","197639","0.0-10.0","n8tb5t59","[{""page_index"":0,""viewing_time"":763.5100000000093},{""page_index"":1,""viewing_time"":1402.914999999979},{""page_index"":2,""viewing_time"":7301.955000000016}]","","","","","","",""
"1978.2950000000128","","","instructions","11","199617","0.0-11.0","n8tb5t59","[{""page_index"":0,""viewing_time"":1978.1849999999977}]","","","","","","",""
"","","","call-function","12","199618","0.0-12.0","n8tb5t59","","","","","","","",""
"null","","","html-keyboard-response","13","201124","0.0-13.0","n8tb5t59","","<span style=""color:Black; font-size:50px;"">Agent A","null","","","","",""
"null","","","video-keyboard-response","14","203941","0.0-14.0","n8tb5t59","","","null","","Agent A","veridical","FOR_REV_MAP_BLOBBY_STIM/1159508.bmp_pp151_L1_V1.0_veridical_freeview_isoTrue_fps144.mp4",""
"null","","","html-keyboard-response","15","205443","0.0-15.0","n8tb5t59","","<span style=""color:Black; font-size:50px;"">Agent B","null","","","","",""
"null","","","video-keyboard-response","16","208262","0.0-16.0","n8tb5t59","","","null","","Agent B","scrambled","FOR_REV_MAP_BLOBBY_STIM/1159508.bmp_pp151_L1_V1.0_veridical_freeview_isoTrue_fps144_reversed_REAL.mp4",""
"","","","call-function","17","208263","0.0-17.0","n8tb5t59","","","","","","","",""
"2091.600000000006","{""judgement"":0}","[0]","survey-likert","18","210355","0.0-18.0","n8tb5t59","","","","","","","","0"
"2004.7449999999953","{""confidence"":1}","[0]","survey-likert","19","212361","0.0-19.0","n8tb5t59","","","","","","","",""
"","","","call-function","20","212361","0.0-20.0","n8tb5t59","","","","","","","",""
"null","","","html-keyboard-response","21","213867","0.0-21.0","n8tb5t59","","<span style=""color:Black; font-size:50px;"">Agent A","null","","","","",""
"null","","","video-keyboard-response","22","216707","0.0-22.0","n8tb5t59","","","null","","Agent A","veridical","FOR_REV_MAP_BLOBBY_STIM/1592567.bmp_pp70_L2_V1.0_veridical_freeview_isoTrue_fps144.mp4",""
"null","","","html-keyboard-response","23","218214","0.0-23.0","n8tb5t59","","<span style=""color:Black; font-size:50px;"">Agent B","null","","","","",""
"null","","","video-keyboard-response","24","220990","0.0-24.0","n8tb5t59","","","null","","Agent B","scrambled","FOR_REV_MAP_BLOBBY_STIM/1592567.bmp_pp70_L2_V1.0_veridical_freeview_isoTrue_fps144_reversed_REAL.mp4",""
"","","","call-function","25","220991","0.0-25.0","n8tb5t59","","","","","","","",""
"2389.125","{""judgement"":0}","[0]","survey-likert","26","223381","0.0-26.0","n8tb5t59","","","","","","","","0"
"2192.790000000008","{""confidence"":2}","[0]","survey-likert","27","225576","0.0-27.0","n8tb5t59","","","","","","","",""
"","","","call-function","28","225577","0.0-28.0","n8tb5t59","","","","","","","",""
"null","","","html-keyboard-response","29","227082","0.0-29.0","n8tb5t59","","<span style=""color:Black; font-size:50px;"">Agent A","null","","","","",""
"null","","","video-keyboard-response","30","229174","0.0-30.0","n8tb5t59","","","null","","Agent A","veridical","FOR_REV_MAP_BLOBBY_STIM/1159973.bmp_pp98_L1_V1.0_veridical_freeview_isoTrue_fps144.mp4",""
"null","","","html-keyboard-response","31","230677","0.0-31.0","n8tb5t59","","<span style=""color:Black; font-size:50px;"">Agent B","null","","","","",""
"null","","","video-keyboard-response","32","232765","0.0-32.0","n8tb5t59","","","null","","Agent B","scrambled","FOR_REV_MAP_BLOBBY_STIM/1159973.bmp_pp98_L1_V1.0_veridical_freeview_isoTrue_fps144_reversed_REAL.mp4",""
"","","","call-function","33","232766","0.0-33.0","n8tb5t59","","","","","","","",""
"2223.819999999978","{""judgement"":1}","[0]","survey-likert","34","234992","0.0-34.0","n8tb5t59","","","","","","","","0"
"1745.6549999999988","{""confidence"":1}","[0]","survey-likert","35","236738","0.0-35.0","n8tb5t59","","","","","","","",""
"","","","call-function","36","236739","0.0-36.0","n8tb5t59","","","","","","","",""
"null","","","html-keyboard-response","37","238240","0.0-37.0","n8tb5t59","","<span style=""color:Black; font-size:50px;"">Agent A","null","","","","",""
"null","","","video-keyboard-response","38","240140","0.0-38.0","n8tb5t59","","","null","","Agent A","scrambled","FOR_REV_MAP_BLOBBY_STIM/285946.bmp_pp79_L2_V1.0_veridical_freeview_isoTrue_fps144_reversed_REAL.mp4",""
"null","","","html-keyboard-response","39","241642","0.0-39.0","n8tb5t59","","<span style=""color:Black; font-size:50px;"">Agent B","null","","","","",""
"null","","","video-keyboard-response","40","243525","0.0-40.0","n8tb5t59","","","null","","Agent B","veridical","FOR_REV_MAP_BLOBBY_STIM/285946.bmp_pp79_L2_V1.0_veridical_freeview_isoTrue_fps144.mp4",""
"","","","call-function","41","243526","0.0-41.0","n8tb5t59","","","","","","","",""
"1974.960000000021","{""judgement"":1}","[0]","survey-likert","42","245501","0.0-42.0","n8tb5t59","","","","","","","","1"
"1419.9400000000023","{""confidence"":1}","[0]","survey-likert","43","246922","0.0-43.0","n8tb5t59","","","","","","","",""
"","","","call-function","44","246922","0.0-44.0","n8tb5t59","","","","","","","",""
"null","","","html-keyboard-response","45","248426","0.0-45.0","n8tb5t59","","<span style=""color:Black; font-size:50px;"">Agent A","null","","","","",""
"null","","","video-keyboard-response","46","251246","0.0-46.0","n8tb5t59","","","null","","Agent A","scrambled","FOR_REV_MAP_BLOBBY_STIM/1592530.bmp_pp75_L1_V1.0_veridical_freeview_isoTrue_fps144_reversed_REAL.mp4",""
"null","","","html-keyboard-response","47","252749","0.0-47.0","n8tb5t59","","<span style=""color:Black; font-size:50px;"">Agent B","null","","","","",""
"null","","","video-keyboard-response","48","255579","0.0-48.0","n8tb5t59","","","null","","Agent B","veridical","FOR_REV_MAP_BLOBBY_STIM/1592530.bmp_pp75_L1_V1.0_veridical_freeview_isoTrue_fps144.mp4",""
"","","","call-function","49","255580","0.0-49.0","n8tb5t59","","","","","","","",""
"1850.0350000000035","{""judgement"":0}","[0]","survey-likert","50","257430","0.0-50.0","n8tb5t59","","","","","","","","1"
"2007.7950000000128","{""confidence"":1}","[0]","survey-likert","51","259439","0.0-51.0","n8tb5t59","","","","","","","",""
"","","","call-function","52","259439","0.0-52.0","n8tb5t59","","","","","","","",""
"null","","","html-keyboard-response","53","260941","0.0-53.0","n8tb5t59","","<span style=""color:Black; font-size:50px;"">Agent A","null","","","","",""
"null","","","video-keyboard-response","54","263725","0.0-54.0","n8tb5t59","","","null","","Agent A","veridical","FOR_REV_MAP_BLOBBY_STIM/1592017.bmp_pp154_L1_V1.0_veridical_freeview_isoTrue_fps144.mp4",""
"null","","","html-keyboard-response","55","265230","0.0-55.0","n8tb5t59","","<span style=""color:Black; font-size:50px;"">Agent B","null","","","","",""
"null","","","video-keyboard-response","56","268007","0.0-56.0","n8tb5t59","","","null","","Agent B","scrambled","FOR_REV_MAP_BLOBBY_STIM/1592017.bmp_pp154_L1_V1.0_veridical_freeview_isoTrue_fps144_reversed_REAL.mp4",""
"","","","call-function","57","268007","0.0-57.0","n8tb5t59","","","","","","","",""
"2763.429999999993","{""judgement"":1}","[0]","survey-likert","58","270772","0.0-58.0","n8tb5t59","","","","","","","","0"
"1861.710000000021","{""confidence"":2}","[0]","survey-likert","59","272634","0.0-59.0","n8tb5t59","","","","","","","",""
"","","","call-function","60","272634","0.0-60.0","n8tb5t59","","","","","","","",""
"null","","","html-keyboard-response","61","274136","0.0-61.0","n8tb5t59","","<span style=""color:Black; font-size:50px;"">Agent A","null","","","","",""
"null","","","video-keyboard-response","62","276967","0.0-62.0","n8tb5t59","","","null","","Agent A","veridical","FOR_REV_MAP_BLOBBY_STIM/1592314.bmp_pp100_L3_V1.0_veridical_freeview_isoTrue_fps144.mp4",""
"null","","","html-keyboard-response","63","278473","0.0-63.0","n8tb5t59","","<span style=""color:Black; font-size:50px;"">Agent B","null","","","","",""
"null","","","video-keyboard-response","64","281309","0.0-64.0","n8tb5t59","","","null","","Agent B","scrambled","FOR_REV_MAP_BLOBBY_STIM/1592314.bmp_pp100_L3_V1.0_veridical_freeview_isoTrue_fps144_reversed_REAL.mp4",""
"","","","call-function","65","281309","0.0-65.0","n8tb5t59","","","","","","","",""
"2116.7999999999884","{""judgement"":1}","[0]","survey-likert","66","283426","0.0-66.0","n8tb5t59","","","","","","","","0"
"2448.240000000049","{""confidence"":0}","[0]","survey-likert","67","285876","0.0-67.0","n8tb5t59","","","","","","","",""
"","","","call-function","68","285876","0.0-68.0","n8tb5t59","","","","","","","",""
"null","","","html-keyboard-response","69","287377","0.0-69.0","n8tb5t59","","<span style=""color:Black; font-size:50px;"">Agent A","null","","","","",""
"null","","","video-keyboard-response","70","289807","0.0-70.0","n8tb5t59","","","null","","Agent A","scrambled","FOR_REV_MAP_BLOBBY_STIM/1592951.bmp_pp80_L3_V1.0_veridical_freeview_isoTrue_fps144_reversed_REAL.mp4",""
"null","","","html-keyboard-response","71","291311","0.0-71.0","n8tb5t59","","<span style=""color:Black; font-size:50px;"">Agent B","null","","","","",""
"null","","","video-keyboard-response","72","293725","0.0-72.0","n8tb5t59","","","null","","Agent B","veridical","FOR_REV_MAP_BLOBBY_STIM/1592951.bmp_pp80_L3_V1.0_veridical_freeview_isoTrue_fps144.mp4",""
"","","","call-function","73","293725","0.0-73.0","n8tb5t59","","","","","","","",""
"1832.1749999999884","{""judgement"":0}","[0]","survey-likert","74","295558","0.0-74.0","n8tb5t59","","","","","","","","1"
"2112.054999999993","{""confidence"":0}","[0]","survey-likert","75","297671","0.0-75.0","n8tb5t59","","","","","","","",""
"","","","call-function","76","297671","0.0-76.0","n8tb5t59","","","","","","","",""
"null","","","html-keyboard-response","77","299175","0.0-77.0","n8tb5t59","","<span style=""color:Black; font-size:50px;"">Agent A","null","","","","",""
"null","","","video-keyboard-response","78","301864","0.0-78.0","n8tb5t59","","","null","","Agent A","veridical","FOR_REV_MAP_BLOBBY_STIM/1592038.bmp_pp79_L2_V1.0_veridical_freeview_isoTrue_fps144.mp4",""
"null","","","html-keyboard-response","79","303365","0.0-79.0","n8tb5t59","","<span style=""color:Black; font-size:50px;"">Agent B","null","","","","",""
"null","","","video-keyboard-response","80","306048","0.0-80.0","n8tb5t59","","","null","","Agent B","scrambled","FOR_REV_MAP_BLOBBY_STIM/1592038.bmp_pp79_L2_V1.0_veridical_freeview_isoTrue_fps144_reversed_REAL.mp4",""
"","","","call-function","81","306049","0.0-81.0","n8tb5t59","","","","","","","",""
"1764.5050000000047","{""judgement"":1}","[0]","survey-likert","82","307815","0.0-82.0","n8tb5t59","","","","","","","","0"
"1601.8499999999767","{""confidence"":0}","[0]","survey-likert","83","309418","0.0-83.0","n8tb5t59","","","","","","","",""
"","","","call-function","84","309418","0.0-84.0","n8tb5t59","","","","","","","",""
"null","","","html-keyboard-response","85","310920","0.0-85.0","n8tb5t59","","<span style=""color:Black; font-size:50px;"">Agent A","null","","","","",""
"null","","","video-keyboard-response","86","313528","0.0-86.0","n8tb5t59","","","null","","Agent A","veridical","FOR_REV_MAP_BLOBBY_STIM/1159874.bmp_pp96_L2_V1.0_veridical_freeview_isoTrue_fps144.mp4",""
"null","","","html-keyboard-response","87","315034","0.0-87.0","n8tb5t59","","<span style=""color:Black; font-size:50px;"">Agent B","null","","","","",""
"null","","","video-keyboard-response","88","317654","0.0-88.0","n8tb5t59","","","null","","Agent B","scrambled","FOR_REV_MAP_BLOBBY_STIM/1159874.bmp_pp96_L2_V1.0_veridical_freeview_isoTrue_fps144_reversed_REAL.mp4",""
"","","","call-function","89","317655","0.0-89.0","n8tb5t59","","","","","","","",""
"1291.140000000014","{""judgement"":0}","[0]","survey-likert","90","318948","0.0-90.0","n8tb5t59","","","","","","","","0"
"1694.0449999999837","{""confidence"":0}","[0]","survey-likert","91","320643","0.0-91.0","n8tb5t59","","","","","","","",""
"2556.219999999972","","","instructions","92","323200","0.0-92.0","n8tb5t59","[{""page_index"":0,""viewing_time"":1016.0499999999884},{""page_index"":1,""viewing_time"":851.890000000014},{""page_index"":2,""viewing_time"":688.0649999999441}]","","","","","","",""
"3453.5950000000303","","","instructions","93","326654","0.0-93.0","n8tb5t59","[{""page_index"":0,""viewing_time"":476.54999999998836},{""page_index"":1,""viewing_time"":2445.8300000000163},{""page_index"":2,""viewing_time"":531.109999999986}]","","","","","","",""
"","","","call-function","94","326654","0.0-94.0","n8tb5t59","","","","","","","",""
"null","","","html-keyboard-response","95","328159","0.0-95.0","n8tb5t59","","<span style=""color:Black; font-size:50px;"">Agent A","null","","","","",""
"null","","","video-keyboard-response","96","330886","0.0-96.0","n8tb5t59","","","null","","Agent A","scrambled","FOR_REV_MAP_BLOBBY_STIM/285715.bmp_pp67_L2_V1.0_veridical_freeview_isoTrue_fps144_reversed_REAL.mp4",""
"null","","","html-keyboard-response","97","332388","0.0-97.0","n8tb5t59","","<span style=""color:Black; font-size:50px;"">Agent B","null","","","","",""
"null","","","video-keyboard-response","98","335111","0.0-98.0","n8tb5t59","","","null","","Agent B","veridical","FOR_REV_MAP_BLOBBY_STIM/285715.bmp_pp67_L2_V1.0_veridical_freeview_isoTrue_fps144.mp4",""
"","","","call-function","99","335112","0.0-99.0","n8tb5t59","","","","","","","",""
"1597.4400000000023","{""judgement"":0}","[0]","survey-likert","100","336710","0.0-100.0","n8tb5t59","","","","","","","","1"
"1402.484999999986","{""confidence"":0}","[0]","survey-likert","101","338114","0.0-101.0","n8tb5t59","","","","","","","",""
"","","","call-function","102","338114","0.0-102.0","n8tb5t59","","","","","","","",""
"null","","","html-keyboard-response","103","339617","0.0-103.0","n8tb5t59","","<span style=""color:Black; font-size:50px;"">Agent A","null","","","","",""
"null","","","video-keyboard-response","104","342395","0.0-104.0","n8tb5t59","","","null","","Agent A","scrambled","FOR_REV_MAP_BLOBBY_STIM/1592747.bmp_pp53_L2_V1.0_veridical_freeview_isoTrue_fps144_reversed_REAL.mp4",""
"null","","","html-keyboard-response","105","343899","0.0-105.0","n8tb5t59","","<span style=""color:Black; font-size:50px;"">Agent B","null","","","","",""
"null","","","video-keyboard-response","106","346657","0.0-106.0","n8tb5t59","","","null","","Agent B","veridical","FOR_REV_MAP_BLOBBY_STIM/1592747.bmp_pp53_L2_V1.0_veridical_freeview_isoTrue_fps144.mp4",""
"","","","call-function","107","346658","0.0-107.0","n8tb5t59","","","","","","","",""
"2352.634999999951","{""judgement"":1}","[0]","survey-likert","108","349011","0.0-108.0","n8tb5t59","","","","","","","","1"
"1352.2700000000186","{""confidence"":0}","[0]","survey-likert","109","350364","0.0-109.0","n8tb5t59","","","","","","","",""
"","","","call-function","110","350365","0.0-110.0","n8tb5t59","","","","","","","",""
"null","","","html-keyboard-response","111","351866","0.0-111.0","n8tb5t59","","<span style=""color:Black; font-size:50px;"">Agent A","null","","","","",""
"null","","","video-keyboard-response","112","354763","0.0-112.0","n8tb5t59","","","null","","Agent A","scrambled","FOR_REV_MAP_BLOBBY_STIM/1160189.bmp_pp64_L1_V1.0_veridical_freeview_isoTrue_fps144_reversed_REAL.mp4",""
"null","","","html-keyboard-response","113","356266","0.0-113.0","n8tb5t59","","<span style=""color:Black; font-size:50px;"">Agent B","null","","","","",""
"null","","","video-keyboard-response","114","359151","0.0-114.0","n8tb5t59","","","null","","Agent B","veridical","FOR_REV_MAP_BLOBBY_STIM/1160189.bmp_pp64_L1_V1.0_veridical_freeview_isoTrue_fps144.mp4",""
"","","","call-function","115","359151","0.0-115.0","n8tb5t59","","","","","","","",""
"1804.219999999972","{""judgement"":0}","[0]","survey-likert","116","360956","0.0-116.0","n8tb5t59","","","","","","","","1"
"2985.0200000000186","{""confidence"":1}","[0]","survey-likert","117","363942","0.0-117.0","n8tb5t59","","","","","","","",""
"","","","call-function","118","363943","0.0-118.0","n8tb5t59","","","","","","","",""
"null","","","html-keyboard-response","119","365449","0.0-119.0","n8tb5t59","","<span style=""color:Black; font-size:50px;"">Agent A","null","","","","",""
"null","","","video-keyboard-response","120","368247","0.0-120.0","n8tb5t59","","","null","","Agent A","scrambled","FOR_REV_MAP_BLOBBY_STIM/286034.bmp_pp69_L3_V1.0_veridical_freeview_isoTrue_fps144_reversed_REAL.mp4",""
"null","","","html-keyboard-response","121","369749","0.0-121.0","n8tb5t59","","<span style=""color:Black; font-size:50px;"">Agent B","null","","","","",""
"null","","","video-keyboard-response","122","372552","0.0-122.0","n8tb5t59","","","null","","Agent B","veridical","FOR_REV_MAP_BLOBBY_STIM/286034.bmp_pp69_L3_V1.0_veridical_freeview_isoTrue_fps144.mp4",""
"","","","call-function","123","372553","0.0-123.0","n8tb5t59","","","","","","","",""
"1570.6350000000093","{""judgement"":0}","[0]","survey-likert","124","374124","0.0-124.0","n8tb5t59","","","","","","","","1"
"2344.109999999986","{""confidence"":1}","[0]","survey-likert","125","376469","0.0-125.0","n8tb5t59","","","","","","","",""
"","","","call-function","126","376469","0.0-126.0","n8tb5t59","","","","","","","",""
"null","","","html-keyboard-response","127","377973","0.0-127.0","n8tb5t59","","<span style=""color:Black; font-size:50px;"">Agent A","null","","","","",""
"null","","","video-keyboard-response","128","380731","0.0-128.0","n8tb5t59","","","null","","Agent A","scrambled","FOR_REV_MAP_BLOBBY_STIM/1159819.bmp_pp151_L1_V1.0_veridical_freeview_isoTrue_fps144_reversed_REAL.mp4",""
"null","","","html-keyboard-response","129","382233","0.0-129.0","n8tb5t59","","<span style=""color:Black; font-size:50px;"">Agent B","null","","","","",""
"null","","","video-keyboard-response","130","384995","0.0-130.0","n8tb5t59","","","null","","Agent B","veridical","FOR_REV_MAP_BLOBBY_STIM/1159819.bmp_pp151_L1_V1.0_veridical_freeview_isoTrue_fps144.mp4",""
"","","","call-function","131","384995","0.0-131.0","n8tb5t59","","","","","","","",""
"1607.5350000000326","{""judgement"":0}","[0]","survey-likert","132","386604","0.0-132.0","n8tb5t59","","","","","","","","1"
"1371.1199999999953","{""confidence"":1}","[0]","survey-likert","133","387976","0.0-133.0","n8tb5t59","","","","","","","",""
"","","","call-function","134","387977","0.0-134.0","n8tb5t59","","","","","","","",""
"null","","","html-keyboard-response","135","389481","0.0-135.0","n8tb5t59","","<span style=""color:Black; font-size:50px;"">Agent A","null","","","","",""
"null","","","video-keyboard-response","136","392157","0.0-136.0","n8tb5t59","","","null","","Agent A","scrambled","FOR_REV_MAP_BLOBBY_STIM/61513.bmp_pp75_L1_V1.0_veridical_freeview_isoTrue_fps144_reversed_REAL.mp4",""
"null","","","html-keyboard-response","137","393660","0.0-137.0","n8tb5t59","","<span style=""color:Black; font-size:50px;"">Agent B","null","","","","",""
"null","","","video-keyboard-response","138","396350","0.0-138.0","n8tb5t59","","","null","","Agent B","veridical","FOR_REV_MAP_BLOBBY_STIM/61513.bmp_pp75_L1_V1.0_veridical_freeview_isoTrue_fps144.mp4",""
"","","","call-function","139","396350","0.0-139.0","n8tb5t59","","","","","","","",""
"2903.3499999999767","{""judgement"":1}","[0]","survey-likert","140","399254","0.0-140.0","n8tb5t59","","","","","","","","1"
"2375.844999999972","{""confidence"":1}","[0]","survey-likert","141","401631","0.0-141.0","n8tb5t59","","","","","","","",""
"","","","call-function","142","401631","0.0-142.0","n8tb5t59","","","","","","","",""
"null","","","html-keyboard-response","143","403134","0.0-143.0","n8tb5t59","","<span style=""color:Black; font-size:50px;"">Agent A","null","","","","",""
"null","","","video-keyboard-response","144","405912","0.0-144.0","n8tb5t59","","","null","","Agent A","scrambled","FOR_REV_MAP_BLOBBY_STIM/1592044.bmp_pp94_L2_V1.0_veridical_freeview_isoTrue_fps144_reversed_REAL.mp4",""
"null","","","html-keyboard-response","145","407416","0.0-145.0","n8tb5t59","","<span style=""color:Black; font-size:50px;"">Agent B","null","","","","",""
"null","","","video-keyboard-response","146","410180","0.0-146.0","n8tb5t59","","","null","","Agent B","veridical","FOR_REV_MAP_BLOBBY_STIM/1592044.bmp_pp94_L2_V1.0_veridical_freeview_isoTrue_fps144.mp4",""
"","","","call-function","147","410180","0.0-147.0","n8tb5t59","","","","","","","",""
"1784.6549999999697","{""judgement"":0}","[0]","survey-likert","148","411966","0.0-148.0","n8tb5t59","","","","","","","","1"
"4810.02999999997","{""confidence"":1}","[0]","survey-likert","149","416777","0.0-149.0","n8tb5t59","","","","","","","",""
"","","","call-function","150","416777","0.0-150.0","n8tb5t59","","","","","","","",""
"null","","","html-keyboard-response","151","418283","0.0-151.0","n8tb5t59","","<span style=""color:Black; font-size:50px;"">Agent A","null","","","","",""
"null","","","video-keyboard-response","152","421065","0.0-152.0","n8tb5t59","","","null","","Agent A","veridical","FOR_REV_MAP_BLOBBY_STIM/1592289.bmp_pp92_L3_V1.0_veridical_freeview_isoTrue_fps144.mp4",""
"null","","","html-keyboard-response","153","422571","0.0-153.0","n8tb5t59","","<span style=""color:Black; font-size:50px;"">Agent B","null","","","","",""
"null","","","video-keyboard-response","154","425350","0.0-154.0","n8tb5t59","","","null","","Agent B","scrambled","FOR_REV_MAP_BLOBBY_STIM/1592289.bmp_pp92_L3_V1.0_veridical_freeview_isoTrue_fps144_reversed_REAL.mp4",""
"","","","call-function","155","425350","0.0-155.0","n8tb5t59","","","","","","","",""
"2021.8399999999674","{""judgement"":0}","[0]","survey-likert","156","427374","0.0-156.0","n8tb5t59","","","","","","","","0"
"2657.335000000021","{""confidence"":1}","[0]","survey-likert","157","430033","0.0-157.0","n8tb5t59","","","","","","","",""
"","","","call-function","158","430034","0.0-158.0","n8tb5t59","","","","","","","",""
"null","","","html-keyboard-response","159","431536","0.0-159.0","n8tb5t59","","<span style=""color:Black; font-size:50px;"">Agent A","null","","","","",""
"null","","","video-keyboard-response","160","434363","0.0-160.0","n8tb5t59","","","null","","Agent A","scrambled","FOR_REV_MAP_BLOBBY_STIM/1160204.bmp_pp54_L2_V1.0_veridical_freeview_isoTrue_fps144_reversed_REAL.mp4",""
"null","","","html-keyboard-response","161","435869","0.0-161.0","n8tb5t59","","<span style=""color:Black; font-size:50px;"">Agent B","null","","","","",""
"null","","","video-keyboard-response","162","438696","0.0-162.0","n8tb5t59","","","null","","Agent B","veridical","FOR_REV_MAP_BLOBBY_STIM/1160204.bmp_pp54_L2_V1.0_veridical_freeview_isoTrue_fps144.mp4",""
"","","","call-function","163","438697","0.0-163.0","n8tb5t59","","","","","","","",""
"2279.320000000007","{""judgement"":1}","[0]","survey-likert","164","440977","0.0-164.0","n8tb5t59","","","","","","","","1"
"1292.054999999993","{""confidence"":1}","[0]","survey-likert","165","442270","0.0-165.0","n8tb5t59","","","","","","","",""
"","","","call-function","166","442271","0.0-166.0","n8tb5t59","","","","","","","",""
"null","","","html-keyboard-response","167","443777","0.0-167.0","n8tb5t59","","<span style=""color:Black; font-size:50px;"">Agent A","null","","","","",""
"null","","","video-keyboard-response","168","446520","0.0-168.0","n8tb5t59","","","null","","Agent A","scrambled","FOR_REV_MAP_BLOBBY_STIM/1159592.bmp_pp91_L3_V1.0_veridical_freeview_isoTrue_fps144_reversed_REAL.mp4",""
"null","","","html-keyboard-response","169","448022","0.0-169.0","n8tb5t59","","<span style=""color:Black; font-size:50px;"">Agent B","null","","","","",""
"null","","","video-keyboard-response","170","450767","0.0-170.0","n8tb5t59","","","null","","Agent B","veridical","FOR_REV_MAP_BLOBBY_STIM/1159592.bmp_pp91_L3_V1.0_veridical_freeview_isoTrue_fps144.mp4",""
"","","","call-function","171","450767","0.0-171.0","n8tb5t59","","","","","","","",""
"1955.265000000014","{""judgement"":0}","[0]","survey-likert","172","452723","0.0-172.0","n8tb5t59","","","","","","","","1"
"1126.509999999951","{""confidence"":0}","[0]","survey-likert","173","453851","0.0-173.0","n8tb5t59","","","","","","","",""
"2566.070000000007","","","instructions","174","456417","0.0-174.0","n8tb5t59","[{""page_index"":0,""viewing_time"":962.6049999999814},{""page_index"":1,""viewing_time"":1021.085000000021},{""page_index"":2,""viewing_time"":582.1499999999651}]","","","","","","",""
"1543.579999999958","","","instructions","175","457961","0.0-175.0","n8tb5t59","[{""page_index"":0,""viewing_time"":474.40499999996973},{""page_index"":1,""viewing_time"":630.039999999979},{""page_index"":2,""viewing_time"":438.91500000003725}]","","","","","","",""
"","","","call-function","176","457961","0.0-176.0","n8tb5t59","","","","","","","",""
"null","","","html-keyboard-response","177","459465","0.0-177.0","n8tb5t59","","<span style=""color:Black; font-size:50px;"">Agent A","null","","","","",""
"null","","","video-keyboard-response","178","462269","0.0-178.0","n8tb5t59","","","null","","Agent A","veridical","FOR_REV_MAP_BLOBBY_STIM/498372.bmp_pp95_L2_V1.0_veridical_freeview_isoTrue_fps144.mp4",""
"null","","","html-keyboard-response","179","463776","0.0-179.0","n8tb5t59","","<span style=""color:Black; font-size:50px;"">Agent B","null","","","","",""
"null","","","video-keyboard-response","180","466563","0.0-180.0","n8tb5t59","","","null","","Agent B","scrambled","FOR_REV_MAP_BLOBBY_STIM/498372.bmp_pp95_L2_V1.0_veridical_freeview_isoTrue_fps144_reversed_REAL.mp4",""
"","","","call-function","181","466563","0.0-181.0","n8tb5t59","","","","","","","",""
"1567.1900000000023","{""judgement"":0}","[0]","survey-likert","182","468131","0.0-182.0","n8tb5t59","","","","","","","","0"
"2567.1300000000047","{""confidence"":1}","[0]","survey-likert","183","470699","0.0-183.0","n8tb5t59","","","","","","","",""
"","","","call-function","184","470699","0.0-184.0","n8tb5t59","","","","","","","",""
"null","","","html-keyboard-response","185","472200","0.0-185.0","n8tb5t59","","<span style=""color:Black; font-size:50px;"">Agent A","null","","","","",""
"null","","","video-keyboard-response","186","475018","0.0-186.0","n8tb5t59","","","null","","Agent A","veridical","FOR_REV_MAP_BLOBBY_STIM/1159392.bmp_pp96_L2_V1.0_veridical_freeview_isoTrue_fps144.mp4",""
"null","","","html-keyboard-response","187","476520","0.0-187.0","n8tb5t59","","<span style=""color:Black; font-size:50px;"">Agent B","null","","","","",""
"null","","","video-keyboard-response","188","479326","0.0-188.0","n8tb5t59","","","null","","Agent B","scrambled","FOR_REV_MAP_BLOBBY_STIM/1159392.bmp_pp96_L2_V1.0_veridical_freeview_isoTrue_fps144_reversed_REAL.mp4",""
"","","","call-function","189","479326","0.0-189.0","n8tb5t59","","","","","","","",""
"3474.2050000000163","{""judgement"":0}","[0]","survey-likert","190","482801","0.0-190.0","n8tb5t59","","","","","","","","0"
"1463.5299999999697","{""confidence"":1}","[0]","survey-likert","191","484265","0.0-191.0","n8tb5t59","","","","","","","",""
"","","","call-function","192","484266","0.0-192.0","n8tb5t59","","","","","","","",""
"null","","","html-keyboard-response","193","485772","0.0-193.0","n8tb5t59","","<span style=""color:Black; font-size:50px;"">Agent A","null","","","","",""
"null","","","video-keyboard-response","194","488580","0.0-194.0","n8tb5t59","","","null","","Agent A","veridical","FOR_REV_MAP_BLOBBY_STIM/713274.bmp_pp73_L3_V1.0_veridical_freeview_isoTrue_fps144.mp4",""
"null","","","html-keyboard-response","195","490084","0.0-195.0","n8tb5t59","","<span style=""color:Black; font-size:50px;"">Agent B","null","","","","",""
"null","","","video-keyboard-response","196","492891","0.0-196.0","n8tb5t59","","","null","","Agent B","scrambled","FOR_REV_MAP_BLOBBY_STIM/713274.bmp_pp73_L3_V1.0_veridical_freeview_isoTrue_fps144_reversed_REAL.mp4",""
"","","","call-function","197","492891","0.0-197.0","n8tb5t59","","","","","","","",""
"1548.984999999986","{""judgement"":1}","[0]","survey-likert","198","494441","0.0-198.0","n8tb5t59","","","","","","","","0"
"1584.460000000021","{""confidence"":1}","[0]","survey-likert","199","496026","0.0-199.0","n8tb5t59","","","","","","","",""
"","","","call-function","200","496027","0.0-200.0","n8tb5t59","","","","","","","",""
"null","","","html-keyboard-response","201","497532","0.0-201.0","n8tb5t59","","<span style=""color:Black; font-size:50px;"">Agent A","null","","","","",""
"null","","","video-keyboard-response","202","500330","0.0-202.0","n8tb5t59","","","null","","Agent A","veridical","FOR_REV_MAP_BLOBBY_STIM/1592150.bmp_pp77_L3_V1.0_veridical_freeview_isoTrue_fps144.mp4",""
"null","","","html-keyboard-response","203","501834","0.0-203.0","n8tb5t59","","<span style=""color:Black; font-size:50px;"">Agent B","null","","","","",""
"null","","","video-keyboard-response","204","504628","0.0-204.0","n8tb5t59","","","null","","Agent B","scrambled","FOR_REV_MAP_BLOBBY_STIM/1592150.bmp_pp77_L3_V1.0_veridical_freeview_isoTrue_fps144_reversed_REAL.mp4",""
"","","","call-function","205","504628","0.0-205.0","n8tb5t59","","","","","","","",""
"1597.6149999999907","{""judgement"":0}","[0]","survey-likert","206","506227","0.0-206.0","n8tb5t59","","","","","","","","0"
"2004.3099999999977","{""confidence"":1}","[0]","survey-likert","207","508232","0.0-207.0","n8tb5t59","","","","","","","",""
"","","","call-function","208","508232","0.0-208.0","n8tb5t59","","","","","","","",""
"null","","","html-keyboard-response","209","509734","0.0-209.0","n8tb5t59","","<span style=""color:Black; font-size:50px;"">Agent A","null","","","","",""
"null","","","video-keyboard-response","210","512548","0.0-210.0","n8tb5t59","","","null","","Agent A","veridical","FOR_REV_MAP_BLOBBY_STIM/498258.bmp_pp51_L1_V1.0_veridical_freeview_isoTrue_fps144.mp4",""
"null","","","html-keyboard-response","211","514052","0.0-211.0","n8tb5t59","","<span style=""color:Black; font-size:50px;"">Agent B","null","","","","",""
"null","","","video-keyboard-response","212","516871","0.0-212.0","n8tb5t59","","","null","","Agent B","scrambled","FOR_REV_MAP_BLOBBY_STIM/498258.bmp_pp51_L1_V1.0_veridical_freeview_isoTrue_fps144_reversed_REAL.mp4",""
"","","","call-function","213","516872","0.0-213.0","n8tb5t59","","","","","","","",""
"1559.929999999993","{""judgement"":0}","[0]","survey-likert","214","518433","0.0-214.0","n8tb5t59","","","","","","","","0"
"3647.8250000000116","{""confidence"":2}","[0]","survey-likert","215","522083","0.0-215.0","n8tb5t59","","","","","","","",""
"","","","call-function","216","522084","0.0-216.0","n8tb5t59","","","","","","","",""
"null","","","html-keyboard-response","217","523587","0.0-217.0","n8tb5t59","","<span style=""color:Black; font-size:50px;"">Agent A","null","","","","",""
"null","","","video-keyboard-response","218","526352","0.0-218.0","n8tb5t59","","","null","","Agent A","veridical","FOR_REV_MAP_BLOBBY_STIM/1592047.bmp_pp51_L1_V1.0_veridical_freeview_isoTrue_fps144.mp4",""
"null","","","html-keyboard-response","219","527858","0.0-219.0","n8tb5t59","","<span style=""color:Black; font-size:50px;"">Agent B","null","","","","",""
"null","","","video-keyboard-response","220","530627","0.0-220.0","n8tb5t59","","","null","","Agent B","scrambled","FOR_REV_MAP_BLOBBY_STIM/1592047.bmp_pp51_L1_V1.0_veridical_freeview_isoTrue_fps144_reversed_REAL.mp4",""
"","","","call-function","221","530627","0.0-221.0","n8tb5t59","","","","","","","",""
"1639.0649999999441","{""judgement"":1}","[0]","survey-likert","222","532267","0.0-222.0","n8tb5t59","","","","","","","","0"
"2415.444999999949","{""confidence"":1}","[0]","survey-likert","223","534684","0.0-223.0","n8tb5t59","","","","","","","",""
"","","","call-function","224","534684","0.0-224.0","n8tb5t59","","","","","","","",""
"null","","","html-keyboard-response","225","536190","0.0-225.0","n8tb5t59","","<span style=""color:Black; font-size:50px;"">Agent A","null","","","","",""
"null","","","video-keyboard-response","226","538896","0.0-226.0","n8tb5t59","","","null","","Agent A","veridical","FOR_REV_MAP_BLOBBY_STIM/713858.bmp_pp57_L1_V1.0_veridical_freeview_isoTrue_fps144.mp4",""
"null","","","html-keyboard-response","227","540398","0.0-227.0","n8tb5t59","","<span style=""color:Black; font-size:50px;"">Agent B","null","","","","",""
"null","","","video-keyboard-response","228","543091","0.0-228.0","n8tb5t59","","","null","","Agent B","scrambled","FOR_REV_MAP_BLOBBY_STIM/713858.bmp_pp57_L1_V1.0_veridical_freeview_isoTrue_fps144_reversed_REAL.mp4",""
"","","","call-function","229","543092","0.0-229.0","n8tb5t59","","","","","","","",""
"2484.429999999935","{""judgement"":0}","[0]","survey-likert","230","545577","0.0-230.0","n8tb5t59","","","","","","","","0"
"2088.6750000000466","{""confidence"":0}","[0]","survey-likert","231","547667","0.0-231.0","n8tb5t59","","","","","","","",""
"","","","call-function","232","547667","0.0-232.0","n8tb5t59","","","","","","","",""
"null","","","html-keyboard-response","233","549169","0.0-233.0","n8tb5t59","","<span style=""color:Black; font-size:50px;"">Agent A","null","","","","",""
"null","","","video-keyboard-response","234","552030","0.0-234.0","n8tb5t59","","","null","","Agent A","veridical","FOR_REV_MAP_BLOBBY_STIM/713742.bmp_pp91_L3_V1.0_veridical_freeview_isoTrue_fps144.mp4",""
"null","","","html-keyboard-response","235","553532","0.0-235.0","n8tb5t59","","<span style=""color:Black; font-size:50px;"">Agent B","null","","","","",""
"null","","","video-keyboard-response","236","556376","0.0-236.0","n8tb5t59","","","null","","Agent B","scrambled","FOR_REV_MAP_BLOBBY_STIM/713742.bmp_pp91_L3_V1.0_veridical_freeview_isoTrue_fps144_reversed_REAL.mp4",""
"","","","call-function","237","556376","0.0-237.0","n8tb5t59","","","","","","","",""
"1424.3499999999767","{""judgement"":0}","[0]","survey-likert","238","557801","0.0-238.0","n8tb5t59","","","","","","","","0"
"1591.2750000000233","{""confidence"":1}","[0]","survey-likert","239","559394","0.0-239.0","n8tb5t59","","","","","","","",""
"","","","call-function","240","559395","0.0-240.0","n8tb5t59","","","","","","","",""
"null","","","html-keyboard-response","241","560897","0.0-241.0","n8tb5t59","","<span style=""color:Black; font-size:50px;"">Agent A","null","","","","",""
"null","","","video-keyboard-response","242","563711","0.0-242.0","n8tb5t59","","","null","","Agent A","scrambled","FOR_REV_MAP_BLOBBY_STIM/1591920.bmp_pp97_L3_V1.0_veridical_freeview_isoTrue_fps144_reversed_REAL.mp4",""
"null","","","html-keyboard-response","243","565214","0.0-243.0","n8tb5t59","","<span style=""color:Black; font-size:50px;"">Agent B","null","","","","",""
"null","","","video-keyboard-response","244","568042","0.0-244.0","n8tb5t59","","","null","","Agent B","veridical","FOR_REV_MAP_BLOBBY_STIM/1591920.bmp_pp97_L3_V1.0_veridical_freeview_isoTrue_fps144.mp4",""
"","","","call-function","245","568043","0.0-245.0","n8tb5t59","","","","","","","",""
"1806.8200000000652","{""judgement"":1}","[0]","survey-likert","246","569850","0.0-246.0","n8tb5t59","","","","","","","","1"
"1267.7200000000885","{""confidence"":1}","[0]","survey-likert","247","571119","0.0-247.0","n8tb5t59","","","","","","","",""
"","","","call-function","248","571119","0.0-248.0","n8tb5t59","","","","","","","",""
"null","","","html-keyboard-response","249","572620","0.0-249.0","n8tb5t59","","<span style=""color:Black; font-size:50px;"">Agent A","null","","","","",""
"null","","","video-keyboard-response","250","575454","0.0-250.0","n8tb5t59","","","null","","Agent A","scrambled","FOR_REV_MAP_BLOBBY_STIM/107955.bmp_pp90_L2_V1.0_veridical_freeview_isoTrue_fps144_reversed_REAL.mp4",""
"null","","","html-keyboard-response","251","576959","0.0-251.0","n8tb5t59","","<span style=""color:Black; font-size:50px;"">Agent B","null","","","","",""
"null","","","video-keyboard-response","252","579800","0.0-252.0","n8tb5t59","","","null","","Agent B","veridical","FOR_REV_MAP_BLOBBY_STIM/107955.bmp_pp90_L2_V1.0_veridical_freeview_isoTrue_fps144.mp4",""
"","","","call-function","253","579800","0.0-253.0","n8tb5t59","","","","","","","",""
"1904.594999999972","{""judgement"":1}","[0]","survey-likert","254","581706","0.0-254.0","n8tb5t59","","","","","","","","1"
"1387.9349999999395","{""confidence"":1}","[0]","survey-likert","255","583095","0.0-255.0","n8tb5t59","","","","","","","",""
"1993","","","instructions","256","585088","0.0-256.0","n8tb5t59","[{""page_index"":0,""viewing_time"":830.1050000000978},{""page_index"":1,""viewing_time"":691.5849999999627},{""page_index"":2,""viewing_time"":471.10999999998603}]","","","","","","",""
"2112.5849999999627","","","instructions","257","587201","0.0-257.0","n8tb5t59","[{""page_index"":0,""viewing_time"":591.4099999999162},{""page_index"":1,""viewing_time"":932.8850000000093},{""page_index"":2,""viewing_time"":588.1000000000931}]","","","","","","",""
"","","","call-function","258","587201","0.0-258.0","n8tb5t59","","","","","","","",""
"null","","","html-keyboard-response","259","588703","0.0-259.0","n8tb5t59","","<span style=""color:Black; font-size:50px;"">Agent A","null","","","","",""
"null","","","video-keyboard-response","260","591460","0.0-260.0","n8tb5t59","","","null","","Agent A","veridical","FOR_REV_MAP_BLOBBY_STIM/1592168.bmp_pp71_L1_V1.0_veridical_freeview_isoTrue_fps144.mp4",""
"null","","","html-keyboard-response","261","592965","0.0-261.0","n8tb5t59","","<span style=""color:Black; font-size:50px;"">Agent B","null","","","","",""
"null","","","video-keyboard-response","262","595719","0.0-262.0","n8tb5t59","","","null","","Agent B","scrambled","FOR_REV_MAP_BLOBBY_STIM/1592168.bmp_pp71_L1_V1.0_veridical_freeview_isoTrue_fps144_reversed_REAL.mp4",""
"","","","call-function","263","595719","0.0-263.0","n8tb5t59","","","","","","","",""
"1580.0249999999069","{""judgement"":0}","[0]","survey-likert","264","597300","0.0-264.0","n8tb5t59","","","","","","","","0"
"1424.5400000000373","{""confidence"":1}","[0]","survey-likert","265","598726","0.0-265.0","n8tb5t59","","","","","","","",""
"","","","call-function","266","598727","0.0-266.0","n8tb5t59","","","","","","","",""
"null","","","html-keyboard-response","267","600228","0.0-267.0","n8tb5t59","","<span style=""color:Black; font-size:50px;"">Agent A","null","","","","",""
"null","","","video-keyboard-response","268","602957","0.0-268.0","n8tb5t59","","","null","","Agent A","veridical","FOR_REV_MAP_BLOBBY_STIM/1591975.bmp_pp88_L2_V1.0_veridical_freeview_isoTrue_fps144.mp4",""
"null","","","html-keyboard-response","269","604461","0.0-269.0","n8tb5t59","","<span style=""color:Black; font-size:50px;"">Agent B","null","","","","",""
"null","","","video-keyboard-response","270","607190","0.0-270.0","n8tb5t59","","","null","","Agent B","scrambled","FOR_REV_MAP_BLOBBY_STIM/1591975.bmp_pp88_L2_V1.0_veridical_freeview_isoTrue_fps144_reversed_REAL.mp4",""
"","","","call-function","271","607192","0.0-271.0","n8tb5t59","","","","","","","",""
"1534.4850000001024","{""judgement"":1}","[0]","survey-likert","272","608728","0.0-272.0","n8tb5t59","","","","","","","","0"
"2163.984999999986","{""confidence"":1}","[0]","survey-likert","273","610893","0.0-273.0","n8tb5t59","","","","","","","",""
"","","","call-function","274","610893","0.0-274.0","n8tb5t59","","","","","","","",""
"null","","","html-keyboard-response","275","612398","0.0-275.0","n8tb5t59","","<span style=""color:Black; font-size:50px;"">Agent A","null","","","","",""
"null","","","video-keyboard-response","276","615268","0.0-276.0","n8tb5t59","","","null","","Agent A","veridical","FOR_REV_MAP_BLOBBY_STIM/1159956.bmp_pp59_L3_V1.0_veridical_freeview_isoTrue_fps144.mp4",""
"null","","","html-keyboard-response","277","616774","0.0-277.0","n8tb5t59","","<span style=""color:Black; font-size:50px;"">Agent B","null","","","","",""
"null","","","video-keyboard-response","278","619499","0.0-278.0","n8tb5t59","","","null","","Agent B","scrambled","FOR_REV_MAP_BLOBBY_STIM/1159956.bmp_pp59_L3_V1.0_veridical_freeview_isoTrue_fps144_reversed_REAL.mp4",""
"","","","call-function","279","619500","0.0-279.0","n8tb5t59","","","","","","","",""
"2105.590000000084","{""judgement"":0}","[0]","survey-likert","280","621606","0.0-280.0","n8tb5t59","","","","","","","","0"
"1637.7450000001118","{""confidence"":1}","[0]","survey-likert","281","623245","0.0-281.0","n8tb5t59","","","","","","","",""
"","","","call-function","282","623246","0.0-282.0","n8tb5t59","","","","","","","",""
"null","","","html-keyboard-response","283","624748","0.0-283.0","n8tb5t59","","<span style=""color:Black; font-size:50px;"">Agent A","null","","","","",""
"null","","","video-keyboard-response","284","627676","0.0-284.0","n8tb5t59","","","null","","Agent A","veridical","FOR_REV_MAP_BLOBBY_STIM/498025.bmp_pp81_L1_V1.0_veridical_freeview_isoTrue_fps144.mp4",""
"null","","","html-keyboard-response","285","629179","0.0-285.0","n8tb5t59","","<span style=""color:Black; font-size:50px;"">Agent B","null","","","","",""
"null","","","video-keyboard-response","286","632094","0.0-286.0","n8tb5t59","","","null","","Agent B","scrambled","FOR_REV_MAP_BLOBBY_STIM/498025.bmp_pp81_L1_V1.0_veridical_freeview_isoTrue_fps144_reversed_REAL.mp4",""
"","","","call-function","287","632094","0.0-287.0","n8tb5t59","","","","","","","",""
"4227.954999999958","{""judgement"":0}","[0]","survey-likert","288","636323","0.0-288.0","n8tb5t59","","","","","","","","0"
"1765.1899999999441","{""confidence"":1}","[0]","survey-likert","289","638089","0.0-289.0","n8tb5t59","","","","","","","",""
"","","","call-function","290","638090","0.0-290.0","n8tb5t59","","","","","","","",""
"null","","","html-keyboard-response","291","639596","0.0-291.0","n8tb5t59","","<span style=""color:Black; font-size:50px;"">Agent A","null","","","","",""
"null","","","video-keyboard-response","292","642393","0.0-292.0","n8tb5t59","","","null","","Agent A","scrambled","FOR_REV_MAP_BLOBBY_STIM/150463.bmp_pp55_L3_V1.0_veridical_freeview_isoTrue_fps144_reversed_REAL.mp4",""
"null","","","html-keyboard-response","293","643895","0.0-293.0","n8tb5t59","","<span style=""color:Black; font-size:50px;"">Agent B","null","","","","",""
"null","","","video-keyboard-response","294","646684","0.0-294.0","n8tb5t59","","","null","","Agent B","veridical","FOR_REV_MAP_BLOBBY_STIM/150463.bmp_pp55_L3_V1.0_veridical_freeview_isoTrue_fps144.mp4",""
"","","","call-function","295","646684","0.0-295.0","n8tb5t59","","","","","","","",""
"4263.5","{""judgement"":1}","[0]","survey-likert","296","650949","0.0-296.0","n8tb5t59","","","","","","","","1"
"2326.579999999958","{""confidence"":0}","[0]","survey-likert","297","653276","0.0-297.0","n8tb5t59","","","","","","","",""
"","","","call-function","298","653277","0.0-298.0","n8tb5t59","","","","","","","",""
"null","","","html-keyboard-response","299","654781","0.0-299.0","n8tb5t59","","<span style=""color:Black; font-size:50px;"">Agent A","null","","","","",""
"null","","","video-keyboard-response","300","657558","0.0-300.0","n8tb5t59","","","null","","Agent A","scrambled","FOR_REV_MAP_BLOBBY_STIM/285684.bmp_pp80_L3_V1.0_veridical_freeview_isoTrue_fps144_reversed_REAL.mp4",""
"null","","","html-keyboard-response","301","659064","0.0-301.0","n8tb5t59","","<span style=""color:Black; font-size:50px;"">Agent B","null","","","","",""
"null","","","video-keyboard-response","302","661838","0.0-302.0","n8tb5t59","","","null","","Agent B","veridical","FOR_REV_MAP_BLOBBY_STIM/285684.bmp_pp80_L3_V1.0_veridical_freeview_isoTrue_fps144.mp4",""
"","","","call-function","303","661839","0.0-303.0","n8tb5t59","","","","","","","",""
"1975.8149999999441","{""judgement"":1}","[0]","survey-likert","304","663816","0.0-304.0","n8tb5t59","","","","","","","","1"
"1499.719999999972","{""confidence"":2}","[0]","survey-likert","305","665316","0.0-305.0","n8tb5t59","","","","","","","",""
"","","","call-function","306","665317","0.0-306.0","n8tb5t59","","","","","","","",""
"null","","","html-keyboard-response","307","666822","0.0-307.0","n8tb5t59","","<span style=""color:Black; font-size:50px;"">Agent A","null","","","","",""
"null","","","video-keyboard-response","308","669662","0.0-308.0","n8tb5t59","","","null","","Agent A","veridical","FOR_REV_MAP_BLOBBY_STIM/1591781.bmp_pp63_L1_V1.0_veridical_freeview_isoTrue_fps144.mp4",""
"null","","","html-keyboard-response","309","671163","0.0-309.0","n8tb5t59","","<span style=""color:Black; font-size:50px;"">Agent B","null","","","","",""
"null","","","video-keyboard-response","310","673971","0.0-310.0","n8tb5t59","","","null","","Agent B","scrambled","FOR_REV_MAP_BLOBBY_STIM/1591781.bmp_pp63_L1_V1.0_veridical_freeview_isoTrue_fps144_reversed_REAL.mp4",""
"","","","call-function","311","673972","0.0-311.0","n8tb5t59","","","","","","","",""
"2123.8649999999907","{""judgement"":0}","[0]","survey-likert","312","676096","0.0-312.0","n8tb5t59","","","","","","","","0"
"1147.0399999999208","{""confidence"":1}","[0]","survey-likert","313","677245","0.0-313.0","n8tb5t59","","","","","","","",""
"","","","call-function","314","677245","0.0-314.0","n8tb5t59","","","","","","","",""
"null","","","html-keyboard-response","315","678748","0.0-315.0","n8tb5t59","","<span style=""color:Black; font-size:50px;"">Agent A","null","","","","",""
"null","","","video-keyboard-response","316","681578","0.0-316.0","n8tb5t59","","","null","","Agent A","scrambled","FOR_REV_MAP_BLOBBY_STIM/1592025.bmp_pp68_L1_V1.0_veridical_freeview_isoTrue_fps144_reversed_REAL.mp4",""
"null","","","html-keyboard-response","317","683081","0.0-317.0","n8tb5t59","","<span style=""color:Black; font-size:50px;"">Agent B","null","","","","",""
"null","","","video-keyboard-response","318","685911","0.0-318.0","n8tb5t59","","","null","","Agent B","veridical","FOR_REV_MAP_BLOBBY_STIM/1592025.bmp_pp68_L1_V1.0_veridical_freeview_isoTrue_fps144.mp4",""
"","","","call-function","319","685912","0.0-319.0","n8tb5t59","","","","","","","",""
"1859.7850000000326","{""judgement"":1}","[0]","survey-likert","320","687772","0.0-320.0","n8tb5t59","","","","","","","","1"
"1569.2149999999674","{""confidence"":2}","[0]","survey-likert","321","689342","0.0-321.0","n8tb5t59","","","","","","","",""
"","","","call-function","322","689343","0.0-322.0","n8tb5t59","","","","","","","",""
"null","","","html-keyboard-response","323","690849","0.0-323.0","n8tb5t59","","<span style=""color:Black; font-size:50px;"">Agent A","null","","","","",""
"null","","","video-keyboard-response","324","693598","0.0-324.0","n8tb5t59","","","null","","Agent A","scrambled","FOR_REV_MAP_BLOBBY_STIM/1160247.bmp_pp54_L2_V1.0_veridical_freeview_isoTrue_fps144_reversed_REAL.mp4",""
"null","","","html-keyboard-response","325","695101","0.0-325.0","n8tb5t59","","<span style=""color:Black; font-size:50px;"">Agent B","null","","","","",""
"null","","","video-keyboard-response","326","697860","0.0-326.0","n8tb5t59","","","null","","Agent B","veridical","FOR_REV_MAP_BLOBBY_STIM/1160247.bmp_pp54_L2_V1.0_veridical_freeview_isoTrue_fps144.mp4",""
"","","","call-function","327","697860","0.0-327.0","n8tb5t59","","","","","","","",""
"1960.3699999999953","{""judgement"":1}","[0]","survey-likert","328","699822","0.0-328.0","n8tb5t59","","","","","","","","1"
"1764.2150000000838","{""confidence"":1}","[0]","survey-likert","329","701587","0.0-329.0","n8tb5t59","","","","","","","",""
"","","","call-function","330","701587","0.0-330.0","n8tb5t59","","","","","","","",""
"null","","","html-keyboard-response","331","703088","0.0-331.0","n8tb5t59","","<span style=""color:Black; font-size:50px;"">Agent A","null","","","","",""
"null","","","video-keyboard-response","332","705695","0.0-332.0","n8tb5t59","","","null","","Agent A","veridical","FOR_REV_MAP_BLOBBY_STIM/498398.bmp_pp81_L1_V1.0_veridical_freeview_isoTrue_fps144.mp4",""
"null","","","html-keyboard-response","333","707202","0.0-333.0","n8tb5t59","","<span style=""color:Black; font-size:50px;"">Agent B","null","","","","",""
"null","","","video-keyboard-response","334","709790","0.0-334.0","n8tb5t59","","","null","","Agent B","scrambled","FOR_REV_MAP_BLOBBY_STIM/498398.bmp_pp81_L1_V1.0_veridical_freeview_isoTrue_fps144_reversed_REAL.mp4",""
"","","","call-function","335","709790","0.0-335.0","n8tb5t59","","","","","","","",""
"1691.5400000000373","{""judgement"":1}","[0]","survey-likert","336","711483","0.0-336.0","n8tb5t59","","","","","","","","0"
"1913.7850000000326","{""confidence"":0}","[0]","survey-likert","337","713399","0.0-337.0","n8tb5t59","","","","","","","",""
"2319.359999999986","","","instructions","338","715720","0.0-338.0","n8tb5t59","[{""page_index"":0,""viewing_time"":1180.5350000000326},{""page_index"":1,""viewing_time"":608.8199999999488},{""page_index"":2,""viewing_time"":529.8050000000512}]","","","","","","",""
"1013.1849999999395","","","instructions","339","716734","0.0-339.0","n8tb5t59","[{""page_index"":0,""viewing_time"":406.82499999995343},{""page_index"":1,""viewing_time"":413.0250000000233},{""page_index"":2,""viewing_time"":193.21999999997206}]","","","","","","",""
"","","","call-function","340","716734","0.0-340.0","n8tb5t59","","","","","","","",""
"null","","","html-keyboard-response","341","718236","0.0-341.0","n8tb5t59","","<span style=""color:Black; font-size:50px;"">Agent A","null","","","","",""
"null","","","video-keyboard-response","342","721159","0.0-342.0","n8tb5t59","","","null","","Agent A","veridical","FOR_REV_MAP_BLOBBY_STIM/1592568.bmp_pp71_L1_V1.0_veridical_freeview_isoTrue_fps144.mp4",""
"null","","","html-keyboard-response","343","722666","0.0-343.0","n8tb5t59","","<span style=""color:Black; font-size:50px;"">Agent B","null","","","","",""
"null","","","video-keyboard-response","344","725604","0.0-344.0","n8tb5t59","","","null","","Agent B","scrambled","FOR_REV_MAP_BLOBBY_STIM/1592568.bmp_pp71_L1_V1.0_veridical_freeview_isoTrue_fps144_reversed_REAL.mp4",""
"","","","call-function","345","725604","0.0-345.0","n8tb5t59","","","","","","","",""
"2837.180000000051","{""judgement"":1}","[0]","survey-likert","346","728442","0.0-346.0","n8tb5t59","","","","","","","","0"
"1698.125","{""confidence"":0}","[0]","survey-likert","347","730142","0.0-347.0","n8tb5t59","","","","","","","",""
"","","","call-function","348","730142","0.0-348.0","n8tb5t59","","","","","","","",""
"null","","","html-keyboard-response","349","731645","0.0-349.0","n8tb5t59","","<span style=""color:Black; font-size:50px;"">Agent A","null","","","","",""
"null","","","video-keyboard-response","350","734416","0.0-350.0","n8tb5t59","","","null","","Agent A","scrambled","FOR_REV_MAP_BLOBBY_STIM/1592129.bmp_pp153_L3_V1.0_veridical_freeview_isoTrue_fps144_reversed_REAL.mp4",""
"null","","","html-keyboard-response","351","735919","0.0-351.0","n8tb5t59","","<span style=""color:Black; font-size:50px;"">Agent B","null","","","","",""
"null","","","video-keyboard-response","352","738693","0.0-352.0","n8tb5t59","","","null","","Agent B","veridical","FOR_REV_MAP_BLOBBY_STIM/1592129.bmp_pp153_L3_V1.0_veridical_freeview_isoTrue_fps144.mp4",""
"","","","call-function","353","738693","0.0-353.0","n8tb5t59","","","","","","","",""
"1469.5250000000233","{""judgement"":1}","[0]","survey-likert","354","740164","0.0-354.0","n8tb5t59","","","","","","","","1"
"1704.2550000000047","{""confidence"":2}","[0]","survey-likert","355","741869","0.0-355.0","n8tb5t59","","","","","","","",""
"","","","call-function","356","741870","0.0-356.0","n8tb5t59","","","","","","","",""
"null","","","html-keyboard-response","357","743376","0.0-357.0","n8tb5t59","","<span style=""color:Black; font-size:50px;"">Agent A","null","","","","",""
"null","","","video-keyboard-response","358","746198","0.0-358.0","n8tb5t59","","","null","","Agent A","veridical","FOR_REV_MAP_BLOBBY_STIM/1592305.bmp_pp65_L3_V1.0_veridical_freeview_isoTrue_fps144.mp4",""
"null","","","html-keyboard-response","359","747700","0.0-359.0","n8tb5t59","","<span style=""color:Black; font-size:50px;"">Agent B","null","","","","",""
"null","","","video-keyboard-response","360","750506","0.0-360.0","n8tb5t59","","","null","","Agent B","scrambled","FOR_REV_MAP_BLOBBY_STIM/1592305.bmp_pp65_L3_V1.0_veridical_freeview_isoTrue_fps144_reversed_REAL.mp4",""
"","","","call-function","361","750507","0.0-361.0","n8tb5t59","","","","","","","",""
"3225.1650000000373","{""judgement"":0}","[0]","survey-likert","362","753733","0.0-362.0","n8tb5t59","","","","","","","","0"
"1717.1199999999953","{""confidence"":1}","[0]","survey-likert","363","755451","0.0-363.0","n8tb5t59","","","","","","","",""
"","","","call-function","364","755451","0.0-364.0","n8tb5t59","","","","","","","",""
"null","","","html-keyboard-response","365","756953","0.0-365.0","n8tb5t59","","<span style=""color:Black; font-size:50px;"">Agent A","null","","","","",""
"null","","","video-keyboard-response","366","759734","0.0-366.0","n8tb5t59","","","null","","Agent A","scrambled","FOR_REV_MAP_BLOBBY_STIM/1159860.bmp_pp152_L2_V1.0_veridical_freeview_isoTrue_fps144_reversed_REAL.mp4",""
"null","","","html-keyboard-response","367","761236","0.0-367.0","n8tb5t59","","<span style=""color:Black; font-size:50px;"">Agent B","null","","","","",""
"null","","","video-keyboard-response","368","764033","0.0-368.0","n8tb5t59","","","null","","Agent B","veridical","FOR_REV_MAP_BLOBBY_STIM/1159860.bmp_pp152_L2_V1.0_veridical_freeview_isoTrue_fps144.mp4",""
"","","","call-function","369","764034","0.0-369.0","n8tb5t59","","","","","","","",""
"1868.5","{""judgement"":0}","[0]","survey-likert","370","765903","0.0-370.0","n8tb5t59","","","","","","","","1"
"1825.3950000000186","{""confidence"":1}","[0]","survey-likert","371","767729","0.0-371.0","n8tb5t59","","","","","","","",""
"","","","call-function","372","767730","0.0-372.0","n8tb5t59","","","","","","","",""
"null","","","html-keyboard-response","373","769234","0.0-373.0","n8tb5t59","","<span style=""color:Black; font-size:50px;"">Agent A","null","","","","",""
"null","","","video-keyboard-response","374","772025","0.0-374.0","n8tb5t59","","","null","","Agent A","veridical","FOR_REV_MAP_BLOBBY_STIM/713328.bmp_pp86_L2_V1.0_veridical_freeview_isoTrue_fps144.mp4",""
"null","","","html-keyboard-response","375","773529","0.0-375.0","n8tb5t59","","<span style=""color:Black; font-size:50px;"">Agent B","null","","","","",""
"null","","","video-keyboard-response","376","776298","0.0-376.0","n8tb5t59","","","null","","Agent B","scrambled","FOR_REV_MAP_BLOBBY_STIM/713328.bmp_pp86_L2_V1.0_veridical_freeview_isoTrue_fps144_reversed_REAL.mp4",""
"","","","call-function","377","776299","0.0-377.0","n8tb5t59","","","","","","","",""
"1742.9400000000605","{""judgement"":1}","[0]","survey-likert","378","778043","0.0-378.0","n8tb5t59","","","","","","","","0"
"1061.6899999999441","{""confidence"":1}","[0]","survey-likert","379","779105","0.0-379.0","n8tb5t59","","","","","","","",""
"","","","call-function","380","779106","0.0-380.0","n8tb5t59","","","","","","","",""
"null","","","html-keyboard-response","381","780607","0.0-381.0","n8tb5t59","","<span style=""color:Black; font-size:50px;"">Agent A","null","","","","",""
"null","","","video-keyboard-response","382","783455","0.0-382.0","n8tb5t59","","","null","","Agent A","scrambled","FOR_REV_MAP_BLOBBY_STIM/498326.bmp_pp57_L1_V1.0_veridical_freeview_isoTrue_fps144_reversed_REAL.mp4",""
"null","","","html-keyboard-response","383","784956","0.0-383.0","n8tb5t59","","<span style=""color:Black; font-size:50px;"">Agent B","null","","","","",""
"null","","","video-keyboard-response","384","787795","0.0-384.0","n8tb5t59","","","null","","Agent B","veridical","FOR_REV_MAP_BLOBBY_STIM/498326.bmp_pp57_L1_V1.0_veridical_freeview_isoTrue_fps144.mp4",""
"","","","call-function","385","787795","0.0-385.0","n8tb5t59","","","","","","","",""
"1671.3850000000093","{""judgement"":1}","[0]","survey-likert","386","789468","0.0-386.0","n8tb5t59","","","","","","","","1"
"1604.0849999999627","{""confidence"":1}","[0]","survey-likert","387","791073","0.0-387.0","n8tb5t59","","","","","","","",""
"","","","call-function","388","791073","0.0-388.0","n8tb5t59","","","","","","","",""
"null","","","html-keyboard-response","389","792575","0.0-389.0","n8tb5t59","","<span style=""color:Black; font-size:50px;"">Agent A","null","","","","",""
"null","","","video-keyboard-response","390","795413","0.0-390.0","n8tb5t59","","","null","","Agent A","veridical","FOR_REV_MAP_BLOBBY_STIM/1592857.bmp_pp52_L1_V1.0_veridical_freeview_isoTrue_fps144.mp4",""
"null","","","html-keyboard-response","391","796916","0.0-391.0","n8tb5t59","","<span style=""color:Black; font-size:50px;"">Agent B","null","","","","",""
"null","","","video-keyboard-response","392","799758","0.0-392.0","n8tb5t59","","","null","","Agent B","scrambled","FOR_REV_MAP_BLOBBY_STIM/1592857.bmp_pp52_L1_V1.0_veridical_freeview_isoTrue_fps144_reversed_REAL.mp4",""
"","","","call-function","393","799759","0.0-393.0","n8tb5t59","","","","","","","",""
"1777.3649999999907","{""judgement"":0}","[0]","survey-likert","394","801537","0.0-394.0","n8tb5t59","","","","","","","","0"
"2704.4550000000745","{""confidence"":1}","[0]","survey-likert","395","804243","0.0-395.0","n8tb5t59","","","","","","","",""
"","","","call-function","396","804243","0.0-396.0","n8tb5t59","","","","","","","",""
"null","","","html-keyboard-response","397","805745","0.0-397.0","n8tb5t59","","<span style=""color:Black; font-size:50px;"">Agent A","null","","","","",""
"null","","","video-keyboard-response","398","808567","0.0-398.0","n8tb5t59","","","null","","Agent A","veridical","FOR_REV_MAP_BLOBBY_STIM/713689.bmp_pp153_L3_V1.0_veridical_freeview_isoTrue_fps144.mp4",""
"null","","","html-keyboard-response","399","810073","0.0-399.0","n8tb5t59","","<span style=""color:Black; font-size:50px;"">Agent B","null","","","","",""
"null","","","video-keyboard-response","400","812873","0.0-400.0","n8tb5t59","","","null","","Agent B","scrambled","FOR_REV_MAP_BLOBBY_STIM/713689.bmp_pp153_L3_V1.0_veridical_freeview_isoTrue_fps144_reversed_REAL.mp4",""
"","","","call-function","401","812874","0.0-401.0","n8tb5t59","","","","","","","",""
"1519.7449999999953","{""judgement"":0}","[0]","survey-likert","402","814395","0.0-402.0","n8tb5t59","","","","","","","","0"
"1407.234999999986","{""confidence"":1}","[0]","survey-likert","403","815804","0.0-403.0","n8tb5t59","","","","","","","",""
"","","","call-function","404","815805","0.0-404.0","n8tb5t59","","","","","","","",""
"null","","","html-keyboard-response","405","817308","0.0-405.0","n8tb5t59","","<span style=""color:Black; font-size:50px;"">Agent A","null","","","","",""
"null","","","video-keyboard-response","406","820147","0.0-406.0","n8tb5t59","","","null","","Agent A","veridical","FOR_REV_MAP_BLOBBY_STIM/713920.bmp_pp76_L1_V1.0_veridical_freeview_isoTrue_fps144.mp4",""
"null","","","html-keyboard-response","407","821649","0.0-407.0","n8tb5t59","","<span style=""color:Black; font-size:50px;"">Agent B","null","","","","",""
"null","","","video-keyboard-response","408","824466","0.0-408.0","n8tb5t59","","","null","","Agent B","scrambled","FOR_REV_MAP_BLOBBY_STIM/713920.bmp_pp76_L1_V1.0_veridical_freeview_isoTrue_fps144_reversed_REAL.mp4",""
"","","","call-function","409","824466","0.0-409.0","n8tb5t59","","","","","","","",""
"1646.3800000000047","{""judgement"":0}","[0]","survey-likert","410","826114","0.0-410.0","n8tb5t59","","","","","","","","0"
"1479.5600000000559","{""confidence"":1}","[0]","survey-likert","411","827595","0.0-411.0","n8tb5t59","","","","","","","",""
"","","","call-function","412","827595","0.0-412.0","n8tb5t59","","","","","","","",""
"null","","","html-keyboard-response","413","829100","0.0-413.0","n8tb5t59","","<span style=""color:Black; font-size:50px;"">Agent A","null","","","","",""
"null","","","video-keyboard-response","414","831898","0.0-414.0","n8tb5t59","","","null","","Agent A","veridical","FOR_REV_MAP_BLOBBY_STIM/713790.bmp_pp100_L3_V1.0_veridical_freeview_isoTrue_fps144.mp4",""
"null","","","html-keyboard-response","415","833401","0.0-415.0","n8tb5t59","","<span style=""color:Black; font-size:50px;"">Agent B","null","","","","",""
"null","","","video-keyboard-response","416","836198","0.0-416.0","n8tb5t59","","","null","","Agent B","scrambled","FOR_REV_MAP_BLOBBY_STIM/713790.bmp_pp100_L3_V1.0_veridical_freeview_isoTrue_fps144_reversed_REAL.mp4",""
"","","","call-function","417","836199","0.0-417.0","n8tb5t59","","","","","","","",""
"1326.2449999999953","{""judgement"":1}","[0]","survey-likert","418","837526","0.0-418.0","n8tb5t59","","","","","","","","0"
"1463.3399999999674","{""confidence"":1}","[0]","survey-likert","419","838990","0.0-419.0","n8tb5t59","","","","","","","",""
"1731.7600000000093","","","instructions","420","840723","0.0-420.0","n8tb5t59","[{""page_index"":0,""viewing_time"":955.4050000000279},{""page_index"":1,""viewing_time"":484.03999999992084},{""page_index"":2,""viewing_time"":292.11000000010245}]","","","","","","",""
"456.8149999999441","","","instructions","421","841180","0.0-421.0","n8tb5t59","[{""page_index"":0,""viewing_time"":160.625},{""page_index"":1,""viewing_time"":145.9299999999348},{""page_index"":2,""viewing_time"":150}]","","","","","","",""
"","","","call-function","422","841180","0.0-422.0","n8tb5t59","","","","","","","",""
"null","","","html-keyboard-response","423","842687","0.0-423.0","n8tb5t59","","<span style=""color:Black; font-size:50px;"">Agent A","null","","","","",""
"null","","","video-keyboard-response","424","845486","0.0-424.0","n8tb5t59","","","null","","Agent A","veridical","FOR_REV_MAP_BLOBBY_STIM/285932.bmp_pp64_L1_V1.0_veridical_freeview_isoTrue_fps144.mp4",""
"null","","","html-keyboard-response","425","846987","0.0-425.0","n8tb5t59","","<span style=""color:Black; font-size:50px;"">Agent B","null","","","","",""
"null","","","video-keyboard-response","426","849772","0.0-426.0","n8tb5t59","","","null","","Agent B","scrambled","FOR_REV_MAP_BLOBBY_STIM/285932.bmp_pp64_L1_V1.0_veridical_freeview_isoTrue_fps144_reversed_REAL.mp4",""
"","","","call-function","427","849773","0.0-427.0","n8tb5t59","","","","","","","",""
"1532.9949999999953","{""judgement"":0}","[0]","survey-likert","428","851306","0.0-428.0","n8tb5t59","","","","","","","","0"
"2377.1450000000186","{""confidence"":1}","[0]","survey-likert","429","853685","0.0-429.0","n8tb5t59","","","","","","","",""
"","","","call-function","430","853685","0.0-430.0","n8tb5t59","","","","","","","",""
"null","","","html-keyboard-response","431","855186","0.0-431.0","n8tb5t59","","<span style=""color:Black; font-size:50px;"">Agent A","null","","","","",""
"null","","","video-keyboard-response","432","857926","0.0-432.0","n8tb5t59","","","null","","Agent A","scrambled","FOR_REV_MAP_BLOBBY_STIM/285959.bmp_pp93_L1_V1.0_veridical_freeview_isoTrue_fps144_reversed_REAL.mp4",""
"null","","","html-keyboard-response","433","859430","0.0-433.0","n8tb5t59","","<span style=""color:Black; font-size:50px;"">Agent B","null","","","","",""
"null","","","video-keyboard-response","434","862170","0.0-434.0","n8tb5t59","","","null","","Agent B","veridical","FOR_REV_MAP_BLOBBY_STIM/285959.bmp_pp93_L1_V1.0_veridical_freeview_isoTrue_fps144.mp4",""
"","","","call-function","435","862170","0.0-435.0","n8tb5t59","","","","","","","",""
"1317.469999999972","{""judgement"":0}","[0]","survey-likert","436","863489","0.0-436.0","n8tb5t59","","","","","","","","1"
"1324.0700000000652","{""confidence"":1}","[0]","survey-likert","437","864814","0.0-437.0","n8tb5t59","","","","","","","",""
"","","","call-function","438","864814","0.0-438.0","n8tb5t59","","","","","","","",""
"null","","","html-keyboard-response","439","866319","0.0-439.0","n8tb5t59","","<span style=""color:Black; font-size:50px;"">Agent A","null","","","","",""
"null","","","video-keyboard-response","440","869185","0.0-440.0","n8tb5t59","","","null","","Agent A","veridical","FOR_REV_MAP_BLOBBY_STIM/498261.bmp_pp84_L3_V1.0_veridical_freeview_isoTrue_fps144.mp4",""
"null","","","html-keyboard-response","441","870687","0.0-441.0","n8tb5t59","","<span style=""color:Black; font-size:50px;"">Agent B","null","","","","",""
"null","","","video-keyboard-response","442","873533","0.0-442.0","n8tb5t59","","","null","","Agent B","scrambled","FOR_REV_MAP_BLOBBY_STIM/498261.bmp_pp84_L3_V1.0_veridical_freeview_isoTrue_fps144_reversed_REAL.mp4",""
"","","","call-function","443","873534","0.0-443.0","n8tb5t59","","","","","","","",""
"1891.859999999986","{""judgement"":1}","[0]","survey-likert","444","875427","0.0-444.0","n8tb5t59","","","","","","","","0"
"1228.75","{""confidence"":1}","[0]","survey-likert","445","876657","0.0-445.0","n8tb5t59","","","","","","","",""
"","","","call-function","446","876657","0.0-446.0","n8tb5t59","","","","","","","",""
"null","","","html-keyboard-response","447","878158","0.0-447.0","n8tb5t59","","<span style=""color:Black; font-size:50px;"">Agent A","null","","","","",""
"null","","","video-keyboard-response","448","881028","0.0-448.0","n8tb5t59","","","null","","Agent A","veridical","FOR_REV_MAP_BLOBBY_STIM/1592201.bmp_pp97_L3_V1.0_veridical_freeview_isoTrue_fps144.mp4",""
"null","","","html-keyboard-response","449","882530","0.0-449.0","n8tb5t59","","<span style=""color:Black; font-size:50px;"">Agent B","null","","","","",""
"null","","","video-keyboard-response","450","885377","0.0-450.0","n8tb5t59","","","null","","Agent B","scrambled","FOR_REV_MAP_BLOBBY_STIM/1592201.bmp_pp97_L3_V1.0_veridical_freeview_isoTrue_fps144_reversed_REAL.mp4",""
"","","","call-function","451","885377","0.0-451.0","n8tb5t59","","","","","","","",""
"1977.9100000000326","{""judgement"":0}","[0]","survey-likert","452","887356","0.0-452.0","n8tb5t59","","","","","","","","0"
"1415.5999999999767","{""confidence"":1}","[0]","survey-likert","453","888773","0.0-453.0","n8tb5t59","","","","","","","",""
"","","","call-function","454","888773","0.0-454.0","n8tb5t59","","","","","","","",""
"null","","","html-keyboard-response","455","890275","0.0-455.0","n8tb5t59","","<span style=""color:Black; font-size:50px;"">Agent A","null","","","","",""
"null","","","video-keyboard-response","456","893076","0.0-456.0","n8tb5t59","","","null","","Agent A","veridical","FOR_REV_MAP_BLOBBY_STIM/1592921.bmp_pp69_L3_V1.0_veridical_freeview_isoTrue_fps144.mp4",""
"null","","","html-keyboard-response","457","894581","0.0-457.0","n8tb5t59","","<span style=""color:Black; font-size:50px;"">Agent B","null","","","","",""
"null","","","video-keyboard-response","458","897380","0.0-458.0","n8tb5t59","","","null","","Agent B","scrambled","FOR_REV_MAP_BLOBBY_STIM/1592921.bmp_pp69_L3_V1.0_veridical_freeview_isoTrue_fps144_reversed_REAL.mp4",""
"","","","call-function","459","897381","0.0-459.0","n8tb5t59","","","","","","","",""
"2567.329999999958","{""judgement"":1}","[0]","survey-likert","460","899950","0.0-460.0","n8tb5t59","","","","","","","","0"
"1120.7600000000093","{""confidence"":1}","[0]","survey-likert","461","901072","0.0-461.0","n8tb5t59","","","","","","","",""
"","","","call-function","462","901073","0.0-462.0","n8tb5t59","","","","","","","",""
"null","","","html-keyboard-response","463","902576","0.0-463.0","n8tb5t59","","<span style=""color:Black; font-size:50px;"">Agent A","null","","","","",""
"null","","","video-keyboard-response","464","905345","0.0-464.0","n8tb5t59","","","null","","Agent A","veridical","FOR_REV_MAP_BLOBBY_STIM/1592298.bmp_pp56_L3_V1.0_veridical_freeview_isoTrue_fps144.mp4",""
"null","","","html-keyboard-response","465","906850","0.0-465.0","n8tb5t59","","<span style=""color:Black; font-size:50px;"">Agent B","null","","","","",""
"null","","","video-keyboard-response","466","909612","0.0-466.0","n8tb5t59","","","null","","Agent B","scrambled","FOR_REV_MAP_BLOBBY_STIM/1592298.bmp_pp56_L3_V1.0_veridical_freeview_isoTrue_fps144_reversed_REAL.mp4",""
"","","","call-function","467","909613","0.0-467.0","n8tb5t59","","","","","","","",""
"1780.7850000000326","{""judgement"":1}","[0]","survey-likert","468","911394","0.0-468.0","n8tb5t59","","","","","","","","0"
"1180.2450000001118","{""confidence"":1}","[0]","survey-likert","469","912576","0.0-469.0","n8tb5t59","","","","","","","",""
"","","","call-function","470","912576","0.0-470.0","n8tb5t59","","","","","","","",""
"null","","","html-keyboard-response","471","914080","0.0-471.0","n8tb5t59","","<span style=""color:Black; font-size:50px;"">Agent A","null","","","","",""
"null","","","video-keyboard-response","472","916788","0.0-472.0","n8tb5t59","","","null","","Agent A","veridical","FOR_REV_MAP_BLOBBY_STIM/1592350.bmp_pp55_L3_V1.0_veridical_freeview_isoTrue_fps144.mp4",""
"null","","","html-keyboard-response","473","918294","0.0-473.0","n8tb5t59","","<span style=""color:Black; font-size:50px;"">Agent B","null","","","","",""
"null","","","video-keyboard-response","474","920982","0.0-474.0","n8tb5t59","","","null","","Agent B","scrambled","FOR_REV_MAP_BLOBBY_STIM/1592350.bmp_pp55_L3_V1.0_veridical_freeview_isoTrue_fps144_reversed_REAL.mp4",""
"","","","call-function","475","920983","0.0-475.0","n8tb5t59","","","","","","","",""
"2237.960000000079","{""judgement"":0}","[0]","survey-likert","476","923222","0.0-476.0","n8tb5t59","","","","","","","","0"
"1272.5700000000652","{""confidence"":1}","[0]","survey-likert","477","924495","0.0-477.0","n8tb5t59","","","","","","","",""
"","","","call-function","478","924496","0.0-478.0","n8tb5t59","","","","","","","",""
"null","","","html-keyboard-response","479","925997","0.0-479.0","n8tb5t59","","<span style=""color:Black; font-size:50px;"">Agent A","null","","","","",""
"null","","","video-keyboard-response","480","928785","0.0-480.0","n8tb5t59","","","null","","Agent A","scrambled","FOR_REV_MAP_BLOBBY_STIM/1159325.bmp_pp67_L2_V1.0_veridical_freeview_isoTrue_fps144_reversed_REAL.mp4",""
"null","","","html-keyboard-response","481","930288","0.0-481.0","n8tb5t59","","<span style=""color:Black; font-size:50px;"">Agent B","null","","","","",""
"null","","","video-keyboard-response","482","933062","0.0-482.0","n8tb5t59","","","null","","Agent B","veridical","FOR_REV_MAP_BLOBBY_STIM/1159325.bmp_pp67_L2_V1.0_veridical_freeview_isoTrue_fps144.mp4",""
"","","","call-function","483","933062","0.0-483.0","n8tb5t59","","","","","","","",""
"1881.3549999999814","{""judgement"":1}","[0]","survey-likert","484","934944","0.0-484.0","n8tb5t59","","","","","","","","1"
"1923.5600000000559","{""confidence"":2}","[0]","survey-likert","485","936869","0.0-485.0","n8tb5t59","","","","","","","",""
"","","","call-function","486","936870","0.0-486.0","n8tb5t59","","","","","","","",""
"null","","","html-keyboard-response","487","938372","0.0-487.0","n8tb5t59","","<span style=""color:Black; font-size:50px;"">Agent A","null","","","","",""
"null","","","video-keyboard-response","488","941148","0.0-488.0","n8tb5t59","","","null","","Agent A","scrambled","FOR_REV_MAP_BLOBBY_STIM/1159329.bmp_pp61_L2_V1.0_veridical_freeview_isoTrue_fps144_reversed_REAL.mp4",""
"null","","","html-keyboard-response","489","942655","0.0-489.0","n8tb5t59","","<span style=""color:Black; font-size:50px;"">Agent B","null","","","","",""
"null","","","video-keyboard-response","490","945453","0.0-490.0","n8tb5t59","","","null","","Agent B","veridical","FOR_REV_MAP_BLOBBY_STIM/1159329.bmp_pp61_L2_V1.0_veridical_freeview_isoTrue_fps144.mp4",""
"","","","call-function","491","945454","0.0-491.0","n8tb5t59","","","","","","","",""
"1655.3549999999814","{""judgement"":1}","[0]","survey-likert","492","947110","0.0-492.0","n8tb5t59","","","","","","","","1"
"1755.9250000000466","{""confidence"":1}","[0]","survey-likert","493","948867","0.0-493.0","n8tb5t59","","","","","","","",""
"","","","call-function","494","948867","0.0-494.0","n8tb5t59","","","","","","","",""
"null","","","html-keyboard-response","495","950372","0.0-495.0","n8tb5t59","","<span style=""color:Black; font-size:50px;"">Agent A","null","","","","",""
"null","","","video-keyboard-response","496","953097","0.0-496.0","n8tb5t59","","","null","","Agent A","scrambled","FOR_REV_MAP_BLOBBY_STIM/1159427.bmp_pp98_L1_V1.0_veridical_freeview_isoTrue_fps144_reversed_REAL.mp4",""
"null","","","html-keyboard-response","497","954599","0.0-497.0","n8tb5t59","","<span style=""color:Black; font-size:50px;"">Agent B","null","","","","",""
"null","","","video-keyboard-response","498","957356","0.0-498.0","n8tb5t59","","","null","","Agent B","veridical","FOR_REV_MAP_BLOBBY_STIM/1159427.bmp_pp98_L1_V1.0_veridical_freeview_isoTrue_fps144.mp4",""
"","","","call-function","499","957356","0.0-499.0","n8tb5t59","","","","","","","",""
"2795.015000000014","{""judgement"":1}","[0]","survey-likert","500","960152","0.0-500.0","n8tb5t59","","","","","","","","1"
"1037.155000000028","{""confidence"":1}","[0]","survey-likert","501","961190","0.0-501.0","n8tb5t59","","","","","","","",""
"1728.0100000000093","","","instructions","502","962919","0.0-502.0","n8tb5t59","[{""page_index"":0,""viewing_time"":812.8099999999395},{""page_index"":1,""viewing_time"":527.9350000000559},{""page_index"":2,""viewing_time"":386.98499999998603}]","","","","","","",""
"571.75","","","instructions","503","963491","0.0-503.0","n8tb5t59","[{""page_index"":0,""viewing_time"":274.4449999999488},{""page_index"":1,""viewing_time"":144.1950000000652},{""page_index"":2,""viewing_time"":152.99499999999534}]","","","","","","",""
"","","","call-function","504","963491","0.0-504.0","n8tb5t59","","","","","","","",""
"null","","","html-keyboard-response","505","964995","0.0-505.0","n8tb5t59","","<span style=""color:Black; font-size:50px;"">Agent A","null","","","","",""
"null","","","video-keyboard-response","506","967809","0.0-506.0","n8tb5t59","","","null","","Agent A","veridical","FOR_REV_MAP_BLOBBY_STIM/1160049.bmp_pp53_L2_V1.0_veridical_freeview_isoTrue_fps144.mp4",""
"null","","","html-keyboard-response","507","969314","0.0-507.0","n8tb5t59","","<span style=""color:Black; font-size:50px;"">Agent B","null","","","","",""
"null","","","video-keyboard-response","508","972085","0.0-508.0","n8tb5t59","","","null","","Agent B","scrambled","FOR_REV_MAP_BLOBBY_STIM/1160049.bmp_pp53_L2_V1.0_veridical_freeview_isoTrue_fps144_reversed_REAL.mp4",""
"","","","call-function","509","972085","0.0-509.0","n8tb5t59","","","","","","","",""
"1539.4499999999534","{""judgement"":1}","[0]","survey-likert","510","973626","0.0-510.0","n8tb5t59","","","","","","","","0"
"2367.1350000000093","{""confidence"":1}","[0]","survey-likert","511","975994","0.0-511.0","n8tb5t59","","","","","","","",""
"","","","call-function","512","975994","0.0-512.0","n8tb5t59","","","","","","","",""
"null","","","html-keyboard-response","513","977500","0.0-513.0","n8tb5t59","","<span style=""color:Black; font-size:50px;"">Agent A","null","","","","",""
"null","","","video-keyboard-response","514","980192","0.0-514.0","n8tb5t59","","","null","","Agent A","veridical","FOR_REV_MAP_BLOBBY_STIM/713788.bmp_pp52_L1_V1.0_veridical_freeview_isoTrue_fps144.mp4",""
"null","","","html-keyboard-response","515","981695","0.0-515.0","n8tb5t59","","<span style=""color:Black; font-size:50px;"">Agent B","null","","","","",""
"null","","","video-keyboard-response","516","984374","0.0-516.0","n8tb5t59","","","null","","Agent B","scrambled","FOR_REV_MAP_BLOBBY_STIM/713788.bmp_pp52_L1_V1.0_veridical_freeview_isoTrue_fps144_reversed_REAL.mp4",""
"","","","call-function","517","984374","0.0-517.0","n8tb5t59","","","","","","","",""
"1737.9650000000838","{""judgement"":0}","[0]","survey-likert","518","986113","0.0-518.0","n8tb5t59","","","","","","","","0"
"1028.1699999999255","{""confidence"":1}","[0]","survey-likert","519","987142","0.0-519.0","n8tb5t59","","","","","","","",""
"","","","call-function","520","987143","0.0-520.0","n8tb5t59","","","","","","","",""
"null","","","html-keyboard-response","521","988646","0.0-521.0","n8tb5t59","","<span style=""color:Black; font-size:50px;"">Agent A","null","","","","",""
"null","","","video-keyboard-response","522","991490","0.0-522.0","n8tb5t59","","","null","","Agent A","veridical","FOR_REV_MAP_BLOBBY_STIM/498396.bmp_pp99_L2_V1.0_veridical_freeview_isoTrue_fps144.mp4",""
"null","","","html-keyboard-response","523","992993","0.0-523.0","n8tb5t59","","<span style=""color:Black; font-size:50px;"">Agent B","null","","","","",""
"null","","","video-keyboard-response","524","995833","0.0-524.0","n8tb5t59","","","null","","Agent B","scrambled","FOR_REV_MAP_BLOBBY_STIM/498396.bmp_pp99_L2_V1.0_veridical_freeview_isoTrue_fps144_reversed_REAL.mp4",""
"","","","call-function","525","995834","0.0-525.0","n8tb5t59","","","","","","","",""
"2550.265000000014","{""judgement"":1}","[0]","survey-likert","526","998385","0.0-526.0","n8tb5t59","","","","","","","","0"
"1530.9000000000233","{""confidence"":1}","[0]","survey-likert","527","999918","0.0-527.0","n8tb5t59","","","","","","","",""
"","","","call-function","528","999919","0.0-528.0","n8tb5t59","","","","","","","",""
"null","","","html-keyboard-response","529","1001423","0.0-529.0","n8tb5t59","","<span style=""color:Black; font-size:50px;"">Agent A","null","","","","",""
"null","","","video-keyboard-response","530","1004221","0.0-530.0","n8tb5t59","","","null","","Agent A","veridical","FOR_REV_MAP_BLOBBY_STIM/107909.bmp_pp95_L2_V1.0_veridical_freeview_isoTrue_fps144.mp4",""
"null","","","html-keyboard-response","531","1005726","0.0-531.0","n8tb5t59","","<span style=""color:Black; font-size:50px;"">Agent B","null","","","","",""
"null","","","video-keyboard-response","532","1008520","0.0-532.0","n8tb5t59","","","null","","Agent B","scrambled","FOR_REV_MAP_BLOBBY_STIM/107909.bmp_pp95_L2_V1.0_veridical_freeview_isoTrue_fps144_reversed_REAL.mp4",""
"","","","call-function","533","1008520","0.0-533.0","n8tb5t59","","","","","","","",""
"15435.544999999925","{""judgement"":1}","[0]","survey-likert","534","1023957","0.0-534.0","n8tb5t59","","","","","","","","0"
"1499.3049999999348","{""confidence"":1}","[0]","survey-likert","535","1025457","0.0-535.0","n8tb5t59","","","","","","","",""
"","","","call-function","536","1025458","0.0-536.0","n8tb5t59","","","","","","","",""
"null","","","html-keyboard-response","537","1026964","0.0-537.0","n8tb5t59","","<span style=""color:Black; font-size:50px;"">Agent A","null","","","","",""
"null","","","video-keyboard-response","538","1029782","0.0-538.0","n8tb5t59","","","null","","Agent A","veridical","FOR_REV_MAP_BLOBBY_STIM/713770.bmp_pp89_L1_V1.0_veridical_freeview_isoTrue_fps144.mp4",""
"null","","","html-keyboard-response","539","1031287","0.0-539.0","n8tb5t59","","<span style=""color:Black; font-size:50px;"">Agent B","null","","","","",""
"null","","","video-keyboard-response","540","1034095","0.0-540.0","n8tb5t59","","","null","","Agent B","scrambled","FOR_REV_MAP_BLOBBY_STIM/713770.bmp_pp89_L1_V1.0_veridical_freeview_isoTrue_fps144_reversed_REAL.mp4",""
"","","","call-function","541","1034095","0.0-541.0","n8tb5t59","","","","","","","",""
"1382.079999999958","{""judgement"":1}","[0]","survey-likert","542","1035478","0.0-542.0","n8tb5t59","","","","","","","","0"
"1310.2750000000233","{""confidence"":1}","[0]","survey-likert","543","1036790","0.0-543.0","n8tb5t59","","","","","","","",""
"","","","call-function","544","1036790","0.0-544.0","n8tb5t59","","","","","","","",""
"null","","","html-keyboard-response","545","1038296","0.0-545.0","n8tb5t59","","<span style=""color:Black; font-size:50px;"">Agent A","null","","","","",""
"null","","","video-keyboard-response","546","1041162","0.0-546.0","n8tb5t59","","","null","","Agent A","veridical","FOR_REV_MAP_BLOBBY_STIM/713381.bmp_pp82_L2_V1.0_veridical_freeview_isoTrue_fps144.mp4",""
"null","","","html-keyboard-response","547","1042664","0.0-547.0","n8tb5t59","","<span style=""color:Black; font-size:50px;"">Agent B","null","","","","",""
"null","","","video-keyboard-response","548","1045496","0.0-548.0","n8tb5t59","","","null","","Agent B","scrambled","FOR_REV_MAP_BLOBBY_STIM/713381.bmp_pp82_L2_V1.0_veridical_freeview_isoTrue_fps144_reversed_REAL.mp4",""
"","","","call-function","549","1045497","0.0-549.0","n8tb5t59","","","","","","","",""
"1349.515000000014","{""judgement"":1}","[0]","survey-likert","550","1046847","0.0-550.0","n8tb5t59","","","","","","","","0"
"1025.6350000000093","{""confidence"":1}","[0]","survey-likert","551","1047874","0.0-551.0","n8tb5t59","","","","","","","",""
"","","","call-function","552","1047875","0.0-552.0","n8tb5t59","","","","","","","",""
"null","","","html-keyboard-response","553","1049377","0.0-553.0","n8tb5t59","","<span style=""color:Black; font-size:50px;"">Agent A","null","","","","",""
"null","","","video-keyboard-response","554","1052209","0.0-554.0","n8tb5t59","","","null","","Agent A","scrambled","FOR_REV_MAP_BLOBBY_STIM/713652.bmp_pp89_L1_V1.0_veridical_freeview_isoTrue_fps144_reversed_REAL.mp4",""
"null","","","html-keyboard-response","555","1053715","0.0-555.0","n8tb5t59","","<span style=""color:Black; font-size:50px;"">Agent B","null","","","","",""
"null","","","video-keyboard-response","556","1056596","0.0-556.0","n8tb5t59","","","null","","Agent B","veridical","FOR_REV_MAP_BLOBBY_STIM/713652.bmp_pp89_L1_V1.0_veridical_freeview_isoTrue_fps144.mp4",""
"","","","call-function","557","1056596","0.0-557.0","n8tb5t59","","","","","","","",""
"2898.875","{""judgement"":0}","[0]","survey-likert","558","1059496","0.0-558.0","n8tb5t59","","","","","","","","1"
"1272.9250000000466","{""confidence"":0}","[0]","survey-likert","559","1060770","0.0-559.0","n8tb5t59","","","","","","","",""
"","","","call-function","560","1060771","0.0-560.0","n8tb5t59","","","","","","","",""
"null","","","html-keyboard-response","561","1062272","0.0-561.0","n8tb5t59","","<span style=""color:Black; font-size:50px;"">Agent A","null","","","","",""
"null","","","video-keyboard-response","562","1065093","0.0-562.0","n8tb5t59","","","null","","Agent A","scrambled","FOR_REV_MAP_BLOBBY_STIM/150277.bmp_pp65_L3_V1.0_veridical_freeview_isoTrue_fps144_reversed_REAL.mp4",""
"null","","","html-keyboard-response","563","1066597","0.0-563.0","n8tb5t59","","<span style=""color:Black; font-size:50px;"">Agent B","null","","","","",""
"null","","","video-keyboard-response","564","1069363","0.0-564.0","n8tb5t59","","","null","","Agent B","veridical","FOR_REV_MAP_BLOBBY_STIM/150277.bmp_pp65_L3_V1.0_veridical_freeview_isoTrue_fps144.mp4",""
"","","","call-function","565","1069363","0.0-565.0","n8tb5t59","","","","","","","",""
"2010.6499999999069","{""judgement"":1}","[0]","survey-likert","566","1071375","0.0-566.0","n8tb5t59","","","","","","","","1"
"1327.4299999999348","{""confidence"":1}","[0]","survey-likert","567","1072703","0.0-567.0","n8tb5t59","","","","","","","",""
"","","","call-function","568","1072704","0.0-568.0","n8tb5t59","","","","","","","",""
"null","","","html-keyboard-response","569","1074210","0.0-569.0","n8tb5t59","","<span style=""color:Black; font-size:50px;"">Agent A","null","","","","",""
"null","","","video-keyboard-response","570","1076828","0.0-570.0","n8tb5t59","","","null","","Agent A","scrambled","FOR_REV_MAP_BLOBBY_STIM/713633.bmp_pp58_L1_V1.0_veridical_freeview_isoTrue_fps144_reversed_REAL.mp4",""
"null","","","html-keyboard-response","571","1078332","0.0-571.0","n8tb5t59","","<span style=""color:Black; font-size:50px;"">Agent B","null","","","","",""
"null","","","video-keyboard-response","572","1080937","0.0-572.0","n8tb5t59","","","null","","Agent B","veridical","FOR_REV_MAP_BLOBBY_STIM/713633.bmp_pp58_L1_V1.0_veridical_freeview_isoTrue_fps144.mp4",""
"","","","call-function","573","1080937","0.0-573.0","n8tb5t59","","","","","","","",""
"1598.844999999972","{""judgement"":0}","[0]","survey-likert","574","1082537","0.0-574.0","n8tb5t59","","","","","","","","1"
"6175.40000000014","{""confidence"":1}","[0]","survey-likert","575","1088714","0.0-575.0","n8tb5t59","","","","","","","",""
"","","","call-function","576","1088714","0.0-576.0","n8tb5t59","","","","","","","",""
"null","","","html-keyboard-response","577","1090216","0.0-577.0","n8tb5t59","","<span style=""color:Black; font-size:50px;"">Agent A","null","","","","",""
"null","","","video-keyboard-response","578","1093067","0.0-578.0","n8tb5t59","","","null","","Agent A","scrambled","FOR_REV_MAP_BLOBBY_STIM/713829.bmp_pp60_L3_V1.0_veridical_freeview_isoTrue_fps144_reversed_REAL.mp4",""
"null","","","html-keyboard-response","579","1094571","0.0-579.0","n8tb5t59","","<span style=""color:Black; font-size:50px;"">Agent B","null","","","","",""
"null","","","video-keyboard-response","580","1097418","0.0-580.0","n8tb5t59","","","null","","Agent B","veridical","FOR_REV_MAP_BLOBBY_STIM/713829.bmp_pp60_L3_V1.0_veridical_freeview_isoTrue_fps144.mp4",""
"","","","call-function","581","1097418","0.0-581.0","n8tb5t59","","","","","","","",""
"1593.5900000000838","{""judgement"":1}","[0]","survey-likert","582","1099013","0.0-582.0","n8tb5t59","","","","","","","","1"
"1373.9149999998044","{""confidence"":1}","[0]","survey-likert","583","1100388","0.0-583.0","n8tb5t59","","","","","","","",""
"988.5149999998976","","","instructions","584","1101377","0.0-584.0","n8tb5t59","[{""page_index"":0,""viewing_time"":988.3049999999348}]","","","","","","",""
"795.1700000001583","","","instructions","585","1102173","0.0-585.0","n8tb5t59","[{""page_index"":0,""viewing_time"":795.065000000177}]","","","","","","",""
"4850.60999999987","{""post-1"":2}","[0]","survey-likert","586","1107026","0.0-586.0","n8tb5t59","","","","","","","",""
"9400.75","{""post-1"":1}","[0]","survey-likert","587","1116430","0.0-587.0","n8tb5t59","","","","","","","",""
"7225.645000000019","{""post-2"":2}","[0]","survey-likert","588","1123658","0.0-588.0","n8tb5t59","","","","","","","",""
"3520.1099999998696","{""post-2"":2}","[0]","survey-likert","589","1127179","0.0-589.0","n8tb5t59","","","","","","","",""
"3806.089999999851","{""post-3"":3}","[0]","survey-likert","590","1130987","0.0-590.0","n8tb5t59","","","","","","","",""
"2424.0149999998976","{""post-3"":2}","[0]","survey-likert","591","1133412","0.0-591.0","n8tb5t59","","","","","","","",""
"2892.1299999998882","{""post-4"":3}","[0]","survey-likert","592","1136306","0.0-592.0","n8tb5t59","","","","","","","",""
"3342.220000000205","{""post-4"":1}","[0]","survey-likert","593","1139649","0.0-593.0","n8tb5t59","","","","","","","",""
"4777.10999999987","{""post-5"":1}","[0]","survey-likert","594","1144427","0.0-594.0","n8tb5t59","","","","","","","",""
"1513.0400000000373","{""post-5"":1}","[0]","survey-likert","595","1145942","0.0-595.0","n8tb5t59","","","","","","","",""
"39240.70499999984","{""Q0"":""For most trials, both agents seemed pretty real to me. I just tried following the hotspot with my own eyes and intuitively chose the one that felt more natural""}","","survey-text","596","1185193","0.0-596.0","n8tb5t59","","","","","","","",""
"59682.02499999991","{""Q0"":""I thought that the ones with attention hotspots beginning in the middle of the screen were more natural because that is what I would do. And the ones where the hotspot moved around more randomly instead of clockwise/anticlockwise felt more natural. ""}","","survey-text","597","1244879","0.0-597.0","n8tb5t59","","","","","","","",""
"25660.459999999963","{""Q0"":""Trying to make a decision but forgetting how the first agent's hotspot moved around""}","","survey-text","598","1270543","0.0-598.0","n8tb5t59","","","","","","","",""
"758.8200000000652","","","instructions","599","1271302","0.0-599.0","n8tb5t59","[{""page_index"":0,""viewing_time"":758.6149999999907}]","","","","","","",""
"78412.89500000002","{""Experimenter_end"":[""Printed ID# n8tb5t59 on consent form"",""Given subject SONA credit or payment"",""Given the subject debrief form""]}","[0]","survey-multi-select","600","1349718","0.0-600.0","n8tb5t59","","","","","","","",""
