"rt","responses","question_order","trial_type","trial_index","time_elapsed","internal_node_id","ID","view_history","stimulus","key_press","value","agent","condition","image","correct_answer"
"114765.88","{""Experimenter"":[""Confirmed subject's identity"",""Confirmed normal or corrected-to-normal vision"",""Obtained consent (signature and date)"",""Checked the test room lighting"",""Checked computer screen lighting"",""Checked distance from screen to chin rest (50cm)"",""Cleaned and adjusted chin rest"",""Counterbalanced the order of the tasks"",""Opened the experiment in Firefox"",""Made the experiment full screen"",""Encouraged subject to silence phone, put away distractors, etc.""]}","[0]","survey-multi-select","0","114774","0.0-0.0","nz5snwtu","","","","","","","",""
"90648.96","","","instructions","1","205425","0.0-1.0","nz5snwtu","[{""page_index"":0,""viewing_time"":90648.80500000001}]","","","","","","",""
"27246.630000000005","","","instructions","2","232672","0.0-2.0","nz5snwtu","[{""page_index"":0,""viewing_time"":13933.475000000006},{""page_index"":1,""viewing_time"":1699.015000000014},{""page_index"":2,""viewing_time"":11614.01999999999}]","","","","","","",""
"4822.414999999979","","","instructions","3","237495","0.0-3.0","nz5snwtu","[{""page_index"":0,""viewing_time"":4822.309999999998}]","","","","","","",""
"null","","","video-keyboard-response","4","240573","0.0-4.0","nz5snwtu","","","null","","","","",""
"15224.889999999985","","","instructions","5","255799","0.0-5.0","nz5snwtu","[{""page_index"":0,""viewing_time"":3585.875},{""page_index"":1,""viewing_time"":4993.389999999985},{""page_index"":2,""viewing_time"":6645.445000000007}]","","","","","","",""
"3435.804999999993","","","instructions","6","259236","0.0-6.0","nz5snwtu","[{""page_index"":0,""viewing_time"":3435.694999999978}]","","","","","","",""
"1418.3600000000151","","","instructions","7","260655","0.0-7.0","nz5snwtu","[{""page_index"":0,""viewing_time"":1418.2450000000244}]","","","","","","",""
"null","","","video-keyboard-response","8","263731","0.0-8.0","nz5snwtu","","","null","","","","",""
"17915.5","","","instructions","9","281648","0.0-9.0","nz5snwtu","[{""page_index"":0,""viewing_time"":1683.3300000000163},{""page_index"":1,""viewing_time"":5353.885000000009},{""page_index"":2,""viewing_time"":10878.15499999997}]","","","","","","",""
"8468.339999999967","","","instructions","10","290116","0.0-10.0","nz5snwtu","[{""page_index"":0,""viewing_time"":8468.229999999981}]","","","","","","",""
"","","","call-function","11","290117","0.0-11.0","nz5snwtu","","","","","","","",""
"null","","","html-keyboard-response","12","291623","0.0-12.0","nz5snwtu","","<span style=""color:Black; font-size:50px;"">Agent A","null","","","","",""
"null","","","video-keyboard-response","13","294699","0.0-13.0","nz5snwtu","","","null","","Agent A","veridical","STIM_SET_2/1592129.bmp_pp153_L3_V1.0_veridical_freeview_isoTrue.mp4",""
"null","","","html-keyboard-response","14","296201","0.0-14.0","nz5snwtu","","<span style=""color:Black; font-size:50px;"">Agent B","null","","","","",""
"null","","","video-keyboard-response","15","299274","0.0-15.0","nz5snwtu","","","null","","Agent B","scrambled","STIM_SET_2/1592129.bmp_pp153_L3_V1.0_scrambled_freeview_isoTrue.mp4",""
"","","","call-function","16","299275","0.0-16.0","nz5snwtu","","","","","","","",""
"2695.3250000000116","{""judgement"":0}","[0]","survey-likert","17","301971","0.0-17.0","nz5snwtu","","","","","","","","0"
"4969.505000000005","{""confidence"":2}","[0]","survey-likert","18","306942","0.0-18.0","nz5snwtu","","","","","","","",""
"","","","call-function","19","306943","0.0-19.0","nz5snwtu","","","","","","","",""
"null","","","html-keyboard-response","20","308445","0.0-20.0","nz5snwtu","","<span style=""color:Black; font-size:50px;"">Agent A","null","","","","",""
"null","","","video-keyboard-response","21","311523","0.0-21.0","nz5snwtu","","","null","","Agent A","veridical","STIM_SET_2/713381.bmp_pp82_L2_V1.0_veridical_freeview_isoTrue.mp4",""
"null","","","html-keyboard-response","22","313028","0.0-22.0","nz5snwtu","","<span style=""color:Black; font-size:50px;"">Agent B","null","","","","",""
"null","","","video-keyboard-response","23","316135","0.0-23.0","nz5snwtu","","","null","","Agent B","scrambled","STIM_SET_2/713381.bmp_pp82_L2_V1.0_scrambled_freeview_isoTrue.mp4",""
"","","","call-function","24","316136","0.0-24.0","nz5snwtu","","","","","","","",""
"2976.929999999993","{""judgement"":0}","[0]","survey-likert","25","319114","0.0-25.0","nz5snwtu","","","","","","","","0"
"2213.125","{""confidence"":2}","[0]","survey-likert","26","321328","0.0-26.0","nz5snwtu","","","","","","","",""
"","","","call-function","27","321329","0.0-27.0","nz5snwtu","","","","","","","",""
"null","","","html-keyboard-response","28","322833","0.0-28.0","nz5snwtu","","<span style=""color:Black; font-size:50px;"">Agent A","null","","","","",""
"null","","","video-keyboard-response","29","325915","0.0-29.0","nz5snwtu","","","null","","Agent A","scrambled","STIM_SET_2/498398.bmp_pp81_L1_V1.0_scrambled_freeview_isoTrue.mp4",""
"null","","","html-keyboard-response","30","327416","0.0-30.0","nz5snwtu","","<span style=""color:Black; font-size:50px;"">Agent B","null","","","","",""
"null","","","video-keyboard-response","31","330482","0.0-31.0","nz5snwtu","","","null","","Agent B","veridical","STIM_SET_2/498398.bmp_pp81_L1_V1.0_veridical_freeview_isoTrue.mp4",""
"","","","call-function","32","330482","0.0-32.0","nz5snwtu","","","","","","","",""
"3350.969999999972","{""judgement"":1}","[0]","survey-likert","33","333834","0.0-33.0","nz5snwtu","","","","","","","","1"
"3014.0299999999697","{""confidence"":3}","[0]","survey-likert","34","336849","0.0-34.0","nz5snwtu","","","","","","","",""
"","","","call-function","35","336850","0.0-35.0","nz5snwtu","","","","","","","",""
"null","","","html-keyboard-response","36","338352","0.0-36.0","nz5snwtu","","<span style=""color:Black; font-size:50px;"">Agent A","null","","","","",""
"null","","","video-keyboard-response","37","341455","0.0-37.0","nz5snwtu","","","null","","Agent A","veridical","STIM_SET_2/498396.bmp_pp99_L2_V1.0_veridical_freeview_isoTrue.mp4",""
"null","","","html-keyboard-response","38","342961","0.0-38.0","nz5snwtu","","<span style=""color:Black; font-size:50px;"">Agent B","null","","","","",""
"null","","","video-keyboard-response","39","346065","0.0-39.0","nz5snwtu","","","null","","Agent B","scrambled","STIM_SET_2/498396.bmp_pp99_L2_V1.0_scrambled_freeview_isoTrue.mp4",""
"","","","call-function","40","346066","0.0-40.0","nz5snwtu","","","","","","","",""
"2819.445000000007","{""judgement"":0}","[0]","survey-likert","41","348886","0.0-41.0","nz5snwtu","","","","","","","","0"
"2094.8549999999814","{""confidence"":1}","[0]","survey-likert","42","350982","0.0-42.0","nz5snwtu","","","","","","","",""
"","","","call-function","43","350983","0.0-43.0","nz5snwtu","","","","","","","",""
"null","","","html-keyboard-response","44","352484","0.0-44.0","nz5snwtu","","<span style=""color:Black; font-size:50px;"">Agent A","null","","","","",""
"null","","","video-keyboard-response","45","355584","0.0-45.0","nz5snwtu","","","null","","Agent A","scrambled","STIM_SET_2/1592017.bmp_pp154_L1_V1.0_scrambled_freeview_isoTrue.mp4",""
"null","","","html-keyboard-response","46","357089","0.0-46.0","nz5snwtu","","<span style=""color:Black; font-size:50px;"">Agent B","null","","","","",""
"null","","","video-keyboard-response","47","363520","0.0-47.0","nz5snwtu","","","null","","Agent B","veridical","STIM_SET_2/1592017.bmp_pp154_L1_V1.0_veridical_freeview_isoTrue.mp4",""
"","","","call-function","48","363521","0.0-48.0","nz5snwtu","","","","","","","",""
"4012.195000000007","{""judgement"":1}","[0]","survey-likert","49","367535","0.0-49.0","nz5snwtu","","","","","","","","1"
"1602.5899999999674","{""confidence"":0}","[0]","survey-likert","50","369139","0.0-50.0","nz5snwtu","","","","","","","",""
"","","","call-function","51","369139","0.0-51.0","nz5snwtu","","","","","","","",""
"null","","","html-keyboard-response","52","370643","0.0-52.0","nz5snwtu","","<span style=""color:Black; font-size:50px;"">Agent A","null","","","","",""
"null","","","video-keyboard-response","53","373722","0.0-53.0","nz5snwtu","","","null","","Agent A","veridical","STIM_SET_2/713920.bmp_pp76_L1_V1.0_veridical_freeview_isoTrue.mp4",""
"null","","","html-keyboard-response","54","375226","0.0-54.0","nz5snwtu","","<span style=""color:Black; font-size:50px;"">Agent B","null","","","","",""
"null","","","video-keyboard-response","55","378301","0.0-55.0","nz5snwtu","","","null","","Agent B","scrambled","STIM_SET_2/713920.bmp_pp76_L1_V1.0_scrambled_freeview_isoTrue.mp4",""
"","","","call-function","56","378302","0.0-56.0","nz5snwtu","","","","","","","",""
"2281.490000000049","{""judgement"":0}","[0]","survey-likert","57","380585","0.0-57.0","nz5snwtu","","","","","","","","0"
"2778.5200000000186","{""confidence"":2}","[0]","survey-likert","58","383365","0.0-58.0","nz5snwtu","","","","","","","",""
"","","","call-function","59","383365","0.0-59.0","nz5snwtu","","","","","","","",""
"null","","","html-keyboard-response","60","384866","0.0-60.0","nz5snwtu","","<span style=""color:Black; font-size:50px;"">Agent A","null","","","","",""
"null","","","video-keyboard-response","61","387940","0.0-61.0","nz5snwtu","","","null","","Agent A","veridical","STIM_SET_2/1592150.bmp_pp77_L3_V1.0_veridical_freeview_isoTrue.mp4",""
"null","","","html-keyboard-response","62","389446","0.0-62.0","nz5snwtu","","<span style=""color:Black; font-size:50px;"">Agent B","null","","","","",""
"null","","","video-keyboard-response","63","392543","0.0-63.0","nz5snwtu","","","null","","Agent B","scrambled","STIM_SET_2/1592150.bmp_pp77_L3_V1.0_scrambled_freeview_isoTrue.mp4",""
"","","","call-function","64","392544","0.0-64.0","nz5snwtu","","","","","","","",""
"3511.164999999979","{""judgement"":1}","[0]","survey-likert","65","396056","0.0-65.0","nz5snwtu","","","","","","","","0"
"1425.4649999999674","{""confidence"":1}","[0]","survey-likert","66","397483","0.0-66.0","nz5snwtu","","","","","","","",""
"","","","call-function","67","397483","0.0-67.0","nz5snwtu","","","","","","","",""
"null","","","html-keyboard-response","68","398986","0.0-68.0","nz5snwtu","","<span style=""color:Black; font-size:50px;"">Agent A","null","","","","",""
"null","","","video-keyboard-response","69","402086","0.0-69.0","nz5snwtu","","","null","","Agent A","scrambled","STIM_SET_2/1592038.bmp_pp79_L2_V1.0_scrambled_freeview_isoTrue.mp4",""
"null","","","html-keyboard-response","70","403587","0.0-70.0","nz5snwtu","","<span style=""color:Black; font-size:50px;"">Agent B","null","","","","",""
"null","","","video-keyboard-response","71","406681","0.0-71.0","nz5snwtu","","","null","","Agent B","veridical","STIM_SET_2/1592038.bmp_pp79_L2_V1.0_veridical_freeview_isoTrue.mp4",""
"","","","call-function","72","406682","0.0-72.0","nz5snwtu","","","","","","","",""
"1779.899999999965","{""judgement"":0}","[0]","survey-likert","73","408463","0.0-73.0","nz5snwtu","","","","","","","","1"
"5286.099999999977","{""confidence"":1}","[0]","survey-likert","74","413750","0.0-74.0","nz5snwtu","","","","","","","",""
"","","","call-function","75","413751","0.0-75.0","nz5snwtu","","","","","","","",""
"null","","","html-keyboard-response","76","415253","0.0-76.0","nz5snwtu","","<span style=""color:Black; font-size:50px;"">Agent A","null","","","","",""
"null","","","video-keyboard-response","77","418358","0.0-77.0","nz5snwtu","","","null","","Agent A","scrambled","STIM_SET_2/498372.bmp_pp95_L2_V1_scrambled_freeview_isoTrue.mp4",""
"null","","","html-keyboard-response","78","419863","0.0-78.0","nz5snwtu","","<span style=""color:Black; font-size:50px;"">Agent B","null","","","","",""
"null","","","video-keyboard-response","79","422966","0.0-79.0","nz5snwtu","","","null","","Agent B","veridical","STIM_SET_2/498372.bmp_pp95_L2_V1_veridical_freeview_isoTrue.mp4",""
"","","","call-function","80","422967","0.0-80.0","nz5snwtu","","","","","","","",""
"3223.4349999999977","{""judgement"":0}","[0]","survey-likert","81","426191","0.0-81.0","nz5snwtu","","","","","","","","1"
"2376.929999999993","{""confidence"":1}","[0]","survey-likert","82","428569","0.0-82.0","nz5snwtu","","","","","","","",""
"","","","call-function","83","428570","0.0-83.0","nz5snwtu","","","","","","","",""
"null","","","html-keyboard-response","84","430077","0.0-84.0","nz5snwtu","","<span style=""color:Black; font-size:50px;"">Agent A","null","","","","",""
"null","","","video-keyboard-response","85","433153","0.0-85.0","nz5snwtu","","","null","","Agent A","scrambled","STIM_SET_2/107909.bmp_pp95_L2_V1.0_scrambled_freeview_isoTrue.mp4",""
"null","","","html-keyboard-response","86","434657","0.0-86.0","nz5snwtu","","<span style=""color:Black; font-size:50px;"">Agent B","null","","","","",""
"null","","","video-keyboard-response","87","437737","0.0-87.0","nz5snwtu","","","null","","Agent B","veridical","STIM_SET_2/107909.bmp_pp95_L2_V1.0_veridical_freeview_isoTrue.mp4",""
"","","","call-function","88","437737","0.0-88.0","nz5snwtu","","","","","","","",""
"1946.5999999999767","{""judgement"":0}","[0]","survey-likert","89","439685","0.0-89.0","nz5snwtu","","","","","","","","1"
"3098.329999999958","{""confidence"":2}","[0]","survey-likert","90","442784","0.0-90.0","nz5snwtu","","","","","","","",""
"82984.92500000005","","","instructions","91","525770","0.0-91.0","nz5snwtu","[{""page_index"":0,""viewing_time"":1718.1199999999953},{""page_index"":1,""viewing_time"":81213.91000000003},{""page_index"":2,""viewing_time"":52.25}]","","","","","","",""
"5227.744999999995","","","instructions","92","530999","0.0-92.0","nz5snwtu","[{""page_index"":0,""viewing_time"":1723.8649999999907},{""page_index"":1,""viewing_time"":2220.7600000000093},{""page_index"":2,""viewing_time"":1283.0100000000093}]","","","","","","",""
"","","","call-function","93","531000","0.0-93.0","nz5snwtu","","","","","","","",""
"null","","","html-keyboard-response","94","532503","0.0-94.0","nz5snwtu","","<span style=""color:Black; font-size:50px;"">Agent A","null","","","","",""
"null","","","video-keyboard-response","95","535579","0.0-95.0","nz5snwtu","","","null","","Agent A","scrambled","STIM_SET_2/1159329.bmp_pp61_L2_V1.0_scrambled_freeview_isoTrue.mp4",""
"null","","","html-keyboard-response","96","537082","0.0-96.0","nz5snwtu","","<span style=""color:Black; font-size:50px;"">Agent B","null","","","","",""
"null","","","video-keyboard-response","97","540159","0.0-97.0","nz5snwtu","","","null","","Agent B","veridical","STIM_SET_2/1159329.bmp_pp61_L2_V1.0_veridical_freeview_isoTrue.mp4",""
"","","","call-function","98","540159","0.0-98.0","nz5snwtu","","","","","","","",""
"1842.4500000000698","{""judgement"":1}","[0]","survey-likert","99","542003","0.0-99.0","nz5snwtu","","","","","","","","1"
"1739.844999999972","{""confidence"":1}","[0]","survey-likert","100","543744","0.0-100.0","nz5snwtu","","","","","","","",""
"","","","call-function","101","543745","0.0-101.0","nz5snwtu","","","","","","","",""
"null","","","html-keyboard-response","102","545251","0.0-102.0","nz5snwtu","","<span style=""color:Black; font-size:50px;"">Agent A","null","","","","",""
"null","","","video-keyboard-response","103","548321","0.0-103.0","nz5snwtu","","","null","","Agent A","scrambled","STIM_SET_2/1591975.bmp_pp88_L2_V1.0_scrambled_freeview_isoTrue.mp4",""
"null","","","html-keyboard-response","104","549823","0.0-104.0","nz5snwtu","","<span style=""color:Black; font-size:50px;"">Agent B","null","","","","",""
"null","","","video-keyboard-response","105","552890","0.0-105.0","nz5snwtu","","","null","","Agent B","veridical","STIM_SET_2/1591975.bmp_pp88_L2_V1.0_veridical_freeview_isoTrue.mp4",""
"","","","call-function","106","552890","0.0-106.0","nz5snwtu","","","","","","","",""
"3955.359999999986","{""judgement"":1}","[0]","survey-likert","107","556847","0.0-107.0","nz5snwtu","","","","","","","","1"
"1629","{""confidence"":1}","[0]","survey-likert","108","558477","0.0-108.0","nz5snwtu","","","","","","","",""
"","","","call-function","109","558477","0.0-109.0","nz5snwtu","","","","","","","",""
"null","","","html-keyboard-response","110","559981","0.0-110.0","nz5snwtu","","<span style=""color:Black; font-size:50px;"">Agent A","null","","","","",""
"null","","","video-keyboard-response","111","563050","0.0-111.0","nz5snwtu","","","null","","Agent A","veridical","STIM_SET_2/1159325.bmp_pp67_L2_V1.0_veridical_freeview_isoTrue.mp4",""
"null","","","html-keyboard-response","112","564556","0.0-112.0","nz5snwtu","","<span style=""color:Black; font-size:50px;"">Agent B","null","","","","",""
"null","","","video-keyboard-response","113","567623","0.0-113.0","nz5snwtu","","","null","","Agent B","scrambled","STIM_SET_2/1159325.bmp_pp67_L2_V1.0_scrambled_freeview_isoTrue.mp4",""
"","","","call-function","114","567624","0.0-114.0","nz5snwtu","","","","","","","",""
"1533.594999999972","{""judgement"":0}","[0]","survey-likert","115","569159","0.0-115.0","nz5snwtu","","","","","","","","0"
"1478.6849999999395","{""confidence"":2}","[0]","survey-likert","116","570638","0.0-116.0","nz5snwtu","","","","","","","",""
"","","","call-function","117","570639","0.0-117.0","nz5snwtu","","","","","","","",""
"null","","","html-keyboard-response","118","572145","0.0-118.0","nz5snwtu","","<span style=""color:Black; font-size:50px;"">Agent A","null","","","","",""
"null","","","video-keyboard-response","119","575203","0.0-119.0","nz5snwtu","","","null","","Agent A","veridical","STIM_SET_2/1159860.bmp_pp152_L2_V1.0_veridical_freeview_isoTrue.mp4",""
"null","","","html-keyboard-response","120","576708","0.0-120.0","nz5snwtu","","<span style=""color:Black; font-size:50px;"">Agent B","null","","","","",""
"null","","","video-keyboard-response","121","579765","0.0-121.0","nz5snwtu","","","null","","Agent B","scrambled","STIM_SET_2/1159860.bmp_pp152_L2_V1.0_scrambled_freeview_isoTrue.mp4",""
"","","","call-function","122","579766","0.0-122.0","nz5snwtu","","","","","","","",""
"1711.0549999999348","{""judgement"":0}","[0]","survey-likert","123","581478","0.0-123.0","nz5snwtu","","","","","","","","0"
"2198.144999999902","{""confidence"":2}","[0]","survey-likert","124","583677","0.0-124.0","nz5snwtu","","","","","","","",""
"","","","call-function","125","583678","0.0-125.0","nz5snwtu","","","","","","","",""
"null","","","html-keyboard-response","126","585179","0.0-126.0","nz5snwtu","","<span style=""color:Black; font-size:50px;"">Agent A","null","","","","",""
"null","","","video-keyboard-response","127","588267","0.0-127.0","nz5snwtu","","","null","","Agent A","scrambled","STIM_SET_2/285946.bmp_pp79_L2_V1.0_scrambled_freeview_isoTrue.mp4",""
"null","","","html-keyboard-response","128","589770","0.0-128.0","nz5snwtu","","<span style=""color:Black; font-size:50px;"">Agent B","null","","","","",""
"null","","","video-keyboard-response","129","592859","0.0-129.0","nz5snwtu","","","null","","Agent B","veridical","STIM_SET_2/285946.bmp_pp79_L2_V1.0_veridical_freeview_isoTrue.mp4",""
"","","","call-function","130","592859","0.0-130.0","nz5snwtu","","","","","","","",""
"3768.4949999999953","{""judgement"":0}","[0]","survey-likert","131","596629","0.0-131.0","nz5snwtu","","","","","","","","1"
"1720.8699999999953","{""confidence"":0}","[0]","survey-likert","132","598351","0.0-132.0","nz5snwtu","","","","","","","",""
"","","","call-function","133","598352","0.0-133.0","nz5snwtu","","","","","","","",""
"null","","","html-keyboard-response","134","599854","0.0-134.0","nz5snwtu","","<span style=""color:Black; font-size:50px;"">Agent A","null","","","","",""
"null","","","video-keyboard-response","135","602925","0.0-135.0","nz5snwtu","","","null","","Agent A","veridical","STIM_SET_2/1159973.bmp_pp98_L1_V1.0_veridical_freeview_isoTrue.mp4",""
"null","","","html-keyboard-response","136","604426","0.0-136.0","nz5snwtu","","<span style=""color:Black; font-size:50px;"">Agent B","null","","","","",""
"null","","","video-keyboard-response","137","607502","0.0-137.0","nz5snwtu","","","null","","Agent B","scrambled","STIM_SET_2/1159973.bmp_pp98_L1_V1.0_scrambled_freeview_isoTrue.mp4",""
"","","","call-function","138","607503","0.0-138.0","nz5snwtu","","","","","","","",""
"3655.6600000000326","{""judgement"":0}","[0]","survey-likert","139","611159","0.0-139.0","nz5snwtu","","","","","","","","0"
"1674.344999999972","{""confidence"":0}","[0]","survey-likert","140","612835","0.0-140.0","nz5snwtu","","","","","","","",""
"","","","call-function","141","612835","0.0-141.0","nz5snwtu","","","","","","","",""
"null","","","html-keyboard-response","142","614337","0.0-142.0","nz5snwtu","","<span style=""color:Black; font-size:50px;"">Agent A","null","","","","",""
"null","","","video-keyboard-response","143","617415","0.0-143.0","nz5snwtu","","","null","","Agent A","scrambled","STIM_SET_2/713633.bmp_pp58_L1_V1.0_scrambled_freeview_isoTrue.mp4",""
"null","","","html-keyboard-response","144","618921","0.0-144.0","nz5snwtu","","<span style=""color:Black; font-size:50px;"">Agent B","null","","","","",""
"null","","","video-keyboard-response","145","621999","0.0-145.0","nz5snwtu","","","null","","Agent B","veridical","STIM_SET_2/713633.bmp_pp58_L1_V1.0_veridical_freeview_isoTrue.mp4",""
"","","","call-function","146","622000","0.0-146.0","nz5snwtu","","","","","","","",""
"4133.729999999981","{""judgement"":1}","[0]","survey-likert","147","626135","0.0-147.0","nz5snwtu","","","","","","","","1"
"1930.0499999999302","{""confidence"":0}","[0]","survey-likert","148","628067","0.0-148.0","nz5snwtu","","","","","","","",""
"","","","call-function","149","628068","0.0-149.0","nz5snwtu","","","","","","","",""
"null","","","html-keyboard-response","150","629574","0.0-150.0","nz5snwtu","","<span style=""color:Black; font-size:50px;"">Agent A","null","","","","",""
"null","","","video-keyboard-response","151","632676","0.0-151.0","nz5snwtu","","","null","","Agent A","scrambled","STIM_SET_2/1592047.bmp_pp51_L1_V1.0_scrambled_freeview_isoTrue.mp4",""
"null","","","html-keyboard-response","152","634179","0.0-152.0","nz5snwtu","","<span style=""color:Black; font-size:50px;"">Agent B","null","","","","",""
"null","","","video-keyboard-response","153","637270","0.0-153.0","nz5snwtu","","","null","","Agent B","veridical","STIM_SET_2/1592047.bmp_pp51_L1_V1.0_veridical_freeview_isoTrue.mp4",""
"","","","call-function","154","637271","0.0-154.0","nz5snwtu","","","","","","","",""
"7034.959999999963","{""judgement"":0}","[0]","survey-likert","155","644308","0.0-155.0","nz5snwtu","","","","","","","","1"
"2903.5250000000233","{""confidence"":1}","[0]","survey-likert","156","647213","0.0-156.0","nz5snwtu","","","","","","","",""
"","","","call-function","157","647213","0.0-157.0","nz5snwtu","","","","","","","",""
"null","","","html-keyboard-response","158","648714","0.0-158.0","nz5snwtu","","<span style=""color:Black; font-size:50px;"">Agent A","null","","","","",""
"null","","","video-keyboard-response","159","651790","0.0-159.0","nz5snwtu","","","null","","Agent A","scrambled","STIM_SET_2/713788.bmp_pp52_L1_V1.0_scrambled_freeview_isoTrue.mp4",""
"null","","","html-keyboard-response","160","653293","0.0-160.0","nz5snwtu","","<span style=""color:Black; font-size:50px;"">Agent B","null","","","","",""
"null","","","video-keyboard-response","161","656369","0.0-161.0","nz5snwtu","","","null","","Agent B","veridical","STIM_SET_2/713788.bmp_pp52_L1_V1.0_veridical_freeview_isoTrue.mp4",""
"","","","call-function","162","656370","0.0-162.0","nz5snwtu","","","","","","","",""
"2216.954999999958","{""judgement"":1}","[0]","survey-likert","163","658588","0.0-163.0","nz5snwtu","","","","","","","","1"
"1580.1549999999115","{""confidence"":2}","[0]","survey-likert","164","660170","0.0-164.0","nz5snwtu","","","","","","","",""
"","","","call-function","165","660170","0.0-165.0","nz5snwtu","","","","","","","",""
"null","","","html-keyboard-response","166","661673","0.0-166.0","nz5snwtu","","<span style=""color:Black; font-size:50px;"">Agent A","null","","","","",""
"null","","","video-keyboard-response","167","664750","0.0-167.0","nz5snwtu","","","null","","Agent A","scrambled","STIM_SET_2/150277.bmp_pp65_L3_V1.0_scrambled_freeview_isoTrue.mp4",""
"null","","","html-keyboard-response","168","666252","0.0-168.0","nz5snwtu","","<span style=""color:Black; font-size:50px;"">Agent B","null","","","","",""
"null","","","video-keyboard-response","169","669352","0.0-169.0","nz5snwtu","","","null","","Agent B","veridical","STIM_SET_2/150277.bmp_pp65_L3_V1.0_veridical_freeview_isoTrue.mp4",""
"","","","call-function","170","669352","0.0-170.0","nz5snwtu","","","","","","","",""
"1737.8800000000047","{""judgement"":1}","[0]","survey-likert","171","671091","0.0-171.0","nz5snwtu","","","","","","","","1"
"1570.390000000014","{""confidence"":2}","[0]","survey-likert","172","672663","0.0-172.0","nz5snwtu","","","","","","","",""
"10511.604999999981","","","instructions","173","683175","0.0-173.0","nz5snwtu","[{""page_index"":0,""viewing_time"":1550.280000000028},{""page_index"":1,""viewing_time"":7659.244999999995},{""page_index"":2,""viewing_time"":1301.9100000000326}]","","","","","","",""
"13772.375","","","instructions","174","696948","0.0-174.0","nz5snwtu","[{""page_index"":0,""viewing_time"":8431.670000000042},{""page_index"":1,""viewing_time"":1615.594999999972},{""page_index"":2,""viewing_time"":3724.8950000000186}]","","","","","","",""
"","","","call-function","175","696948","0.0-175.0","nz5snwtu","","","","","","","",""
"null","","","html-keyboard-response","176","698453","0.0-176.0","nz5snwtu","","<span style=""color:Black; font-size:50px;"">Agent A","null","","","","",""
"null","","","video-keyboard-response","177","701526","0.0-177.0","nz5snwtu","","","null","","Agent A","veridical","STIM_SET_2/1592289.bmp_pp92_L3_V1.0_veridical_freeview_isoTrue.mp4",""
"null","","","html-keyboard-response","178","703027","0.0-178.0","nz5snwtu","","<span style=""color:Black; font-size:50px;"">Agent B","null","","","","",""
"null","","","video-keyboard-response","179","706090","0.0-179.0","nz5snwtu","","","null","","Agent B","scrambled","STIM_SET_2/1592289.bmp_pp92_L3_V1.0_scrambled_freeview_isoTrue.mp4",""
"","","","call-function","180","706090","0.0-180.0","nz5snwtu","","","","","","","",""
"6878.764999999898","{""judgement"":0}","[0]","survey-likert","181","712970","0.0-181.0","nz5snwtu","","","","","","","","0"
"1872.0999999999767","{""confidence"":1}","[0]","survey-likert","182","714843","0.0-182.0","nz5snwtu","","","","","","","",""
"","","","call-function","183","714844","0.0-183.0","nz5snwtu","","","","","","","",""
"null","","","html-keyboard-response","184","716347","0.0-184.0","nz5snwtu","","<span style=""color:Black; font-size:50px;"">Agent A","null","","","","",""
"null","","","video-keyboard-response","185","719417","0.0-185.0","nz5snwtu","","","null","","Agent A","scrambled","STIM_SET_2/713328.bmp_pp86_L2_V1.0_scrambled_freeview_isoTrue.mp4",""
"null","","","html-keyboard-response","186","720922","0.0-186.0","nz5snwtu","","<span style=""color:Black; font-size:50px;"">Agent B","null","","","","",""
"null","","","video-keyboard-response","187","723993","0.0-187.0","nz5snwtu","","","null","","Agent B","veridical","STIM_SET_2/713328.bmp_pp86_L2_V1.0_veridical_freeview_isoTrue.mp4",""
"","","","call-function","188","723993","0.0-188.0","nz5snwtu","","","","","","","",""
"4320.800000000047","{""judgement"":1}","[0]","survey-likert","189","728315","0.0-189.0","nz5snwtu","","","","","","","","1"
"1455.8199999999488","{""confidence"":1}","[0]","survey-likert","190","729772","0.0-190.0","nz5snwtu","","","","","","","",""
"","","","call-function","191","729773","0.0-191.0","nz5snwtu","","","","","","","",""
"null","","","html-keyboard-response","192","731276","0.0-192.0","nz5snwtu","","<span style=""color:Black; font-size:50px;"">Agent A","null","","","","",""
"null","","","video-keyboard-response","193","734344","0.0-193.0","nz5snwtu","","","null","","Agent A","scrambled","STIM_SET_2/1592951.bmp_pp80_L3_V1.0_scrambled_freeview_isoTrue.mp4",""
"null","","","html-keyboard-response","194","735851","0.0-194.0","nz5snwtu","","<span style=""color:Black; font-size:50px;"">Agent B","null","","","","",""
"null","","","video-keyboard-response","195","738936","0.0-195.0","nz5snwtu","","","null","","Agent B","veridical","STIM_SET_2/1592951.bmp_pp80_L3_V1.0_veridical_freeview_isoTrue.mp4",""
"","","","call-function","196","738936","0.0-196.0","nz5snwtu","","","","","","","",""
"2180.560000000056","{""judgement"":1}","[0]","survey-likert","197","741118","0.0-197.0","nz5snwtu","","","","","","","","1"
"2255.305000000051","{""confidence"":1}","[0]","survey-likert","198","743374","0.0-198.0","nz5snwtu","","","","","","","",""
"","","","call-function","199","743375","0.0-199.0","nz5snwtu","","","","","","","",""
"null","","","html-keyboard-response","200","744880","0.0-200.0","nz5snwtu","","<span style=""color:Black; font-size:50px;"">Agent A","null","","","","",""
"null","","","video-keyboard-response","201","747988","0.0-201.0","nz5snwtu","","","null","","Agent A","veridical","STIM_SET_2/713770.bmp_pp89_L1_V1.0_veridical_freeview_isoTrue.mp4",""
"null","","","html-keyboard-response","202","749492","0.0-202.0","nz5snwtu","","<span style=""color:Black; font-size:50px;"">Agent B","null","","","","",""
"null","","","video-keyboard-response","203","752573","0.0-203.0","nz5snwtu","","","null","","Agent B","scrambled","STIM_SET_2/713770.bmp_pp89_L1_V1.0_scrambled_freeview_isoTrue.mp4",""
"","","","call-function","204","752574","0.0-204.0","nz5snwtu","","","","","","","",""
"2189.7700000000186","{""judgement"":0}","[0]","survey-likert","205","754766","0.0-205.0","nz5snwtu","","","","","","","","0"
"2745.3499999999767","{""confidence"":0}","[0]","survey-likert","206","757512","0.0-206.0","nz5snwtu","","","","","","","",""
"","","","call-function","207","757513","0.0-207.0","nz5snwtu","","","","","","","",""
"null","","","html-keyboard-response","208","759013","0.0-208.0","nz5snwtu","","<span style=""color:Black; font-size:50px;"">Agent A","null","","","","",""
"null","","","video-keyboard-response","209","762081","0.0-209.0","nz5snwtu","","","null","","Agent A","veridical","STIM_SET_2/1160049.bmp_pp53_L2_V1.0_veridical_freeview_isoTrue.mp4",""
"null","","","html-keyboard-response","210","763587","0.0-210.0","nz5snwtu","","<span style=""color:Black; font-size:50px;"">Agent B","null","","","","",""
"null","","","video-keyboard-response","211","766655","0.0-211.0","nz5snwtu","","","null","","Agent B","scrambled","STIM_SET_2/1160049.bmp_pp53_L2_V1.0_scrambled_freeview_isoTrue.mp4",""
"","","","call-function","212","766656","0.0-212.0","nz5snwtu","","","","","","","",""
"2706.810000000056","{""judgement"":0}","[0]","survey-likert","213","769363","0.0-213.0","nz5snwtu","","","","","","","","0"
"2259.5050000000047","{""confidence"":3}","[0]","survey-likert","214","771624","0.0-214.0","nz5snwtu","","","","","","","",""
"","","","call-function","215","771625","0.0-215.0","nz5snwtu","","","","","","","",""
"null","","","html-keyboard-response","216","773128","0.0-216.0","nz5snwtu","","<span style=""color:Black; font-size:50px;"">Agent A","null","","","","",""
"null","","","video-keyboard-response","217","776196","0.0-217.0","nz5snwtu","","","null","","Agent A","scrambled","STIM_SET_2/1592314.bmp_pp100_L3_V1.0_scrambled_freeview_isoTrue.mp4",""
"null","","","html-keyboard-response","218","777699","0.0-218.0","nz5snwtu","","<span style=""color:Black; font-size:50px;"">Agent B","null","","","","",""
"null","","","video-keyboard-response","219","780794","0.0-219.0","nz5snwtu","","","null","","Agent B","veridical","STIM_SET_2/1592314.bmp_pp100_L3_V1.0_veridical_freeview_isoTrue.mp4",""
"","","","call-function","220","780795","0.0-220.0","nz5snwtu","","","","","","","",""
"2824.6500000000233","{""judgement"":1}","[0]","survey-likert","221","783620","0.0-221.0","nz5snwtu","","","","","","","","1"
"1796.125","{""confidence"":1}","[0]","survey-likert","222","785418","0.0-222.0","nz5snwtu","","","","","","","",""
"","","","call-function","223","785418","0.0-223.0","nz5snwtu","","","","","","","",""
"null","","","html-keyboard-response","224","786923","0.0-224.0","nz5snwtu","","<span style=""color:Black; font-size:50px;"">Agent A","null","","","","",""
"null","","","video-keyboard-response","225","790017","0.0-225.0","nz5snwtu","","","null","","Agent A","scrambled","STIM_SET_2/713652.bmp_pp89_L1_V1_scrambled_freeview_isoTrue.mp4",""
"null","","","html-keyboard-response","226","791519","0.0-226.0","nz5snwtu","","<span style=""color:Black; font-size:50px;"">Agent B","null","","","","",""
"null","","","video-keyboard-response","227","794621","0.0-227.0","nz5snwtu","","","null","","Agent B","veridical","STIM_SET_2/713652.bmp_pp89_L1_V1_veridical_freeview_isoTrue.mp4",""
"","","","call-function","228","794622","0.0-228.0","nz5snwtu","","","","","","","",""
"3010.195000000065","{""judgement"":1}","[0]","survey-likert","229","797633","0.0-229.0","nz5snwtu","","","","","","","","1"
"1319.4249999999302","{""confidence"":0}","[0]","survey-likert","230","798953","0.0-230.0","nz5snwtu","","","","","","","",""
"","","","call-function","231","798954","0.0-231.0","nz5snwtu","","","","","","","",""
"null","","","html-keyboard-response","232","800461","0.0-232.0","nz5snwtu","","<span style=""color:Black; font-size:50px;"">Agent A","null","","","","",""
"null","","","video-keyboard-response","233","803560","0.0-233.0","nz5snwtu","","","null","","Agent A","veridical","STIM_SET_2/1159956.bmp_pp59_L3_V1.0_veridical_freeview_isoTrue.mp4",""
"null","","","html-keyboard-response","234","805066","0.0-234.0","nz5snwtu","","<span style=""color:Black; font-size:50px;"">Agent B","null","","","","",""
"null","","","video-keyboard-response","235","808164","0.0-235.0","nz5snwtu","","","null","","Agent B","scrambled","STIM_SET_2/1159956.bmp_pp59_L3_V1.0_scrambled_freeview_isoTrue.mp4",""
"","","","call-function","236","808165","0.0-236.0","nz5snwtu","","","","","","","",""
"1800.8850000000093","{""judgement"":0}","[0]","survey-likert","237","809967","0.0-237.0","nz5snwtu","","","","","","","","0"
"3357.4349999999395","{""confidence"":1}","[0]","survey-likert","238","813325","0.0-238.0","nz5snwtu","","","","","","","",""
"","","","call-function","239","813326","0.0-239.0","nz5snwtu","","","","","","","",""
"null","","","html-keyboard-response","240","814827","0.0-240.0","nz5snwtu","","<span style=""color:Black; font-size:50px;"">Agent A","null","","","","",""
"null","","","video-keyboard-response","241","817895","0.0-241.0","nz5snwtu","","","null","","Agent A","veridical","STIM_SET_2/285932.bmp_pp64_L1_V1.0_veridical_freeview_isoTrue.mp4",""
"null","","","html-keyboard-response","242","819400","0.0-242.0","nz5snwtu","","<span style=""color:Black; font-size:50px;"">Agent B","null","","","","",""
"null","","","video-keyboard-response","243","822498","0.0-243.0","nz5snwtu","","","null","","Agent B","scrambled","STIM_SET_2/285932.bmp_pp64_L1_V1.0_scrambled_freeview_isoTrue.mp4",""
"","","","call-function","244","822499","0.0-244.0","nz5snwtu","","","","","","","",""
"3145.314999999944","{""judgement"":1}","[0]","survey-likert","245","825645","0.0-245.0","nz5snwtu","","","","","","","","0"
"1557.1600000000326","{""confidence"":1}","[0]","survey-likert","246","827204","0.0-246.0","nz5snwtu","","","","","","","",""
"","","","call-function","247","827204","0.0-247.0","nz5snwtu","","","","","","","",""
"null","","","html-keyboard-response","248","828707","0.0-248.0","nz5snwtu","","<span style=""color:Black; font-size:50px;"">Agent A","null","","","","",""
"null","","","video-keyboard-response","249","831781","0.0-249.0","nz5snwtu","","","null","","Agent A","veridical","STIM_SET_2/1592747.bmp_pp53_L2_V1.0_veridical_freeview_isoTrue.mp4",""
"null","","","html-keyboard-response","250","833287","0.0-250.0","nz5snwtu","","<span style=""color:Black; font-size:50px;"">Agent B","null","","","","",""
"null","","","video-keyboard-response","251","836365","0.0-251.0","nz5snwtu","","","null","","Agent B","scrambled","STIM_SET_2/1592747.bmp_pp53_L2_V1.0_scrambled_freeview_isoTrue.mp4",""
"","","","call-function","252","836366","0.0-252.0","nz5snwtu","","","","","","","",""
"1487.344999999972","{""judgement"":0}","[0]","survey-likert","253","837855","0.0-253.0","nz5snwtu","","","","","","","","0"
"2437.75","{""confidence"":2}","[0]","survey-likert","254","840295","0.0-254.0","nz5snwtu","","","","","","","",""
"12024.695000000065","","","instructions","255","852320","0.0-255.0","nz5snwtu","[{""page_index"":0,""viewing_time"":9239.570000000065},{""page_index"":1,""viewing_time"":1523.9949999999953},{""page_index"":2,""viewing_time"":1260.9749999999767}]","","","","","","",""
"10600.119999999995","","","instructions","256","862921","0.0-256.0","nz5snwtu","[{""page_index"":0,""viewing_time"":1199.9749999999767},{""page_index"":1,""viewing_time"":2474.1350000000093},{""page_index"":2,""viewing_time"":6925.900000000023}]","","","","","","",""
"","","","call-function","257","862922","0.0-257.0","nz5snwtu","","","","","","","",""
"null","","","html-keyboard-response","258","864425","0.0-258.0","nz5snwtu","","<span style=""color:Black; font-size:50px;"">Agent A","null","","","","",""
"null","","","video-keyboard-response","259","867506","0.0-259.0","nz5snwtu","","","null","","Agent A","veridical","STIM_SET_2/1592568.bmp_pp71_L1_V1.0_veridical_freeview_isoTrue.mp4",""
"null","","","html-keyboard-response","260","869009","0.0-260.0","nz5snwtu","","<span style=""color:Black; font-size:50px;"">Agent B","null","","","","",""
"null","","","video-keyboard-response","261","872090","0.0-261.0","nz5snwtu","","","null","","Agent B","scrambled","STIM_SET_2/1592568.bmp_pp71_L1_V1.0_scrambled_freeview_isoTrue.mp4",""
"","","","call-function","262","872090","0.0-262.0","nz5snwtu","","","","","","","",""
"2507.689999999944","{""judgement"":0}","[0]","survey-likert","263","874600","0.0-263.0","nz5snwtu","","","","","","","","0"
"2293.6300000000047","{""confidence"":2}","[0]","survey-likert","264","876895","0.0-264.0","nz5snwtu","","","","","","","",""
"","","","call-function","265","876895","0.0-265.0","nz5snwtu","","","","","","","",""
"null","","","html-keyboard-response","266","878402","0.0-266.0","nz5snwtu","","<span style=""color:Black; font-size:50px;"">Agent A","null","","","","",""
"null","","","video-keyboard-response","267","881477","0.0-267.0","nz5snwtu","","","null","","Agent A","veridical","STIM_SET_2/1159819.bmp_pp151_L1_V1.0_veridical_freeview_isoTrue.mp4",""
"null","","","html-keyboard-response","268","882979","0.0-268.0","nz5snwtu","","<span style=""color:Black; font-size:50px;"">Agent B","null","","","","",""
"null","","","video-keyboard-response","269","886053","0.0-269.0","nz5snwtu","","","null","","Agent B","scrambled","STIM_SET_2/1159819.bmp_pp151_L1_V1.0_scrambled_freeview_isoTrue.mp4",""
"","","","call-function","270","886053","0.0-270.0","nz5snwtu","","","","","","","",""
"1657.6049999999814","{""judgement"":0}","[0]","survey-likert","271","887712","0.0-271.0","nz5snwtu","","","","","","","","0"
"2454.6549999999115","{""confidence"":2}","[0]","survey-likert","272","890168","0.0-272.0","nz5snwtu","","","","","","","",""
"","","","call-function","273","890168","0.0-273.0","nz5snwtu","","","","","","","",""
"null","","","html-keyboard-response","274","891672","0.0-274.0","nz5snwtu","","<span style=""color:Black; font-size:50px;"">Agent A","null","","","","",""
"null","","","video-keyboard-response","275","894760","0.0-275.0","nz5snwtu","","","null","","Agent A","veridical","STIM_SET_2/498025.bmp_pp81_L1_V1.0_veridical_freeview_isoTrue.mp4",""
"null","","","html-keyboard-response","276","896266","0.0-276.0","nz5snwtu","","<span style=""color:Black; font-size:50px;"">Agent B","null","","","","",""
"null","","","video-keyboard-response","277","899355","0.0-277.0","nz5snwtu","","","null","","Agent B","scrambled","STIM_SET_2/498025.bmp_pp81_L1_V1.0_scrambled_freeview_isoTrue.mp4",""
"","","","call-function","278","899356","0.0-278.0","nz5snwtu","","","","","","","",""
"3413.100000000093","{""judgement"":1}","[0]","survey-likert","279","902770","0.0-279.0","nz5snwtu","","","","","","","","0"
"1301.9000000000233","{""confidence"":1}","[0]","survey-likert","280","904073","0.0-280.0","nz5snwtu","","","","","","","",""
"","","","call-function","281","904073","0.0-281.0","nz5snwtu","","","","","","","",""
"null","","","html-keyboard-response","282","905576","0.0-282.0","nz5snwtu","","<span style=""color:Black; font-size:50px;"">Agent A","null","","","","",""
"null","","","video-keyboard-response","283","908677","0.0-283.0","nz5snwtu","","","null","","Agent A","scrambled","STIM_SET_2/1592305.bmp_pp65_L3_V1.0_scrambled_freeview_isoTrue.mp4",""
"null","","","html-keyboard-response","284","910180","0.0-284.0","nz5snwtu","","<span style=""color:Black; font-size:50px;"">Agent B","null","","","","",""
"null","","","video-keyboard-response","285","913280","0.0-285.0","nz5snwtu","","","null","","Agent B","veridical","STIM_SET_2/1592305.bmp_pp65_L3_V1.0_veridical_freeview_isoTrue.mp4",""
"","","","call-function","286","913280","0.0-286.0","nz5snwtu","","","","","","","",""
"1711.9100000000326","{""judgement"":1}","[0]","survey-likert","287","914993","0.0-287.0","nz5snwtu","","","","","","","","1"
"1719.0350000000326","{""confidence"":2}","[0]","survey-likert","288","916714","0.0-288.0","nz5snwtu","","","","","","","",""
"","","","call-function","289","916715","0.0-289.0","nz5snwtu","","","","","","","",""
"null","","","html-keyboard-response","290","918219","0.0-290.0","nz5snwtu","","<span style=""color:Black; font-size:50px;"">Agent A","null","","","","",""
"null","","","video-keyboard-response","291","921316","0.0-291.0","nz5snwtu","","","null","","Agent A","scrambled","STIM_SET_2/713689.bmp_pp153_L3_V1.0_scrambled_freeview_isoTrue.mp4",""
"null","","","html-keyboard-response","292","922818","0.0-292.0","nz5snwtu","","<span style=""color:Black; font-size:50px;"">Agent B","null","","","","",""
"null","","","video-keyboard-response","293","925918","0.0-293.0","nz5snwtu","","","null","","Agent B","veridical","STIM_SET_2/713689.bmp_pp153_L3_V1.0_veridical_freeview_isoTrue.mp4",""
"","","","call-function","294","925919","0.0-294.0","nz5snwtu","","","","","","","",""
"1870.2699999999022","{""judgement"":1}","[0]","survey-likert","295","927790","0.0-295.0","nz5snwtu","","","","","","","","1"
"2334.3549999999814","{""confidence"":2}","[0]","survey-likert","296","930125","0.0-296.0","nz5snwtu","","","","","","","",""
"","","","call-function","297","930126","0.0-297.0","nz5snwtu","","","","","","","",""
"null","","","html-keyboard-response","298","931627","0.0-298.0","nz5snwtu","","<span style=""color:Black; font-size:50px;"">Agent A","null","","","","",""
"null","","","video-keyboard-response","299","934707","0.0-299.0","nz5snwtu","","","null","","Agent A","veridical","STIM_SET_2/713742.bmp_pp91_L3_V1.0_veridical_freeview_isoTrue.mp4",""
"null","","","html-keyboard-response","300","936210","0.0-300.0","nz5snwtu","","<span style=""color:Black; font-size:50px;"">Agent B","null","","","","",""
"null","","","video-keyboard-response","301","939292","0.0-301.0","nz5snwtu","","","null","","Agent B","scrambled","STIM_SET_2/713742.bmp_pp91_L3_V1.0_scrambled_freeview_isoTrue.mp4",""
"","","","call-function","302","939293","0.0-302.0","nz5snwtu","","","","","","","",""
"3639.335000000079","{""judgement"":0}","[0]","survey-likert","303","942933","0.0-303.0","nz5snwtu","","","","","","","","0"
"1127.0549999999348","{""confidence"":1}","[0]","survey-likert","304","944061","0.0-304.0","nz5snwtu","","","","","","","",""
"","","","call-function","305","944062","0.0-305.0","nz5snwtu","","","","","","","",""
"null","","","html-keyboard-response","306","945563","0.0-306.0","nz5snwtu","","<span style=""color:Black; font-size:50px;"">Agent A","null","","","","",""
"null","","","video-keyboard-response","307","948641","0.0-307.0","nz5snwtu","","","null","","Agent A","veridical","STIM_SET_2/1159592.bmp_pp91_L3_V1.0_veridical_freeview_isoTrue.mp4",""
"null","","","html-keyboard-response","308","950148","0.0-308.0","nz5snwtu","","<span style=""color:Black; font-size:50px;"">Agent B","null","","","","",""
"null","","","video-keyboard-response","309","953231","0.0-309.0","nz5snwtu","","","null","","Agent B","scrambled","STIM_SET_2/1159592.bmp_pp91_L3_V1.0_scrambled_freeview_isoTrue.mp4",""
"","","","call-function","310","953232","0.0-310.0","nz5snwtu","","","","","","","",""
"3984.8800000000047","{""judgement"":1}","[0]","survey-likert","311","957219","0.0-311.0","nz5snwtu","","","","","","","","0"
"1929.9649999999674","{""confidence"":0}","[0]","survey-likert","312","959150","0.0-312.0","nz5snwtu","","","","","","","",""
"","","","call-function","313","959152","0.0-313.0","nz5snwtu","","","","","","","",""
"null","","","html-keyboard-response","314","960655","0.0-314.0","nz5snwtu","","<span style=""color:Black; font-size:50px;"">Agent A","null","","","","",""
"null","","","video-keyboard-response","315","963729","0.0-315.0","nz5snwtu","","","null","","Agent A","scrambled","STIM_SET_2/1159508.bmp_pp151_L1_V1.0_scrambled_freeview_isoTrue.mp4",""
"null","","","html-keyboard-response","316","965235","0.0-316.0","nz5snwtu","","<span style=""color:Black; font-size:50px;"">Agent B","null","","","","",""
"null","","","video-keyboard-response","317","968307","0.0-317.0","nz5snwtu","","","null","","Agent B","veridical","STIM_SET_2/1159508.bmp_pp151_L1_V1.0_veridical_freeview_isoTrue.mp4",""
"","","","call-function","318","968308","0.0-318.0","nz5snwtu","","","","","","","",""
"2471.6750000000466","{""judgement"":1}","[0]","survey-likert","319","970780","0.0-319.0","nz5snwtu","","","","","","","","1"
"1899.5600000000559","{""confidence"":2}","[0]","survey-likert","320","972681","0.0-320.0","nz5snwtu","","","","","","","",""
"","","","call-function","321","972682","0.0-321.0","nz5snwtu","","","","","","","",""
"null","","","html-keyboard-response","322","974183","0.0-322.0","nz5snwtu","","<span style=""color:Black; font-size:50px;"">Agent A","null","","","","",""
"null","","","video-keyboard-response","323","977256","0.0-323.0","nz5snwtu","","","null","","Agent A","veridical","STIM_SET_2/285684.bmp_pp80_L3_V1.0_veridical_freeview_isoTrue.mp4",""
"null","","","html-keyboard-response","324","978761","0.0-324.0","nz5snwtu","","<span style=""color:Black; font-size:50px;"">Agent B","null","","","","",""
"null","","","video-keyboard-response","325","981827","0.0-325.0","nz5snwtu","","","null","","Agent B","scrambled","STIM_SET_2/285684.bmp_pp80_L3_V1.0_scrambled_freeview_isoTrue.mp4",""
"","","","call-function","326","981827","0.0-326.0","nz5snwtu","","","","","","","",""
"8368.375","{""judgement"":1}","[0]","survey-likert","327","990197","0.0-327.0","nz5snwtu","","","","","","","","0"
"1718.8549999999814","{""confidence"":1}","[0]","survey-likert","328","991917","0.0-328.0","nz5snwtu","","","","","","","",""
"","","","call-function","329","991918","0.0-329.0","nz5snwtu","","","","","","","",""
"null","","","html-keyboard-response","330","993420","0.0-330.0","nz5snwtu","","<span style=""color:Black; font-size:50px;"">Agent A","null","","","","",""
"null","","","video-keyboard-response","331","996524","0.0-331.0","nz5snwtu","","","null","","Agent A","scrambled","STIM_SET_2/713858.bmp_pp57_L1_V1.0_scrambled_freeview_isoTrue.mp4",""
"null","","","html-keyboard-response","332","998028","0.0-332.0","nz5snwtu","","<span style=""color:Black; font-size:50px;"">Agent B","null","","","","",""
"null","","","video-keyboard-response","333","1001131","0.0-333.0","nz5snwtu","","","null","","Agent B","veridical","STIM_SET_2/713858.bmp_pp57_L1_V1.0_veridical_freeview_isoTrue.mp4",""
"","","","call-function","334","1001132","0.0-334.0","nz5snwtu","","","","","","","",""
"1837.4149999999208","{""judgement"":0}","[0]","survey-likert","335","1002970","0.0-335.0","nz5snwtu","","","","","","","","1"
"1876.8199999999488","{""confidence"":2}","[0]","survey-likert","336","1004848","0.0-336.0","nz5snwtu","","","","","","","",""
"7275.949999999953","","","instructions","337","1012125","0.0-337.0","nz5snwtu","[{""page_index"":0,""viewing_time"":1124.954999999958},{""page_index"":1,""viewing_time"":2251.9799999999814},{""page_index"":2,""viewing_time"":3898.859999999986}]","","","","","","",""
"7641.755000000005","","","instructions","338","1019767","0.0-338.0","nz5snwtu","[{""page_index"":0,""viewing_time"":4766.454999999958},{""page_index"":1,""viewing_time"":1133.2550000000047},{""page_index"":2,""viewing_time"":1741.9350000000559}]","","","","","","",""
"","","","call-function","339","1019768","0.0-339.0","nz5snwtu","","","","","","","",""
"null","","","html-keyboard-response","340","1021270","0.0-340.0","nz5snwtu","","<span style=""color:Black; font-size:50px;"">Agent A","null","","","","",""
"null","","","video-keyboard-response","341","1024329","0.0-341.0","nz5snwtu","","","null","","Agent A","veridical","STIM_SET_2/1159427.bmp_pp98_L1_V1.0_veridical_freeview_isoTrue.mp4",""
"null","","","html-keyboard-response","342","1025831","0.0-342.0","nz5snwtu","","<span style=""color:Black; font-size:50px;"">Agent B","null","","","","",""
"null","","","video-keyboard-response","343","1028901","0.0-343.0","nz5snwtu","","","null","","Agent B","scrambled","STIM_SET_2/1159427.bmp_pp98_L1_V1.0_scrambled_freeview_isoTrue.mp4",""
"","","","call-function","344","1028901","0.0-344.0","nz5snwtu","","","","","","","",""
"3507.170000000042","{""judgement"":0}","[0]","survey-likert","345","1032409","0.0-345.0","nz5snwtu","","","","","","","","0"
"2907.1849999999395","{""confidence"":1}","[0]","survey-likert","346","1035317","0.0-346.0","nz5snwtu","","","","","","","",""
"","","","call-function","347","1035318","0.0-347.0","nz5snwtu","","","","","","","",""
"null","","","html-keyboard-response","348","1036820","0.0-348.0","nz5snwtu","","<span style=""color:Black; font-size:50px;"">Agent A","null","","","","",""
"null","","","video-keyboard-response","349","1039892","0.0-349.0","nz5snwtu","","","null","","Agent A","scrambled","STIM_SET_2/1592044.bmp_pp94_L2_V1.0_scrambled_freeview_isoTrue.mp4",""
"null","","","html-keyboard-response","350","1041394","0.0-350.0","nz5snwtu","","<span style=""color:Black; font-size:50px;"">Agent B","null","","","","",""
"null","","","video-keyboard-response","351","1044463","0.0-351.0","nz5snwtu","","","null","","Agent B","veridical","STIM_SET_2/1592044.bmp_pp94_L2_V1.0_veridical_freeview_isoTrue.mp4",""
"","","","call-function","352","1044463","0.0-352.0","nz5snwtu","","","","","","","",""
"2618.1199999999953","{""judgement"":1}","[0]","survey-likert","353","1047082","0.0-353.0","nz5snwtu","","","","","","","","1"
"1816.2399999998743","{""confidence"":1}","[0]","survey-likert","354","1048900","0.0-354.0","nz5snwtu","","","","","","","",""
"","","","call-function","355","1048900","0.0-355.0","nz5snwtu","","","","","","","",""
"null","","","html-keyboard-response","356","1050404","0.0-356.0","nz5snwtu","","<span style=""color:Black; font-size:50px;"">Agent A","null","","","","",""
"null","","","video-keyboard-response","357","1053479","0.0-357.0","nz5snwtu","","","null","","Agent A","scrambled","STIM_SET_2/1592298.bmp_pp56_L3_V1.0_scrambled_freeview_isoTrue.mp4",""
"null","","","html-keyboard-response","358","1054981","0.0-358.0","nz5snwtu","","<span style=""color:Black; font-size:50px;"">Agent B","null","","","","",""
"null","","","video-keyboard-response","359","1058092","0.0-359.0","nz5snwtu","","","null","","Agent B","veridical","STIM_SET_2/1592298.bmp_pp56_L3_V1.0_veridical_freeview_isoTrue.mp4",""
"","","","call-function","360","1058093","0.0-360.0","nz5snwtu","","","","","","","",""
"2209.2399999999907","{""judgement"":1}","[0]","survey-likert","361","1060303","0.0-361.0","nz5snwtu","","","","","","","","1"
"1922.3500000000931","{""confidence"":2}","[0]","survey-likert","362","1062227","0.0-362.0","nz5snwtu","","","","","","","",""
"","","","call-function","363","1062229","0.0-363.0","nz5snwtu","","","","","","","",""
"null","","","html-keyboard-response","364","1063732","0.0-364.0","nz5snwtu","","<span style=""color:Black; font-size:50px;"">Agent A","null","","","","",""
"null","","","video-keyboard-response","365","1066807","0.0-365.0","nz5snwtu","","","null","","Agent A","scrambled","STIM_SET_2/1160247.bmp_pp54_L2_V1.0_scrambled_freeview_isoTrue.mp4",""
"null","","","html-keyboard-response","366","1068314","0.0-366.0","nz5snwtu","","<span style=""color:Black; font-size:50px;"">Agent B","null","","","","",""
"null","","","video-keyboard-response","367","1071393","0.0-367.0","nz5snwtu","","","null","","Agent B","veridical","STIM_SET_2/1160247.bmp_pp54_L2_V1.0_veridical_freeview_isoTrue.mp4",""
"","","","call-function","368","1071394","0.0-368.0","nz5snwtu","","","","","","","",""
"2761.814999999944","{""judgement"":1}","[0]","survey-likert","369","1074157","0.0-369.0","nz5snwtu","","","","","","","","1"
"3077.310000000056","{""confidence"":2}","[0]","survey-likert","370","1077235","0.0-370.0","nz5snwtu","","","","","","","",""
"","","","call-function","371","1077236","0.0-371.0","nz5snwtu","","","","","","","",""
"null","","","html-keyboard-response","372","1078740","0.0-372.0","nz5snwtu","","<span style=""color:Black; font-size:50px;"">Agent A","null","","","","",""
"null","","","video-keyboard-response","373","1081808","0.0-373.0","nz5snwtu","","","null","","Agent A","veridical","STIM_SET_2/713829.bmp_pp60_L3_V1.0_veridical_freeview_isoTrue.mp4",""
"null","","","html-keyboard-response","374","1083311","0.0-374.0","nz5snwtu","","<span style=""color:Black; font-size:50px;"">Agent B","null","","","","",""
"null","","","video-keyboard-response","375","1086379","0.0-375.0","nz5snwtu","","","null","","Agent B","scrambled","STIM_SET_2/713829.bmp_pp60_L3_V1.0_scrambled_freeview_isoTrue.mp4",""
"","","","call-function","376","1086380","0.0-376.0","nz5snwtu","","","","","","","",""
"2321.8899999998976","{""judgement"":0}","[0]","survey-likert","377","1088703","0.0-377.0","nz5snwtu","","","","","","","","0"
"3356.314999999944","{""confidence"":1}","[0]","survey-likert","378","1092060","0.0-378.0","nz5snwtu","","","","","","","",""
"","","","call-function","379","1092061","0.0-379.0","nz5snwtu","","","","","","","",""
"null","","","html-keyboard-response","380","1093565","0.0-380.0","nz5snwtu","","<span style=""color:Black; font-size:50px;"">Agent A","null","","","","",""
"null","","","video-keyboard-response","381","1096671","0.0-381.0","nz5snwtu","","","null","","Agent A","scrambled","STIM_SET_2/1591781.bmp_pp63_L1_V1.0_scrambled_freeview_isoTrue.mp4",""
"null","","","html-keyboard-response","382","1098174","0.0-382.0","nz5snwtu","","<span style=""color:Black; font-size:50px;"">Agent B","null","","","","",""
"null","","","video-keyboard-response","383","1101279","0.0-383.0","nz5snwtu","","","null","","Agent B","veridical","STIM_SET_2/1591781.bmp_pp63_L1_V1.0_veridical_freeview_isoTrue.mp4",""
"","","","call-function","384","1101280","0.0-384.0","nz5snwtu","","","","","","","",""
"2430.820000000065","{""judgement"":1}","[0]","survey-likert","385","1103712","0.0-385.0","nz5snwtu","","","","","","","","1"
"1851.7299999999814","{""confidence"":0}","[0]","survey-likert","386","1105564","0.0-386.0","nz5snwtu","","","","","","","",""
"","","","call-function","387","1105565","0.0-387.0","nz5snwtu","","","","","","","",""
"null","","","html-keyboard-response","388","1107069","0.0-388.0","nz5snwtu","","<span style=""color:Black; font-size:50px;"">Agent A","null","","","","",""
"null","","","video-keyboard-response","389","1110160","0.0-389.0","nz5snwtu","","","null","","Agent A","scrambled","STIM_SET_2/1159392.bmp_pp96_L2_V1.0_scrambled_freeview_isoTrue.mp4",""
"null","","","html-keyboard-response","390","1111661","0.0-390.0","nz5snwtu","","<span style=""color:Black; font-size:50px;"">Agent B","null","","","","",""
"null","","","video-keyboard-response","391","1114754","0.0-391.0","nz5snwtu","","","null","","Agent B","veridical","STIM_SET_2/1159392.bmp_pp96_L2_V1.0_veridical_freeview_isoTrue.mp4",""
"","","","call-function","392","1114755","0.0-392.0","nz5snwtu","","","","","","","",""
"3155.600000000093","{""judgement"":0}","[0]","survey-likert","393","1117911","0.0-393.0","nz5snwtu","","","","","","","","1"
"1745.8149999999441","{""confidence"":0}","[0]","survey-likert","394","1119658","0.0-394.0","nz5snwtu","","","","","","","",""
"","","","call-function","395","1119659","0.0-395.0","nz5snwtu","","","","","","","",""
"null","","","html-keyboard-response","396","1121163","0.0-396.0","nz5snwtu","","<span style=""color:Black; font-size:50px;"">Agent A","null","","","","",""
"null","","","video-keyboard-response","397","1124243","0.0-397.0","nz5snwtu","","","null","","Agent A","scrambled","STIM_SET_2/285715.bmp_pp67_L2_V1.0_scrambled_freeview_isoTrue.mp4",""
"null","","","html-keyboard-response","398","1125747","0.0-398.0","nz5snwtu","","<span style=""color:Black; font-size:50px;"">Agent B","null","","","","",""
"null","","","video-keyboard-response","399","1128831","0.0-399.0","nz5snwtu","","","null","","Agent B","veridical","STIM_SET_2/285715.bmp_pp67_L2_V1.0_veridical_freeview_isoTrue.mp4",""
"","","","call-function","400","1128832","0.0-400.0","nz5snwtu","","","","","","","",""
"5983.875","{""judgement"":0}","[0]","survey-likert","401","1134817","0.0-401.0","nz5snwtu","","","","","","","","1"
"2080.304999999935","{""confidence"":1}","[0]","survey-likert","402","1136899","0.0-402.0","nz5snwtu","","","","","","","",""
"","","","call-function","403","1136899","0.0-403.0","nz5snwtu","","","","","","","",""
"null","","","html-keyboard-response","404","1138401","0.0-404.0","nz5snwtu","","<span style=""color:Black; font-size:50px;"">Agent A","null","","","","",""
"null","","","video-keyboard-response","405","1141477","0.0-405.0","nz5snwtu","","","null","","Agent A","scrambled","STIM_SET_2/1159874.bmp_pp96_L2_V1.0_scrambled_freeview_isoTrue.mp4",""
"null","","","html-keyboard-response","406","1142983","0.0-406.0","nz5snwtu","","<span style=""color:Black; font-size:50px;"">Agent B","null","","","","",""
"null","","","video-keyboard-response","407","1146068","0.0-407.0","nz5snwtu","","","null","","Agent B","veridical","STIM_SET_2/1159874.bmp_pp96_L2_V1.0_veridical_freeview_isoTrue.mp4",""
"","","","call-function","408","1146069","0.0-408.0","nz5snwtu","","","","","","","",""
"1433.75","{""judgement"":1}","[0]","survey-likert","409","1147504","0.0-409.0","nz5snwtu","","","","","","","","1"
"1799.0400000000373","{""confidence"":2}","[0]","survey-likert","410","1149304","0.0-410.0","nz5snwtu","","","","","","","",""
"","","","call-function","411","1149305","0.0-411.0","nz5snwtu","","","","","","","",""
"null","","","html-keyboard-response","412","1150810","0.0-412.0","nz5snwtu","","<span style=""color:Black; font-size:50px;"">Agent A","null","","","","",""
"null","","","video-keyboard-response","413","1153879","0.0-413.0","nz5snwtu","","","null","","Agent A","veridical","STIM_SET_2/1592857.bmp_pp52_L1_V1_veridical_freeview_isoTrue.mp4",""
"null","","","html-keyboard-response","414","1155381","0.0-414.0","nz5snwtu","","<span style=""color:Black; font-size:50px;"">Agent B","null","","","","",""
"null","","","video-keyboard-response","415","1158450","0.0-415.0","nz5snwtu","","","null","","Agent B","scrambled","STIM_SET_2/1592857.bmp_pp52_L1_V1_scrambled_freeview_isoTrue.mp4",""
"","","","call-function","416","1158451","0.0-416.0","nz5snwtu","","","","","","","",""
"2837.9199999999255","{""judgement"":1}","[0]","survey-likert","417","1161289","0.0-417.0","nz5snwtu","","","","","","","","0"
"1306.9499999999534","{""confidence"":1}","[0]","survey-likert","418","1162598","0.0-418.0","nz5snwtu","","","","","","","",""
"3237.314999999944","","","instructions","419","1165836","0.0-419.0","nz5snwtu","[{""page_index"":0,""viewing_time"":2011.964999999851},{""page_index"":1,""viewing_time"":656.8850000000093},{""page_index"":2,""viewing_time"":568.3400000000838}]","","","","","","",""
"23489.27000000002","","","instructions","420","1189327","0.0-420.0","nz5snwtu","[{""page_index"":0,""viewing_time"":725.2199999999721},{""page_index"":1,""viewing_time"":17504.12000000011},{""page_index"":2,""viewing_time"":5259.770000000019}]","","","","","","",""
"","","","call-function","421","1189328","0.0-421.0","nz5snwtu","","","","","","","",""
"null","","","html-keyboard-response","422","1190830","0.0-422.0","nz5snwtu","","<span style=""color:Black; font-size:50px;"">Agent A","null","","","","",""
"null","","","video-keyboard-response","423","1193912","0.0-423.0","nz5snwtu","","","null","","Agent A","veridical","STIM_SET_2/1592168.bmp_pp71_L1_V1.0_veridical_freeview_isoTrue.mp4",""
"null","","","html-keyboard-response","424","1195414","0.0-424.0","nz5snwtu","","<span style=""color:Black; font-size:50px;"">Agent B","null","","","","",""
"null","","","video-keyboard-response","425","1198497","0.0-425.0","nz5snwtu","","","null","","Agent B","scrambled","STIM_SET_2/1592168.bmp_pp71_L1_V1.0_scrambled_freeview_isoTrue.mp4",""
"","","","call-function","426","1198497","0.0-426.0","nz5snwtu","","","","","","","",""
"2191.9950000001118","{""judgement"":1}","[0]","survey-likert","427","1200690","0.0-427.0","nz5snwtu","","","","","","","","0"
"1696.6049999999814","{""confidence"":0}","[0]","survey-likert","428","1202388","0.0-428.0","nz5snwtu","","","","","","","",""
"","","","call-function","429","1202389","0.0-429.0","nz5snwtu","","","","","","","",""
"null","","","html-keyboard-response","430","1203891","0.0-430.0","nz5snwtu","","<span style=""color:Black; font-size:50px;"">Agent A","null","","","","",""
"null","","","video-keyboard-response","431","1206967","0.0-431.0","nz5snwtu","","","null","","Agent A","scrambled","STIM_SET_2/498261.bmp_pp84_L3_V1.0_scrambled_freeview_isoTrue.mp4",""
"null","","","html-keyboard-response","432","1208468","0.0-432.0","nz5snwtu","","<span style=""color:Black; font-size:50px;"">Agent B","null","","","","",""
"null","","","video-keyboard-response","433","1211544","0.0-433.0","nz5snwtu","","","null","","Agent B","veridical","STIM_SET_2/498261.bmp_pp84_L3_V1.0_veridical_freeview_isoTrue.mp4",""
"","","","call-function","434","1211544","0.0-434.0","nz5snwtu","","","","","","","",""
"2724.1699999999255","{""judgement"":1}","[0]","survey-likert","435","1214269","0.0-435.0","nz5snwtu","","","","","","","","1"
"1303.7299999999814","{""confidence"":1}","[0]","survey-likert","436","1215574","0.0-436.0","nz5snwtu","","","","","","","",""
"","","","call-function","437","1215575","0.0-437.0","nz5snwtu","","","","","","","",""
"null","","","html-keyboard-response","438","1217077","0.0-438.0","nz5snwtu","","<span style=""color:Black; font-size:50px;"">Agent A","null","","","","",""
"null","","","video-keyboard-response","439","1220137","0.0-439.0","nz5snwtu","","","null","","Agent A","scrambled","STIM_SET_2/107955.bmp_pp90_L2_V1.0_scrambled_freeview_isoTrue.mp4",""
"null","","","html-keyboard-response","440","1221639","0.0-440.0","nz5snwtu","","<span style=""color:Black; font-size:50px;"">Agent B","null","","","","",""
"null","","","video-keyboard-response","441","1224743","0.0-441.0","nz5snwtu","","","null","","Agent B","veridical","STIM_SET_2/107955.bmp_pp90_L2_V1.0_veridical_freeview_isoTrue.mp4",""
"","","","call-function","442","1224744","0.0-442.0","nz5snwtu","","","","","","","",""
"2934.375","{""judgement"":0}","[0]","survey-likert","443","1227679","0.0-443.0","nz5snwtu","","","","","","","","1"
"1628.280000000028","{""confidence"":1}","[0]","survey-likert","444","1229308","0.0-444.0","nz5snwtu","","","","","","","",""
"","","","call-function","445","1229309","0.0-445.0","nz5snwtu","","","","","","","",""
"null","","","html-keyboard-response","446","1230811","0.0-446.0","nz5snwtu","","<span style=""color:Black; font-size:50px;"">Agent A","null","","","","",""
"null","","","video-keyboard-response","447","1233915","0.0-447.0","nz5snwtu","","","null","","Agent A","veridical","STIM_SET_2/1592350.bmp_pp55_L3_V1.0_veridical_freeview_isoTrue.mp4",""
"null","","","html-keyboard-response","448","1235419","0.0-448.0","nz5snwtu","","<span style=""color:Black; font-size:50px;"">Agent B","null","","","","",""
"null","","","video-keyboard-response","449","1238522","0.0-449.0","nz5snwtu","","","null","","Agent B","scrambled","STIM_SET_2/1592350.bmp_pp55_L3_V1.0_scrambled_freeview_isoTrue.mp4",""
"","","","call-function","450","1238523","0.0-450.0","nz5snwtu","","","","","","","",""
"2775.7949999999255","{""judgement"":0}","[0]","survey-likert","451","1241300","0.0-451.0","nz5snwtu","","","","","","","","0"
"1450.5200000000186","{""confidence"":2}","[0]","survey-likert","452","1242751","0.0-452.0","nz5snwtu","","","","","","","",""
"","","","call-function","453","1242752","0.0-453.0","nz5snwtu","","","","","","","",""
"null","","","html-keyboard-response","454","1244253","0.0-454.0","nz5snwtu","","<span style=""color:Black; font-size:50px;"">Agent A","null","","","","",""
"null","","","video-keyboard-response","455","1247351","0.0-455.0","nz5snwtu","","","null","","Agent A","scrambled","STIM_SET_2/1592530.bmp_pp75_L1_V1.0_scrambled_freeview_isoTrue.mp4",""
"null","","","html-keyboard-response","456","1248856","0.0-456.0","nz5snwtu","","<span style=""color:Black; font-size:50px;"">Agent B","null","","","","",""
"null","","","video-keyboard-response","457","1251957","0.0-457.0","nz5snwtu","","","null","","Agent B","veridical","STIM_SET_2/1592530.bmp_pp75_L1_V1.0_veridical_freeview_isoTrue.mp4",""
"","","","call-function","458","1251957","0.0-458.0","nz5snwtu","","","","","","","",""
"3524.4549999998417","{""judgement"":0}","[0]","survey-likert","459","1255483","0.0-459.0","nz5snwtu","","","","","","","","1"
"1535.535000000149","{""confidence"":1}","[0]","survey-likert","460","1257020","0.0-460.0","nz5snwtu","","","","","","","",""
"","","","call-function","461","1257020","0.0-461.0","nz5snwtu","","","","","","","",""
"null","","","html-keyboard-response","462","1258525","0.0-462.0","nz5snwtu","","<span style=""color:Black; font-size:50px;"">Agent A","null","","","","",""
"null","","","video-keyboard-response","463","1261602","0.0-463.0","nz5snwtu","","","null","","Agent A","veridical","STIM_SET_2/285959.bmp_pp93_L1_V1.0_veridical_freeview_isoTrue.mp4",""
"null","","","html-keyboard-response","464","1263105","0.0-464.0","nz5snwtu","","<span style=""color:Black; font-size:50px;"">Agent B","null","","","","",""
"null","","","video-keyboard-response","465","1266184","0.0-465.0","nz5snwtu","","","null","","Agent B","scrambled","STIM_SET_2/285959.bmp_pp93_L1_V1.0_scrambled_freeview_isoTrue.mp4",""
"","","","call-function","466","1266186","0.0-466.0","nz5snwtu","","","","","","","",""
"2718.350000000093","{""judgement"":1}","[0]","survey-likert","467","1268905","0.0-467.0","nz5snwtu","","","","","","","","0"
"2916.5049999998882","{""confidence"":1}","[0]","survey-likert","468","1271824","0.0-468.0","nz5snwtu","","","","","","","",""
"","","","call-function","469","1271826","0.0-469.0","nz5snwtu","","","","","","","",""
"null","","","html-keyboard-response","470","1273330","0.0-470.0","nz5snwtu","","<span style=""color:Black; font-size:50px;"">Agent A","null","","","","",""
"null","","","video-keyboard-response","471","1276402","0.0-471.0","nz5snwtu","","","null","","Agent A","veridical","STIM_SET_2/713274.bmp_pp73_L3_V1.0_veridical_freeview_isoTrue.mp4",""
"null","","","html-keyboard-response","472","1277908","0.0-472.0","nz5snwtu","","<span style=""color:Black; font-size:50px;"">Agent B","null","","","","",""
"null","","","video-keyboard-response","473","1280985","0.0-473.0","nz5snwtu","","","null","","Agent B","scrambled","STIM_SET_2/713274.bmp_pp73_L3_V1.0_scrambled_freeview_isoTrue.mp4",""
"","","","call-function","474","1280986","0.0-474.0","nz5snwtu","","","","","","","",""
"2287.464999999851","{""judgement"":1}","[0]","survey-likert","475","1283274","0.0-475.0","nz5snwtu","","","","","","","","0"
"1548.1700000001583","{""confidence"":0}","[0]","survey-likert","476","1284824","0.0-476.0","nz5snwtu","","","","","","","",""
"","","","call-function","477","1284825","0.0-477.0","nz5snwtu","","","","","","","",""
"null","","","html-keyboard-response","478","1286327","0.0-478.0","nz5snwtu","","<span style=""color:Black; font-size:50px;"">Agent A","null","","","","",""
"null","","","video-keyboard-response","479","1289395","0.0-479.0","nz5snwtu","","","null","","Agent A","scrambled","STIM_SET_2/1591920.bmp_pp97_L3_V1_scrambled_freeview_isoTrue.mp4",""
"null","","","html-keyboard-response","480","1290902","0.0-480.0","nz5snwtu","","<span style=""color:Black; font-size:50px;"">Agent B","null","","","","",""
"null","","","video-keyboard-response","481","1293970","0.0-481.0","nz5snwtu","","","null","","Agent B","veridical","STIM_SET_2/1591920.bmp_pp97_L3_V1_veridical_freeview_isoTrue.mp4",""
"","","","call-function","482","1293970","0.0-482.0","nz5snwtu","","","","","","","",""
"2162.755000000121","{""judgement"":1}","[0]","survey-likert","483","1296134","0.0-483.0","nz5snwtu","","","","","","","","1"
"1309.4499999999534","{""confidence"":2}","[0]","survey-likert","484","1297445","0.0-484.0","nz5snwtu","","","","","","","",""
"","","","call-function","485","1297445","0.0-485.0","nz5snwtu","","","","","","","",""
"null","","","html-keyboard-response","486","1298950","0.0-486.0","nz5snwtu","","<span style=""color:Black; font-size:50px;"">Agent A","null","","","","",""
"null","","","video-keyboard-response","487","1302056","0.0-487.0","nz5snwtu","","","null","","Agent A","veridical","STIM_SET_2/1592921.bmp_pp69_L3_V1.0_veridical_freeview_isoTrue.mp4",""
"null","","","html-keyboard-response","488","1303562","0.0-488.0","nz5snwtu","","<span style=""color:Black; font-size:50px;"">Agent B","null","","","","",""
"null","","","video-keyboard-response","489","1306664","0.0-489.0","nz5snwtu","","","null","","Agent B","scrambled","STIM_SET_2/1592921.bmp_pp69_L3_V1.0_scrambled_freeview_isoTrue.mp4",""
"","","","call-function","490","1306665","0.0-490.0","nz5snwtu","","","","","","","",""
"1766.9550000000745","{""judgement"":1}","[0]","survey-likert","491","1308433","0.0-491.0","nz5snwtu","","","","","","","","0"
"1499.2099999999627","{""confidence"":1}","[0]","survey-likert","492","1309933","0.0-492.0","nz5snwtu","","","","","","","",""
"","","","call-function","493","1309934","0.0-493.0","nz5snwtu","","","","","","","",""
"null","","","html-keyboard-response","494","1311439","0.0-494.0","nz5snwtu","","<span style=""color:Black; font-size:50px;"">Agent A","null","","","","",""
"null","","","video-keyboard-response","495","1314503","0.0-495.0","nz5snwtu","","","null","","Agent A","scrambled","STIM_SET_2/61513.bmp_pp75_L1_V1.0_scrambled_freeview_isoTrue.mp4",""
"null","","","html-keyboard-response","496","1316005","0.0-496.0","nz5snwtu","","<span style=""color:Black; font-size:50px;"">Agent B","null","","","","",""
"null","","","video-keyboard-response","497","1319070","0.0-497.0","nz5snwtu","","","null","","Agent B","veridical","STIM_SET_2/61513.bmp_pp75_L1_V1.0_veridical_freeview_isoTrue.mp4",""
"","","","call-function","498","1319071","0.0-498.0","nz5snwtu","","","","","","","",""
"1740.6800000001676","{""judgement"":1}","[0]","survey-likert","499","1320813","0.0-499.0","nz5snwtu","","","","","","","","1"
"1565.6800000001676","{""confidence"":1}","[0]","survey-likert","500","1322380","0.0-500.0","nz5snwtu","","","","","","","",""
"23189.51000000001","","","instructions","501","1345570","0.0-501.0","nz5snwtu","[{""page_index"":0,""viewing_time"":3237.8900000001304},{""page_index"":1,""viewing_time"":528.5949999999721},{""page_index"":2,""viewing_time"":19422.86499999999}]","","","","","","",""
"2045.625","","","instructions","502","1347616","0.0-502.0","nz5snwtu","[{""page_index"":0,""viewing_time"":823.4949999998789},{""page_index"":1,""viewing_time"":536.1100000001024},{""page_index"":2,""viewing_time"":685.9099999999162}]","","","","","","",""
"","","","call-function","503","1347617","0.0-503.0","nz5snwtu","","","","","","","",""
"null","","","html-keyboard-response","504","1349119","0.0-504.0","nz5snwtu","","<span style=""color:Black; font-size:50px;"">Agent A","null","","","","",""
"null","","","video-keyboard-response","505","1352194","0.0-505.0","nz5snwtu","","","null","","Agent A","veridical","STIM_SET_2/1592025.bmp_pp68_L1_V1.0_veridical_freeview_isoTrue.mp4",""
"null","","","html-keyboard-response","506","1353695","0.0-506.0","nz5snwtu","","<span style=""color:Black; font-size:50px;"">Agent B","null","","","","",""
"null","","","video-keyboard-response","507","1356770","0.0-507.0","nz5snwtu","","","null","","Agent B","scrambled","STIM_SET_2/1592025.bmp_pp68_L1_V1.0_scrambled_freeview_isoTrue.mp4",""
"","","","call-function","508","1356771","0.0-508.0","nz5snwtu","","","","","","","",""
"4270.569999999832","{""judgement"":0}","[0]","survey-likert","509","1361042","0.0-509.0","nz5snwtu","","","","","","","","0"
"2954.905000000028","{""confidence"":0}","[0]","survey-likert","510","1363998","0.0-510.0","nz5snwtu","","","","","","","",""
"","","","call-function","511","1363999","0.0-511.0","nz5snwtu","","","","","","","",""
"null","","","html-keyboard-response","512","1365502","0.0-512.0","nz5snwtu","","<span style=""color:Black; font-size:50px;"">Agent A","null","","","","",""
"null","","","video-keyboard-response","513","1368571","0.0-513.0","nz5snwtu","","","null","","Agent A","veridical","STIM_SET_2/286034.bmp_pp69_L3_V1.0_veridical_freeview_isoTrue.mp4",""
"null","","","html-keyboard-response","514","1370073","0.0-514.0","nz5snwtu","","<span style=""color:Black; font-size:50px;"">Agent B","null","","","","",""
"null","","","video-keyboard-response","515","1373145","0.0-515.0","nz5snwtu","","","null","","Agent B","scrambled","STIM_SET_2/286034.bmp_pp69_L3_V1.0_scrambled_freeview_isoTrue.mp4",""
"","","","call-function","516","1373145","0.0-516.0","nz5snwtu","","","","","","","",""
"1515.8899999998976","{""judgement"":0}","[0]","survey-likert","517","1374662","0.0-517.0","nz5snwtu","","","","","","","","0"
"1832.5850000001956","{""confidence"":2}","[0]","survey-likert","518","1376496","0.0-518.0","nz5snwtu","","","","","","","",""
"","","","call-function","519","1376497","0.0-519.0","nz5snwtu","","","","","","","",""
"null","","","html-keyboard-response","520","1378002","0.0-520.0","nz5snwtu","","<span style=""color:Black; font-size:50px;"">Agent A","null","","","","",""
"null","","","video-keyboard-response","521","1381102","0.0-521.0","nz5snwtu","","","null","","Agent A","veridical","STIM_SET_2/1592201.bmp_pp97_L3_V1.0_veridical_freeview_isoTrue.mp4",""
"null","","","html-keyboard-response","522","1382606","0.0-522.0","nz5snwtu","","<span style=""color:Black; font-size:50px;"">Agent B","null","","","","",""
"null","","","video-keyboard-response","523","1385707","0.0-523.0","nz5snwtu","","","null","","Agent B","scrambled","STIM_SET_2/1592201.bmp_pp97_L3_V1.0_scrambled_freeview_isoTrue.mp4",""
"","","","call-function","524","1385708","0.0-524.0","nz5snwtu","","","","","","","",""
"2836.8349999999627","{""judgement"":1}","[0]","survey-likert","525","1388546","0.0-525.0","nz5snwtu","","","","","","","","0"
"1450.4799999999814","{""confidence"":0}","[0]","survey-likert","526","1389997","0.0-526.0","nz5snwtu","","","","","","","",""
"","","","call-function","527","1389998","0.0-527.0","nz5snwtu","","","","","","","",""
"null","","","html-keyboard-response","528","1391504","0.0-528.0","nz5snwtu","","<span style=""color:Black; font-size:50px;"">Agent A","null","","","","",""
"null","","","video-keyboard-response","529","1394604","0.0-529.0","nz5snwtu","","","null","","Agent A","scrambled","STIM_SET_2/498326.bmp_pp57_L1_V1.0_scrambled_freeview_isoTrue.mp4",""
"null","","","html-keyboard-response","530","1396107","0.0-530.0","nz5snwtu","","<span style=""color:Black; font-size:50px;"">Agent B","null","","","","",""
"null","","","video-keyboard-response","531","1399209","0.0-531.0","nz5snwtu","","","null","","Agent B","veridical","STIM_SET_2/498326.bmp_pp57_L1_V1.0_veridical_freeview_isoTrue.mp4",""
"","","","call-function","532","1399211","0.0-532.0","nz5snwtu","","","","","","","",""
"1502.8950000000186","{""judgement"":1}","[0]","survey-likert","533","1400715","0.0-533.0","nz5snwtu","","","","","","","","1"
"2451.029999999795","{""confidence"":1}","[0]","survey-likert","534","1403168","0.0-534.0","nz5snwtu","","","","","","","",""
"","","","call-function","535","1403168","0.0-535.0","nz5snwtu","","","","","","","",""
"null","","","html-keyboard-response","536","1404670","0.0-536.0","nz5snwtu","","<span style=""color:Black; font-size:50px;"">Agent A","null","","","","",""
"null","","","video-keyboard-response","537","1407744","0.0-537.0","nz5snwtu","","","null","","Agent A","scrambled","STIM_SET_2/498258.bmp_pp51_L1_V1.0_scrambled_freeview_isoTrue.mp4",""
"null","","","html-keyboard-response","538","1409249","0.0-538.0","nz5snwtu","","<span style=""color:Black; font-size:50px;"">Agent B","null","","","","",""
"null","","","video-keyboard-response","539","1412321","0.0-539.0","nz5snwtu","","","null","","Agent B","veridical","STIM_SET_2/498258.bmp_pp51_L1_V1.0_veridical_freeview_isoTrue.mp4",""
"","","","call-function","540","1412322","0.0-540.0","nz5snwtu","","","","","","","",""
"3620.3900000001304","{""judgement"":0}","[0]","survey-likert","541","1415943","0.0-541.0","nz5snwtu","","","","","","","","1"
"1059.4899999999907","{""confidence"":0}","[0]","survey-likert","542","1417005","0.0-542.0","nz5snwtu","","","","","","","",""
"","","","call-function","543","1417005","0.0-543.0","nz5snwtu","","","","","","","",""
"null","","","html-keyboard-response","544","1418507","0.0-544.0","nz5snwtu","","<span style=""color:Black; font-size:50px;"">Agent A","null","","","","",""
"null","","","video-keyboard-response","545","1421574","0.0-545.0","nz5snwtu","","","null","","Agent A","scrambled","STIM_SET_2/1592567.bmp_pp70_L2_V1.0_scrambled_freeview_isoTrue.mp4",""
"null","","","html-keyboard-response","546","1423079","0.0-546.0","nz5snwtu","","<span style=""color:Black; font-size:50px;"">Agent B","null","","","","",""
"null","","","video-keyboard-response","547","1426147","0.0-547.0","nz5snwtu","","","null","","Agent B","veridical","STIM_SET_2/1592567.bmp_pp70_L2_V1.0_veridical_freeview_isoTrue.mp4",""
"","","","call-function","548","1426147","0.0-548.0","nz5snwtu","","","","","","","",""
"2076.5750000001863","{""judgement"":0}","[0]","survey-likert","549","1428225","0.0-549.0","nz5snwtu","","","","","","","","1"
"2464.5800000000745","{""confidence"":1}","[0]","survey-likert","550","1430691","0.0-550.0","nz5snwtu","","","","","","","",""
"","","","call-function","551","1430692","0.0-551.0","nz5snwtu","","","","","","","",""
"null","","","html-keyboard-response","552","1432194","0.0-552.0","nz5snwtu","","<span style=""color:Black; font-size:50px;"">Agent A","null","","","","",""
"null","","","video-keyboard-response","553","1435298","0.0-553.0","nz5snwtu","","","null","","Agent A","scrambled","STIM_SET_2/150463.bmp_pp55_L3_V1.0_scrambled_freeview_isoTrue.mp4",""
"null","","","html-keyboard-response","554","1436804","0.0-554.0","nz5snwtu","","<span style=""color:Black; font-size:50px;"">Agent B","null","","","","",""
"null","","","video-keyboard-response","555","1439906","0.0-555.0","nz5snwtu","","","null","","Agent B","veridical","STIM_SET_2/150463.bmp_pp55_L3_V1.0_veridical_freeview_isoTrue.mp4",""
"","","","call-function","556","1439906","0.0-556.0","nz5snwtu","","","","","","","",""
"4240.885000000009","{""judgement"":0}","[0]","survey-likert","557","1444148","0.0-557.0","nz5snwtu","","","","","","","","1"
"2326.4199999999255","{""confidence"":1}","[0]","survey-likert","558","1446476","0.0-558.0","nz5snwtu","","","","","","","",""
"","","","call-function","559","1446477","0.0-559.0","nz5snwtu","","","","","","","",""
"null","","","html-keyboard-response","560","1447983","0.0-560.0","nz5snwtu","","<span style=""color:Black; font-size:50px;"">Agent A","null","","","","",""
"null","","","video-keyboard-response","561","1451087","0.0-561.0","nz5snwtu","","","null","","Agent A","scrambled","STIM_SET_2/713790.bmp_pp100_L3_V1_scrambled_freeview_isoTrue.mp4",""
"null","","","html-keyboard-response","562","1452594","0.0-562.0","nz5snwtu","","<span style=""color:Black; font-size:50px;"">Agent B","null","","","","",""
"null","","","video-keyboard-response","563","1455699","0.0-563.0","nz5snwtu","","","null","","Agent B","veridical","STIM_SET_2/713790.bmp_pp100_L3_V1_veridical_freeview_isoTrue.mp4",""
"","","","call-function","564","1455699","0.0-564.0","nz5snwtu","","","","","","","",""
"3191.435000000056","{""judgement"":0}","[0]","survey-likert","565","1458891","0.0-565.0","nz5snwtu","","","","","","","","1"
"1160.4149999998044","{""confidence"":1}","[0]","survey-likert","566","1460053","0.0-566.0","nz5snwtu","","","","","","","",""
"","","","call-function","567","1460054","0.0-567.0","nz5snwtu","","","","","","","",""
"null","","","html-keyboard-response","568","1461560","0.0-568.0","nz5snwtu","","<span style=""color:Black; font-size:50px;"">Agent A","null","","","","",""
"null","","","video-keyboard-response","569","1464659","0.0-569.0","nz5snwtu","","","null","","Agent A","scrambled","STIM_SET_2/1160189.bmp_pp64_L1_V1.0_scrambled_freeview_isoTrue.mp4",""
"null","","","html-keyboard-response","570","1466161","0.0-570.0","nz5snwtu","","<span style=""color:Black; font-size:50px;"">Agent B","null","","","","",""
"null","","","video-keyboard-response","571","1469258","0.0-571.0","nz5snwtu","","","null","","Agent B","veridical","STIM_SET_2/1160189.bmp_pp64_L1_V1.0_veridical_freeview_isoTrue.mp4",""
"","","","call-function","572","1469259","0.0-572.0","nz5snwtu","","","","","","","",""
"1907.0550000001676","{""judgement"":1}","[0]","survey-likert","573","1471166","0.0-573.0","nz5snwtu","","","","","","","","1"
"1738.030000000028","{""confidence"":2}","[0]","survey-likert","574","1472906","0.0-574.0","nz5snwtu","","","","","","","",""
"","","","call-function","575","1472907","0.0-575.0","nz5snwtu","","","","","","","",""
"null","","","html-keyboard-response","576","1474412","0.0-576.0","nz5snwtu","","<span style=""color:Black; font-size:50px;"">Agent A","null","","","","",""
"null","","","video-keyboard-response","577","1477485","0.0-577.0","nz5snwtu","","","null","","Agent A","veridical","STIM_SET_2/1160204.bmp_pp54_L2_V1.0_veridical_freeview_isoTrue.mp4",""
"null","","","html-keyboard-response","578","1478987","0.0-578.0","nz5snwtu","","<span style=""color:Black; font-size:50px;"">Agent B","null","","","","",""
"null","","","video-keyboard-response","579","1482060","0.0-579.0","nz5snwtu","","","null","","Agent B","scrambled","STIM_SET_2/1160204.bmp_pp54_L2_V1.0_scrambled_freeview_isoTrue.mp4",""
"","","","call-function","580","1482061","0.0-580.0","nz5snwtu","","","","","","","",""
"2394.125","{""judgement"":1}","[0]","survey-likert","581","1484456","0.0-581.0","nz5snwtu","","","","","","","","0"
"1229.7399999999907","{""confidence"":1}","[0]","survey-likert","582","1485687","0.0-582.0","nz5snwtu","","","","","","","",""
"2332.25","","","instructions","583","1488019","0.0-583.0","nz5snwtu","[{""page_index"":0,""viewing_time"":2332.1149999999907}]","","","","","","",""
"3709.565000000177","","","instructions","584","1491730","0.0-584.0","nz5snwtu","[{""page_index"":0,""viewing_time"":3709.4499999999534}]","","","","","","",""
"16540.330000000075","{""post-1"":2}","[0]","survey-likert","585","1508272","0.0-585.0","nz5snwtu","","","","","","","",""
"10594.054999999935","{""post-1"":1}","[0]","survey-likert","586","1518869","0.0-586.0","nz5snwtu","","","","","","","",""
"16617.334999999963","{""post-2"":2}","[0]","survey-likert","587","1535488","0.0-587.0","nz5snwtu","","","","","","","",""
"6697.510000000009","{""post-2"":1}","[0]","survey-likert","588","1542188","0.0-588.0","nz5snwtu","","","","","","","",""
"18486.61999999988","{""post-3"":1}","[0]","survey-likert","589","1560676","0.0-589.0","nz5snwtu","","","","","","","",""
"5768.520000000019","{""post-3"":1}","[0]","survey-likert","590","1566446","0.0-590.0","nz5snwtu","","","","","","","",""
"14755.225000000093","{""post-4"":1}","[0]","survey-likert","591","1581203","0.0-591.0","nz5snwtu","","","","","","","",""
"2214.7099999999627","{""post-4"":0}","[0]","survey-likert","592","1583421","0.0-592.0","nz5snwtu","","","","","","","",""
"10010.755000000121","{""post-5"":1}","[0]","survey-likert","593","1593433","0.0-593.0","nz5snwtu","","","","","","","",""
"3582.155000000028","{""post-5"":2}","[0]","survey-likert","594","1597017","0.0-594.0","nz5snwtu","","","","","","","",""
"274713.29000000004","{""Q0"":""I had trouble determining which agent was the human one because my immediate feeling is that the human agent will tend to pay attention to an image in somewhat of an order (like start on one side and make his way to the other), but then I wondered if that is actually NOT the way humans pay attention to things (maybe people actually go back and forth rapidly between both sides of an image or scene they are looking at). That being said, for most of the rounds, I was able to tell a difference between the more \""orderly\"" attention and the more \""all-over-the-place\"" attention, but I couldn't decide which one was human and which was fake.\n""}","","survey-text","595","1871739","0.0-595.0","nz5snwtu","","","","","","","",""
"85002.65500000003","{""Q0"":""I did not use any particular strategies (aside from trying to distinguish between the two attention \""patterns\""). I mostly just went with my gut feeling.""}","","survey-text","596","1956747","0.0-596.0","nz5snwtu","","","","","","","",""
"66054.07499999995","{""Q0"":""deciding whether the agent with the more orderly looking pattern was human or whether the agent that looked back and forth from one side to the other was human""}","","survey-text","597","2022805","0.0-597.0","nz5snwtu","","","","","","","",""
"2541.9449999998324","","","instructions","598","2025348","0.0-598.0","nz5snwtu","[{""page_index"":0,""viewing_time"":2541.6949999998324}]","","","","","","",""
"70133.07000000007","{""Experimenter_end"":[""Printed ID# nz5snwtu on consent form"",""Given subject SONA credit or payment"",""Given the subject debrief form""]}","[0]","survey-multi-select","599","2095484","0.0-599.0","nz5snwtu","","","","","","","",""
