"rt","responses","question_order","trial_type","trial_index","time_elapsed","internal_node_id","ID","view_history","stimulus","key_press","value","agent","condition","image","correct_answer"
"93868.99","{""Experimenter"":[""Confirmed subject's identity"",""Confirmed normal or corrected-to-normal vision"",""Obtained consent (signature and date)"",""Checked the test room lighting"",""Checked computer screen lighting"",""Checked distance from screen to chin rest (50cm)"",""Cleaned and adjusted chin rest"",""Counterbalanced the order of the tasks"",""Opened the experiment in Firefox"",""Made the experiment full screen"",""Encouraged subject to silence phone, put away distractors, etc.""]}","[0]","survey-multi-select","0","93877","0.0-0.0","o6tv81tt","","","","","","","",""
"125711.98499999999","","","instructions","1","219590","0.0-1.0","o6tv81tt","[{""page_index"":0,""viewing_time"":125711.82999999999}]","","","","","","",""
"18297.73999999999","","","instructions","2","237889","0.0-2.0","o6tv81tt","[{""page_index"":0,""viewing_time"":8819.440000000002},{""page_index"":1,""viewing_time"":1147.0499999999884},{""page_index"":2,""viewing_time"":8331.130000000005}]","","","","","","",""
"2687.8099999999977","","","instructions","3","240578","0.0-3.0","o6tv81tt","[{""page_index"":0,""viewing_time"":2687.704999999987}]","","","","","","",""
"null","","","video-keyboard-response","4","243651","0.0-4.0","o6tv81tt","","","null","","","","",""
"8977.24000000002","","","instructions","5","252629","0.0-5.0","o6tv81tt","[{""page_index"":0,""viewing_time"":2355.2700000000186},{""page_index"":1,""viewing_time"":2089.0499999999884},{""page_index"":2,""viewing_time"":4532.815000000002}]","","","","","","",""
"17484.630000000034","","","instructions","6","270114","0.0-6.0","o6tv81tt","[{""page_index"":0,""viewing_time"":17484.524999999994}]","","","","","","",""
"859.4500000000116","","","instructions","7","270974","0.0-7.0","o6tv81tt","[{""page_index"":0,""viewing_time"":859.2399999999907}]","","","","","","",""
"null","","","video-keyboard-response","8","274053","0.0-8.0","o6tv81tt","","","null","","","","",""
"14472.155000000028","","","instructions","9","288525","0.0-9.0","o6tv81tt","[{""page_index"":0,""viewing_time"":1198.045000000042},{""page_index"":1,""viewing_time"":2892.899999999965},{""page_index"":2,""viewing_time"":10380.984999999986}]","","","","","","",""
"7227.339999999967","","","instructions","10","295753","0.0-10.0","o6tv81tt","[{""page_index"":0,""viewing_time"":7227.224999999977}]","","","","","","",""
"","","","call-function","11","295754","0.0-11.0","o6tv81tt","","","","","","","",""
"null","","","html-keyboard-response","12","297256","0.0-12.0","o6tv81tt","","<span style=""color:Black; font-size:50px;"">Agent A","null","","","","",""
"null","","","video-keyboard-response","13","300318","0.0-13.0","o6tv81tt","","","null","","Agent A","scrambled","STIM_SET_5/1159392.bmp_pp96_L2_V1.0_veridical_freeview_isoTrue_Hflip_fps144.mp4",""
"null","","","html-keyboard-response","14","301824","0.0-14.0","o6tv81tt","","<span style=""color:Black; font-size:50px;"">Agent B","null","","","","",""
"null","","","video-keyboard-response","15","304888","0.0-15.0","o6tv81tt","","","null","","Agent B","veridical","STIM_SET_2_144/1159392.bmp_pp96_L2_V1.0_veridical_freeview_isoTrue_fps144.mp4",""
"","","","call-function","16","304888","0.0-16.0","o6tv81tt","","","","","","","",""
"7069.439999999944","{""judgement"":0}","[0]","survey-likert","17","311959","0.0-17.0","o6tv81tt","","","","","","","","1"
"2020.390000000014","{""confidence"":0}","[0]","survey-likert","18","313980","0.0-18.0","o6tv81tt","","","","","","","",""
"","","","call-function","19","313981","0.0-19.0","o6tv81tt","","","","","","","",""
"null","","","html-keyboard-response","20","315483","0.0-20.0","o6tv81tt","","<span style=""color:Black; font-size:50px;"">Agent A","null","","","","",""
"null","","","video-keyboard-response","21","318549","0.0-21.0","o6tv81tt","","","null","","Agent A","scrambled","STIM_SET_5/713652.bmp_pp89_L1_V1_veridical_freeview_isoTrue_Hflip_fps144.mp4",""
"null","","","html-keyboard-response","22","320052","0.0-22.0","o6tv81tt","","<span style=""color:Black; font-size:50px;"">Agent B","null","","","","",""
"null","","","video-keyboard-response","23","323130","0.0-23.0","o6tv81tt","","","null","","Agent B","veridical","STIM_SET_2_144/713652.bmp_pp89_L1_V1_veridical_freeview_isoTrue_fps144.mp4",""
"","","","call-function","24","323130","0.0-24.0","o6tv81tt","","","","","","","",""
"4706.450000000012","{""judgement"":0}","[0]","survey-likert","25","327838","0.0-25.0","o6tv81tt","","","","","","","","1"
"1274.2949999999837","{""confidence"":0}","[0]","survey-likert","26","329113","0.0-26.0","o6tv81tt","","","","","","","",""
"","","","call-function","27","329114","0.0-27.0","o6tv81tt","","","","","","","",""
"null","","","html-keyboard-response","28","330620","0.0-28.0","o6tv81tt","","<span style=""color:Black; font-size:50px;"">Agent A","null","","","","",""
"null","","","video-keyboard-response","29","333697","0.0-29.0","o6tv81tt","","","null","","Agent A","scrambled","STIM_SET_5/498326.bmp_pp57_L1_V1.0_veridical_freeview_isoTrue_Hflip_fps144.mp4",""
"null","","","html-keyboard-response","30","335204","0.0-30.0","o6tv81tt","","<span style=""color:Black; font-size:50px;"">Agent B","null","","","","",""
"null","","","video-keyboard-response","31","338266","0.0-31.0","o6tv81tt","","","null","","Agent B","veridical","STIM_SET_2_144/498326.bmp_pp57_L1_V1.0_veridical_freeview_isoTrue_fps144.mp4",""
"","","","call-function","32","338266","0.0-32.0","o6tv81tt","","","","","","","",""
"1798.054999999993","{""judgement"":1}","[0]","survey-likert","33","340065","0.0-33.0","o6tv81tt","","","","","","","","1"
"1374.6849999999977","{""confidence"":0}","[0]","survey-likert","34","341441","0.0-34.0","o6tv81tt","","","","","","","",""
"","","","call-function","35","341442","0.0-35.0","o6tv81tt","","","","","","","",""
"null","","","html-keyboard-response","36","342946","0.0-36.0","o6tv81tt","","<span style=""color:Black; font-size:50px;"">Agent A","null","","","","",""
"null","","","video-keyboard-response","37","346031","0.0-37.0","o6tv81tt","","","null","","Agent A","scrambled","STIM_SET_5/1159956.bmp_pp59_L3_V1.0_veridical_freeview_isoTrue_Hflip_fps144.mp4",""
"null","","","html-keyboard-response","38","347535","0.0-38.0","o6tv81tt","","<span style=""color:Black; font-size:50px;"">Agent B","null","","","","",""
"null","","","video-keyboard-response","39","350616","0.0-39.0","o6tv81tt","","","null","","Agent B","veridical","STIM_SET_2_144/1159956.bmp_pp59_L3_V1.0_veridical_freeview_isoTrue_fps144.mp4",""
"","","","call-function","40","350616","0.0-40.0","o6tv81tt","","","","","","","",""
"2438.695000000007","{""judgement"":1}","[0]","survey-likert","41","353056","0.0-41.0","o6tv81tt","","","","","","","","1"
"2692.0849999999627","{""confidence"":1}","[0]","survey-likert","42","355749","0.0-42.0","o6tv81tt","","","","","","","",""
"","","","call-function","43","355749","0.0-43.0","o6tv81tt","","","","","","","",""
"null","","","html-keyboard-response","44","357254","0.0-44.0","o6tv81tt","","<span style=""color:Black; font-size:50px;"">Agent A","null","","","","",""
"null","","","video-keyboard-response","45","360327","0.0-45.0","o6tv81tt","","","null","","Agent A","veridical","STIM_SET_2_144/285684.bmp_pp80_L3_V1.0_veridical_freeview_isoTrue_fps144.mp4",""
"null","","","html-keyboard-response","46","361834","0.0-46.0","o6tv81tt","","<span style=""color:Black; font-size:50px;"">Agent B","null","","","","",""
"null","","","video-keyboard-response","47","364897","0.0-47.0","o6tv81tt","","","null","","Agent B","scrambled","STIM_SET_5/285684.bmp_pp80_L3_V1.0_veridical_freeview_isoTrue_Hflip_fps144.mp4",""
"","","","call-function","48","364898","0.0-48.0","o6tv81tt","","","","","","","",""
"3054.5800000000163","{""judgement"":0}","[0]","survey-likert","49","367954","0.0-49.0","o6tv81tt","","","","","","","","0"
"2259.4700000000303","{""confidence"":0}","[0]","survey-likert","50","370216","0.0-50.0","o6tv81tt","","","","","","","",""
"","","","call-function","51","370217","0.0-51.0","o6tv81tt","","","","","","","",""
"null","","","html-keyboard-response","52","371720","0.0-52.0","o6tv81tt","","<span style=""color:Black; font-size:50px;"">Agent A","null","","","","",""
"null","","","video-keyboard-response","53","374783","0.0-53.0","o6tv81tt","","","null","","Agent A","scrambled","STIM_SET_5/1592314.bmp_pp100_L3_V1.0_veridical_freeview_isoTrue_Hflip_fps144.mp4",""
"null","","","html-keyboard-response","54","376286","0.0-54.0","o6tv81tt","","<span style=""color:Black; font-size:50px;"">Agent B","null","","","","",""
"null","","","video-keyboard-response","55","379351","0.0-55.0","o6tv81tt","","","null","","Agent B","veridical","STIM_SET_2_144/1592314.bmp_pp100_L3_V1.0_veridical_freeview_isoTrue_fps144.mp4",""
"","","","call-function","56","379351","0.0-56.0","o6tv81tt","","","","","","","",""
"2511.5900000000256","{""judgement"":0}","[0]","survey-likert","57","381864","0.0-57.0","o6tv81tt","","","","","","","","1"
"1347.2700000000186","{""confidence"":1}","[0]","survey-likert","58","383213","0.0-58.0","o6tv81tt","","","","","","","",""
"","","","call-function","59","383213","0.0-59.0","o6tv81tt","","","","","","","",""
"null","","","html-keyboard-response","60","384718","0.0-60.0","o6tv81tt","","<span style=""color:Black; font-size:50px;"">Agent A","null","","","","",""
"null","","","video-keyboard-response","61","387787","0.0-61.0","o6tv81tt","","","null","","Agent A","scrambled","STIM_SET_5/713920.bmp_pp76_L1_V1.0_veridical_freeview_isoTrue_Hflip_fps144.mp4",""
"null","","","html-keyboard-response","62","389292","0.0-62.0","o6tv81tt","","<span style=""color:Black; font-size:50px;"">Agent B","null","","","","",""
"null","","","video-keyboard-response","63","392362","0.0-63.0","o6tv81tt","","","null","","Agent B","veridical","STIM_SET_2_144/713920.bmp_pp76_L1_V1.0_veridical_freeview_isoTrue_fps144.mp4",""
"","","","call-function","64","392362","0.0-64.0","o6tv81tt","","","","","","","",""
"1741.7200000000303","{""judgement"":0}","[0]","survey-likert","65","394105","0.0-65.0","o6tv81tt","","","","","","","","1"
"1558.3400000000256","{""confidence"":2}","[0]","survey-likert","66","395664","0.0-66.0","o6tv81tt","","","","","","","",""
"","","","call-function","67","395665","0.0-67.0","o6tv81tt","","","","","","","",""
"null","","","html-keyboard-response","68","397169","0.0-68.0","o6tv81tt","","<span style=""color:Black; font-size:50px;"">Agent A","null","","","","",""
"null","","","video-keyboard-response","69","400263","0.0-69.0","o6tv81tt","","","null","","Agent A","scrambled","STIM_SET_5/1592168.bmp_pp71_L1_V1.0_veridical_freeview_isoTrue_Hflip_fps144.mp4",""
"null","","","html-keyboard-response","70","401765","0.0-70.0","o6tv81tt","","<span style=""color:Black; font-size:50px;"">Agent B","null","","","","",""
"null","","","video-keyboard-response","71","404857","0.0-71.0","o6tv81tt","","","null","","Agent B","veridical","STIM_SET_2_144/1592168.bmp_pp71_L1_V1.0_veridical_freeview_isoTrue_fps144.mp4",""
"","","","call-function","72","404858","0.0-72.0","o6tv81tt","","","","","","","",""
"1688.4550000000163","{""judgement"":0}","[0]","survey-likert","73","406547","0.0-73.0","o6tv81tt","","","","","","","","1"
"2943.9250000000466","{""confidence"":2}","[0]","survey-likert","74","409492","0.0-74.0","o6tv81tt","","","","","","","",""
"","","","call-function","75","409493","0.0-75.0","o6tv81tt","","","","","","","",""
"null","","","html-keyboard-response","76","410995","0.0-76.0","o6tv81tt","","<span style=""color:Black; font-size:50px;"">Agent A","null","","","","",""
"null","","","video-keyboard-response","77","414079","0.0-77.0","o6tv81tt","","","null","","Agent A","scrambled","STIM_SET_5/1159819.bmp_pp151_L1_V1.0_veridical_freeview_isoTrue_Hflip_fps144.mp4",""
"null","","","html-keyboard-response","78","415585","0.0-78.0","o6tv81tt","","<span style=""color:Black; font-size:50px;"">Agent B","null","","","","",""
"null","","","video-keyboard-response","79","418666","0.0-79.0","o6tv81tt","","","null","","Agent B","veridical","STIM_SET_2_144/1159819.bmp_pp151_L1_V1.0_veridical_freeview_isoTrue_fps144.mp4",""
"","","","call-function","80","418667","0.0-80.0","o6tv81tt","","","","","","","",""
"2372.8150000000023","{""judgement"":0}","[0]","survey-likert","81","421040","0.0-81.0","o6tv81tt","","","","","","","","1"
"2043.6149999999907","{""confidence"":0}","[0]","survey-likert","82","423085","0.0-82.0","o6tv81tt","","","","","","","",""
"","","","call-function","83","423086","0.0-83.0","o6tv81tt","","","","","","","",""
"null","","","html-keyboard-response","84","424591","0.0-84.0","o6tv81tt","","<span style=""color:Black; font-size:50px;"">Agent A","null","","","","",""
"null","","","video-keyboard-response","85","427681","0.0-85.0","o6tv81tt","","","null","","Agent A","veridical","STIM_SET_2_144/1159874.bmp_pp96_L2_V1.0_veridical_freeview_isoTrue_fps144.mp4",""
"null","","","html-keyboard-response","86","429186","0.0-86.0","o6tv81tt","","<span style=""color:Black; font-size:50px;"">Agent B","null","","","","",""
"null","","","video-keyboard-response","87","432280","0.0-87.0","o6tv81tt","","","null","","Agent B","scrambled","STIM_SET_5/1159874.bmp_pp96_L2_V1.0_veridical_freeview_isoTrue_Hflip_fps144.mp4",""
"","","","call-function","88","432281","0.0-88.0","o6tv81tt","","","","","","","",""
"2201.3099999999977","{""judgement"":0}","[0]","survey-likert","89","434483","0.0-89.0","o6tv81tt","","","","","","","","0"
"1505.045000000042","{""confidence"":0}","[0]","survey-likert","90","435989","0.0-90.0","o6tv81tt","","","","","","","",""
"2909.0349999999744","","","instructions","91","438899","0.0-91.0","o6tv81tt","[{""page_index"":0,""viewing_time"":1111.9500000000116},{""page_index"":1,""viewing_time"":952.7199999999721},{""page_index"":2,""viewing_time"":844.070000000007}]","","","","","","",""
"11526.219999999972","","","instructions","92","450426","0.0-92.0","o6tv81tt","[{""page_index"":0,""viewing_time"":740.5250000000233},{""page_index"":1,""viewing_time"":10202.554999999993},{""page_index"":2,""viewing_time"":583.0299999999697}]","","","","","","",""
"","","","call-function","93","450426","0.0-93.0","o6tv81tt","","","","","","","",""
"null","","","html-keyboard-response","94","451930","0.0-94.0","o6tv81tt","","<span style=""color:Black; font-size:50px;"">Agent A","null","","","","",""
"null","","","video-keyboard-response","95","454992","0.0-95.0","o6tv81tt","","","null","","Agent A","veridical","STIM_SET_2_144/1592017.bmp_pp154_L1_V1.0_veridical_freeview_isoTrue_fps144.mp4",""
"null","","","html-keyboard-response","96","456497","0.0-96.0","o6tv81tt","","<span style=""color:Black; font-size:50px;"">Agent B","null","","","","",""
"null","","","video-keyboard-response","97","459559","0.0-97.0","o6tv81tt","","","null","","Agent B","scrambled","STIM_SET_5/1592017.bmp_pp154_L1_V1.0_veridical_freeview_isoTrue_Hflip_fps144.mp4",""
"","","","call-function","98","459559","0.0-98.0","o6tv81tt","","","","","","","",""
"4185.09500000003","{""judgement"":0}","[0]","survey-likert","99","463745","0.0-99.0","o6tv81tt","","","","","","","","0"
"1200.9749999999767","{""confidence"":0}","[0]","survey-likert","100","464947","0.0-100.0","o6tv81tt","","","","","","","",""
"","","","call-function","101","464948","0.0-101.0","o6tv81tt","","","","","","","",""
"null","","","html-keyboard-response","102","466451","0.0-102.0","o6tv81tt","","<span style=""color:Black; font-size:50px;"">Agent A","null","","","","",""
"null","","","video-keyboard-response","103","469527","0.0-103.0","o6tv81tt","","","null","","Agent A","veridical","STIM_SET_2_144/713742.bmp_pp91_L3_V1.0_veridical_freeview_isoTrue_fps144.mp4",""
"null","","","html-keyboard-response","104","471031","0.0-104.0","o6tv81tt","","<span style=""color:Black; font-size:50px;"">Agent B","null","","","","",""
"null","","","video-keyboard-response","105","474108","0.0-105.0","o6tv81tt","","","null","","Agent B","scrambled","STIM_SET_5/713742.bmp_pp91_L3_V1.0_veridical_freeview_isoTrue_Hflip_fps144.mp4",""
"","","","call-function","106","474109","0.0-106.0","o6tv81tt","","","","","","","",""
"2228.875","{""judgement"":0}","[0]","survey-likert","107","476339","0.0-107.0","o6tv81tt","","","","","","","","0"
"1011.789999999979","{""confidence"":0}","[0]","survey-likert","108","477353","0.0-108.0","o6tv81tt","","","","","","","",""
"","","","call-function","109","477354","0.0-109.0","o6tv81tt","","","","","","","",""
"null","","","html-keyboard-response","110","478856","0.0-110.0","o6tv81tt","","<span style=""color:Black; font-size:50px;"">Agent A","null","","","","",""
"null","","","video-keyboard-response","111","481926","0.0-111.0","o6tv81tt","","","null","","Agent A","scrambled","STIM_SET_5/498261.bmp_pp84_L3_V1.0_veridical_freeview_isoTrue_Hflip_fps144.mp4",""
"null","","","html-keyboard-response","112","483431","0.0-112.0","o6tv81tt","","<span style=""color:Black; font-size:50px;"">Agent B","null","","","","",""
"null","","","video-keyboard-response","113","486502","0.0-113.0","o6tv81tt","","","null","","Agent B","veridical","STIM_SET_2_144/498261.bmp_pp84_L3_V1.0_veridical_freeview_isoTrue_fps144.mp4",""
"","","","call-function","114","486502","0.0-114.0","o6tv81tt","","","","","","","",""
"2490.280000000028","{""judgement"":0}","[0]","survey-likert","115","488994","0.0-115.0","o6tv81tt","","","","","","","","1"
"1097.6100000000442","{""confidence"":0}","[0]","survey-likert","116","490093","0.0-116.0","o6tv81tt","","","","","","","",""
"","","","call-function","117","490093","0.0-117.0","o6tv81tt","","","","","","","",""
"null","","","html-keyboard-response","118","491599","0.0-118.0","o6tv81tt","","<span style=""color:Black; font-size:50px;"">Agent A","null","","","","",""
"null","","","video-keyboard-response","119","494666","0.0-119.0","o6tv81tt","","","null","","Agent A","scrambled","STIM_SET_5/285715.bmp_pp67_L2_V1.0_veridical_freeview_isoTrue_Hflip_fps144.mp4",""
"null","","","html-keyboard-response","120","496168","0.0-120.0","o6tv81tt","","<span style=""color:Black; font-size:50px;"">Agent B","null","","","","",""
"null","","","video-keyboard-response","121","499231","0.0-121.0","o6tv81tt","","","null","","Agent B","veridical","STIM_SET_2_144/285715.bmp_pp67_L2_V1.0_veridical_freeview_isoTrue_fps144.mp4",""
"","","","call-function","122","499231","0.0-122.0","o6tv81tt","","","","","","","",""
"1882.414999999979","{""judgement"":0}","[0]","survey-likert","123","501114","0.0-123.0","o6tv81tt","","","","","","","","1"
"1228.304999999993","{""confidence"":0}","[0]","survey-likert","124","502344","0.0-124.0","o6tv81tt","","","","","","","",""
"","","","call-function","125","502344","0.0-125.0","o6tv81tt","","","","","","","",""
"null","","","html-keyboard-response","126","503849","0.0-126.0","o6tv81tt","","<span style=""color:Black; font-size:50px;"">Agent A","null","","","","",""
"null","","","video-keyboard-response","127","506933","0.0-127.0","o6tv81tt","","","null","","Agent A","scrambled","STIM_SET_5/1160204.bmp_pp54_L2_V1.0_veridical_freeview_isoTrue_Hflip_fps144.mp4",""
"null","","","html-keyboard-response","128","508438","0.0-128.0","o6tv81tt","","<span style=""color:Black; font-size:50px;"">Agent B","null","","","","",""
"null","","","video-keyboard-response","129","511521","0.0-129.0","o6tv81tt","","","null","","Agent B","veridical","STIM_SET_2_144/1160204.bmp_pp54_L2_V1.0_veridical_freeview_isoTrue_fps144.mp4",""
"","","","call-function","130","511521","0.0-130.0","o6tv81tt","","","","","","","",""
"2225.460000000021","{""judgement"":0}","[0]","survey-likert","131","513748","0.0-131.0","o6tv81tt","","","","","","","","1"
"2191.7600000000093","{""confidence"":2}","[0]","survey-likert","132","515941","0.0-132.0","o6tv81tt","","","","","","","",""
"","","","call-function","133","515941","0.0-133.0","o6tv81tt","","","","","","","",""
"null","","","html-keyboard-response","134","517443","0.0-134.0","o6tv81tt","","<span style=""color:Black; font-size:50px;"">Agent A","null","","","","",""
"null","","","video-keyboard-response","135","520525","0.0-135.0","o6tv81tt","","","null","","Agent A","scrambled","STIM_SET_5/1592530.bmp_pp75_L1_V1.0_veridical_freeview_isoTrue_Hflip_fps144.mp4",""
"null","","","html-keyboard-response","136","522027","0.0-136.0","o6tv81tt","","<span style=""color:Black; font-size:50px;"">Agent B","null","","","","",""
"null","","","video-keyboard-response","137","525111","0.0-137.0","o6tv81tt","","","null","","Agent B","veridical","STIM_SET_2_144/1592530.bmp_pp75_L1_V1.0_veridical_freeview_isoTrue_fps144.mp4",""
"","","","call-function","138","525111","0.0-138.0","o6tv81tt","","","","","","","",""
"3428.085000000079","{""judgement"":1}","[0]","survey-likert","139","528540","0.0-139.0","o6tv81tt","","","","","","","","1"
"939.9799999999814","{""confidence"":1}","[0]","survey-likert","140","529481","0.0-140.0","o6tv81tt","","","","","","","",""
"","","","call-function","141","529482","0.0-141.0","o6tv81tt","","","","","","","",""
"null","","","html-keyboard-response","142","530984","0.0-142.0","o6tv81tt","","<span style=""color:Black; font-size:50px;"">Agent A","null","","","","",""
"null","","","video-keyboard-response","143","534076","0.0-143.0","o6tv81tt","","","null","","Agent A","veridical","STIM_SET_2_144/107909.bmp_pp95_L2_V1.0_veridical_freeview_isoTrue_fps144.mp4",""
"null","","","html-keyboard-response","144","535580","0.0-144.0","o6tv81tt","","<span style=""color:Black; font-size:50px;"">Agent B","null","","","","",""
"null","","","video-keyboard-response","145","538673","0.0-145.0","o6tv81tt","","","null","","Agent B","scrambled","STIM_SET_5/107909.bmp_pp95_L2_V1.0_veridical_freeview_isoTrue_Hflip_fps144.mp4",""
"","","","call-function","146","538673","0.0-146.0","o6tv81tt","","","","","","","",""
"1623.469999999972","{""judgement"":0}","[0]","survey-likert","147","540298","0.0-147.0","o6tv81tt","","","","","","","","0"
"1279.6100000001024","{""confidence"":0}","[0]","survey-likert","148","541578","0.0-148.0","o6tv81tt","","","","","","","",""
"","","","call-function","149","541579","0.0-149.0","o6tv81tt","","","","","","","",""
"null","","","html-keyboard-response","150","543083","0.0-150.0","o6tv81tt","","<span style=""color:Black; font-size:50px;"">Agent A","null","","","","",""
"null","","","video-keyboard-response","151","546149","0.0-151.0","o6tv81tt","","","null","","Agent A","veridical","STIM_SET_2_144/713274.bmp_pp73_L3_V1.0_veridical_freeview_isoTrue_fps144.mp4",""
"null","","","html-keyboard-response","152","547654","0.0-152.0","o6tv81tt","","<span style=""color:Black; font-size:50px;"">Agent B","null","","","","",""
"null","","","video-keyboard-response","153","550722","0.0-153.0","o6tv81tt","","","null","","Agent B","scrambled","STIM_SET_5/713274.bmp_pp73_L3_V1.0_veridical_freeview_isoTrue_Hflip_fps144.mp4",""
"","","","call-function","154","550723","0.0-154.0","o6tv81tt","","","","","","","",""
"6152.855000000098","{""judgement"":1}","[0]","survey-likert","155","556876","0.0-155.0","o6tv81tt","","","","","","","","0"
"2293","{""confidence"":0}","[0]","survey-likert","156","559171","0.0-156.0","o6tv81tt","","","","","","","",""
"","","","call-function","157","559171","0.0-157.0","o6tv81tt","","","","","","","",""
"null","","","html-keyboard-response","158","560673","0.0-158.0","o6tv81tt","","<span style=""color:Black; font-size:50px;"">Agent A","null","","","","",""
"null","","","video-keyboard-response","159","563735","0.0-159.0","o6tv81tt","","","null","","Agent A","veridical","STIM_SET_2_144/1592567.bmp_pp70_L2_V1.0_veridical_freeview_isoTrue_fps144.mp4",""
"null","","","html-keyboard-response","160","565237","0.0-160.0","o6tv81tt","","<span style=""color:Black; font-size:50px;"">Agent B","null","","","","",""
"null","","","video-keyboard-response","161","568298","0.0-161.0","o6tv81tt","","","null","","Agent B","scrambled","STIM_SET_5/1592567.bmp_pp70_L2_V1.0_veridical_freeview_isoTrue_Hflip_fps144.mp4",""
"","","","call-function","162","568299","0.0-162.0","o6tv81tt","","","","","","","",""
"3024.515000000014","{""judgement"":1}","[0]","survey-likert","163","571325","0.0-163.0","o6tv81tt","","","","","","","","0"
"1751.1350000000093","{""confidence"":1}","[0]","survey-likert","164","573078","0.0-164.0","o6tv81tt","","","","","","","",""
"","","","call-function","165","573078","0.0-165.0","o6tv81tt","","","","","","","",""
"null","","","html-keyboard-response","166","574581","0.0-166.0","o6tv81tt","","<span style=""color:Black; font-size:50px;"">Agent A","null","","","","",""
"null","","","video-keyboard-response","167","577656","0.0-167.0","o6tv81tt","","","null","","Agent A","scrambled","STIM_SET_5/107955.bmp_pp90_L2_V1.0_veridical_freeview_isoTrue_Hflip_fps144.mp4",""
"null","","","html-keyboard-response","168","579160","0.0-168.0","o6tv81tt","","<span style=""color:Black; font-size:50px;"">Agent B","null","","","","",""
"null","","","video-keyboard-response","169","582223","0.0-169.0","o6tv81tt","","","null","","Agent B","veridical","STIM_SET_2_144/107955.bmp_pp90_L2_V1.0_veridical_freeview_isoTrue_fps144.mp4",""
"","","","call-function","170","582224","0.0-170.0","o6tv81tt","","","","","","","",""
"1634.594999999972","{""judgement"":0}","[0]","survey-likert","171","583860","0.0-171.0","o6tv81tt","","","","","","","","1"
"1051.1199999999953","{""confidence"":0}","[0]","survey-likert","172","584913","0.0-172.0","o6tv81tt","","","","","","","",""
"1979.5699999999488","","","instructions","173","586893","0.0-173.0","o6tv81tt","[{""page_index"":0,""viewing_time"":865.3449999999721},{""page_index"":1,""viewing_time"":613.140000000014},{""page_index"":2,""viewing_time"":500.85999999998603}]","","","","","","",""
"7041.130000000005","","","instructions","174","593935","0.0-174.0","o6tv81tt","[{""page_index"":0,""viewing_time"":919.3049999999348},{""page_index"":1,""viewing_time"":611.9899999999907},{""page_index"":2,""viewing_time"":872.1600000000326},{""page_index"":1,""viewing_time"":4033.420000000042},{""page_index"":2,""viewing_time"":604.1399999998976}]","","","","","","",""
"","","","call-function","175","593936","0.0-175.0","o6tv81tt","","","","","","","",""
"null","","","html-keyboard-response","176","595437","0.0-176.0","o6tv81tt","","<span style=""color:Black; font-size:50px;"">Agent A","null","","","","",""
"null","","","video-keyboard-response","177","598512","0.0-177.0","o6tv81tt","","","null","","Agent A","veridical","STIM_SET_2_144/1592568.bmp_pp71_L1_V1.0_veridical_freeview_isoTrue_fps144.mp4",""
"null","","","html-keyboard-response","178","600017","0.0-178.0","o6tv81tt","","<span style=""color:Black; font-size:50px;"">Agent B","null","","","","",""
"null","","","video-keyboard-response","179","603092","0.0-179.0","o6tv81tt","","","null","","Agent B","scrambled","STIM_SET_5/1592568.bmp_pp71_L1_V1.0_veridical_freeview_isoTrue_Hflip_fps144.mp4",""
"","","","call-function","180","603093","0.0-180.0","o6tv81tt","","","","","","","",""
"2334.2249999999767","{""judgement"":0}","[0]","survey-likert","181","605428","0.0-181.0","o6tv81tt","","","","","","","","0"
"1909.2850000000326","{""confidence"":0}","[0]","survey-likert","182","607339","0.0-182.0","o6tv81tt","","","","","","","",""
"","","","call-function","183","607339","0.0-183.0","o6tv81tt","","","","","","","",""
"null","","","html-keyboard-response","184","608842","0.0-184.0","o6tv81tt","","<span style=""color:Black; font-size:50px;"">Agent A","null","","","","",""
"null","","","video-keyboard-response","185","611912","0.0-185.0","o6tv81tt","","","null","","Agent A","veridical","STIM_SET_2_144/1159508.bmp_pp151_L1_V1.0_veridical_freeview_isoTrue_fps144.mp4",""
"null","","","html-keyboard-response","186","613417","0.0-186.0","o6tv81tt","","<span style=""color:Black; font-size:50px;"">Agent B","null","","","","",""
"null","","","video-keyboard-response","187","616500","0.0-187.0","o6tv81tt","","","null","","Agent B","scrambled","STIM_SET_5/1159508.bmp_pp151_L1_V1.0_veridical_freeview_isoTrue_Hflip_fps144.mp4",""
"","","","call-function","188","616500","0.0-188.0","o6tv81tt","","","","","","","",""
"2206.484999999986","{""judgement"":0}","[0]","survey-likert","189","618708","0.0-189.0","o6tv81tt","","","","","","","","0"
"2455.1300000000047","{""confidence"":0}","[0]","survey-likert","190","621165","0.0-190.0","o6tv81tt","","","","","","","",""
"","","","call-function","191","621165","0.0-191.0","o6tv81tt","","","","","","","",""
"null","","","html-keyboard-response","192","622667","0.0-192.0","o6tv81tt","","<span style=""color:Black; font-size:50px;"">Agent A","null","","","","",""
"null","","","video-keyboard-response","193","625752","0.0-193.0","o6tv81tt","","","null","","Agent A","scrambled","STIM_SET_5/498396.bmp_pp99_L2_V1.0_veridical_freeview_isoTrue_Hflip_fps144.mp4",""
"null","","","html-keyboard-response","194","627257","0.0-194.0","o6tv81tt","","<span style=""color:Black; font-size:50px;"">Agent B","null","","","","",""
"null","","","video-keyboard-response","195","630342","0.0-195.0","o6tv81tt","","","null","","Agent B","veridical","STIM_SET_2_144/498396.bmp_pp99_L2_V1.0_veridical_freeview_isoTrue_fps144.mp4",""
"","","","call-function","196","630342","0.0-196.0","o6tv81tt","","","","","","","",""
"1853.5700000000652","{""judgement"":1}","[0]","survey-likert","197","632196","0.0-197.0","o6tv81tt","","","","","","","","1"
"1709.9750000000931","{""confidence"":0}","[0]","survey-likert","198","633908","0.0-198.0","o6tv81tt","","","","","","","",""
"","","","call-function","199","633908","0.0-199.0","o6tv81tt","","","","","","","",""
"null","","","html-keyboard-response","200","635411","0.0-200.0","o6tv81tt","","<span style=""color:Black; font-size:50px;"">Agent A","null","","","","",""
"null","","","video-keyboard-response","201","638488","0.0-201.0","o6tv81tt","","","null","","Agent A","scrambled","STIM_SET_5/1159427.bmp_pp98_L1_V1.0_veridical_freeview_isoTrue_Hflip_fps144.mp4",""
"null","","","html-keyboard-response","202","639990","0.0-202.0","o6tv81tt","","<span style=""color:Black; font-size:50px;"">Agent B","null","","","","",""
"null","","","video-keyboard-response","203","643070","0.0-203.0","o6tv81tt","","","null","","Agent B","veridical","STIM_SET_2_144/1159427.bmp_pp98_L1_V1.0_veridical_freeview_isoTrue_fps144.mp4",""
"","","","call-function","204","643071","0.0-204.0","o6tv81tt","","","","","","","",""
"5723.464999999967","{""judgement"":0}","[0]","survey-likert","205","648795","0.0-205.0","o6tv81tt","","","","","","","","1"
"1024.2750000000233","{""confidence"":0}","[0]","survey-likert","206","649820","0.0-206.0","o6tv81tt","","","","","","","",""
"","","","call-function","207","649821","0.0-207.0","o6tv81tt","","","","","","","",""
"null","","","html-keyboard-response","208","651323","0.0-208.0","o6tv81tt","","<span style=""color:Black; font-size:50px;"">Agent A","null","","","","",""
"null","","","video-keyboard-response","209","654389","0.0-209.0","o6tv81tt","","","null","","Agent A","veridical","STIM_SET_2_144/61513.bmp_pp75_L1_V1.0_veridical_freeview_isoTrue_fps144.mp4",""
"null","","","html-keyboard-response","210","655891","0.0-210.0","o6tv81tt","","<span style=""color:Black; font-size:50px;"">Agent B","null","","","","",""
"null","","","video-keyboard-response","211","658972","0.0-211.0","o6tv81tt","","","null","","Agent B","scrambled","STIM_SET_5/61513.bmp_pp75_L1_V1.0_veridical_freeview_isoTrue_Hflip_fps144.mp4",""
"","","","call-function","212","658973","0.0-212.0","o6tv81tt","","","","","","","",""
"1391.219999999972","{""judgement"":0}","[0]","survey-likert","213","660365","0.0-213.0","o6tv81tt","","","","","","","","0"
"1266.8399999999674","{""confidence"":0}","[0]","survey-likert","214","661633","0.0-214.0","o6tv81tt","","","","","","","",""
"","","","call-function","215","661633","0.0-215.0","o6tv81tt","","","","","","","",""
"null","","","html-keyboard-response","216","663138","0.0-216.0","o6tv81tt","","<span style=""color:Black; font-size:50px;"">Agent A","null","","","","",""
"null","","","video-keyboard-response","217","666212","0.0-217.0","o6tv81tt","","","null","","Agent A","scrambled","STIM_SET_5/1159592.bmp_pp91_L3_V1.0_veridical_freeview_isoTrue_Hflip_fps144.mp4",""
"null","","","html-keyboard-response","218","667715","0.0-218.0","o6tv81tt","","<span style=""color:Black; font-size:50px;"">Agent B","null","","","","",""
"null","","","video-keyboard-response","219","670789","0.0-219.0","o6tv81tt","","","null","","Agent B","veridical","STIM_SET_2_144/1159592.bmp_pp91_L3_V1.0_veridical_freeview_isoTrue_fps144.mp4",""
"","","","call-function","220","670791","0.0-220.0","o6tv81tt","","","","","","","",""
"1589.1050000000978","{""judgement"":0}","[0]","survey-likert","221","672381","0.0-221.0","o6tv81tt","","","","","","","","1"
"1261.2449999999953","{""confidence"":0}","[0]","survey-likert","222","673644","0.0-222.0","o6tv81tt","","","","","","","",""
"","","","call-function","223","673645","0.0-223.0","o6tv81tt","","","","","","","",""
"null","","","html-keyboard-response","224","675151","0.0-224.0","o6tv81tt","","<span style=""color:Black; font-size:50px;"">Agent A","null","","","","",""
"null","","","video-keyboard-response","225","678219","0.0-225.0","o6tv81tt","","","null","","Agent A","veridical","STIM_SET_2_144/1159860.bmp_pp152_L2_V1.0_veridical_freeview_isoTrue_fps144.mp4",""
"null","","","html-keyboard-response","226","679721","0.0-226.0","o6tv81tt","","<span style=""color:Black; font-size:50px;"">Agent B","null","","","","",""
"null","","","video-keyboard-response","227","682783","0.0-227.0","o6tv81tt","","","null","","Agent B","scrambled","STIM_SET_5/1159860.bmp_pp152_L2_V1.0_veridical_freeview_isoTrue_Hflip_fps144.mp4",""
"","","","call-function","228","682784","0.0-228.0","o6tv81tt","","","","","","","",""
"1282.2249999999767","{""judgement"":0}","[0]","survey-likert","229","684067","0.0-229.0","o6tv81tt","","","","","","","","0"
"1110.8349999999627","{""confidence"":0}","[0]","survey-likert","230","685180","0.0-230.0","o6tv81tt","","","","","","","",""
"","","","call-function","231","685181","0.0-231.0","o6tv81tt","","","","","","","",""
"null","","","html-keyboard-response","232","686684","0.0-232.0","o6tv81tt","","<span style=""color:Black; font-size:50px;"">Agent A","null","","","","",""
"null","","","video-keyboard-response","233","689752","0.0-233.0","o6tv81tt","","","null","","Agent A","veridical","STIM_SET_2_144/1160189.bmp_pp64_L1_V1.0_veridical_freeview_isoTrue_fps144.mp4",""
"null","","","html-keyboard-response","234","691255","0.0-234.0","o6tv81tt","","<span style=""color:Black; font-size:50px;"">Agent B","null","","","","",""
"null","","","video-keyboard-response","235","694328","0.0-235.0","o6tv81tt","","","null","","Agent B","scrambled","STIM_SET_5/1160189.bmp_pp64_L1_V1.0_veridical_freeview_isoTrue_Hflip_fps144.mp4",""
"","","","call-function","236","694329","0.0-236.0","o6tv81tt","","","","","","","",""
"1715.4000000000233","{""judgement"":0}","[0]","survey-likert","237","696045","0.0-237.0","o6tv81tt","","","","","","","","0"
"2068.8549999999814","{""confidence"":0}","[0]","survey-likert","238","698115","0.0-238.0","o6tv81tt","","","","","","","",""
"","","","call-function","239","698116","0.0-239.0","o6tv81tt","","","","","","","",""
"null","","","html-keyboard-response","240","699618","0.0-240.0","o6tv81tt","","<span style=""color:Black; font-size:50px;"">Agent A","null","","","","",""
"null","","","video-keyboard-response","241","702705","0.0-241.0","o6tv81tt","","","null","","Agent A","scrambled","STIM_SET_5/1592201.bmp_pp97_L3_V1.0_veridical_freeview_isoTrue_Hflip_fps144.mp4",""
"null","","","html-keyboard-response","242","704206","0.0-242.0","o6tv81tt","","<span style=""color:Black; font-size:50px;"">Agent B","null","","","","",""
"null","","","video-keyboard-response","243","707290","0.0-243.0","o6tv81tt","","","null","","Agent B","veridical","STIM_SET_2_144/1592201.bmp_pp97_L3_V1.0_veridical_freeview_isoTrue_fps144.mp4",""
"","","","call-function","244","707290","0.0-244.0","o6tv81tt","","","","","","","",""
"6793.829999999958","{""judgement"":0}","[0]","survey-likert","245","714086","0.0-245.0","o6tv81tt","","","","","","","","1"
"1611.8049999999348","{""confidence"":0}","[0]","survey-likert","246","715699","0.0-246.0","o6tv81tt","","","","","","","",""
"","","","call-function","247","715700","0.0-247.0","o6tv81tt","","","","","","","",""
"null","","","html-keyboard-response","248","717206","0.0-248.0","o6tv81tt","","<span style=""color:Black; font-size:50px;"">Agent A","null","","","","",""
"null","","","video-keyboard-response","249","720288","0.0-249.0","o6tv81tt","","","null","","Agent A","scrambled","STIM_SET_5/1592298.bmp_pp56_L3_V1.0_veridical_freeview_isoTrue_Hflip_fps144.mp4",""
"null","","","html-keyboard-response","250","721792","0.0-250.0","o6tv81tt","","<span style=""color:Black; font-size:50px;"">Agent B","null","","","","",""
"null","","","video-keyboard-response","251","724875","0.0-251.0","o6tv81tt","","","null","","Agent B","veridical","STIM_SET_2_144/1592298.bmp_pp56_L3_V1.0_veridical_freeview_isoTrue_fps144.mp4",""
"","","","call-function","252","724876","0.0-252.0","o6tv81tt","","","","","","","",""
"2547.344999999972","{""judgement"":0}","[0]","survey-likert","253","727424","0.0-253.0","o6tv81tt","","","","","","","","1"
"1291.9199999999255","{""confidence"":1}","[0]","survey-likert","254","728717","0.0-254.0","o6tv81tt","","","","","","","",""
"2136.875","","","instructions","255","730854","0.0-255.0","o6tv81tt","[{""page_index"":0,""viewing_time"":875.6500000000233},{""page_index"":1,""viewing_time"":703.1300000000047},{""page_index"":2,""viewing_time"":557.8950000000186}]","","","","","","",""
"2217.29999999993","","","instructions","256","733072","0.0-256.0","o6tv81tt","[{""page_index"":0,""viewing_time"":477.27499999990687},{""page_index"":1,""viewing_time"":1252.045000000042},{""page_index"":2,""viewing_time"":487.875}]","","","","","","",""
"","","","call-function","257","733073","0.0-257.0","o6tv81tt","","","","","","","",""
"null","","","html-keyboard-response","258","734579","0.0-258.0","o6tv81tt","","<span style=""color:Black; font-size:50px;"">Agent A","null","","","","",""
"null","","","video-keyboard-response","259","737654","0.0-259.0","o6tv81tt","","","null","","Agent A","scrambled","STIM_SET_5/713689.bmp_pp153_L3_V1.0_veridical_freeview_isoTrue_Hflip_fps144.mp4",""
"null","","","html-keyboard-response","260","739156","0.0-260.0","o6tv81tt","","<span style=""color:Black; font-size:50px;"">Agent B","null","","","","",""
"null","","","video-keyboard-response","261","742218","0.0-261.0","o6tv81tt","","","null","","Agent B","veridical","STIM_SET_2_144/713689.bmp_pp153_L3_V1.0_veridical_freeview_isoTrue_fps144.mp4",""
"","","","call-function","262","742218","0.0-262.0","o6tv81tt","","","","","","","",""
"2437.534999999916","{""judgement"":0}","[0]","survey-likert","263","744657","0.0-263.0","o6tv81tt","","","","","","","","1"
"1859.0199999999022","{""confidence"":2}","[0]","survey-likert","264","746517","0.0-264.0","o6tv81tt","","","","","","","",""
"","","","call-function","265","746517","0.0-265.0","o6tv81tt","","","","","","","",""
"null","","","html-keyboard-response","266","748023","0.0-266.0","o6tv81tt","","<span style=""color:Black; font-size:50px;"">Agent A","null","","","","",""
"null","","","video-keyboard-response","267","751087","0.0-267.0","o6tv81tt","","","null","","Agent A","veridical","STIM_SET_2_144/1160049.bmp_pp53_L2_V1.0_veridical_freeview_isoTrue_fps144.mp4",""
"null","","","html-keyboard-response","268","752593","0.0-268.0","o6tv81tt","","<span style=""color:Black; font-size:50px;"">Agent B","null","","","","",""
"null","","","video-keyboard-response","269","755654","0.0-269.0","o6tv81tt","","","null","","Agent B","scrambled","STIM_SET_5/1160049.bmp_pp53_L2_V1.0_veridical_freeview_isoTrue_Hflip_fps144.mp4",""
"","","","call-function","270","755655","0.0-270.0","o6tv81tt","","","","","","","",""
"2216.42499999993","{""judgement"":1}","[0]","survey-likert","271","757872","0.0-271.0","o6tv81tt","","","","","","","","0"
"1641.6749999999302","{""confidence"":2}","[0]","survey-likert","272","759516","0.0-272.0","o6tv81tt","","","","","","","",""
"","","","call-function","273","759516","0.0-273.0","o6tv81tt","","","","","","","",""
"null","","","html-keyboard-response","274","761019","0.0-274.0","o6tv81tt","","<span style=""color:Black; font-size:50px;"">Agent A","null","","","","",""
"null","","","video-keyboard-response","275","764095","0.0-275.0","o6tv81tt","","","null","","Agent A","veridical","STIM_SET_2_144/713790.bmp_pp100_L3_V1_veridical_freeview_isoTrue_fps144.mp4",""
"null","","","html-keyboard-response","276","765599","0.0-276.0","o6tv81tt","","<span style=""color:Black; font-size:50px;"">Agent B","null","","","","",""
"null","","","video-keyboard-response","277","768686","0.0-277.0","o6tv81tt","","","null","","Agent B","scrambled","STIM_SET_5/713790.bmp_pp100_L3_V1_veridical_freeview_isoTrue_Hflip_fps144.mp4",""
"","","","call-function","278","768687","0.0-278.0","o6tv81tt","","","","","","","",""
"1168.3349999999627","{""judgement"":1}","[0]","survey-likert","279","769856","0.0-279.0","o6tv81tt","","","","","","","","0"
"1494.9800000000978","{""confidence"":2}","[0]","survey-likert","280","771352","0.0-280.0","o6tv81tt","","","","","","","",""
"","","","call-function","281","771353","0.0-281.0","o6tv81tt","","","","","","","",""
"null","","","html-keyboard-response","282","772855","0.0-282.0","o6tv81tt","","<span style=""color:Black; font-size:50px;"">Agent A","null","","","","",""
"null","","","video-keyboard-response","283","775939","0.0-283.0","o6tv81tt","","","null","","Agent A","scrambled","STIM_SET_5/1592921.bmp_pp69_L3_V1.0_veridical_freeview_isoTrue_Hflip_fps144.mp4",""
"null","","","html-keyboard-response","284","777445","0.0-284.0","o6tv81tt","","<span style=""color:Black; font-size:50px;"">Agent B","null","","","","",""
"null","","","video-keyboard-response","285","780526","0.0-285.0","o6tv81tt","","","null","","Agent B","veridical","STIM_SET_2_144/1592921.bmp_pp69_L3_V1.0_veridical_freeview_isoTrue_fps144.mp4",""
"","","","call-function","286","780527","0.0-286.0","o6tv81tt","","","","","","","",""
"2496.1149999999907","{""judgement"":0}","[0]","survey-likert","287","783024","0.0-287.0","o6tv81tt","","","","","","","","1"
"2117.7600000000093","{""confidence"":2}","[0]","survey-likert","288","785143","0.0-288.0","o6tv81tt","","","","","","","",""
"","","","call-function","289","785144","0.0-289.0","o6tv81tt","","","","","","","",""
"null","","","html-keyboard-response","290","786645","0.0-290.0","o6tv81tt","","<span style=""color:Black; font-size:50px;"">Agent A","null","","","","",""
"null","","","video-keyboard-response","291","789735","0.0-291.0","o6tv81tt","","","null","","Agent A","veridical","STIM_SET_2_144/498258.bmp_pp51_L1_V1.0_veridical_freeview_isoTrue_fps144.mp4",""
"null","","","html-keyboard-response","292","791237","0.0-292.0","o6tv81tt","","<span style=""color:Black; font-size:50px;"">Agent B","null","","","","",""
"null","","","video-keyboard-response","293","794325","0.0-293.0","o6tv81tt","","","null","","Agent B","scrambled","STIM_SET_5/498258.bmp_pp51_L1_V1.0_veridical_freeview_isoTrue_Hflip_fps144.mp4",""
"","","","call-function","294","794327","0.0-294.0","o6tv81tt","","","","","","","",""
"1420.7750000000233","{""judgement"":1}","[0]","survey-likert","295","795748","0.0-295.0","o6tv81tt","","","","","","","","0"
"1491.984999999986","{""confidence"":3}","[0]","survey-likert","296","797242","0.0-296.0","o6tv81tt","","","","","","","",""
"","","","call-function","297","797244","0.0-297.0","o6tv81tt","","","","","","","",""
"null","","","html-keyboard-response","298","798749","0.0-298.0","o6tv81tt","","<span style=""color:Black; font-size:50px;"">Agent A","null","","","","",""
"null","","","video-keyboard-response","299","801809","0.0-299.0","o6tv81tt","","","null","","Agent A","veridical","STIM_SET_2_144/498398.bmp_pp81_L1_V1.0_veridical_freeview_isoTrue_fps144.mp4",""
"null","","","html-keyboard-response","300","803312","0.0-300.0","o6tv81tt","","<span style=""color:Black; font-size:50px;"">Agent B","null","","","","",""
"null","","","video-keyboard-response","301","806373","0.0-301.0","o6tv81tt","","","null","","Agent B","scrambled","STIM_SET_5/498398.bmp_pp81_L1_V1.0_veridical_freeview_isoTrue_Hflip_fps144.mp4",""
"","","","call-function","302","806374","0.0-302.0","o6tv81tt","","","","","","","",""
"2893.4599999999627","{""judgement"":1}","[0]","survey-likert","303","809268","0.0-303.0","o6tv81tt","","","","","","","","0"
"1264.0849999999627","{""confidence"":2}","[0]","survey-likert","304","810534","0.0-304.0","o6tv81tt","","","","","","","",""
"","","","call-function","305","810535","0.0-305.0","o6tv81tt","","","","","","","",""
"null","","","html-keyboard-response","306","812040","0.0-306.0","o6tv81tt","","<span style=""color:Black; font-size:50px;"">Agent A","null","","","","",""
"null","","","video-keyboard-response","307","815124","0.0-307.0","o6tv81tt","","","null","","Agent A","scrambled","STIM_SET_5/498025.bmp_pp81_L1_V1.0_veridical_freeview_isoTrue_Hflip_fps144.mp4",""
"null","","","html-keyboard-response","308","816628","0.0-308.0","o6tv81tt","","<span style=""color:Black; font-size:50px;"">Agent B","null","","","","",""
"null","","","video-keyboard-response","309","819714","0.0-309.0","o6tv81tt","","","null","","Agent B","veridical","STIM_SET_2_144/498025.bmp_pp81_L1_V1.0_veridical_freeview_isoTrue_fps144.mp4",""
"","","","call-function","310","819715","0.0-310.0","o6tv81tt","","","","","","","",""
"3543.909999999916","{""judgement"":1}","[0]","survey-likert","311","823259","0.0-311.0","o6tv81tt","","","","","","","","1"
"1374.4250000000466","{""confidence"":2}","[0]","survey-likert","312","824635","0.0-312.0","o6tv81tt","","","","","","","",""
"","","","call-function","313","824636","0.0-313.0","o6tv81tt","","","","","","","",""
"null","","","html-keyboard-response","314","826137","0.0-314.0","o6tv81tt","","<span style=""color:Black; font-size:50px;"">Agent A","null","","","","",""
"null","","","video-keyboard-response","315","829233","0.0-315.0","o6tv81tt","","","null","","Agent A","veridical","STIM_SET_2_144/1592038.bmp_pp79_L2_V1.0_veridical_freeview_isoTrue_fps144.mp4",""
"null","","","html-keyboard-response","316","830736","0.0-316.0","o6tv81tt","","<span style=""color:Black; font-size:50px;"">Agent B","null","","","","",""
"null","","","video-keyboard-response","317","833829","0.0-317.0","o6tv81tt","","","null","","Agent B","scrambled","STIM_SET_5/1592038.bmp_pp79_L2_V1.0_veridical_freeview_isoTrue_Hflip_fps144.mp4",""
"","","","call-function","318","833829","0.0-318.0","o6tv81tt","","","","","","","",""
"3616.8800000000047","{""judgement"":0}","[0]","survey-likert","319","837447","0.0-319.0","o6tv81tt","","","","","","","","0"
"1226.6850000000559","{""confidence"":0}","[0]","survey-likert","320","838675","0.0-320.0","o6tv81tt","","","","","","","",""
"","","","call-function","321","838676","0.0-321.0","o6tv81tt","","","","","","","",""
"null","","","html-keyboard-response","322","840178","0.0-322.0","o6tv81tt","","<span style=""color:Black; font-size:50px;"">Agent A","null","","","","",""
"null","","","video-keyboard-response","323","843268","0.0-323.0","o6tv81tt","","","null","","Agent A","scrambled","STIM_SET_5/1592857.bmp_pp52_L1_V1_veridical_freeview_isoTrue_Hflip_fps144.mp4",""
"null","","","html-keyboard-response","324","844773","0.0-324.0","o6tv81tt","","<span style=""color:Black; font-size:50px;"">Agent B","null","","","","",""
"null","","","video-keyboard-response","325","847837","0.0-325.0","o6tv81tt","","","null","","Agent B","veridical","STIM_SET_2_144/1592857.bmp_pp52_L1_V1_veridical_freeview_isoTrue_fps144.mp4",""
"","","","call-function","326","847838","0.0-326.0","o6tv81tt","","","","","","","",""
"1329.3100000000559","{""judgement"":0}","[0]","survey-likert","327","849169","0.0-327.0","o6tv81tt","","","","","","","","1"
"4357.609999999986","{""confidence"":3}","[0]","survey-likert","328","853529","0.0-328.0","o6tv81tt","","","","","","","",""
"","","","call-function","329","853530","0.0-329.0","o6tv81tt","","","","","","","",""
"null","","","html-keyboard-response","330","855032","0.0-330.0","o6tv81tt","","<span style=""color:Black; font-size:50px;"">Agent A","null","","","","",""
"null","","","video-keyboard-response","331","858101","0.0-331.0","o6tv81tt","","","null","","Agent A","veridical","STIM_SET_2_144/1592350.bmp_pp55_L3_V1.0_veridical_freeview_isoTrue_fps144.mp4",""
"null","","","html-keyboard-response","332","859605","0.0-332.0","o6tv81tt","","<span style=""color:Black; font-size:50px;"">Agent B","null","","","","",""
"null","","","video-keyboard-response","333","862675","0.0-333.0","o6tv81tt","","","null","","Agent B","scrambled","STIM_SET_5/1592350.bmp_pp55_L3_V1.0_veridical_freeview_isoTrue_Hflip_fps144.mp4",""
"","","","call-function","334","862675","0.0-334.0","o6tv81tt","","","","","","","",""
"1373.359999999986","{""judgement"":0}","[0]","survey-likert","335","864050","0.0-335.0","o6tv81tt","","","","","","","","0"
"3037.695000000065","{""confidence"":0}","[0]","survey-likert","336","867089","0.0-336.0","o6tv81tt","","","","","","","",""
"2559.465000000084","","","instructions","337","869649","0.0-337.0","o6tv81tt","[{""page_index"":0,""viewing_time"":854.6550000000279},{""page_index"":1,""viewing_time"":822.8950000000186},{""page_index"":2,""viewing_time"":881.7099999999627}]","","","","","","",""
"1774.9949999999953","","","instructions","338","871425","0.0-338.0","o6tv81tt","[{""page_index"":0,""viewing_time"":515.9200000000419},{""page_index"":1,""viewing_time"":705.0300000000279},{""page_index"":2,""viewing_time"":553.9399999999441}]","","","","","","",""
"","","","call-function","339","871425","0.0-339.0","o6tv81tt","","","","","","","",""
"null","","","html-keyboard-response","340","872927","0.0-340.0","o6tv81tt","","<span style=""color:Black; font-size:50px;"">Agent A","null","","","","",""
"null","","","video-keyboard-response","341","875996","0.0-341.0","o6tv81tt","","","null","","Agent A","veridical","STIM_SET_2_144/1159973.bmp_pp98_L1_V1.0_veridical_freeview_isoTrue_fps144.mp4",""
"null","","","html-keyboard-response","342","877497","0.0-342.0","o6tv81tt","","<span style=""color:Black; font-size:50px;"">Agent B","null","","","","",""
"null","","","video-keyboard-response","343","880569","0.0-343.0","o6tv81tt","","","null","","Agent B","scrambled","STIM_SET_5/1159973.bmp_pp98_L1_V1.0_veridical_freeview_isoTrue_Hflip_fps144.mp4",""
"","","","call-function","344","880569","0.0-344.0","o6tv81tt","","","","","","","",""
"4835.180000000051","{""judgement"":0}","[0]","survey-likert","345","885405","0.0-345.0","o6tv81tt","","","","","","","","0"
"1327.0649999999441","{""confidence"":3}","[0]","survey-likert","346","886734","0.0-346.0","o6tv81tt","","","","","","","",""
"","","","call-function","347","886735","0.0-347.0","o6tv81tt","","","","","","","",""
"null","","","html-keyboard-response","348","888238","0.0-348.0","o6tv81tt","","<span style=""color:Black; font-size:50px;"">Agent A","null","","","","",""
"null","","","video-keyboard-response","349","891328","0.0-349.0","o6tv81tt","","","null","","Agent A","veridical","STIM_SET_2_144/713633.bmp_pp58_L1_V1.0_veridical_freeview_isoTrue_fps144.mp4",""
"null","","","html-keyboard-response","350","892831","0.0-350.0","o6tv81tt","","<span style=""color:Black; font-size:50px;"">Agent B","null","","","","",""
"null","","","video-keyboard-response","351","895927","0.0-351.0","o6tv81tt","","","null","","Agent B","scrambled","STIM_SET_5/713633.bmp_pp58_L1_V1.0_veridical_freeview_isoTrue_Hflip_fps144.mp4",""
"","","","call-function","352","895928","0.0-352.0","o6tv81tt","","","","","","","",""
"1885.8349999999627","{""judgement"":1}","[0]","survey-likert","353","897814","0.0-353.0","o6tv81tt","","","","","","","","0"
"1462.7949999999255","{""confidence"":3}","[0]","survey-likert","354","899278","0.0-354.0","o6tv81tt","","","","","","","",""
"","","","call-function","355","899279","0.0-355.0","o6tv81tt","","","","","","","",""
"null","","","html-keyboard-response","356","900781","0.0-356.0","o6tv81tt","","<span style=""color:Black; font-size:50px;"">Agent A","null","","","","",""
"null","","","video-keyboard-response","357","903861","0.0-357.0","o6tv81tt","","","null","","Agent A","veridical","STIM_SET_2_144/1592129.bmp_pp153_L3_V1.0_veridical_freeview_isoTrue_fps144.mp4",""
"null","","","html-keyboard-response","358","905367","0.0-358.0","o6tv81tt","","<span style=""color:Black; font-size:50px;"">Agent B","null","","","","",""
"null","","","video-keyboard-response","359","908444","0.0-359.0","o6tv81tt","","","null","","Agent B","scrambled","STIM_SET_5/1592129.bmp_pp153_L3_V1.0_veridical_freeview_isoTrue_Hflip_fps144.mp4",""
"","","","call-function","360","908445","0.0-360.0","o6tv81tt","","","","","","","",""
"1462.6999999999534","{""judgement"":1}","[0]","survey-likert","361","909908","0.0-361.0","o6tv81tt","","","","","","","","0"
"1319.469999999972","{""confidence"":3}","[0]","survey-likert","362","911229","0.0-362.0","o6tv81tt","","","","","","","",""
"","","","call-function","363","911230","0.0-363.0","o6tv81tt","","","","","","","",""
"null","","","html-keyboard-response","364","912732","0.0-364.0","o6tv81tt","","<span style=""color:Black; font-size:50px;"">Agent A","null","","","","",""
"null","","","video-keyboard-response","365","915812","0.0-365.0","o6tv81tt","","","null","","Agent A","scrambled","STIM_SET_5/1159325.bmp_pp67_L2_V1.0_veridical_freeview_isoTrue_Hflip_fps144.mp4",""
"null","","","html-keyboard-response","366","917319","0.0-366.0","o6tv81tt","","<span style=""color:Black; font-size:50px;"">Agent B","null","","","","",""
"null","","","video-keyboard-response","367","920398","0.0-367.0","o6tv81tt","","","null","","Agent B","veridical","STIM_SET_2_144/1159325.bmp_pp67_L2_V1.0_veridical_freeview_isoTrue_fps144.mp4",""
"","","","call-function","368","920399","0.0-368.0","o6tv81tt","","","","","","","",""
"2464.3800000000047","{""judgement"":1}","[0]","survey-likert","369","922864","0.0-369.0","o6tv81tt","","","","","","","","1"
"1353.0350000000326","{""confidence"":0}","[0]","survey-likert","370","924218","0.0-370.0","o6tv81tt","","","","","","","",""
"","","","call-function","371","924219","0.0-371.0","o6tv81tt","","","","","","","",""
"null","","","html-keyboard-response","372","925723","0.0-372.0","o6tv81tt","","<span style=""color:Black; font-size:50px;"">Agent A","null","","","","",""
"null","","","video-keyboard-response","373","928785","0.0-373.0","o6tv81tt","","","null","","Agent A","veridical","STIM_SET_2_144/286034.bmp_pp69_L3_V1.0_veridical_freeview_isoTrue_fps144.mp4",""
"null","","","html-keyboard-response","374","930292","0.0-374.0","o6tv81tt","","<span style=""color:Black; font-size:50px;"">Agent B","null","","","","",""
"null","","","video-keyboard-response","375","933355","0.0-375.0","o6tv81tt","","","null","","Agent B","scrambled","STIM_SET_5/286034.bmp_pp69_L3_V1.0_veridical_freeview_isoTrue_Hflip_fps144.mp4",""
"","","","call-function","376","933356","0.0-376.0","o6tv81tt","","","","","","","",""
"34161.06999999995","{""judgement"":0}","[0]","survey-likert","377","967518","0.0-377.0","o6tv81tt","","","","","","","","0"
"2001.6949999999488","{""confidence"":0}","[0]","survey-likert","378","969521","0.0-378.0","o6tv81tt","","","","","","","",""
"","","","call-function","379","969522","0.0-379.0","o6tv81tt","","","","","","","",""
"null","","","html-keyboard-response","380","971024","0.0-380.0","o6tv81tt","","<span style=""color:Black; font-size:50px;"">Agent A","null","","","","",""
"null","","","video-keyboard-response","381","974087","0.0-381.0","o6tv81tt","","","null","","Agent A","veridical","STIM_SET_2_144/1592044.bmp_pp94_L2_V1.0_veridical_freeview_isoTrue_fps144.mp4",""
"null","","","html-keyboard-response","382","975594","0.0-382.0","o6tv81tt","","<span style=""color:Black; font-size:50px;"">Agent B","null","","","","",""
"null","","","video-keyboard-response","383","978655","0.0-383.0","o6tv81tt","","","null","","Agent B","scrambled","STIM_SET_5/1592044.bmp_pp94_L2_V1.0_veridical_freeview_isoTrue_Hflip_fps144.mp4",""
"","","","call-function","384","978656","0.0-384.0","o6tv81tt","","","","","","","",""
"1886.530000000028","{""judgement"":0}","[0]","survey-likert","385","980543","0.0-385.0","o6tv81tt","","","","","","","","0"
"1195.344999999972","{""confidence"":0}","[0]","survey-likert","386","981740","0.0-386.0","o6tv81tt","","","","","","","",""
"","","","call-function","387","981741","0.0-387.0","o6tv81tt","","","","","","","",""
"null","","","html-keyboard-response","388","983247","0.0-388.0","o6tv81tt","","<span style=""color:Black; font-size:50px;"">Agent A","null","","","","",""
"null","","","video-keyboard-response","389","986332","0.0-389.0","o6tv81tt","","","null","","Agent A","scrambled","STIM_SET_5/1592305.bmp_pp65_L3_V1.0_veridical_freeview_isoTrue_Hflip_fps144.mp4",""
"null","","","html-keyboard-response","390","987835","0.0-390.0","o6tv81tt","","<span style=""color:Black; font-size:50px;"">Agent B","null","","","","",""
"null","","","video-keyboard-response","391","990918","0.0-391.0","o6tv81tt","","","null","","Agent B","veridical","STIM_SET_2_144/1592305.bmp_pp65_L3_V1.0_veridical_freeview_isoTrue_fps144.mp4",""
"","","","call-function","392","990918","0.0-392.0","o6tv81tt","","","","","","","",""
"1544.3499999999767","{""judgement"":0}","[0]","survey-likert","393","992464","0.0-393.0","o6tv81tt","","","","","","","","1"
"2296.980000000098","{""confidence"":0}","[0]","survey-likert","394","994762","0.0-394.0","o6tv81tt","","","","","","","",""
"","","","call-function","395","994762","0.0-395.0","o6tv81tt","","","","","","","",""
"null","","","html-keyboard-response","396","996268","0.0-396.0","o6tv81tt","","<span style=""color:Black; font-size:50px;"">Agent A","null","","","","",""
"null","","","video-keyboard-response","397","999330","0.0-397.0","o6tv81tt","","","null","","Agent A","scrambled","STIM_SET_5/713328.bmp_pp86_L2_V1.0_veridical_freeview_isoTrue_Hflip_fps144.mp4",""
"null","","","html-keyboard-response","398","1000835","0.0-398.0","o6tv81tt","","<span style=""color:Black; font-size:50px;"">Agent B","null","","","","",""
"null","","","video-keyboard-response","399","1003897","0.0-399.0","o6tv81tt","","","null","","Agent B","veridical","STIM_SET_2_144/713328.bmp_pp86_L2_V1.0_veridical_freeview_isoTrue_fps144.mp4",""
"","","","call-function","400","1003897","0.0-400.0","o6tv81tt","","","","","","","",""
"1741.4449999999488","{""judgement"":0}","[0]","survey-likert","401","1005640","0.0-401.0","o6tv81tt","","","","","","","","1"
"1453.7200000000885","{""confidence"":0}","[0]","survey-likert","402","1007095","0.0-402.0","o6tv81tt","","","","","","","",""
"","","","call-function","403","1007095","0.0-403.0","o6tv81tt","","","","","","","",""
"null","","","html-keyboard-response","404","1008600","0.0-404.0","o6tv81tt","","<span style=""color:Black; font-size:50px;"">Agent A","null","","","","",""
"null","","","video-keyboard-response","405","1011683","0.0-405.0","o6tv81tt","","","null","","Agent A","veridical","STIM_SET_2_144/1159329.bmp_pp61_L2_V1.0_veridical_freeview_isoTrue_fps144.mp4",""
"null","","","html-keyboard-response","406","1013186","0.0-406.0","o6tv81tt","","<span style=""color:Black; font-size:50px;"">Agent B","null","","","","",""
"null","","","video-keyboard-response","407","1016269","0.0-407.0","o6tv81tt","","","null","","Agent B","scrambled","STIM_SET_5/1159329.bmp_pp61_L2_V1.0_veridical_freeview_isoTrue_Hflip_fps144.mp4",""
"","","","call-function","408","1016270","0.0-408.0","o6tv81tt","","","","","","","",""
"1332.3099999999395","{""judgement"":1}","[0]","survey-likert","409","1017604","0.0-409.0","o6tv81tt","","","","","","","","0"
"1906.9450000000652","{""confidence"":3}","[0]","survey-likert","410","1019512","0.0-410.0","o6tv81tt","","","","","","","",""
"","","","call-function","411","1019513","0.0-411.0","o6tv81tt","","","","","","","",""
"null","","","html-keyboard-response","412","1021016","0.0-412.0","o6tv81tt","","<span style=""color:Black; font-size:50px;"">Agent A","null","","","","",""
"null","","","video-keyboard-response","413","1024084","0.0-413.0","o6tv81tt","","","null","","Agent A","veridical","STIM_SET_2_144/713788.bmp_pp52_L1_V1.0_veridical_freeview_isoTrue_fps144.mp4",""
"null","","","html-keyboard-response","414","1025586","0.0-414.0","o6tv81tt","","<span style=""color:Black; font-size:50px;"">Agent B","null","","","","",""
"null","","","video-keyboard-response","415","1028654","0.0-415.0","o6tv81tt","","","null","","Agent B","scrambled","STIM_SET_5/713788.bmp_pp52_L1_V1.0_veridical_freeview_isoTrue_Hflip_fps144.mp4",""
"","","","call-function","416","1028654","0.0-416.0","o6tv81tt","","","","","","","",""
"1961.4300000000512","{""judgement"":0}","[0]","survey-likert","417","1030617","0.0-417.0","o6tv81tt","","","","","","","","0"
"938.4899999999907","{""confidence"":3}","[0]","survey-likert","418","1031557","0.0-418.0","o6tv81tt","","","","","","","",""
"2289.375","","","instructions","419","1033847","0.0-419.0","o6tv81tt","[{""page_index"":0,""viewing_time"":746.5250000000233},{""page_index"":1,""viewing_time"":876.6599999999162},{""page_index"":2,""viewing_time"":666.0350000000326}]","","","","","","",""
"2080.5149999998976","","","instructions","420","1035928","0.0-420.0","o6tv81tt","[{""page_index"":0,""viewing_time"":361.14999999990687},{""page_index"":1,""viewing_time"":1312.0800000000745},{""page_index"":2,""viewing_time"":407.18499999993946}]","","","","","","",""
"","","","call-function","421","1035929","0.0-421.0","o6tv81tt","","","","","","","",""
"null","","","html-keyboard-response","422","1037432","0.0-422.0","o6tv81tt","","<span style=""color:Black; font-size:50px;"">Agent A","null","","","","",""
"null","","","video-keyboard-response","423","1040496","0.0-423.0","o6tv81tt","","","null","","Agent A","veridical","STIM_SET_2_144/1591975.bmp_pp88_L2_V1.0_veridical_freeview_isoTrue_fps144.mp4",""
"null","","","html-keyboard-response","424","1042001","0.0-424.0","o6tv81tt","","<span style=""color:Black; font-size:50px;"">Agent B","null","","","","",""
"null","","","video-keyboard-response","425","1045063","0.0-425.0","o6tv81tt","","","null","","Agent B","scrambled","STIM_SET_5/1591975.bmp_pp88_L2_V1.0_veridical_freeview_isoTrue_Hflip_fps144.mp4",""
"","","","call-function","426","1045064","0.0-426.0","o6tv81tt","","","","","","","",""
"3030.0749999999534","{""judgement"":0}","[0]","survey-likert","427","1048095","0.0-427.0","o6tv81tt","","","","","","","","0"
"1764.6750000000466","{""confidence"":0}","[0]","survey-likert","428","1049861","0.0-428.0","o6tv81tt","","","","","","","",""
"","","","call-function","429","1049862","0.0-429.0","o6tv81tt","","","","","","","",""
"null","","","html-keyboard-response","430","1051368","0.0-430.0","o6tv81tt","","<span style=""color:Black; font-size:50px;"">Agent A","null","","","","",""
"null","","","video-keyboard-response","431","1054466","0.0-431.0","o6tv81tt","","","null","","Agent A","veridical","STIM_SET_2_144/285959.bmp_pp93_L1_V1.0_veridical_freeview_isoTrue_fps144.mp4",""
"null","","","html-keyboard-response","432","1055973","0.0-432.0","o6tv81tt","","<span style=""color:Black; font-size:50px;"">Agent B","null","","","","",""
"null","","","video-keyboard-response","433","1059064","0.0-433.0","o6tv81tt","","","null","","Agent B","scrambled","STIM_SET_5/285959.bmp_pp93_L1_V1.0_veridical_freeview_isoTrue_Hflip_fps144.mp4",""
"","","","call-function","434","1059065","0.0-434.0","o6tv81tt","","","","","","","",""
"1639.5200000000186","{""judgement"":1}","[0]","survey-likert","435","1060705","0.0-435.0","o6tv81tt","","","","","","","","0"
"945.4849999998696","{""confidence"":0}","[0]","survey-likert","436","1061652","0.0-436.0","o6tv81tt","","","","","","","",""
"","","","call-function","437","1061652","0.0-437.0","o6tv81tt","","","","","","","",""
"null","","","html-keyboard-response","438","1063153","0.0-438.0","o6tv81tt","","<span style=""color:Black; font-size:50px;"">Agent A","null","","","","",""
"null","","","video-keyboard-response","439","1066233","0.0-439.0","o6tv81tt","","","null","","Agent A","veridical","STIM_SET_2_144/1592951.bmp_pp80_L3_V1.0_veridical_freeview_isoTrue_fps144.mp4",""
"null","","","html-keyboard-response","440","1067736","0.0-440.0","o6tv81tt","","<span style=""color:Black; font-size:50px;"">Agent B","null","","","","",""
"null","","","video-keyboard-response","441","1070811","0.0-441.0","o6tv81tt","","","null","","Agent B","scrambled","STIM_SET_5/1592951.bmp_pp80_L3_V1.0_veridical_freeview_isoTrue_Hflip_fps144.mp4",""
"","","","call-function","442","1070812","0.0-442.0","o6tv81tt","","","","","","","",""
"1643.1799999999348","{""judgement"":1}","[0]","survey-likert","443","1072456","0.0-443.0","o6tv81tt","","","","","","","","0"
"1446.9799999999814","{""confidence"":3}","[0]","survey-likert","444","1073904","0.0-444.0","o6tv81tt","","","","","","","",""
"","","","call-function","445","1073904","0.0-445.0","o6tv81tt","","","","","","","",""
"null","","","html-keyboard-response","446","1075408","0.0-446.0","o6tv81tt","","<span style=""color:Black; font-size:50px;"">Agent A","null","","","","",""
"null","","","video-keyboard-response","447","1077646","0.0-447.0","o6tv81tt","","","null","","Agent A","scrambled","STIM_SET_5/1592047.bmp_pp51_L1_V1.0_veridical_freeview_isoTrue_Hflip_fps144.mp4",""
"null","","","html-keyboard-response","448","1079152","0.0-448.0","o6tv81tt","","<span style=""color:Black; font-size:50px;"">Agent B","null","","","","",""
"null","","","video-keyboard-response","449","1082229","0.0-449.0","o6tv81tt","","","null","","Agent B","veridical","STIM_SET_2_144/1592047.bmp_pp51_L1_V1.0_veridical_freeview_isoTrue_fps144.mp4",""
"","","","call-function","450","1082230","0.0-450.0","o6tv81tt","","","","","","","",""
"2205.840000000084","{""judgement"":1}","[0]","survey-likert","451","1084437","0.0-451.0","o6tv81tt","","","","","","","","1"
"1358.8200000000652","{""confidence"":3}","[0]","survey-likert","452","1085797","0.0-452.0","o6tv81tt","","","","","","","",""
"","","","call-function","453","1085797","0.0-453.0","o6tv81tt","","","","","","","",""
"null","","","html-keyboard-response","454","1087299","0.0-454.0","o6tv81tt","","<span style=""color:Black; font-size:50px;"">Agent A","null","","","","",""
"null","","","video-keyboard-response","455","1090373","0.0-455.0","o6tv81tt","","","null","","Agent A","veridical","STIM_SET_2_144/713770.bmp_pp89_L1_V1.0_veridical_freeview_isoTrue_fps144.mp4",""
"null","","","html-keyboard-response","456","1091877","0.0-456.0","o6tv81tt","","<span style=""color:Black; font-size:50px;"">Agent B","null","","","","",""
"null","","","video-keyboard-response","457","1094955","0.0-457.0","o6tv81tt","","","null","","Agent B","scrambled","STIM_SET_5/713770.bmp_pp89_L1_V1.0_veridical_freeview_isoTrue_Hflip_fps144.mp4",""
"","","","call-function","458","1094957","0.0-458.0","o6tv81tt","","","","","","","",""
"1504.875","{""judgement"":0}","[0]","survey-likert","459","1096463","0.0-459.0","o6tv81tt","","","","","","","","0"
"1136.8400000000838","{""confidence"":3}","[0]","survey-likert","460","1097601","0.0-460.0","o6tv81tt","","","","","","","",""
"","","","call-function","461","1097602","0.0-461.0","o6tv81tt","","","","","","","",""
"null","","","html-keyboard-response","462","1099104","0.0-462.0","o6tv81tt","","<span style=""color:Black; font-size:50px;"">Agent A","null","","","","",""
"null","","","video-keyboard-response","463","1102173","0.0-463.0","o6tv81tt","","","null","","Agent A","veridical","STIM_SET_2_144/1592289.bmp_pp92_L3_V1.0_veridical_freeview_isoTrue_fps144.mp4",""
"null","","","html-keyboard-response","464","1103679","0.0-464.0","o6tv81tt","","<span style=""color:Black; font-size:50px;"">Agent B","null","","","","",""
"null","","","video-keyboard-response","465","1106750","0.0-465.0","o6tv81tt","","","null","","Agent B","scrambled","STIM_SET_5/1592289.bmp_pp92_L3_V1.0_veridical_freeview_isoTrue_Hflip_fps144.mp4",""
"","","","call-function","466","1106751","0.0-466.0","o6tv81tt","","","","","","","",""
"1385.1299999998882","{""judgement"":1}","[0]","survey-likert","467","1108137","0.0-467.0","o6tv81tt","","","","","","","","0"
"1201.4899999999907","{""confidence"":3}","[0]","survey-likert","468","1109340","0.0-468.0","o6tv81tt","","","","","","","",""
"","","","call-function","469","1109341","0.0-469.0","o6tv81tt","","","","","","","",""
"null","","","html-keyboard-response","470","1110842","0.0-470.0","o6tv81tt","","<span style=""color:Black; font-size:50px;"">Agent A","null","","","","",""
"null","","","video-keyboard-response","471","1113914","0.0-471.0","o6tv81tt","","","null","","Agent A","scrambled","STIM_SET_5/1592025.bmp_pp68_L1_V1.0_veridical_freeview_isoTrue_Hflip_fps144.mp4",""
"null","","","html-keyboard-response","472","1115418","0.0-472.0","o6tv81tt","","<span style=""color:Black; font-size:50px;"">Agent B","null","","","","",""
"null","","","video-keyboard-response","473","1118486","0.0-473.0","o6tv81tt","","","null","","Agent B","veridical","STIM_SET_2_144/1592025.bmp_pp68_L1_V1.0_veridical_freeview_isoTrue_fps144.mp4",""
"","","","call-function","474","1118487","0.0-474.0","o6tv81tt","","","","","","","",""
"1733.280000000028","{""judgement"":1}","[0]","survey-likert","475","1120221","0.0-475.0","o6tv81tt","","","","","","","","1"
"968.1049999999814","{""confidence"":3}","[0]","survey-likert","476","1121190","0.0-476.0","o6tv81tt","","","","","","","",""
"","","","call-function","477","1121191","0.0-477.0","o6tv81tt","","","","","","","",""
"null","","","html-keyboard-response","478","1122696","0.0-478.0","o6tv81tt","","<span style=""color:Black; font-size:50px;"">Agent A","null","","","","",""
"null","","","video-keyboard-response","479","1125788","0.0-479.0","o6tv81tt","","","null","","Agent A","veridical","STIM_SET_2_144/498372.bmp_pp95_L2_V1_veridical_freeview_isoTrue_fps144.mp4",""
"null","","","html-keyboard-response","480","1127292","0.0-480.0","o6tv81tt","","<span style=""color:Black; font-size:50px;"">Agent B","null","","","","",""
"null","","","video-keyboard-response","481","1130378","0.0-481.0","o6tv81tt","","","null","","Agent B","scrambled","STIM_SET_5/498372.bmp_pp95_L2_V1_veridical_freeview_isoTrue_Hflip_fps144.mp4",""
"","","","call-function","482","1130379","0.0-482.0","o6tv81tt","","","","","","","",""
"1736.7650000001304","{""judgement"":0}","[0]","survey-likert","483","1132117","0.0-483.0","o6tv81tt","","","","","","","","0"
"1322.160000000149","{""confidence"":3}","[0]","survey-likert","484","1133440","0.0-484.0","o6tv81tt","","","","","","","",""
"","","","call-function","485","1133441","0.0-485.0","o6tv81tt","","","","","","","",""
"null","","","html-keyboard-response","486","1134944","0.0-486.0","o6tv81tt","","<span style=""color:Black; font-size:50px;"">Agent A","null","","","","",""
"null","","","video-keyboard-response","487","1138020","0.0-487.0","o6tv81tt","","","null","","Agent A","veridical","STIM_SET_2_144/713829.bmp_pp60_L3_V1.0_veridical_freeview_isoTrue_fps144.mp4",""
"null","","","html-keyboard-response","488","1139523","0.0-488.0","o6tv81tt","","<span style=""color:Black; font-size:50px;"">Agent B","null","","","","",""
"null","","","video-keyboard-response","489","1142604","0.0-489.0","o6tv81tt","","","null","","Agent B","scrambled","STIM_SET_5/713829.bmp_pp60_L3_V1.0_veridical_freeview_isoTrue_Hflip_fps144.mp4",""
"","","","call-function","490","1142604","0.0-490.0","o6tv81tt","","","","","","","",""
"1571.2649999998976","{""judgement"":0}","[0]","survey-likert","491","1144176","0.0-491.0","o6tv81tt","","","","","","","","0"
"1810.3700000001118","{""confidence"":3}","[0]","survey-likert","492","1145988","0.0-492.0","o6tv81tt","","","","","","","",""
"","","","call-function","493","1145989","0.0-493.0","o6tv81tt","","","","","","","",""
"null","","","html-keyboard-response","494","1147492","0.0-494.0","o6tv81tt","","<span style=""color:Black; font-size:50px;"">Agent A","null","","","","",""
"null","","","video-keyboard-response","495","1150574","0.0-495.0","o6tv81tt","","","null","","Agent A","scrambled","STIM_SET_5/150463.bmp_pp55_L3_V1.0_veridical_freeview_isoTrue_Hflip_fps144.mp4",""
"null","","","html-keyboard-response","496","1152079","0.0-496.0","o6tv81tt","","<span style=""color:Black; font-size:50px;"">Agent B","null","","","","",""
"null","","","video-keyboard-response","497","1155162","0.0-497.0","o6tv81tt","","","null","","Agent B","veridical","STIM_SET_2_144/150463.bmp_pp55_L3_V1.0_veridical_freeview_isoTrue_fps144.mp4",""
"","","","call-function","498","1155163","0.0-498.0","o6tv81tt","","","","","","","",""
"3024.060000000056","{""judgement"":1}","[0]","survey-likert","499","1158188","0.0-499.0","o6tv81tt","","","","","","","","1"
"1430.4199999999255","{""confidence"":0}","[0]","survey-likert","500","1159620","0.0-500.0","o6tv81tt","","","","","","","",""
"1852.6299999998882","","","instructions","501","1161473","0.0-501.0","o6tv81tt","[{""page_index"":0,""viewing_time"":659.7299999999814},{""page_index"":1,""viewing_time"":719.7399999999907},{""page_index"":2,""viewing_time"":473.00499999988824}]","","","","","","",""
"1274.4549999998417","","","instructions","502","1162748","0.0-502.0","o6tv81tt","[{""page_index"":0,""viewing_time"":401.2249999998603},{""page_index"":1,""viewing_time"":455.0700000000652},{""page_index"":2,""viewing_time"":417.9650000000838}]","","","","","","",""
"","","","call-function","503","1162749","0.0-503.0","o6tv81tt","","","","","","","",""
"null","","","html-keyboard-response","504","1164251","0.0-504.0","o6tv81tt","","<span style=""color:Black; font-size:50px;"">Agent A","null","","","","",""
"null","","","video-keyboard-response","505","1167332","0.0-505.0","o6tv81tt","","","null","","Agent A","scrambled","STIM_SET_5/285946.bmp_pp79_L2_V1.0_veridical_freeview_isoTrue_Hflip_fps144.mp4",""
"null","","","html-keyboard-response","506","1168838","0.0-506.0","o6tv81tt","","<span style=""color:Black; font-size:50px;"">Agent B","null","","","","",""
"null","","","video-keyboard-response","507","1171925","0.0-507.0","o6tv81tt","","","null","","Agent B","veridical","STIM_SET_2_144/285946.bmp_pp79_L2_V1.0_veridical_freeview_isoTrue_fps144.mp4",""
"","","","call-function","508","1171926","0.0-508.0","o6tv81tt","","","","","","","",""
"1649.2399999999907","{""judgement"":0}","[0]","survey-likert","509","1173576","0.0-509.0","o6tv81tt","","","","","","","","1"
"1501.7050000000745","{""confidence"":0}","[0]","survey-likert","510","1175079","0.0-510.0","o6tv81tt","","","","","","","",""
"","","","call-function","511","1175080","0.0-511.0","o6tv81tt","","","","","","","",""
"null","","","html-keyboard-response","512","1176581","0.0-512.0","o6tv81tt","","<span style=""color:Black; font-size:50px;"">Agent A","null","","","","",""
"null","","","video-keyboard-response","513","1179655","0.0-513.0","o6tv81tt","","","null","","Agent A","veridical","STIM_SET_2_144/713381.bmp_pp82_L2_V1.0_veridical_freeview_isoTrue_fps144.mp4",""
"null","","","html-keyboard-response","514","1181161","0.0-514.0","o6tv81tt","","<span style=""color:Black; font-size:50px;"">Agent B","null","","","","",""
"null","","","video-keyboard-response","515","1184236","0.0-515.0","o6tv81tt","","","null","","Agent B","scrambled","STIM_SET_5/713381.bmp_pp82_L2_V1.0_veridical_freeview_isoTrue_Hflip_fps144.mp4",""
"","","","call-function","516","1184237","0.0-516.0","o6tv81tt","","","","","","","",""
"1607.1499999999069","{""judgement"":1}","[0]","survey-likert","517","1185845","0.0-517.0","o6tv81tt","","","","","","","","0"
"1286.6950000000652","{""confidence"":0}","[0]","survey-likert","518","1187133","0.0-518.0","o6tv81tt","","","","","","","",""
"","","","call-function","519","1187134","0.0-519.0","o6tv81tt","","","","","","","",""
"null","","","html-keyboard-response","520","1188636","0.0-520.0","o6tv81tt","","<span style=""color:Black; font-size:50px;"">Agent A","null","","","","",""
"null","","","video-keyboard-response","521","1191729","0.0-521.0","o6tv81tt","","","null","","Agent A","veridical","STIM_SET_2_144/1160247.bmp_pp54_L2_V1.0_veridical_freeview_isoTrue_fps144.mp4",""
"null","","","html-keyboard-response","522","1193233","0.0-522.0","o6tv81tt","","<span style=""color:Black; font-size:50px;"">Agent B","null","","","","",""
"null","","","video-keyboard-response","523","1196325","0.0-523.0","o6tv81tt","","","null","","Agent B","scrambled","STIM_SET_5/1160247.bmp_pp54_L2_V1.0_veridical_freeview_isoTrue_Hflip_fps144.mp4",""
"","","","call-function","524","1196325","0.0-524.0","o6tv81tt","","","","","","","",""
"2126.9799999999814","{""judgement"":1}","[0]","survey-likert","525","1198453","0.0-525.0","o6tv81tt","","","","","","","","0"
"1145.8950000000186","{""confidence"":0}","[0]","survey-likert","526","1199600","0.0-526.0","o6tv81tt","","","","","","","",""
"","","","call-function","527","1199601","0.0-527.0","o6tv81tt","","","","","","","",""
"null","","","html-keyboard-response","528","1201104","0.0-528.0","o6tv81tt","","<span style=""color:Black; font-size:50px;"">Agent A","null","","","","",""
"null","","","video-keyboard-response","529","1204193","0.0-529.0","o6tv81tt","","","null","","Agent A","scrambled","STIM_SET_5/1592747.bmp_pp53_L2_V1.0_veridical_freeview_isoTrue_Hflip_fps144.mp4",""
"null","","","html-keyboard-response","530","1205700","0.0-530.0","o6tv81tt","","<span style=""color:Black; font-size:50px;"">Agent B","null","","","","",""
"null","","","video-keyboard-response","531","1208787","0.0-531.0","o6tv81tt","","","null","","Agent B","veridical","STIM_SET_2_144/1592747.bmp_pp53_L2_V1.0_veridical_freeview_isoTrue_fps144.mp4",""
"","","","call-function","532","1208788","0.0-532.0","o6tv81tt","","","","","","","",""
"1711.4199999999255","{""judgement"":1}","[0]","survey-likert","533","1210501","0.0-533.0","o6tv81tt","","","","","","","","1"
"2321.2050000000745","{""confidence"":0}","[0]","survey-likert","534","1212823","0.0-534.0","o6tv81tt","","","","","","","",""
"","","","call-function","535","1212824","0.0-535.0","o6tv81tt","","","","","","","",""
"null","","","html-keyboard-response","536","1214326","0.0-536.0","o6tv81tt","","<span style=""color:Black; font-size:50px;"">Agent A","null","","","","",""
"null","","","video-keyboard-response","537","1217403","0.0-537.0","o6tv81tt","","","null","","Agent A","veridical","STIM_SET_2_144/1591781.bmp_pp63_L1_V1.0_veridical_freeview_isoTrue_fps144.mp4",""
"null","","","html-keyboard-response","538","1218910","0.0-538.0","o6tv81tt","","<span style=""color:Black; font-size:50px;"">Agent B","null","","","","",""
"null","","","video-keyboard-response","539","1221987","0.0-539.0","o6tv81tt","","","null","","Agent B","scrambled","STIM_SET_5/1591781.bmp_pp63_L1_V1.0_veridical_freeview_isoTrue_Hflip_fps144.mp4",""
"","","","call-function","540","1221988","0.0-540.0","o6tv81tt","","","","","","","",""
"1872.3700000001118","{""judgement"":0}","[0]","survey-likert","541","1223861","0.0-541.0","o6tv81tt","","","","","","","","0"
"878.8200000000652","{""confidence"":1}","[0]","survey-likert","542","1224742","0.0-542.0","o6tv81tt","","","","","","","",""
"","","","call-function","543","1224742","0.0-543.0","o6tv81tt","","","","","","","",""
"null","","","html-keyboard-response","544","1226245","0.0-544.0","o6tv81tt","","<span style=""color:Black; font-size:50px;"">Agent A","null","","","","",""
"null","","","video-keyboard-response","545","1229322","0.0-545.0","o6tv81tt","","","null","","Agent A","veridical","STIM_SET_2_144/713858.bmp_pp57_L1_V1.0_veridical_freeview_isoTrue_fps144.mp4",""
"null","","","html-keyboard-response","546","1230827","0.0-546.0","o6tv81tt","","<span style=""color:Black; font-size:50px;"">Agent B","null","","","","",""
"null","","","video-keyboard-response","547","1233904","0.0-547.0","o6tv81tt","","","null","","Agent B","scrambled","STIM_SET_5/713858.bmp_pp57_L1_V1.0_veridical_freeview_isoTrue_Hflip_fps144.mp4",""
"","","","call-function","548","1233905","0.0-548.0","o6tv81tt","","","","","","","",""
"1761.005000000121","{""judgement"":0}","[0]","survey-likert","549","1235667","0.0-549.0","o6tv81tt","","","","","","","","0"
"754.6699999999255","{""confidence"":1}","[0]","survey-likert","550","1236423","0.0-550.0","o6tv81tt","","","","","","","",""
"","","","call-function","551","1236424","0.0-551.0","o6tv81tt","","","","","","","",""
"null","","","html-keyboard-response","552","1237926","0.0-552.0","o6tv81tt","","<span style=""color:Black; font-size:50px;"">Agent A","null","","","","",""
"null","","","video-keyboard-response","553","1241000","0.0-553.0","o6tv81tt","","","null","","Agent A","veridical","STIM_SET_2_144/1591920.bmp_pp97_L3_V1_veridical_freeview_isoTrue_fps144.mp4",""
"null","","","html-keyboard-response","554","1242503","0.0-554.0","o6tv81tt","","<span style=""color:Black; font-size:50px;"">Agent B","null","","","","",""
"null","","","video-keyboard-response","555","1245576","0.0-555.0","o6tv81tt","","","null","","Agent B","scrambled","STIM_SET_5/1591920.bmp_pp97_L3_V1_veridical_freeview_isoTrue_Hflip_fps144.mp4",""
"","","","call-function","556","1245577","0.0-556.0","o6tv81tt","","","","","","","",""
"1633.9499999999534","{""judgement"":1}","[0]","survey-likert","557","1247211","0.0-557.0","o6tv81tt","","","","","","","","0"
"800.9499999999534","{""confidence"":2}","[0]","survey-likert","558","1248014","0.0-558.0","o6tv81tt","","","","","","","",""
"","","","call-function","559","1248015","0.0-559.0","o6tv81tt","","","","","","","",""
"null","","","html-keyboard-response","560","1249518","0.0-560.0","o6tv81tt","","<span style=""color:Black; font-size:50px;"">Agent A","null","","","","",""
"null","","","video-keyboard-response","561","1252597","0.0-561.0","o6tv81tt","","","null","","Agent A","veridical","STIM_SET_2_144/1592150.bmp_pp77_L3_V1.0_veridical_freeview_isoTrue_fps144.mp4",""
"null","","","html-keyboard-response","562","1254102","0.0-562.0","o6tv81tt","","<span style=""color:Black; font-size:50px;"">Agent B","null","","","","",""
"null","","","video-keyboard-response","563","1257182","0.0-563.0","o6tv81tt","","","null","","Agent B","scrambled","STIM_SET_5/1592150.bmp_pp77_L3_V1.0_veridical_freeview_isoTrue_Hflip_fps144.mp4",""
"","","","call-function","564","1257182","0.0-564.0","o6tv81tt","","","","","","","",""
"2212.9150000000373","{""judgement"":1}","[0]","survey-likert","565","1259396","0.0-565.0","o6tv81tt","","","","","","","","0"
"2439.780000000028","{""confidence"":0}","[0]","survey-likert","566","1261837","0.0-566.0","o6tv81tt","","","","","","","",""
"","","","call-function","567","1261838","0.0-567.0","o6tv81tt","","","","","","","",""
"null","","","html-keyboard-response","568","1263342","0.0-568.0","o6tv81tt","","<span style=""color:Black; font-size:50px;"">Agent A","null","","","","",""
"null","","","video-keyboard-response","569","1266421","0.0-569.0","o6tv81tt","","","null","","Agent A","veridical","STIM_SET_2_144/285932.bmp_pp64_L1_V1.0_veridical_freeview_isoTrue_fps144.mp4",""
"null","","","html-keyboard-response","570","1267926","0.0-570.0","o6tv81tt","","<span style=""color:Black; font-size:50px;"">Agent B","null","","","","",""
"null","","","video-keyboard-response","571","1271001","0.0-571.0","o6tv81tt","","","null","","Agent B","scrambled","STIM_SET_5/285932.bmp_pp64_L1_V1.0_veridical_freeview_isoTrue_Hflip_fps144.mp4",""
"","","","call-function","572","1271002","0.0-572.0","o6tv81tt","","","","","","","",""
"2200.9799999999814","{""judgement"":0}","[0]","survey-likert","573","1273204","0.0-573.0","o6tv81tt","","","","","","","","0"
"1215.2849999999162","{""confidence"":0}","[0]","survey-likert","574","1274421","0.0-574.0","o6tv81tt","","","","","","","",""
"","","","call-function","575","1274421","0.0-575.0","o6tv81tt","","","","","","","",""
"null","","","html-keyboard-response","576","1275925","0.0-576.0","o6tv81tt","","<span style=""color:Black; font-size:50px;"">Agent A","null","","","","",""
"null","","","video-keyboard-response","577","1279010","0.0-577.0","o6tv81tt","","","null","","Agent A","scrambled","STIM_SET_5/150277.bmp_pp65_L3_V1.0_veridical_freeview_isoTrue_Hflip_fps144.mp4",""
"null","","","html-keyboard-response","578","1280513","0.0-578.0","o6tv81tt","","<span style=""color:Black; font-size:50px;"">Agent B","null","","","","",""
"null","","","video-keyboard-response","579","1283581","0.0-579.0","o6tv81tt","","","null","","Agent B","veridical","STIM_SET_2_144/150277.bmp_pp65_L3_V1.0_veridical_freeview_isoTrue_fps144.mp4",""
"","","","call-function","580","1283582","0.0-580.0","o6tv81tt","","","","","","","",""
"3092.820000000065","{""judgement"":0}","[0]","survey-likert","581","1286675","0.0-581.0","o6tv81tt","","","","","","","","1"
"911.7600000000093","{""confidence"":0}","[0]","survey-likert","582","1287588","0.0-582.0","o6tv81tt","","","","","","","",""
"2326.530000000028","","","instructions","583","1289916","0.0-583.0","o6tv81tt","[{""page_index"":0,""viewing_time"":2326.3950000000186}]","","","","","","",""
"2350.4449999998324","","","instructions","584","1292267","0.0-584.0","o6tv81tt","[{""page_index"":0,""viewing_time"":2350.339999999851}]","","","","","","",""
"17135.075000000186","{""post-1"":0}","[0]","survey-likert","585","1309403","0.0-585.0","o6tv81tt","","","","","","","",""
"4558.030000000028","{""post-1"":0}","[0]","survey-likert","586","1313963","0.0-586.0","o6tv81tt","","","","","","","",""
"11554.63500000001","{""post-2"":0}","[0]","survey-likert","587","1325519","0.0-587.0","o6tv81tt","","","","","","","",""
"1591.6299999998882","{""post-2"":0}","[0]","survey-likert","588","1327113","0.0-588.0","o6tv81tt","","","","","","","",""
"6191.719999999972","{""post-3"":1}","[0]","survey-likert","589","1333306","0.0-589.0","o6tv81tt","","","","","","","",""
"4549.425000000047","{""post-3"":1}","[0]","survey-likert","590","1337857","0.0-590.0","o6tv81tt","","","","","","","",""
"10052.969999999972","{""post-4"":1}","[0]","survey-likert","591","1347912","0.0-591.0","o6tv81tt","","","","","","","",""
"5419.930000000168","{""post-4"":1}","[0]","survey-likert","592","1353333","0.0-592.0","o6tv81tt","","","","","","","",""
"8112.844999999972","{""post-5"":2}","[0]","survey-likert","593","1361447","0.0-593.0","o6tv81tt","","","","","","","",""
"2821.3599999998696","{""post-5"":2}","[0]","survey-likert","594","1364270","0.0-594.0","o6tv81tt","","","","","","","",""
"91012.43999999994","{""Q0"":""The attention hotspots always were mirrored for both agents. Because of this I didn't feel like they were distinguishable from each other without seeing the underlying image. The sequence of attention was the same except for direction, and direction is dependent upon the image that is being gazed upon. ""}","","survey-text","595","1455287","0.0-595.0","o6tv81tt","","","","","","","",""
"51654.70499999984","{""Q0"":""As explained before, I didn't find the experiment easy. I couldn't bring myself to decide one or the other agent when both were simply mirrored. The attention hotspots lost all meaning to me. ""}","","survey-text","596","1506946","0.0-596.0","o6tv81tt","","","","","","","",""
"34978.58499999996","{""Q0"":""How would I distinguish robot from actual person when I don't know what they were looking at? ""}","","survey-text","597","1541928","0.0-597.0","o6tv81tt","","","","","","","",""
"1239.7950000001583","","","instructions","598","1543169","0.0-598.0","o6tv81tt","[{""page_index"":0,""viewing_time"":1239.630000000121}]","","","","","","",""
"1613577.4700000002","{""Experimenter_end"":[""Printed ID# o6tv81tt on consent form"",""Given subject SONA credit or payment"",""Given the subject debrief form""]}","[0]","survey-multi-select","599","3156753","0.0-599.0","o6tv81tt","","","","","","","",""
