"rt","responses","question_order","trial_type","trial_index","time_elapsed","internal_node_id","ID","view_history","stimulus","key_press","value","agent","condition","image","correct_answer"
"10405.23","{""Experimenter"":[""Confirmed subject's identity (ID card)"",""Confirmed normal or corrected-to-normal vision"",""Obtained consent (signature and date)"",""Checked the test room lighting"",""Checked computer screen lighting"",""Checked distance from screen to chin rest (50cm)"",""Cleaned and adjusted chin rest"",""Counterbalanced the order of the tasks"",""Opened the experiment in Firefox"",""Made the experiment full screen"",""Encouraged subject to silence phone, put away distractors, etc.""]}","[0]","survey-multi-select","0","10414","0.0-0.0","o8bjcubj","","","","","","","",""
"9559.750000000002","","","instructions","1","19975","0.0-1.0","o8bjcubj","[{""page_index"":0,""viewing_time"":9559.6}]","","","","","","",""
"6817.049999999999","","","instructions","2","26793","0.0-2.0","o8bjcubj","[{""page_index"":0,""viewing_time"":1694.875},{""page_index"":1,""viewing_time"":2489.010000000002},{""page_index"":2,""viewing_time"":2633.0449999999983}]","","","","","","",""
"2055.4799999999996","","","instructions","3","28848","0.0-3.0","o8bjcubj","[{""page_index"":0,""viewing_time"":2055.380000000001}]","","","","","","",""
"null","","","video-keyboard-response","4","31923","0.0-4.0","o8bjcubj","","","null","","","","",""
"6726.459999999999","","","instructions","5","38649","0.0-5.0","o8bjcubj","[{""page_index"":0,""viewing_time"":2403.3150000000023},{""page_index"":1,""viewing_time"":1796.0049999999974},{""page_index"":2,""viewing_time"":754.0900000000038},{""page_index"":3,""viewing_time"":1158.9749999999985},{""page_index"":4,""viewing_time"":613.9499999999971}]","","","","","","",""
"1554.675000000003","","","instructions","6","40205","0.0-6.0","o8bjcubj","[{""page_index"":0,""viewing_time"":1554.5550000000003}]","","","","","","",""
"","","","call-function","7","40205","0.0-7.0","o8bjcubj","","","","","","","",""
"null","","","html-keyboard-response","8","41708","0.0-8.0","o8bjcubj","","<span style=""color:Black; font-size:50px;"">Agent A","null","","","","",""
"null","","","video-keyboard-response","9","44788","0.0-9.0","o8bjcubj","","","null","","Agent A","scrambled","STIM_SET_1/1591994.bmp_pp69_L3_V1.0_scrambled_freeview_isoFalse.mp4",""
"null","","","html-keyboard-response","10","46290","0.0-10.0","o8bjcubj","","<span style=""color:Black; font-size:50px;"">Agent B","null","","","","",""
"null","","","video-keyboard-response","11","49372","0.0-11.0","o8bjcubj","","","null","","Agent B","veridical","STIM_SET_1/1591994.bmp_pp69_L3_V1.0_veridical_freeview_isoFalse.mp4",""
"","","","call-function","12","49372","0.0-12.0","o8bjcubj","","","","","","","",""
"8384.599999999999","{""judgement"":0}","[0]","survey-likert","13","57758","0.0-13.0","o8bjcubj","","","","","","","","1"
"5304.949999999997","{""confidence"":1}","[0]","survey-likert","14","63064","0.0-14.0","o8bjcubj","","","","","","","",""
"","","","call-function","15","63064","0.0-15.0","o8bjcubj","","","","","","","",""
"null","","","html-keyboard-response","16","64567","0.0-16.0","o8bjcubj","","<span style=""color:Black; font-size:50px;"">Agent A","null","","","","",""
"null","","","video-keyboard-response","17","67644","0.0-17.0","o8bjcubj","","","null","","Agent A","veridical","STIM_SET_1/1592657.bmp_pp98_L1_V1.0_veridical_freeview_isoFalse.mp4",""
"null","","","html-keyboard-response","18","69147","0.0-18.0","o8bjcubj","","<span style=""color:Black; font-size:50px;"">Agent B","null","","","","",""
"null","","","video-keyboard-response","19","72268","0.0-19.0","o8bjcubj","","","null","","Agent B","scrambled","STIM_SET_1/1592657.bmp_pp98_L1_V1.0_scrambled_freeview_isoFalse.mp4",""
"","","","call-function","20","72269","0.0-20.0","o8bjcubj","","","","","","","",""
"2220.020000000004","{""judgement"":0}","[0]","survey-likert","21","74491","0.0-21.0","o8bjcubj","","","","","","","","0"
"1660.2250000000058","{""confidence"":2}","[0]","survey-likert","22","76152","0.0-22.0","o8bjcubj","","","","","","","",""
"","","","call-function","23","76152","0.0-23.0","o8bjcubj","","","","","","","",""
"null","","","html-keyboard-response","24","77655","0.0-24.0","o8bjcubj","","<span style=""color:Black; font-size:50px;"">Agent A","null","","","","",""
"null","","","video-keyboard-response","25","80754","0.0-25.0","o8bjcubj","","","null","","Agent A","scrambled","STIM_SET_1/286001.bmp_pp54_L2_V1.0_scrambled_freeview_isoFalse.mp4",""
"null","","","html-keyboard-response","26","82256","0.0-26.0","o8bjcubj","","<span style=""color:Black; font-size:50px;"">Agent B","null","","","","",""
"null","","","video-keyboard-response","27","85356","0.0-27.0","o8bjcubj","","","null","","Agent B","veridical","STIM_SET_1/286001.bmp_pp54_L2_V1.0_veridical_freeview_isoFalse.mp4",""
"","","","call-function","28","85356","0.0-28.0","o8bjcubj","","","","","","","",""
"1728.3399999999965","{""judgement"":1}","[0]","survey-likert","29","87085","0.0-29.0","o8bjcubj","","","","","","","","1"
"1178.9400000000023","{""confidence"":2}","[0]","survey-likert","30","88265","0.0-30.0","o8bjcubj","","","","","","","",""
"","","","call-function","31","88266","0.0-31.0","o8bjcubj","","","","","","","",""
"null","","","html-keyboard-response","32","89768","0.0-32.0","o8bjcubj","","<span style=""color:Black; font-size:50px;"">Agent A","null","","","","",""
"null","","","video-keyboard-response","33","92884","0.0-33.0","o8bjcubj","","","null","","Agent A","veridical","STIM_SET_1/285994.bmp_pp92_L3_V1.0_veridical_freeview_isoFalse.mp4",""
"null","","","html-keyboard-response","34","94386","0.0-34.0","o8bjcubj","","<span style=""color:Black; font-size:50px;"">Agent B","null","","","","",""
"null","","","video-keyboard-response","35","97452","0.0-35.0","o8bjcubj","","","null","","Agent B","scrambled","STIM_SET_1/285994.bmp_pp92_L3_V1.0_scrambled_freeview_isoFalse.mp4",""
"","","","call-function","36","97452","0.0-36.0","o8bjcubj","","","","","","","",""
"1546.854999999996","{""judgement"":1}","[0]","survey-likert","37","99000","0.0-37.0","o8bjcubj","","","","","","","","0"
"1488.3899999999994","{""confidence"":2}","[0]","survey-likert","38","100489","0.0-38.0","o8bjcubj","","","","","","","",""
"","","","call-function","39","100490","0.0-39.0","o8bjcubj","","","","","","","",""
"null","","","html-keyboard-response","40","101994","0.0-40.0","o8bjcubj","","<span style=""color:Black; font-size:50px;"">Agent A","null","","","","",""
"null","","","video-keyboard-response","41","105095","0.0-41.0","o8bjcubj","","","null","","Agent A","scrambled","STIM_SET_1/498111.bmp_pp88_L2_V1.0_scrambled_freeview_isoFalse.mp4",""
"null","","","html-keyboard-response","42","106599","0.0-42.0","o8bjcubj","","<span style=""color:Black; font-size:50px;"">Agent B","null","","","","",""
"null","","","video-keyboard-response","43","109676","0.0-43.0","o8bjcubj","","","null","","Agent B","veridical","STIM_SET_1/498111.bmp_pp88_L2_V1.0_veridical_freeview_isoFalse.mp4",""
"","","","call-function","44","109677","0.0-44.0","o8bjcubj","","","","","","","",""
"2075.7600000000093","{""judgement"":1}","[0]","survey-likert","45","111753","0.0-45.0","o8bjcubj","","","","","","","","1"
"1479.375","{""confidence"":2}","[0]","survey-likert","46","113234","0.0-46.0","o8bjcubj","","","","","","","",""
"","","","call-function","47","113234","0.0-47.0","o8bjcubj","","","","","","","",""
"null","","","html-keyboard-response","48","114736","0.0-48.0","o8bjcubj","","<span style=""color:Black; font-size:50px;"">Agent A","null","","","","",""
"null","","","video-keyboard-response","49","117801","0.0-49.0","o8bjcubj","","","null","","Agent A","scrambled","STIM_SET_1/1159446.bmp_pp60_L3_V1.0_scrambled_freeview_isoFalse.mp4",""
"null","","","html-keyboard-response","50","119302","0.0-50.0","o8bjcubj","","<span style=""color:Black; font-size:50px;"">Agent B","null","","","","",""
"null","","","video-keyboard-response","51","122408","0.0-51.0","o8bjcubj","","","null","","Agent B","veridical","STIM_SET_1/1159446.bmp_pp60_L3_V1.0_veridical_freeview_isoFalse.mp4",""
"","","","call-function","52","122408","0.0-52.0","o8bjcubj","","","","","","","",""
"2319.790000000008","{""judgement"":1}","[0]","survey-likert","53","124729","0.0-53.0","o8bjcubj","","","","","","","","1"
"1626.3150000000023","{""confidence"":3}","[0]","survey-likert","54","126356","0.0-54.0","o8bjcubj","","","","","","","",""
"","","","call-function","55","126358","0.0-55.0","o8bjcubj","","","","","","","",""
"null","","","html-keyboard-response","56","127863","0.0-56.0","o8bjcubj","","<span style=""color:Black; font-size:50px;"">Agent A","null","","","","",""
"null","","","video-keyboard-response","57","130943","0.0-57.0","o8bjcubj","","","null","","Agent A","scrambled","STIM_SET_1/713749.bmp_pp88_L2_V1.0_scrambled_freeview_isoFalse.mp4",""
"null","","","html-keyboard-response","58","132446","0.0-58.0","o8bjcubj","","<span style=""color:Black; font-size:50px;"">Agent B","null","","","","",""
"null","","","video-keyboard-response","59","135560","0.0-59.0","o8bjcubj","","","null","","Agent B","veridical","STIM_SET_1/713749.bmp_pp88_L2_V1.0_veridical_freeview_isoFalse.mp4",""
"","","","call-function","60","135561","0.0-60.0","o8bjcubj","","","","","","","",""
"1723.8699999999953","{""judgement"":0}","[0]","survey-likert","61","137286","0.0-61.0","o8bjcubj","","","","","","","","1"
"1249.6149999999907","{""confidence"":2}","[0]","survey-likert","62","138536","0.0-62.0","o8bjcubj","","","","","","","",""
"","","","call-function","63","138536","0.0-63.0","o8bjcubj","","","","","","","",""
"null","","","html-keyboard-response","64","140043","0.0-64.0","o8bjcubj","","<span style=""color:Black; font-size:50px;"">Agent A","null","","","","",""
"null","","","video-keyboard-response","65","143140","0.0-65.0","o8bjcubj","","","null","","Agent A","scrambled","STIM_SET_1/1592727.bmp_pp59_L3_V1.0_scrambled_freeview_isoFalse.mp4",""
"null","","","html-keyboard-response","66","144646","0.0-66.0","o8bjcubj","","<span style=""color:Black; font-size:50px;"">Agent B","null","","","","",""
"null","","","video-keyboard-response","67","147743","0.0-67.0","o8bjcubj","","","null","","Agent B","veridical","STIM_SET_1/1592727.bmp_pp59_L3_V1.0_veridical_freeview_isoFalse.mp4",""
"","","","call-function","68","147744","0.0-68.0","o8bjcubj","","","","","","","",""
"2492.9749999999767","{""judgement"":1}","[0]","survey-likert","69","150239","0.0-69.0","o8bjcubj","","","","","","","","1"
"1134.8099999999977","{""confidence"":2}","[0]","survey-likert","70","151375","0.0-70.0","o8bjcubj","","","","","","","",""
"","","","call-function","71","151375","0.0-71.0","o8bjcubj","","","","","","","",""
"null","","","html-keyboard-response","72","152880","0.0-72.0","o8bjcubj","","<span style=""color:Black; font-size:50px;"">Agent A","null","","","","",""
"null","","","video-keyboard-response","73","155948","0.0-73.0","o8bjcubj","","","null","","Agent A","scrambled","STIM_SET_1/1592619.bmp_pp56_L3_V1.0_scrambled_freeview_isoFalse.mp4",""
"null","","","html-keyboard-response","74","157452","0.0-74.0","o8bjcubj","","<span style=""color:Black; font-size:50px;"">Agent B","null","","","","",""
"null","","","video-keyboard-response","75","160521","0.0-75.0","o8bjcubj","","","null","","Agent B","veridical","STIM_SET_1/1592619.bmp_pp56_L3_V1.0_veridical_freeview_isoFalse.mp4",""
"","","","call-function","76","160521","0.0-76.0","o8bjcubj","","","","","","","",""
"1382.1149999999907","{""judgement"":1}","[0]","survey-likert","77","161904","0.0-77.0","o8bjcubj","","","","","","","","1"
"966.890000000014","{""confidence"":2}","[0]","survey-likert","78","162873","0.0-78.0","o8bjcubj","","","","","","","",""
"","","","call-function","79","162873","0.0-79.0","o8bjcubj","","","","","","","",""
"null","","","html-keyboard-response","80","164379","0.0-80.0","o8bjcubj","","<span style=""color:Black; font-size:50px;"">Agent A","null","","","","",""
"null","","","video-keyboard-response","81","167444","0.0-81.0","o8bjcubj","","","null","","Agent A","veridical","STIM_SET_1/1592817.bmp_pp55_L3_V1.0_veridical_freeview_isoFalse.mp4",""
"null","","","html-keyboard-response","82","168951","0.0-82.0","o8bjcubj","","<span style=""color:Black; font-size:50px;"">Agent B","null","","","","",""
"null","","","video-keyboard-response","83","172020","0.0-83.0","o8bjcubj","","","null","","Agent B","scrambled","STIM_SET_1/1592817.bmp_pp55_L3_V1.0_scrambled_freeview_isoFalse.mp4",""
"","","","call-function","84","172020","0.0-84.0","o8bjcubj","","","","","","","",""
"1614.5149999999849","{""judgement"":0}","[0]","survey-likert","85","173636","0.0-85.0","o8bjcubj","","","","","","","","0"
"2452.6050000000105","{""confidence"":2}","[0]","survey-likert","86","176089","0.0-86.0","o8bjcubj","","","","","","","",""
"4922.135000000009","","","instructions","87","181012","0.0-87.0","o8bjcubj","[{""page_index"":0,""viewing_time"":2293.335000000021},{""page_index"":1,""viewing_time"":870.4649999999965},{""page_index"":2,""viewing_time"":1758.125}]","","","","","","",""
"4053.485000000015","","","instructions","88","185066","0.0-88.0","o8bjcubj","[{""page_index"":0,""viewing_time"":1207.3450000000012},{""page_index"":1,""viewing_time"":2252.9500000000116},{""page_index"":2,""viewing_time"":592.9750000000058}]","","","","","","",""
"","","","call-function","89","185066","0.0-89.0","o8bjcubj","","","","","","","",""
"null","","","html-keyboard-response","90","186568","0.0-90.0","o8bjcubj","","<span style=""color:Black; font-size:50px;"">Agent A","null","","","","",""
"null","","","video-keyboard-response","91","189674","0.0-91.0","o8bjcubj","","","null","","Agent A","veridical","STIM_SET_1/713403.bmp_pp80_L3_V1.0_veridical_freeview_isoFalse.mp4",""
"null","","","html-keyboard-response","92","191179","0.0-92.0","o8bjcubj","","<span style=""color:Black; font-size:50px;"">Agent B","null","","","","",""
"null","","","video-keyboard-response","93","194283","0.0-93.0","o8bjcubj","","","null","","Agent B","scrambled","STIM_SET_1/713403.bmp_pp80_L3_V1.0_scrambled_freeview_isoFalse.mp4",""
"","","","call-function","94","194283","0.0-94.0","o8bjcubj","","","","","","","",""
"2236.570000000007","{""judgement"":0}","[0]","survey-likert","95","196520","0.0-95.0","o8bjcubj","","","","","","","","0"
"1686.4899999999907","{""confidence"":2}","[0]","survey-likert","96","198208","0.0-96.0","o8bjcubj","","","","","","","",""
"","","","call-function","97","198208","0.0-97.0","o8bjcubj","","","","","","","",""
"null","","","html-keyboard-response","98","199714","0.0-98.0","o8bjcubj","","<span style=""color:Black; font-size:50px;"">Agent A","null","","","","",""
"null","","","video-keyboard-response","99","202831","0.0-99.0","o8bjcubj","","","null","","Agent A","veridical","STIM_SET_1/498155.bmp_pp61_L2_V1.0_veridical_freeview_isoFalse.mp4",""
"null","","","html-keyboard-response","100","204336","0.0-100.0","o8bjcubj","","<span style=""color:Black; font-size:50px;"">Agent B","null","","","","",""
"null","","","video-keyboard-response","101","207456","0.0-101.0","o8bjcubj","","","null","","Agent B","scrambled","STIM_SET_1/498155.bmp_pp61_L2_V1.0_scrambled_freeview_isoFalse.mp4",""
"","","","call-function","102","207456","0.0-102.0","o8bjcubj","","","","","","","",""
"2730.4799999999814","{""judgement"":0}","[0]","survey-likert","103","210188","0.0-103.0","o8bjcubj","","","","","","","","0"
"1096.9749999999767","{""confidence"":2}","[0]","survey-likert","104","211285","0.0-104.0","o8bjcubj","","","","","","","",""
"","","","call-function","105","211286","0.0-105.0","o8bjcubj","","","","","","","",""
"null","","","html-keyboard-response","106","212789","0.0-106.0","o8bjcubj","","<span style=""color:Black; font-size:50px;"">Agent A","null","","","","",""
"null","","","video-keyboard-response","107","215905","0.0-107.0","o8bjcubj","","","null","","Agent A","scrambled","STIM_SET_1/1159784.bmp_pp73_L3_V1.0_scrambled_freeview_isoFalse.mp4",""
"null","","","html-keyboard-response","108","217410","0.0-108.0","o8bjcubj","","<span style=""color:Black; font-size:50px;"">Agent B","null","","","","",""
"null","","","video-keyboard-response","109","220485","0.0-109.0","o8bjcubj","","","null","","Agent B","veridical","STIM_SET_1/1159784.bmp_pp73_L3_V1.0_veridical_freeview_isoFalse.mp4",""
"","","","call-function","110","220486","0.0-110.0","o8bjcubj","","","","","","","",""
"1957.5","{""judgement"":0}","[0]","survey-likert","111","222444","0.0-111.0","o8bjcubj","","","","","","","","1"
"1578.554999999993","{""confidence"":2}","[0]","survey-likert","112","224024","0.0-112.0","o8bjcubj","","","","","","","",""
"","","","call-function","113","224024","0.0-113.0","o8bjcubj","","","","","","","",""
"null","","","html-keyboard-response","114","225529","0.0-114.0","o8bjcubj","","<span style=""color:Black; font-size:50px;"">Agent A","null","","","","",""
"null","","","video-keyboard-response","115","228598","0.0-115.0","o8bjcubj","","","null","","Agent A","veridical","STIM_SET_1/497950.bmp_pp151_L1_V1.0_veridical_freeview_isoFalse.mp4",""
"null","","","html-keyboard-response","116","230101","0.0-116.0","o8bjcubj","","<span style=""color:Black; font-size:50px;"">Agent B","null","","","","",""
"null","","","video-keyboard-response","117","233168","0.0-117.0","o8bjcubj","","","null","","Agent B","scrambled","STIM_SET_1/497950.bmp_pp151_L1_V1.0_scrambled_freeview_isoFalse.mp4",""
"","","","call-function","118","233168","0.0-118.0","o8bjcubj","","","","","","","",""
"1369.085000000021","{""judgement"":0}","[0]","survey-likert","119","234538","0.0-119.0","o8bjcubj","","","","","","","","0"
"1162.4249999999884","{""confidence"":2}","[0]","survey-likert","120","235702","0.0-120.0","o8bjcubj","","","","","","","",""
"","","","call-function","121","235702","0.0-121.0","o8bjcubj","","","","","","","",""
"null","","","html-keyboard-response","122","237204","0.0-122.0","o8bjcubj","","<span style=""color:Black; font-size:50px;"">Agent A","null","","","","",""
"null","","","video-keyboard-response","123","240273","0.0-123.0","o8bjcubj","","","null","","Agent A","veridical","STIM_SET_1/498149.bmp_pp99_L2_V1.0_veridical_freeview_isoFalse.mp4",""
"null","","","html-keyboard-response","124","241778","0.0-124.0","o8bjcubj","","<span style=""color:Black; font-size:50px;"">Agent B","null","","","","",""
"null","","","video-keyboard-response","125","244884","0.0-125.0","o8bjcubj","","","null","","Agent B","scrambled","STIM_SET_1/498149.bmp_pp99_L2_V1.0_scrambled_freeview_isoFalse.mp4",""
"","","","call-function","126","244885","0.0-126.0","o8bjcubj","","","","","","","",""
"1585.7749999999942","{""judgement"":1}","[0]","survey-likert","127","246471","0.0-127.0","o8bjcubj","","","","","","","","0"
"3699.954999999987","{""confidence"":2}","[0]","survey-likert","128","250173","0.0-128.0","o8bjcubj","","","","","","","",""
"","","","call-function","129","250173","0.0-129.0","o8bjcubj","","","","","","","",""
"null","","","html-keyboard-response","130","251675","0.0-130.0","o8bjcubj","","<span style=""color:Black; font-size:50px;"">Agent A","null","","","","",""
"null","","","video-keyboard-response","131","254762","0.0-131.0","o8bjcubj","","","null","","Agent A","scrambled","STIM_SET_1/1593041.bmp_pp58_L1_V1.0_scrambled_freeview_isoFalse.mp4",""
"null","","","html-keyboard-response","132","256265","0.0-132.0","o8bjcubj","","<span style=""color:Black; font-size:50px;"">Agent B","null","","","","",""
"null","","","video-keyboard-response","133","259353","0.0-133.0","o8bjcubj","","","null","","Agent B","veridical","STIM_SET_1/1593041.bmp_pp58_L1_V1.0_veridical_freeview_isoFalse.mp4",""
"","","","call-function","134","259354","0.0-134.0","o8bjcubj","","","","","","","",""
"1810.4200000000128","{""judgement"":0}","[0]","survey-likert","135","261165","0.0-135.0","o8bjcubj","","","","","","","","1"
"1000.585000000021","{""confidence"":2}","[0]","survey-likert","136","262167","0.0-136.0","o8bjcubj","","","","","","","",""
"","","","call-function","137","262167","0.0-137.0","o8bjcubj","","","","","","","",""
"null","","","html-keyboard-response","138","263671","0.0-138.0","o8bjcubj","","<span style=""color:Black; font-size:50px;"">Agent A","null","","","","",""
"null","","","video-keyboard-response","139","266785","0.0-139.0","o8bjcubj","","","null","","Agent A","scrambled","STIM_SET_1/713681.bmp_pp86_L2_V1.0_scrambled_freeview_isoFalse.mp4",""
"null","","","html-keyboard-response","140","268286","0.0-140.0","o8bjcubj","","<span style=""color:Black; font-size:50px;"">Agent B","null","","","","",""
"null","","","video-keyboard-response","141","271361","0.0-141.0","o8bjcubj","","","null","","Agent B","veridical","STIM_SET_1/713681.bmp_pp86_L2_V1.0_veridical_freeview_isoFalse.mp4",""
"","","","call-function","142","271362","0.0-142.0","o8bjcubj","","","","","","","",""
"3009.7750000000233","{""judgement"":1}","[0]","survey-likert","143","274373","0.0-143.0","o8bjcubj","","","","","","","","1"
"2275.8250000000116","{""confidence"":1}","[0]","survey-likert","144","276650","0.0-144.0","o8bjcubj","","","","","","","",""
"","","","call-function","145","276650","0.0-145.0","o8bjcubj","","","","","","","",""
"null","","","html-keyboard-response","146","278153","0.0-146.0","o8bjcubj","","<span style=""color:Black; font-size:50px;"">Agent A","null","","","","",""
"null","","","video-keyboard-response","147","281230","0.0-147.0","o8bjcubj","","","null","","Agent A","veridical","STIM_SET_1/1592804.bmp_pp91_L3_V1.0_veridical_freeview_isoFalse.mp4",""
"null","","","html-keyboard-response","148","282734","0.0-148.0","o8bjcubj","","<span style=""color:Black; font-size:50px;"">Agent B","null","","","","",""
"null","","","video-keyboard-response","149","285813","0.0-149.0","o8bjcubj","","","null","","Agent B","scrambled","STIM_SET_1/1592804.bmp_pp91_L3_V1.0_scrambled_freeview_isoFalse.mp4",""
"","","","call-function","150","285814","0.0-150.0","o8bjcubj","","","","","","","",""
"1754.5599999999977","{""judgement"":0}","[0]","survey-likert","151","287569","0.0-151.0","o8bjcubj","","","","","","","","0"
"1359.679999999993","{""confidence"":3}","[0]","survey-likert","152","288930","0.0-152.0","o8bjcubj","","","","","","","",""
"","","","call-function","153","288931","0.0-153.0","o8bjcubj","","","","","","","",""
"null","","","html-keyboard-response","154","290432","0.0-154.0","o8bjcubj","","<span style=""color:Black; font-size:50px;"">Agent A","null","","","","",""
"null","","","video-keyboard-response","155","293507","0.0-155.0","o8bjcubj","","","null","","Agent A","scrambled","STIM_SET_1/1591961.bmp_pp67_L2_V1.0_scrambled_freeview_isoFalse.mp4",""
"null","","","html-keyboard-response","156","295014","0.0-156.0","o8bjcubj","","<span style=""color:Black; font-size:50px;"">Agent B","null","","","","",""
"null","","","video-keyboard-response","157","298089","0.0-157.0","o8bjcubj","","","null","","Agent B","veridical","STIM_SET_1/1591961.bmp_pp67_L2_V1.0_veridical_freeview_isoFalse.mp4",""
"","","","call-function","158","298090","0.0-158.0","o8bjcubj","","","","","","","",""
"2480.9649999999674","{""judgement"":0}","[0]","survey-likert","159","300572","0.0-159.0","o8bjcubj","","","","","","","","1"
"1030.1350000000093","{""confidence"":1}","[0]","survey-likert","160","301603","0.0-160.0","o8bjcubj","","","","","","","",""
"","","","call-function","161","301603","0.0-161.0","o8bjcubj","","","","","","","",""
"null","","","html-keyboard-response","162","303107","0.0-162.0","o8bjcubj","","<span style=""color:Black; font-size:50px;"">Agent A","null","","","","",""
"null","","","video-keyboard-response","163","306188","0.0-163.0","o8bjcubj","","","null","","Agent A","scrambled","STIM_SET_1/1159777.bmp_pp77_L3_V1.0_scrambled_freeview_isoFalse.mp4",""
"null","","","html-keyboard-response","164","307694","0.0-164.0","o8bjcubj","","<span style=""color:Black; font-size:50px;"">Agent B","null","","","","",""
"null","","","video-keyboard-response","165","310772","0.0-165.0","o8bjcubj","","","null","","Agent B","veridical","STIM_SET_1/1159777.bmp_pp77_L3_V1.0_veridical_freeview_isoFalse.mp4",""
"","","","call-function","166","310773","0.0-166.0","o8bjcubj","","","","","","","",""
"1262.405000000028","{""judgement"":1}","[0]","survey-likert","167","312036","0.0-167.0","o8bjcubj","","","","","","","","1"
"1347.1149999999907","{""confidence"":2}","[0]","survey-likert","168","313384","0.0-168.0","o8bjcubj","","","","","","","",""
"4761.915000000037","","","instructions","169","318146","0.0-169.0","o8bjcubj","[{""page_index"":0,""viewing_time"":2516.655000000028},{""page_index"":1,""viewing_time"":1014.0900000000256},{""page_index"":2,""viewing_time"":1230.859999999986}]","","","","","","",""
"4156.455000000016","","","instructions","170","322303","0.0-170.0","o8bjcubj","[{""page_index"":0,""viewing_time"":1257.3450000000303},{""page_index"":1,""viewing_time"":1997.9649999999674},{""page_index"":2,""viewing_time"":901.0400000000373}]","","","","","","",""
"","","","call-function","171","322303","0.0-171.0","o8bjcubj","","","","","","","",""
"null","","","html-keyboard-response","172","323809","0.0-172.0","o8bjcubj","","<span style=""color:Black; font-size:50px;"">Agent A","null","","","","",""
"null","","","video-keyboard-response","173","326920","0.0-173.0","o8bjcubj","","","null","","Agent A","veridical","STIM_SET_1/1593035.bmp_pp94_L2_V1.0_veridical_freeview_isoFalse.mp4",""
"null","","","html-keyboard-response","174","328422","0.0-174.0","o8bjcubj","","<span style=""color:Black; font-size:50px;"">Agent B","null","","","","",""
"null","","","video-keyboard-response","175","331531","0.0-175.0","o8bjcubj","","","null","","Agent B","scrambled","STIM_SET_1/1593035.bmp_pp94_L2_V1.0_scrambled_freeview_isoFalse.mp4",""
"","","","call-function","176","331531","0.0-176.0","o8bjcubj","","","","","","","",""
"2473.2999999999884","{""judgement"":0}","[0]","survey-likert","177","334005","0.0-177.0","o8bjcubj","","","","","","","","0"
"2613.1149999999907","{""confidence"":2}","[0]","survey-likert","178","336619","0.0-178.0","o8bjcubj","","","","","","","",""
"","","","call-function","179","336620","0.0-179.0","o8bjcubj","","","","","","","",""
"null","","","html-keyboard-response","180","338123","0.0-180.0","o8bjcubj","","<span style=""color:Black; font-size:50px;"">Agent A","null","","","","",""
"null","","","video-keyboard-response","181","341241","0.0-181.0","o8bjcubj","","","null","","Agent A","scrambled","STIM_SET_1/1592372.bmp_pp76_L1_V1.0_scrambled_freeview_isoFalse.mp4",""
"null","","","html-keyboard-response","182","342743","0.0-182.0","o8bjcubj","","<span style=""color:Black; font-size:50px;"">Agent B","null","","","","",""
"null","","","video-keyboard-response","183","345823","0.0-183.0","o8bjcubj","","","null","","Agent B","veridical","STIM_SET_1/1592372.bmp_pp76_L1_V1.0_veridical_freeview_isoFalse.mp4",""
"","","","call-function","184","345823","0.0-184.0","o8bjcubj","","","","","","","",""
"1971.899999999965","{""judgement"":1}","[0]","survey-likert","185","347796","0.0-185.0","o8bjcubj","","","","","","","","1"
"1520.75","{""confidence"":2}","[0]","survey-likert","186","349318","0.0-186.0","o8bjcubj","","","","","","","",""
"","","","call-function","187","349318","0.0-187.0","o8bjcubj","","","","","","","",""
"null","","","html-keyboard-response","188","350821","0.0-188.0","o8bjcubj","","<span style=""color:Black; font-size:50px;"">Agent A","null","","","","",""
"null","","","video-keyboard-response","189","353895","0.0-189.0","o8bjcubj","","","null","","Agent A","scrambled","STIM_SET_1/285933.bmp_pp81_L1_V1.0_scrambled_freeview_isoFalse.mp4",""
"null","","","html-keyboard-response","190","355400","0.0-190.0","o8bjcubj","","<span style=""color:Black; font-size:50px;"">Agent B","null","","","","",""
"null","","","video-keyboard-response","191","358475","0.0-191.0","o8bjcubj","","","null","","Agent B","veridical","STIM_SET_1/285933.bmp_pp81_L1_V1.0_veridical_freeview_isoFalse.mp4",""
"","","","call-function","192","358476","0.0-192.0","o8bjcubj","","","","","","","",""
"2329.2350000000442","{""judgement"":1}","[0]","survey-likert","193","360806","0.0-193.0","o8bjcubj","","","","","","","","1"
"1102.4799999999814","{""confidence"":1}","[0]","survey-likert","194","361909","0.0-194.0","o8bjcubj","","","","","","","",""
"","","","call-function","195","361910","0.0-195.0","o8bjcubj","","","","","","","",""
"null","","","html-keyboard-response","196","363411","0.0-196.0","o8bjcubj","","<span style=""color:Black; font-size:50px;"">Agent A","null","","","","",""
"null","","","video-keyboard-response","197","366468","0.0-197.0","o8bjcubj","","","null","","Agent A","veridical","STIM_SET_1/713684.bmp_pp85_L3_V1.0_veridical_freeview_isoFalse.mp4",""
"null","","","html-keyboard-response","198","367974","0.0-198.0","o8bjcubj","","<span style=""color:Black; font-size:50px;"">Agent B","null","","","","",""
"null","","","video-keyboard-response","199","371067","0.0-199.0","o8bjcubj","","","null","","Agent B","scrambled","STIM_SET_1/713684.bmp_pp85_L3_V1.0_scrambled_freeview_isoFalse.mp4",""
"","","","call-function","200","371067","0.0-200.0","o8bjcubj","","","","","","","",""
"3954.420000000042","{""judgement"":1}","[0]","survey-likert","201","375022","0.0-201.0","o8bjcubj","","","","","","","","0"
"22476.559999999998","{""confidence"":1}","[0]","survey-likert","202","397500","0.0-202.0","o8bjcubj","","","","","","","",""
"","","","call-function","203","397500","0.0-203.0","o8bjcubj","","","","","","","",""
"null","","","html-keyboard-response","204","399002","0.0-204.0","o8bjcubj","","<span style=""color:Black; font-size:50px;"">Agent A","null","","","","",""
"null","","","video-keyboard-response","205","402116","0.0-205.0","o8bjcubj","","","null","","Agent A","veridical","STIM_SET_1/1159515.bmp_pp84_L3_V1.0_veridical_freeview_isoFalse.mp4",""
"null","","","html-keyboard-response","206","403617","0.0-206.0","o8bjcubj","","<span style=""color:Black; font-size:50px;"">Agent B","null","","","","",""
"null","","","video-keyboard-response","207","406729","0.0-207.0","o8bjcubj","","","null","","Agent B","scrambled","STIM_SET_1/1159515.bmp_pp84_L3_V1.0_scrambled_freeview_isoFalse.mp4",""
"","","","call-function","208","406730","0.0-208.0","o8bjcubj","","","","","","","",""
"2278.1199999999953","{""judgement"":1}","[0]","survey-likert","209","409009","0.0-209.0","o8bjcubj","","","","","","","","0"
"1540.1749999999884","{""confidence"":1}","[0]","survey-likert","210","410550","0.0-210.0","o8bjcubj","","","","","","","",""
"","","","call-function","211","410550","0.0-211.0","o8bjcubj","","","","","","","",""
"null","","","html-keyboard-response","212","412052","0.0-212.0","o8bjcubj","","<span style=""color:Black; font-size:50px;"">Agent A","null","","","","",""
"null","","","video-keyboard-response","213","415118","0.0-213.0","o8bjcubj","","","null","","Agent A","scrambled","STIM_SET_1/1592351.bmp_pp51_L1_V1.0_scrambled_freeview_isoFalse.mp4",""
"null","","","html-keyboard-response","214","416621","0.0-214.0","o8bjcubj","","<span style=""color:Black; font-size:50px;"">Agent B","null","","","","",""
"null","","","video-keyboard-response","215","419688","0.0-215.0","o8bjcubj","","","null","","Agent B","veridical","STIM_SET_1/1592351.bmp_pp51_L1_V1.0_veridical_freeview_isoFalse.mp4",""
"","","","call-function","216","419689","0.0-216.0","o8bjcubj","","","","","","","",""
"2748.9949999999953","{""judgement"":1}","[0]","survey-likert","217","422439","0.0-217.0","o8bjcubj","","","","","","","","1"
"1466.914999999979","{""confidence"":1}","[0]","survey-likert","218","423908","0.0-218.0","o8bjcubj","","","","","","","",""
"","","","call-function","219","423909","0.0-219.0","o8bjcubj","","","","","","","",""
"null","","","html-keyboard-response","220","425412","0.0-220.0","o8bjcubj","","<span style=""color:Black; font-size:50px;"">Agent A","null","","","","",""
"null","","","video-keyboard-response","221","428482","0.0-221.0","o8bjcubj","","","null","","Agent A","scrambled","STIM_SET_1/1159768.bmp_pp89_L1_V1.0_scrambled_freeview_isoFalse.mp4",""
"null","","","html-keyboard-response","222","429986","0.0-222.0","o8bjcubj","","<span style=""color:Black; font-size:50px;"">Agent B","null","","","","",""
"null","","","video-keyboard-response","223","433058","0.0-223.0","o8bjcubj","","","null","","Agent B","veridical","STIM_SET_1/1159768.bmp_pp89_L1_V1.0_veridical_freeview_isoFalse.mp4",""
"","","","call-function","224","433058","0.0-224.0","o8bjcubj","","","","","","","",""
"2114.030000000028","{""judgement"":1}","[0]","survey-likert","225","435173","0.0-225.0","o8bjcubj","","","","","","","","1"
"956.5050000000047","{""confidence"":1}","[0]","survey-likert","226","436131","0.0-226.0","o8bjcubj","","","","","","","",""
"","","","call-function","227","436131","0.0-227.0","o8bjcubj","","","","","","","",""
"null","","","html-keyboard-response","228","437635","0.0-228.0","o8bjcubj","","<span style=""color:Black; font-size:50px;"">Agent A","null","","","","",""
"null","","","video-keyboard-response","229","440711","0.0-229.0","o8bjcubj","","","null","","Agent A","scrambled","STIM_SET_1/1160127.bmp_pp90_L2_V1.0_scrambled_freeview_isoFalse.mp4",""
"null","","","html-keyboard-response","230","442213","0.0-230.0","o8bjcubj","","<span style=""color:Black; font-size:50px;"">Agent B","null","","","","",""
"null","","","video-keyboard-response","231","445286","0.0-231.0","o8bjcubj","","","null","","Agent B","veridical","STIM_SET_1/1160127.bmp_pp90_L2_V1.0_veridical_freeview_isoFalse.mp4",""
"","","","call-function","232","445287","0.0-232.0","o8bjcubj","","","","","","","",""
"8907.850000000035","{""judgement"":0}","[0]","survey-likert","233","454195","0.0-233.0","o8bjcubj","","","","","","","","1"
"2783.859999999986","{""confidence"":1}","[0]","survey-likert","234","456981","0.0-234.0","o8bjcubj","","","","","","","",""
"","","","call-function","235","456981","0.0-235.0","o8bjcubj","","","","","","","",""
"null","","","html-keyboard-response","236","458485","0.0-236.0","o8bjcubj","","<span style=""color:Black; font-size:50px;"">Agent A","null","","","","",""
"null","","","video-keyboard-response","237","461564","0.0-237.0","o8bjcubj","","","null","","Agent A","veridical","STIM_SET_1/713371.bmp_pp68_L1_V1.0_veridical_freeview_isoFalse.mp4",""
"null","","","html-keyboard-response","238","463068","0.0-238.0","o8bjcubj","","<span style=""color:Black; font-size:50px;"">Agent B","null","","","","",""
"null","","","video-keyboard-response","239","466151","0.0-239.0","o8bjcubj","","","null","","Agent B","scrambled","STIM_SET_1/713371.bmp_pp68_L1_V1.0_scrambled_freeview_isoFalse.mp4",""
"","","","call-function","240","466151","0.0-240.0","o8bjcubj","","","","","","","",""
"2280.8850000000093","{""judgement"":0}","[0]","survey-likert","241","468433","0.0-241.0","o8bjcubj","","","","","","","","0"
"2656.8950000000186","{""confidence"":2}","[0]","survey-likert","242","471091","0.0-242.0","o8bjcubj","","","","","","","",""
"","","","call-function","243","471091","0.0-243.0","o8bjcubj","","","","","","","",""
"null","","","html-keyboard-response","244","472596","0.0-244.0","o8bjcubj","","<span style=""color:Black; font-size:50px;"">Agent A","null","","","","",""
"null","","","video-keyboard-response","245","475710","0.0-245.0","o8bjcubj","","","null","","Agent A","veridical","STIM_SET_1/1159621.bmp_pp92_L3_V1.0_veridical_freeview_isoFalse.mp4",""
"null","","","html-keyboard-response","246","477213","0.0-246.0","o8bjcubj","","<span style=""color:Black; font-size:50px;"">Agent B","null","","","","",""
"null","","","video-keyboard-response","247","480331","0.0-247.0","o8bjcubj","","","null","","Agent B","scrambled","STIM_SET_1/1159621.bmp_pp92_L3_V1.0_scrambled_freeview_isoFalse.mp4",""
"","","","call-function","248","480331","0.0-248.0","o8bjcubj","","","","","","","",""
"2715.920000000042","{""judgement"":1}","[0]","survey-likert","249","483048","0.0-249.0","o8bjcubj","","","","","","","","0"
"2142.475000000035","{""confidence"":1}","[0]","survey-likert","250","485191","0.0-250.0","o8bjcubj","","","","","","","",""
"32429.050000000047","","","instructions","251","517621","0.0-251.0","o8bjcubj","[{""page_index"":0,""viewing_time"":5137.820000000007},{""page_index"":1,""viewing_time"":25941.050000000047},{""page_index"":2,""viewing_time"":1349.9749999999767}]","","","","","","",""
"2097.4349999999977","","","instructions","252","519719","0.0-252.0","o8bjcubj","[{""page_index"":0,""viewing_time"":653.4549999999581},{""page_index"":1,""viewing_time"":811.9100000000326},{""page_index"":2,""viewing_time"":631.9649999999674}]","","","","","","",""
"","","","call-function","253","519719","0.0-253.0","o8bjcubj","","","","","","","",""
"null","","","html-keyboard-response","254","521221","0.0-254.0","o8bjcubj","","<span style=""color:Black; font-size:50px;"">Agent A","null","","","","",""
"null","","","video-keyboard-response","255","524291","0.0-255.0","o8bjcubj","","","null","","Agent A","scrambled","STIM_SET_1/713017.bmp_pp152_L2_V1.0_scrambled_freeview_isoFalse.mp4",""
"null","","","html-keyboard-response","256","525793","0.0-256.0","o8bjcubj","","<span style=""color:Black; font-size:50px;"">Agent B","null","","","","",""
"null","","","video-keyboard-response","257","528867","0.0-257.0","o8bjcubj","","","null","","Agent B","veridical","STIM_SET_1/713017.bmp_pp152_L2_V1.0_veridical_freeview_isoFalse.mp4",""
"","","","call-function","258","528868","0.0-258.0","o8bjcubj","","","","","","","",""
"2163.769999999902","{""judgement"":0}","[0]","survey-likert","259","531032","0.0-259.0","o8bjcubj","","","","","","","","1"
"1500.5699999999488","{""confidence"":2}","[0]","survey-likert","260","532534","0.0-260.0","o8bjcubj","","","","","","","",""
"","","","call-function","261","532534","0.0-261.0","o8bjcubj","","","","","","","",""
"null","","","html-keyboard-response","262","534038","0.0-262.0","o8bjcubj","","<span style=""color:Black; font-size:50px;"">Agent A","null","","","","",""
"null","","","video-keyboard-response","263","537109","0.0-263.0","o8bjcubj","","","null","","Agent A","scrambled","STIM_SET_1/1592499.bmp_pp96_L2_V1.0_scrambled_freeview_isoFalse.mp4",""
"null","","","html-keyboard-response","264","538613","0.0-264.0","o8bjcubj","","<span style=""color:Black; font-size:50px;"">Agent B","null","","","","",""
"null","","","video-keyboard-response","265","541686","0.0-265.0","o8bjcubj","","","null","","Agent B","veridical","STIM_SET_1/1592499.bmp_pp96_L2_V1.0_veridical_freeview_isoFalse.mp4",""
"","","","call-function","266","541686","0.0-266.0","o8bjcubj","","","","","","","",""
"3369.2900000000373","{""judgement"":1}","[0]","survey-likert","267","545057","0.0-267.0","o8bjcubj","","","","","","","","1"
"1839.1849999999395","{""confidence"":2}","[0]","survey-likert","268","546899","0.0-268.0","o8bjcubj","","","","","","","",""
"","","","call-function","269","546900","0.0-269.0","o8bjcubj","","","","","","","",""
"null","","","html-keyboard-response","270","548403","0.0-270.0","o8bjcubj","","<span style=""color:Black; font-size:50px;"">Agent A","null","","","","",""
"null","","","video-keyboard-response","271","551478","0.0-271.0","o8bjcubj","","","null","","Agent A","scrambled","STIM_SET_1/1160168.bmp_pp53_L2_V1.0_scrambled_freeview_isoFalse.mp4",""
"null","","","html-keyboard-response","272","552980","0.0-272.0","o8bjcubj","","<span style=""color:Black; font-size:50px;"">Agent B","null","","","","",""
"null","","","video-keyboard-response","273","556054","0.0-273.0","o8bjcubj","","","null","","Agent B","veridical","STIM_SET_1/1160168.bmp_pp53_L2_V1.0_veridical_freeview_isoFalse.mp4",""
"","","","call-function","274","556054","0.0-274.0","o8bjcubj","","","","","","","",""
"3163.859999999986","{""judgement"":0}","[0]","survey-likert","275","559219","0.0-275.0","o8bjcubj","","","","","","","","1"
"1317.6600000000326","{""confidence"":2}","[0]","survey-likert","276","560538","0.0-276.0","o8bjcubj","","","","","","","",""
"","","","call-function","277","560538","0.0-277.0","o8bjcubj","","","","","","","",""
"null","","","html-keyboard-response","278","562041","0.0-278.0","o8bjcubj","","<span style=""color:Black; font-size:50px;"">Agent A","null","","","","",""
"null","","","video-keyboard-response","279","565113","0.0-279.0","o8bjcubj","","","null","","Agent A","scrambled","STIM_SET_1/285905.bmp_pp57_L1_V1.0_scrambled_freeview_isoFalse.mp4",""
"null","","","html-keyboard-response","280","566618","0.0-280.0","o8bjcubj","","<span style=""color:Black; font-size:50px;"">Agent B","null","","","","",""
"null","","","video-keyboard-response","281","569691","0.0-281.0","o8bjcubj","","","null","","Agent B","veridical","STIM_SET_1/285905.bmp_pp57_L1_V1.0_veridical_freeview_isoFalse.mp4",""
"","","","call-function","282","569691","0.0-282.0","o8bjcubj","","","","","","","",""
"1977.0700000000652","{""judgement"":0}","[0]","survey-likert","283","571669","0.0-283.0","o8bjcubj","","","","","","","","1"
"2341.069999999949","{""confidence"":2}","[0]","survey-likert","284","574011","0.0-284.0","o8bjcubj","","","","","","","",""
"","","","call-function","285","574012","0.0-285.0","o8bjcubj","","","","","","","",""
"null","","","html-keyboard-response","286","575513","0.0-286.0","o8bjcubj","","<span style=""color:Black; font-size:50px;"">Agent A","null","","","","",""
"null","","","video-keyboard-response","287","578636","0.0-287.0","o8bjcubj","","","null","","Agent A","veridical","STIM_SET_1/713666.bmp_pp97_L3_V1.0_veridical_freeview_isoFalse.mp4",""
"null","","","html-keyboard-response","288","580144","0.0-288.0","o8bjcubj","","<span style=""color:Black; font-size:50px;"">Agent B","null","","","","",""
"null","","","video-keyboard-response","289","583263","0.0-289.0","o8bjcubj","","","null","","Agent B","scrambled","STIM_SET_1/713666.bmp_pp97_L3_V1.0_scrambled_freeview_isoFalse.mp4",""
"","","","call-function","290","583263","0.0-290.0","o8bjcubj","","","","","","","",""
"2301.484999999986","{""judgement"":0}","[0]","survey-likert","291","585565","0.0-291.0","o8bjcubj","","","","","","","","0"
"2006.9449999999488","{""confidence"":1}","[0]","survey-likert","292","587573","0.0-292.0","o8bjcubj","","","","","","","",""
"","","","call-function","293","587574","0.0-293.0","o8bjcubj","","","","","","","",""
"null","","","html-keyboard-response","294","589079","0.0-294.0","o8bjcubj","","<span style=""color:Black; font-size:50px;"">Agent A","null","","","","",""
"null","","","video-keyboard-response","295","592198","0.0-295.0","o8bjcubj","","","null","","Agent A","veridical","STIM_SET_1/498253.bmp_pp67_L2_V1.0_veridical_freeview_isoFalse.mp4",""
"null","","","html-keyboard-response","296","593700","0.0-296.0","o8bjcubj","","<span style=""color:Black; font-size:50px;"">Agent B","null","","","","",""
"null","","","video-keyboard-response","297","596818","0.0-297.0","o8bjcubj","","","null","","Agent B","scrambled","STIM_SET_1/498253.bmp_pp67_L2_V1.0_scrambled_freeview_isoFalse.mp4",""
"","","","call-function","298","596818","0.0-298.0","o8bjcubj","","","","","","","",""
"2328.3950000000186","{""judgement"":0}","[0]","survey-likert","299","599147","0.0-299.0","o8bjcubj","","","","","","","","0"
"2385.765000000014","{""confidence"":2}","[0]","survey-likert","300","601534","0.0-300.0","o8bjcubj","","","","","","","",""
"","","","call-function","301","601534","0.0-301.0","o8bjcubj","","","","","","","",""
"null","","","html-keyboard-response","302","603036","0.0-302.0","o8bjcubj","","<span style=""color:Black; font-size:50px;"">Agent A","null","","","","",""
"null","","","video-keyboard-response","303","606161","0.0-303.0","o8bjcubj","","","null","","Agent A","veridical","STIM_SET_1/1591954.bmp_pp62_L2_V1.0_veridical_freeview_isoFalse.mp4",""
"null","","","html-keyboard-response","304","607665","0.0-304.0","o8bjcubj","","<span style=""color:Black; font-size:50px;"">Agent B","null","","","","",""
"null","","","video-keyboard-response","305","610789","0.0-305.0","o8bjcubj","","","null","","Agent B","scrambled","STIM_SET_1/1591954.bmp_pp62_L2_V1.0_scrambled_freeview_isoFalse.mp4",""
"","","","call-function","306","610790","0.0-306.0","o8bjcubj","","","","","","","",""
"2276.7200000000885","{""judgement"":0}","[0]","survey-likert","307","613067","0.0-307.0","o8bjcubj","","","","","","","","0"
"1299.4749999999767","{""confidence"":2}","[0]","survey-likert","308","614368","0.0-308.0","o8bjcubj","","","","","","","",""
"","","","call-function","309","614369","0.0-309.0","o8bjcubj","","","","","","","",""
"null","","","html-keyboard-response","310","615873","0.0-310.0","o8bjcubj","","<span style=""color:Black; font-size:50px;"">Agent A","null","","","","",""
"null","","","video-keyboard-response","311","618942","0.0-311.0","o8bjcubj","","","null","","Agent A","scrambled","STIM_SET_1/1159882.bmp_pp61_L2_V1.0_scrambled_freeview_isoFalse.mp4",""
"null","","","html-keyboard-response","312","620447","0.0-312.0","o8bjcubj","","<span style=""color:Black; font-size:50px;"">Agent B","null","","","","",""
"null","","","video-keyboard-response","313","623517","0.0-313.0","o8bjcubj","","","null","","Agent B","veridical","STIM_SET_1/1159882.bmp_pp61_L2_V1.0_veridical_freeview_isoFalse.mp4",""
"","","","call-function","314","623518","0.0-314.0","o8bjcubj","","","","","","","",""
"4141.810000000056","{""judgement"":1}","[0]","survey-likert","315","627660","0.0-315.0","o8bjcubj","","","","","","","","1"
"2816.7099999999627","{""confidence"":2}","[0]","survey-likert","316","630478","0.0-316.0","o8bjcubj","","","","","","","",""
"","","","call-function","317","630478","0.0-317.0","o8bjcubj","","","","","","","",""
"null","","","html-keyboard-response","318","631982","0.0-318.0","o8bjcubj","","<span style=""color:Black; font-size:50px;"">Agent A","null","","","","",""
"null","","","video-keyboard-response","319","635058","0.0-319.0","o8bjcubj","","","null","","Agent A","veridical","STIM_SET_1/498175.bmp_pp154_L1_V1.0_veridical_freeview_isoFalse.mp4",""
"null","","","html-keyboard-response","320","636562","0.0-320.0","o8bjcubj","","<span style=""color:Black; font-size:50px;"">Agent B","null","","","","",""
"null","","","video-keyboard-response","321","639641","0.0-321.0","o8bjcubj","","","null","","Agent B","scrambled","STIM_SET_1/498175.bmp_pp154_L1_V1.0_scrambled_freeview_isoFalse.mp4",""
"","","","call-function","322","639641","0.0-322.0","o8bjcubj","","","","","","","",""
"204762.735","{""judgement"":0}","[0]","survey-likert","323","844406","0.0-323.0","o8bjcubj","","","","","","","","0"
"1557.8400000000838","{""confidence"":1}","[0]","survey-likert","324","845965","0.0-324.0","o8bjcubj","","","","","","","",""
"","","","call-function","325","845966","0.0-325.0","o8bjcubj","","","","","","","",""
"null","","","html-keyboard-response","326","847468","0.0-326.0","o8bjcubj","","<span style=""color:Black; font-size:50px;"">Agent A","null","","","","",""
"null","","","video-keyboard-response","327","850536","0.0-327.0","o8bjcubj","","","null","","Agent A","scrambled","STIM_SET_1/1592890.bmp_pp82_L2_V1.0_scrambled_freeview_isoFalse.mp4",""
"null","","","html-keyboard-response","328","852040","0.0-328.0","o8bjcubj","","<span style=""color:Black; font-size:50px;"">Agent B","null","","","","",""
"null","","","video-keyboard-response","329","855110","0.0-329.0","o8bjcubj","","","null","","Agent B","veridical","STIM_SET_1/1592890.bmp_pp82_L2_V1.0_veridical_freeview_isoFalse.mp4",""
"","","","call-function","330","855111","0.0-330.0","o8bjcubj","","","","","","","",""
"2012.6149999999907","{""judgement"":0}","[0]","survey-likert","331","857125","0.0-331.0","o8bjcubj","","","","","","","","1"
"2464.905000000028","{""confidence"":2}","[0]","survey-likert","332","859591","0.0-332.0","o8bjcubj","","","","","","","",""
"5962.280000000028","","","instructions","333","865555","0.0-333.0","o8bjcubj","[{""page_index"":0,""viewing_time"":3857.060000000056},{""page_index"":1,""viewing_time"":1541.9499999999534},{""page_index"":2,""viewing_time"":563.0650000000605}]","","","","","","",""
"1642.3049999999348","","","instructions","334","867197","0.0-334.0","o8bjcubj","[{""page_index"":0,""viewing_time"":639.3449999999721},{""page_index"":1,""viewing_time"":513.8649999999907},{""page_index"":2,""viewing_time"":488.99499999999534}]","","","","","","",""
"","","","call-function","335","867198","0.0-335.0","o8bjcubj","","","","","","","",""
"null","","","html-keyboard-response","336","868700","0.0-336.0","o8bjcubj","","<span style=""color:Black; font-size:50px;"">Agent A","null","","","","",""
"null","","","video-keyboard-response","337","871771","0.0-337.0","o8bjcubj","","","null","","Agent A","veridical","STIM_SET_1/1159447.bmp_pp70_L2_V1.0_veridical_freeview_isoFalse.mp4",""
"null","","","html-keyboard-response","338","873273","0.0-338.0","o8bjcubj","","<span style=""color:Black; font-size:50px;"">Agent B","null","","","","",""
"null","","","video-keyboard-response","339","876342","0.0-339.0","o8bjcubj","","","null","","Agent B","scrambled","STIM_SET_1/1159447.bmp_pp70_L2_V1.0_scrambled_freeview_isoFalse.mp4",""
"","","","call-function","340","876343","0.0-340.0","o8bjcubj","","","","","","","",""
"4406.604999999981","{""judgement"":0}","[0]","survey-likert","341","880750","0.0-341.0","o8bjcubj","","","","","","","","0"
"1112.6350000000093","{""confidence"":2}","[0]","survey-likert","342","881864","0.0-342.0","o8bjcubj","","","","","","","",""
"","","","call-function","343","881865","0.0-343.0","o8bjcubj","","","","","","","",""
"null","","","html-keyboard-response","344","883368","0.0-344.0","o8bjcubj","","<span style=""color:Black; font-size:50px;"">Agent A","null","","","","",""
"null","","","video-keyboard-response","345","886443","0.0-345.0","o8bjcubj","","","null","","Agent A","scrambled","STIM_SET_1/1592934.bmp_pp63_L1_V1.0_scrambled_freeview_isoFalse.mp4",""
"null","","","html-keyboard-response","346","887946","0.0-346.0","o8bjcubj","","<span style=""color:Black; font-size:50px;"">Agent B","null","","","","",""
"null","","","video-keyboard-response","347","891018","0.0-347.0","o8bjcubj","","","null","","Agent B","veridical","STIM_SET_1/1592934.bmp_pp63_L1_V1.0_veridical_freeview_isoFalse.mp4",""
"","","","call-function","348","891018","0.0-348.0","o8bjcubj","","","","","","","",""
"3422.6750000000466","{""judgement"":1}","[0]","survey-likert","349","894442","0.0-349.0","o8bjcubj","","","","","","","","1"
"2463.695000000065","{""confidence"":2}","[0]","survey-likert","350","896906","0.0-350.0","o8bjcubj","","","","","","","",""
"","","","call-function","351","896907","0.0-351.0","o8bjcubj","","","","","","","",""
"null","","","html-keyboard-response","352","898409","0.0-352.0","o8bjcubj","","<span style=""color:Black; font-size:50px;"">Agent A","null","","","","",""
"null","","","video-keyboard-response","353","901530","0.0-353.0","o8bjcubj","","","null","","Agent A","scrambled","STIM_SET_1/713620.bmp_pp65_L3_V1.0_scrambled_freeview_isoFalse.mp4",""
"null","","","html-keyboard-response","354","903033","0.0-354.0","o8bjcubj","","<span style=""color:Black; font-size:50px;"">Agent B","null","","","","",""
"null","","","video-keyboard-response","355","906149","0.0-355.0","o8bjcubj","","","null","","Agent B","veridical","STIM_SET_1/713620.bmp_pp65_L3_V1.0_veridical_freeview_isoFalse.mp4",""
"","","","call-function","356","906149","0.0-356.0","o8bjcubj","","","","","","","",""
"4219.640000000014","{""judgement"":0}","[0]","survey-likert","357","910370","0.0-357.0","o8bjcubj","","","","","","","","1"
"3765.469999999972","{""confidence"":2}","[0]","survey-likert","358","914137","0.0-358.0","o8bjcubj","","","","","","","",""
"","","","call-function","359","914137","0.0-359.0","o8bjcubj","","","","","","","",""
"null","","","html-keyboard-response","360","915642","0.0-360.0","o8bjcubj","","<span style=""color:Black; font-size:50px;"">Agent A","null","","","","",""
"null","","","video-keyboard-response","361","918744","0.0-361.0","o8bjcubj","","","null","","Agent A","veridical","STIM_SET_1/1159813.bmp_pp79_L2_V1.0_veridical_freeview_isoFalse.mp4",""
"null","","","html-keyboard-response","362","920246","0.0-362.0","o8bjcubj","","<span style=""color:Black; font-size:50px;"">Agent B","null","","","","",""
"null","","","video-keyboard-response","363","923342","0.0-363.0","o8bjcubj","","","null","","Agent B","scrambled","STIM_SET_1/1159813.bmp_pp79_L2_V1.0_scrambled_freeview_isoFalse.mp4",""
"","","","call-function","364","923343","0.0-364.0","o8bjcubj","","","","","","","",""
"2082.6199999999953","{""judgement"":0}","[0]","survey-likert","365","925426","0.0-365.0","o8bjcubj","","","","","","","","0"
"1170.5200000000186","{""confidence"":2}","[0]","survey-likert","366","926598","0.0-366.0","o8bjcubj","","","","","","","",""
"","","","call-function","367","926598","0.0-367.0","o8bjcubj","","","","","","","",""
"null","","","html-keyboard-response","368","928101","0.0-368.0","o8bjcubj","","<span style=""color:Black; font-size:50px;"">Agent A","null","","","","",""
"null","","","video-keyboard-response","369","931208","0.0-369.0","o8bjcubj","","","null","","Agent A","veridical","STIM_SET_1/1592362.bmp_pp95_L2_V1.0_veridical_freeview_isoFalse.mp4",""
"null","","","html-keyboard-response","370","932714","0.0-370.0","o8bjcubj","","<span style=""color:Black; font-size:50px;"">Agent B","null","","","","",""
"null","","","video-keyboard-response","371","935786","0.0-371.0","o8bjcubj","","","null","","Agent B","scrambled","STIM_SET_1/1592362.bmp_pp95_L2_V1.0_scrambled_freeview_isoFalse.mp4",""
"","","","call-function","372","935787","0.0-372.0","o8bjcubj","","","","","","","",""
"1545.2399999999907","{""judgement"":0}","[0]","survey-likert","373","937333","0.0-373.0","o8bjcubj","","","","","","","","0"
"1245.4750000000931","{""confidence"":2}","[0]","survey-likert","374","938579","0.0-374.0","o8bjcubj","","","","","","","",""
"","","","call-function","375","938580","0.0-375.0","o8bjcubj","","","","","","","",""
"null","","","html-keyboard-response","376","940082","0.0-376.0","o8bjcubj","","<span style=""color:Black; font-size:50px;"">Agent A","null","","","","",""
"null","","","video-keyboard-response","377","943152","0.0-377.0","o8bjcubj","","","null","","Agent A","veridical","STIM_SET_1/498170.bmp_pp153_L3_V1.0_veridical_freeview_isoFalse.mp4",""
"null","","","html-keyboard-response","378","944653","0.0-378.0","o8bjcubj","","<span style=""color:Black; font-size:50px;"">Agent B","null","","","","",""
"null","","","video-keyboard-response","379","947724","0.0-379.0","o8bjcubj","","","null","","Agent B","scrambled","STIM_SET_1/498170.bmp_pp153_L3_V1.0_scrambled_freeview_isoFalse.mp4",""
"","","","call-function","380","947724","0.0-380.0","o8bjcubj","","","","","","","",""
"1642.420000000042","{""judgement"":1}","[0]","survey-likert","381","949368","0.0-381.0","o8bjcubj","","","","","","","","0"
"1300.704999999958","{""confidence"":1}","[0]","survey-likert","382","950669","0.0-382.0","o8bjcubj","","","","","","","",""
"","","","call-function","383","950670","0.0-383.0","o8bjcubj","","","","","","","",""
"null","","","html-keyboard-response","384","952171","0.0-384.0","o8bjcubj","","<span style=""color:Black; font-size:50px;"">Agent A","null","","","","",""
"null","","","video-keyboard-response","385","955244","0.0-385.0","o8bjcubj","","","null","","Agent A","scrambled","STIM_SET_1/1592286.bmp_pp52_L1_V1.0_scrambled_freeview_isoFalse.mp4",""
"null","","","html-keyboard-response","386","956750","0.0-386.0","o8bjcubj","","<span style=""color:Black; font-size:50px;"">Agent B","null","","","","",""
"null","","","video-keyboard-response","387","959826","0.0-387.0","o8bjcubj","","","null","","Agent B","veridical","STIM_SET_1/1592286.bmp_pp52_L1_V1.0_veridical_freeview_isoFalse.mp4",""
"","","","call-function","388","959826","0.0-388.0","o8bjcubj","","","","","","","",""
"2282.9000000000233","{""judgement"":0}","[0]","survey-likert","389","962110","0.0-389.0","o8bjcubj","","","","","","","","1"
"996.0100000000093","{""confidence"":2}","[0]","survey-likert","390","963107","0.0-390.0","o8bjcubj","","","","","","","",""
"","","","call-function","391","963108","0.0-391.0","o8bjcubj","","","","","","","",""
"null","","","html-keyboard-response","392","964611","0.0-392.0","o8bjcubj","","<span style=""color:Black; font-size:50px;"">Agent A","null","","","","",""
"null","","","video-keyboard-response","393","967729","0.0-393.0","o8bjcubj","","","null","","Agent A","veridical","STIM_SET_1/1592397.bmp_pp85_L3_V1.0_veridical_freeview_isoFalse.mp4",""
"null","","","html-keyboard-response","394","969233","0.0-394.0","o8bjcubj","","<span style=""color:Black; font-size:50px;"">Agent B","null","","","","",""
"null","","","video-keyboard-response","395","972348","0.0-395.0","o8bjcubj","","","null","","Agent B","scrambled","STIM_SET_1/1592397.bmp_pp85_L3_V1.0_scrambled_freeview_isoFalse.mp4",""
"","","","call-function","396","972348","0.0-396.0","o8bjcubj","","","","","","","",""
"3004.194999999949","{""judgement"":1}","[0]","survey-likert","397","975353","0.0-397.0","o8bjcubj","","","","","","","","0"
"1142.9749999999767","{""confidence"":2}","[0]","survey-likert","398","976497","0.0-398.0","o8bjcubj","","","","","","","",""
"","","","call-function","399","976498","0.0-399.0","o8bjcubj","","","","","","","",""
"null","","","html-keyboard-response","400","978000","0.0-400.0","o8bjcubj","","<span style=""color:Black; font-size:50px;"">Agent A","null","","","","",""
"null","","","video-keyboard-response","401","981110","0.0-401.0","o8bjcubj","","","null","","Agent A","scrambled","STIM_SET_1/1159829.bmp_pp91_L3_V1.0_scrambled_freeview_isoFalse.mp4",""
"null","","","html-keyboard-response","402","982617","0.0-402.0","o8bjcubj","","<span style=""color:Black; font-size:50px;"">Agent B","null","","","","",""
"null","","","video-keyboard-response","403","985729","0.0-403.0","o8bjcubj","","","null","","Agent B","veridical","STIM_SET_1/1159829.bmp_pp91_L3_V1.0_veridical_freeview_isoFalse.mp4",""
"","","","call-function","404","985730","0.0-404.0","o8bjcubj","","","","","","","",""
"1823.7750000000233","{""judgement"":1}","[0]","survey-likert","405","987555","0.0-405.0","o8bjcubj","","","","","","","","1"
"1117.25","{""confidence"":2}","[0]","survey-likert","406","988674","0.0-406.0","o8bjcubj","","","","","","","",""
"","","","call-function","407","988674","0.0-407.0","o8bjcubj","","","","","","","",""
"null","","","html-keyboard-response","408","990178","0.0-408.0","o8bjcubj","","<span style=""color:Black; font-size:50px;"">Agent A","null","","","","",""
"null","","","video-keyboard-response","409","993247","0.0-409.0","o8bjcubj","","","null","","Agent A","veridical","STIM_SET_1/1159572.bmp_pp71_L1_V1.0_veridical_freeview_isoFalse.mp4",""
"null","","","html-keyboard-response","410","994749","0.0-410.0","o8bjcubj","","<span style=""color:Black; font-size:50px;"">Agent B","null","","","","",""
"null","","","video-keyboard-response","411","997818","0.0-411.0","o8bjcubj","","","null","","Agent B","scrambled","STIM_SET_1/1159572.bmp_pp71_L1_V1.0_scrambled_freeview_isoFalse.mp4",""
"","","","call-function","412","997819","0.0-412.0","o8bjcubj","","","","","","","",""
"1928.1999999999534","{""judgement"":0}","[0]","survey-likert","413","999748","0.0-413.0","o8bjcubj","","","","","","","","0"
"1694.5899999999674","{""confidence"":2}","[0]","survey-likert","414","1001444","0.0-414.0","o8bjcubj","","","","","","","",""
"8041.739999999991","","","instructions","415","1009486","0.0-415.0","o8bjcubj","[{""page_index"":0,""viewing_time"":6314.494999999995},{""page_index"":1,""viewing_time"":945.0299999999115},{""page_index"":2,""viewing_time"":782.0100000000093}]","","","","","","",""
"2670.4799999999814","","","instructions","416","1012157","0.0-416.0","o8bjcubj","[{""page_index"":0,""viewing_time"":742.2549999998882},{""page_index"":1,""viewing_time"":1595.0750000000698},{""page_index"":2,""viewing_time"":333.04999999993015}]","","","","","","",""
"","","","call-function","417","1012157","0.0-417.0","o8bjcubj","","","","","","","",""
"null","","","html-keyboard-response","418","1013661","0.0-418.0","o8bjcubj","","<span style=""color:Black; font-size:50px;"">Agent A","null","","","","",""
"null","","","video-keyboard-response","419","1016742","0.0-419.0","o8bjcubj","","","null","","Agent A","veridical","STIM_SET_1/1159855.bmp_pp99_L2_V1.0_veridical_freeview_isoFalse.mp4",""
"null","","","html-keyboard-response","420","1018248","0.0-420.0","o8bjcubj","","<span style=""color:Black; font-size:50px;"">Agent B","null","","","","",""
"null","","","video-keyboard-response","421","1021326","0.0-421.0","o8bjcubj","","","null","","Agent B","scrambled","STIM_SET_1/1159855.bmp_pp99_L2_V1.0_scrambled_freeview_isoFalse.mp4",""
"","","","call-function","422","1021327","0.0-422.0","o8bjcubj","","","","","","","",""
"1943.0899999999674","{""judgement"":0}","[0]","survey-likert","423","1023271","0.0-423.0","o8bjcubj","","","","","","","","0"
"1213.9550000000745","{""confidence"":2}","[0]","survey-likert","424","1024486","0.0-424.0","o8bjcubj","","","","","","","",""
"","","","call-function","425","1024486","0.0-425.0","o8bjcubj","","","","","","","",""
"null","","","html-keyboard-response","426","1025991","0.0-426.0","o8bjcubj","","<span style=""color:Black; font-size:50px;"">Agent A","null","","","","",""
"null","","","video-keyboard-response","427","1029101","0.0-427.0","o8bjcubj","","","null","","Agent A","veridical","STIM_SET_1/713513.bmp_pp62_L2_V1.0_veridical_freeview_isoFalse.mp4",""
"null","","","html-keyboard-response","428","1030603","0.0-428.0","o8bjcubj","","<span style=""color:Black; font-size:50px;"">Agent B","null","","","","",""
"null","","","video-keyboard-response","429","1033716","0.0-429.0","o8bjcubj","","","null","","Agent B","scrambled","STIM_SET_1/713513.bmp_pp62_L2_V1.0_scrambled_freeview_isoFalse.mp4",""
"","","","call-function","430","1033716","0.0-430.0","o8bjcubj","","","","","","","",""
"1521.7700000000186","{""judgement"":0}","[0]","survey-likert","431","1035239","0.0-431.0","o8bjcubj","","","","","","","","0"
"1209.9000000000233","{""confidence"":2}","[0]","survey-likert","432","1036450","0.0-432.0","o8bjcubj","","","","","","","",""
"","","","call-function","433","1036450","0.0-433.0","o8bjcubj","","","","","","","",""
"null","","","html-keyboard-response","434","1037955","0.0-434.0","o8bjcubj","","<span style=""color:Black; font-size:50px;"">Agent A","null","","","","",""
"null","","","video-keyboard-response","435","1041039","0.0-435.0","o8bjcubj","","","null","","Agent A","veridical","STIM_SET_1/713707.bmp_pp154_L1_V1.0_veridical_freeview_isoFalse.mp4",""
"null","","","html-keyboard-response","436","1042544","0.0-436.0","o8bjcubj","","<span style=""color:Black; font-size:50px;"">Agent B","null","","","","",""
"null","","","video-keyboard-response","437","1045627","0.0-437.0","o8bjcubj","","","null","","Agent B","scrambled","STIM_SET_1/713707.bmp_pp154_L1_V1.0_scrambled_freeview_isoFalse.mp4",""
"","","","call-function","438","1045628","0.0-438.0","o8bjcubj","","","","","","","",""
"2667.04999999993","{""judgement"":1}","[0]","survey-likert","439","1048296","0.0-439.0","o8bjcubj","","","","","","","","0"
"1210.8250000000698","{""confidence"":2}","[0]","survey-likert","440","1049508","0.0-440.0","o8bjcubj","","","","","","","",""
"","","","call-function","441","1049508","0.0-441.0","o8bjcubj","","","","","","","",""
"null","","","html-keyboard-response","442","1051009","0.0-442.0","o8bjcubj","","<span style=""color:Black; font-size:50px;"">Agent A","null","","","","",""
"null","","","video-keyboard-response","443","1054125","0.0-443.0","o8bjcubj","","","null","","Agent A","scrambled","STIM_SET_1/713211.bmp_pp100_L3_V1.0_scrambled_freeview_isoFalse.mp4",""
"null","","","html-keyboard-response","444","1055626","0.0-444.0","o8bjcubj","","<span style=""color:Black; font-size:50px;"">Agent B","null","","","","",""
"null","","","video-keyboard-response","445","1058707","0.0-445.0","o8bjcubj","","","null","","Agent B","veridical","STIM_SET_1/713211.bmp_pp100_L3_V1.0_veridical_freeview_isoFalse.mp4",""
"","","","call-function","446","1058707","0.0-446.0","o8bjcubj","","","","","","","",""
"1567.1799999999348","{""judgement"":1}","[0]","survey-likert","447","1060275","0.0-447.0","o8bjcubj","","","","","","","","1"
"1632.7549999998882","{""confidence"":2}","[0]","survey-likert","448","1061910","0.0-448.0","o8bjcubj","","","","","","","",""
"","","","call-function","449","1061910","0.0-449.0","o8bjcubj","","","","","","","",""
"null","","","html-keyboard-response","450","1063412","0.0-450.0","o8bjcubj","","<span style=""color:Black; font-size:50px;"">Agent A","null","","","","",""
"null","","","video-keyboard-response","451","1066490","0.0-451.0","o8bjcubj","","","null","","Agent A","veridical","STIM_SET_1/1159675.bmp_pp77_L3_V1.0_veridical_freeview_isoFalse.mp4",""
"null","","","html-keyboard-response","452","1067992","0.0-452.0","o8bjcubj","","<span style=""color:Black; font-size:50px;"">Agent B","null","","","","",""
"null","","","video-keyboard-response","453","1071075","0.0-453.0","o8bjcubj","","","null","","Agent B","scrambled","STIM_SET_1/1159675.bmp_pp77_L3_V1.0_scrambled_freeview_isoFalse.mp4",""
"","","","call-function","454","1071075","0.0-454.0","o8bjcubj","","","","","","","",""
"1576.75","{""judgement"":0}","[0]","survey-likert","455","1072653","0.0-455.0","o8bjcubj","","","","","","","","0"
"1649.6599999999162","{""confidence"":2}","[0]","survey-likert","456","1074303","0.0-456.0","o8bjcubj","","","","","","","",""
"","","","call-function","457","1074304","0.0-457.0","o8bjcubj","","","","","","","",""
"null","","","html-keyboard-response","458","1075809","0.0-458.0","o8bjcubj","","<span style=""color:Black; font-size:50px;"">Agent A","null","","","","",""
"null","","","video-keyboard-response","459","1078924","0.0-459.0","o8bjcubj","","","null","","Agent A","scrambled","STIM_SET_1/61537.bmp_pp73_L3_V1.0_scrambled_freeview_isoFalse.mp4",""
"null","","","html-keyboard-response","460","1080430","0.0-460.0","o8bjcubj","","<span style=""color:Black; font-size:50px;"">Agent B","null","","","","",""
"null","","","video-keyboard-response","461","1083509","0.0-461.0","o8bjcubj","","","null","","Agent B","veridical","STIM_SET_1/61537.bmp_pp73_L3_V1.0_veridical_freeview_isoFalse.mp4",""
"","","","call-function","462","1083509","0.0-462.0","o8bjcubj","","","","","","","",""
"1558.2349999998696","{""judgement"":0}","[0]","survey-likert","463","1085069","0.0-463.0","o8bjcubj","","","","","","","","1"
"1760.6100000001024","{""confidence"":2}","[0]","survey-likert","464","1086830","0.0-464.0","o8bjcubj","","","","","","","",""
"","","","call-function","465","1086831","0.0-465.0","o8bjcubj","","","","","","","",""
"null","","","html-keyboard-response","466","1088334","0.0-466.0","o8bjcubj","","<span style=""color:Black; font-size:50px;"">Agent A","null","","","","",""
"null","","","video-keyboard-response","467","1091402","0.0-467.0","o8bjcubj","","","null","","Agent A","scrambled","STIM_SET_1/713135.bmp_pp54_L2_V1.0_scrambled_freeview_isoFalse.mp4",""
"null","","","html-keyboard-response","468","1092907","0.0-468.0","o8bjcubj","","<span style=""color:Black; font-size:50px;"">Agent B","null","","","","",""
"null","","","video-keyboard-response","469","1096014","0.0-469.0","o8bjcubj","","","null","","Agent B","veridical","STIM_SET_1/713135.bmp_pp54_L2_V1.0_veridical_freeview_isoFalse.mp4",""
"","","","call-function","470","1096014","0.0-470.0","o8bjcubj","","","","","","","",""
"2116.280000000028","{""judgement"":0}","[0]","survey-likert","471","1098132","0.0-471.0","o8bjcubj","","","","","","","","1"
"1467.720000000205","{""confidence"":2}","[0]","survey-likert","472","1099601","0.0-472.0","o8bjcubj","","","","","","","",""
"","","","call-function","473","1099601","0.0-473.0","o8bjcubj","","","","","","","",""
"null","","","html-keyboard-response","474","1101104","0.0-474.0","o8bjcubj","","<span style=""color:Black; font-size:50px;"">Agent A","null","","","","",""
"null","","","video-keyboard-response","475","1104221","0.0-475.0","o8bjcubj","","","null","","Agent A","scrambled","STIM_SET_1/1591876.bmp_pp63_L1_V1.0_scrambled_freeview_isoFalse.mp4",""
"null","","","html-keyboard-response","476","1105722","0.0-476.0","o8bjcubj","","<span style=""color:Black; font-size:50px;"">Agent B","null","","","","",""
"null","","","video-keyboard-response","477","1108839","0.0-477.0","o8bjcubj","","","null","","Agent B","veridical","STIM_SET_1/1591876.bmp_pp63_L1_V1.0_veridical_freeview_isoFalse.mp4",""
"","","","call-function","478","1108839","0.0-478.0","o8bjcubj","","","","","","","",""
"2337.1100000001024","{""judgement"":1}","[0]","survey-likert","479","1111177","0.0-479.0","o8bjcubj","","","","","","","","1"
"1111.4749999998603","{""confidence"":2}","[0]","survey-likert","480","1112290","0.0-480.0","o8bjcubj","","","","","","","",""
"","","","call-function","481","1112290","0.0-481.0","o8bjcubj","","","","","","","",""
"null","","","html-keyboard-response","482","1113791","0.0-482.0","o8bjcubj","","<span style=""color:Black; font-size:50px;"">Agent A","null","","","","",""
"null","","","video-keyboard-response","483","1116902","0.0-483.0","o8bjcubj","","","null","","Agent A","scrambled","STIM_SET_1/712977.bmp_pp51_L1_V1.0_scrambled_freeview_isoFalse.mp4",""
"null","","","html-keyboard-response","484","1118408","0.0-484.0","o8bjcubj","","<span style=""color:Black; font-size:50px;"">Agent B","null","","","","",""
"null","","","video-keyboard-response","485","1121520","0.0-485.0","o8bjcubj","","","null","","Agent B","veridical","STIM_SET_1/712977.bmp_pp51_L1_V1.0_veridical_freeview_isoFalse.mp4",""
"","","","call-function","486","1121520","0.0-486.0","o8bjcubj","","","","","","","",""
"1588.5100000000093","{""judgement"":1}","[0]","survey-likert","487","1123110","0.0-487.0","o8bjcubj","","","","","","","","1"
"1575.0900000000838","{""confidence"":2}","[0]","survey-likert","488","1124686","0.0-488.0","o8bjcubj","","","","","","","",""
"","","","call-function","489","1124686","0.0-489.0","o8bjcubj","","","","","","","",""
"null","","","html-keyboard-response","490","1126188","0.0-490.0","o8bjcubj","","<span style=""color:Black; font-size:50px;"">Agent A","null","","","","",""
"null","","","video-keyboard-response","491","1129267","0.0-491.0","o8bjcubj","","","null","","Agent A","scrambled","STIM_SET_1/713593.bmp_pp64_L1_V1.0_scrambled_freeview_isoFalse.mp4",""
"null","","","html-keyboard-response","492","1130770","0.0-492.0","o8bjcubj","","<span style=""color:Black; font-size:50px;"">Agent B","null","","","","",""
"null","","","video-keyboard-response","493","1133845","0.0-493.0","o8bjcubj","","","null","","Agent B","veridical","STIM_SET_1/713593.bmp_pp64_L1_V1.0_veridical_freeview_isoFalse.mp4",""
"","","","call-function","494","1133846","0.0-494.0","o8bjcubj","","","","","","","",""
"2516.564999999944","{""judgement"":1}","[0]","survey-likert","495","1136363","0.0-495.0","o8bjcubj","","","","","","","","1"
"1093.6500000001397","{""confidence"":2}","[0]","survey-likert","496","1137458","0.0-496.0","o8bjcubj","","","","","","","",""
"1743.9199999999255","","","instructions","497","1139203","0.0-497.0","o8bjcubj","[{""page_index"":0,""viewing_time"":1100.369999999879},{""page_index"":1,""viewing_time"":430.1149999999907},{""page_index"":2,""viewing_time"":213.3200000000652}]","","","","","","",""
"1566.1350000000093","","","instructions","498","1140769","0.0-498.0","o8bjcubj","[{""page_index"":0,""viewing_time"":146.33499999996275},{""page_index"":1,""viewing_time"":699.7749999999069},{""page_index"":2,""viewing_time"":719.9150000000373}]","","","","","","",""
"","","","call-function","499","1140770","0.0-499.0","o8bjcubj","","","","","","","",""
"null","","","html-keyboard-response","500","1142276","0.0-500.0","o8bjcubj","","<span style=""color:Black; font-size:50px;"">Agent A","null","","","","",""
"null","","","video-keyboard-response","501","1145398","0.0-501.0","o8bjcubj","","","null","","Agent A","scrambled","STIM_SET_1/285751.bmp_pp55_L3_V1.0_scrambled_freeview_isoFalse.mp4",""
"null","","","html-keyboard-response","502","1146901","0.0-502.0","o8bjcubj","","<span style=""color:Black; font-size:50px;"">Agent B","null","","","","",""
"null","","","video-keyboard-response","503","1149982","0.0-503.0","o8bjcubj","","","null","","Agent B","veridical","STIM_SET_1/285751.bmp_pp55_L3_V1.0_veridical_freeview_isoFalse.mp4",""
"","","","call-function","504","1149983","0.0-504.0","o8bjcubj","","","","","","","",""
"2649.7099999999627","{""judgement"":1}","[0]","survey-likert","505","1152634","0.0-505.0","o8bjcubj","","","","","","","","1"
"1684.3249999999534","{""confidence"":1}","[0]","survey-likert","506","1154319","0.0-506.0","o8bjcubj","","","","","","","",""
"","","","call-function","507","1154320","0.0-507.0","o8bjcubj","","","","","","","",""
"null","","","html-keyboard-response","508","1155824","0.0-508.0","o8bjcubj","","<span style=""color:Black; font-size:50px;"">Agent A","null","","","","",""
"null","","","video-keyboard-response","509","1158903","0.0-509.0","o8bjcubj","","","null","","Agent A","veridical","STIM_SET_1/1592807.bmp_pp68_L1_V1.0_veridical_freeview_isoFalse.mp4",""
"null","","","html-keyboard-response","510","1160407","0.0-510.0","o8bjcubj","","<span style=""color:Black; font-size:50px;"">Agent B","null","","","","",""
"null","","","video-keyboard-response","511","1163485","0.0-511.0","o8bjcubj","","","null","","Agent B","scrambled","STIM_SET_1/1592807.bmp_pp68_L1_V1.0_scrambled_freeview_isoFalse.mp4",""
"","","","call-function","512","1163486","0.0-512.0","o8bjcubj","","","","","","","",""
"1814.0550000001676","{""judgement"":0}","[0]","survey-likert","513","1165301","0.0-513.0","o8bjcubj","","","","","","","","0"
"1479.3500000000931","{""confidence"":2}","[0]","survey-likert","514","1166782","0.0-514.0","o8bjcubj","","","","","","","",""
"","","","call-function","515","1166783","0.0-515.0","o8bjcubj","","","","","","","",""
"null","","","html-keyboard-response","516","1168287","0.0-516.0","o8bjcubj","","<span style=""color:Black; font-size:50px;"">Agent A","null","","","","",""
"null","","","video-keyboard-response","517","1171363","0.0-517.0","o8bjcubj","","","null","","Agent A","veridical","STIM_SET_1/1593146.bmp_pp93_L1_V1.0_veridical_freeview_isoFalse.mp4",""
"null","","","html-keyboard-response","518","1172865","0.0-518.0","o8bjcubj","","<span style=""color:Black; font-size:50px;"">Agent B","null","","","","",""
"null","","","video-keyboard-response","519","1175943","0.0-519.0","o8bjcubj","","","null","","Agent B","scrambled","STIM_SET_1/1593146.bmp_pp93_L1_V1.0_scrambled_freeview_isoFalse.mp4",""
"","","","call-function","520","1175944","0.0-520.0","o8bjcubj","","","","","","","",""
"2875.5100000000093","{""judgement"":0}","[0]","survey-likert","521","1178820","0.0-521.0","o8bjcubj","","","","","","","","0"
"1210.0400000000373","{""confidence"":2}","[0]","survey-likert","522","1180031","0.0-522.0","o8bjcubj","","","","","","","",""
"","","","call-function","523","1180032","0.0-523.0","o8bjcubj","","","","","","","",""
"null","","","html-keyboard-response","524","1181538","0.0-524.0","o8bjcubj","","<span style=""color:Black; font-size:50px;"">Agent A","null","","","","",""
"null","","","video-keyboard-response","525","1184644","0.0-525.0","o8bjcubj","","","null","","Agent A","scrambled","STIM_SET_1/1592133.bmp_pp75_L1_V1.0_scrambled_freeview_isoFalse.mp4",""
"null","","","html-keyboard-response","526","1186146","0.0-526.0","o8bjcubj","","<span style=""color:Black; font-size:50px;"">Agent B","null","","","","",""
"null","","","video-keyboard-response","527","1189252","0.0-527.0","o8bjcubj","","","null","","Agent B","veridical","STIM_SET_1/1592133.bmp_pp75_L1_V1.0_veridical_freeview_isoFalse.mp4",""
"","","","call-function","528","1189253","0.0-528.0","o8bjcubj","","","","","","","",""
"1981.3149999999441","{""judgement"":1}","[0]","survey-likert","529","1191235","0.0-529.0","o8bjcubj","","","","","","","","1"
"1024.8649999999907","{""confidence"":2}","[0]","survey-likert","530","1192261","0.0-530.0","o8bjcubj","","","","","","","",""
"","","","call-function","531","1192261","0.0-531.0","o8bjcubj","","","","","","","",""
"null","","","html-keyboard-response","532","1193765","0.0-532.0","o8bjcubj","","<span style=""color:Black; font-size:50px;"">Agent A","null","","","","",""
"null","","","video-keyboard-response","533","1196840","0.0-533.0","o8bjcubj","","","null","","Agent A","scrambled","STIM_SET_1/1592581.bmp_pp100_L3_V1.0_scrambled_freeview_isoFalse.mp4",""
"null","","","html-keyboard-response","534","1198343","0.0-534.0","o8bjcubj","","<span style=""color:Black; font-size:50px;"">Agent B","null","","","","",""
"null","","","video-keyboard-response","535","1201417","0.0-535.0","o8bjcubj","","","null","","Agent B","veridical","STIM_SET_1/1592581.bmp_pp100_L3_V1.0_veridical_freeview_isoFalse.mp4",""
"","","","call-function","536","1201417","0.0-536.0","o8bjcubj","","","","","","","",""
"1816.9650000000838","{""judgement"":1}","[0]","survey-likert","537","1203235","0.0-537.0","o8bjcubj","","","","","","","","1"
"981.0449999999255","{""confidence"":2}","[0]","survey-likert","538","1204217","0.0-538.0","o8bjcubj","","","","","","","",""
"","","","call-function","539","1204217","0.0-539.0","o8bjcubj","","","","","","","",""
"null","","","html-keyboard-response","540","1205721","0.0-540.0","o8bjcubj","","<span style=""color:Black; font-size:50px;"">Agent A","null","","","","",""
"null","","","video-keyboard-response","541","1208826","0.0-541.0","o8bjcubj","","","null","","Agent A","scrambled","STIM_SET_1/713796.bmp_pp84_L3_V1.0_scrambled_freeview_isoFalse.mp4",""
"null","","","html-keyboard-response","542","1210328","0.0-542.0","o8bjcubj","","<span style=""color:Black; font-size:50px;"">Agent B","null","","","","",""
"null","","","video-keyboard-response","543","1213437","0.0-543.0","o8bjcubj","","","null","","Agent B","veridical","STIM_SET_1/713796.bmp_pp84_L3_V1.0_veridical_freeview_isoFalse.mp4",""
"","","","call-function","544","1213437","0.0-544.0","o8bjcubj","","","","","","","",""
"2188.6350000000093","{""judgement"":0}","[0]","survey-likert","545","1215627","0.0-545.0","o8bjcubj","","","","","","","","1"
"999.7649999998976","{""confidence"":2}","[0]","survey-likert","546","1216628","0.0-546.0","o8bjcubj","","","","","","","",""
"","","","call-function","547","1216628","0.0-547.0","o8bjcubj","","","","","","","",""
"null","","","html-keyboard-response","548","1218133","0.0-548.0","o8bjcubj","","<span style=""color:Black; font-size:50px;"">Agent A","null","","","","",""
"null","","","video-keyboard-response","549","1221240","0.0-549.0","o8bjcubj","","","null","","Agent A","veridical","STIM_SET_1/713089.bmp_pp60_L3_V1.0_veridical_freeview_isoFalse.mp4",""
"null","","","html-keyboard-response","550","1222743","0.0-550.0","o8bjcubj","","<span style=""color:Black; font-size:50px;"">Agent B","null","","","","",""
"null","","","video-keyboard-response","551","1225810","0.0-551.0","o8bjcubj","","","null","","Agent B","scrambled","STIM_SET_1/713089.bmp_pp60_L3_V1.0_scrambled_freeview_isoFalse.mp4",""
"","","","call-function","552","1225810","0.0-552.0","o8bjcubj","","","","","","","",""
"1716.094999999972","{""judgement"":1}","[0]","survey-likert","553","1227528","0.0-553.0","o8bjcubj","","","","","","","","0"
"959.4550000000745","{""confidence"":2}","[0]","survey-likert","554","1228489","0.0-554.0","o8bjcubj","","","","","","","",""
"","","","call-function","555","1228489","0.0-555.0","o8bjcubj","","","","","","","",""
"null","","","html-keyboard-response","556","1229993","0.0-556.0","o8bjcubj","","<span style=""color:Black; font-size:50px;"">Agent A","null","","","","",""
"null","","","video-keyboard-response","557","1233056","0.0-557.0","o8bjcubj","","","null","","Agent A","veridical","STIM_SET_1/713760.bmp_pp81_L1_V1.0_veridical_freeview_isoFalse.mp4",""
"null","","","html-keyboard-response","558","1234562","0.0-558.0","o8bjcubj","","<span style=""color:Black; font-size:50px;"">Agent B","null","","","","",""
"null","","","video-keyboard-response","559","1237624","0.0-559.0","o8bjcubj","","","null","","Agent B","scrambled","STIM_SET_1/713760.bmp_pp81_L1_V1.0_scrambled_freeview_isoFalse.mp4",""
"","","","call-function","560","1237624","0.0-560.0","o8bjcubj","","","","","","","",""
"2359.5500000000466","{""judgement"":1}","[0]","survey-likert","561","1239985","0.0-561.0","o8bjcubj","","","","","","","","0"
"1532.25","{""confidence"":2}","[0]","survey-likert","562","1241518","0.0-562.0","o8bjcubj","","","","","","","",""
"","","","call-function","563","1241519","0.0-563.0","o8bjcubj","","","","","","","",""
"null","","","html-keyboard-response","564","1243020","0.0-564.0","o8bjcubj","","<span style=""color:Black; font-size:50px;"">Agent A","null","","","","",""
"null","","","video-keyboard-response","565","1246096","0.0-565.0","o8bjcubj","","","null","","Agent A","scrambled","STIM_SET_1/1159440.bmp_pp98_L1_V1.0_scrambled_freeview_isoFalse.mp4",""
"null","","","html-keyboard-response","566","1247600","0.0-566.0","o8bjcubj","","<span style=""color:Black; font-size:50px;"">Agent B","null","","","","",""
"null","","","video-keyboard-response","567","1250723","0.0-567.0","o8bjcubj","","","null","","Agent B","veridical","STIM_SET_1/1159440.bmp_pp98_L1_V1.0_veridical_freeview_isoFalse.mp4",""
"","","","call-function","568","1250724","0.0-568.0","o8bjcubj","","","","","","","",""
"1833.530000000028","{""judgement"":1}","[0]","survey-likert","569","1252559","0.0-569.0","o8bjcubj","","","","","","","","1"
"1284.2750000001397","{""confidence"":2}","[0]","survey-likert","570","1253844","0.0-570.0","o8bjcubj","","","","","","","",""
"","","","call-function","571","1253845","0.0-571.0","o8bjcubj","","","","","","","",""
"null","","","html-keyboard-response","572","1255351","0.0-572.0","o8bjcubj","","<span style=""color:Black; font-size:50px;"">Agent A","null","","","","",""
"null","","","video-keyboard-response","573","1258438","0.0-573.0","o8bjcubj","","","null","","Agent A","veridical","STIM_SET_1/713779.bmp_pp152_L2_V1.0_veridical_freeview_isoFalse.mp4",""
"null","","","html-keyboard-response","574","1259943","0.0-574.0","o8bjcubj","","<span style=""color:Black; font-size:50px;"">Agent B","null","","","","",""
"null","","","video-keyboard-response","575","1263032","0.0-575.0","o8bjcubj","","","null","","Agent B","scrambled","STIM_SET_1/713779.bmp_pp152_L2_V1.0_scrambled_freeview_isoFalse.mp4",""
"","","","call-function","576","1263032","0.0-576.0","o8bjcubj","","","","","","","",""
"1757.4950000001118","{""judgement"":0}","[0]","survey-likert","577","1264791","0.0-577.0","o8bjcubj","","","","","","","","0"
"1632.7899999998044","{""confidence"":2}","[0]","survey-likert","578","1266425","0.0-578.0","o8bjcubj","","","","","","","",""
"982.3800000001211","","","instructions","579","1267408","0.0-579.0","o8bjcubj","[{""page_index"":0,""viewing_time"":982.1450000000186}]","","","","","","",""
"2508.4200000001583","","","instructions","580","1269916","0.0-580.0","o8bjcubj","[{""page_index"":0,""viewing_time"":2508.3050000001676}]","","","","","","",""
"7134.295000000158","{""post-1"":2}","[0]","survey-likert","581","1277052","0.0-581.0","o8bjcubj","","","","","","","",""
"9094.629999999888","{""post-1"":1}","[0]","survey-likert","582","1286148","0.0-582.0","o8bjcubj","","","","","","","",""
"6231.285000000149","{""post-2"":1}","[0]","survey-likert","583","1292382","0.0-583.0","o8bjcubj","","","","","","","",""
"5024.135000000009","{""post-2"":0}","[0]","survey-likert","584","1297408","0.0-584.0","o8bjcubj","","","","","","","",""
"5334.350000000093","{""post-3"":2}","[0]","survey-likert","585","1302744","0.0-585.0","o8bjcubj","","","","","","","",""
"2837.399999999907","{""post-3"":1}","[0]","survey-likert","586","1305583","0.0-586.0","o8bjcubj","","","","","","","",""
"6428.739999999991","{""post-4"":1}","[0]","survey-likert","587","1312013","0.0-587.0","o8bjcubj","","","","","","","",""
"6887.989999999991","{""post-4"":0}","[0]","survey-likert","588","1318902","0.0-588.0","o8bjcubj","","","","","","","",""
"7005.560000000056","{""post-5"":0}","[0]","survey-likert","589","1325909","0.0-589.0","o8bjcubj","","","","","","","",""
"2615.8850000000093","{""post-5"":2}","[0]","survey-likert","590","1328526","0.0-590.0","o8bjcubj","","","","","","","",""
"79930.79999999981","{""Q0"":""I found that this experiment was easier to follow than the previous one. However, I still found myself guessing quite often. ""}","","survey-text","591","1408462","0.0-591.0","o8bjcubj","","","","","","","",""
"64868.05500000017","{""Q0"":""The inlaid images made this experiment easier. I naturally followed the direction of my eyes, and I chose the agent that followed this direction the most closely. ""}","","survey-text","592","1473334","0.0-592.0","o8bjcubj","","","","","","","",""
"57549.58499999996","{""Q0"":""Sometimes, the agents both seemed plausible, which made it difficult to choose which one was human. ""}","","survey-text","593","1530887","0.0-593.0","o8bjcubj","","","","","","","",""
"3217.6049999999814","","","instructions","594","1534105","0.0-594.0","o8bjcubj","[{""page_index"":0,""viewing_time"":3217.3900000001304}]","","","","","","",""
"85070.79500000016","{""Experimenter_end"":[""Printed ID# o8bjcubj on consent form"",""Given subject SONA credit or payment"",""Given the subject debrief form""]}","[0]","survey-multi-select","595","1619179","0.0-595.0","o8bjcubj","","","","","","","",""
