"rt","responses","question_order","trial_type","trial_index","time_elapsed","internal_node_id","ID","view_history","stimulus","key_press","value","agent","condition","image","correct_answer"
"21009.48","{""Experimenter"":[""Confirmed subject's identity"",""Confirmed normal or corrected-to-normal vision"",""Obtained consent (signature and date)"",""Checked the test room lighting"",""Checked computer screen lighting"",""Checked distance from screen to chin rest (50cm)"",""Cleaned and adjusted chin rest"",""Counterbalanced the order of the tasks"",""Opened the experiment in Firefox"",""Made the experiment full screen"",""Encouraged subject to silence phone, put away distractors, etc.""]}","[0]","survey-multi-select","0","21017","0.0-0.0","ojg83n7h","","","","","","","",""
"8050.855","","","instructions","1","29070","0.0-1.0","ojg83n7h","[{""page_index"":0,""viewing_time"":8050.699999999997}]","","","","","","",""
"30321.545000000002","","","instructions","2","59393","0.0-2.0","ojg83n7h","[{""page_index"":0,""viewing_time"":16883.38},{""page_index"":1,""viewing_time"":54.520000000004075},{""page_index"":2,""viewing_time"":13383.519999999997}]","","","","","","",""
"4358.379999999997","","","instructions","3","63752","0.0-3.0","ojg83n7h","[{""page_index"":0,""viewing_time"":4358.2049999999945}]","","","","","","",""
"null","","","video-keyboard-response","4","66830","0.0-4.0","ojg83n7h","","","null","","","","",""
"22203.515","","","instructions","5","89034","0.0-5.0","ojg83n7h","[{""page_index"":0,""viewing_time"":4108.449999999997},{""page_index"":1,""viewing_time"":2400.9850000000006},{""page_index"":0,""viewing_time"":1578.7900000000081},{""page_index"":1,""viewing_time"":4863.134999999995},{""page_index"":2,""viewing_time"":9252.050000000003}]","","","","","","",""
"3066.279999999999","","","instructions","6","92101","0.0-6.0","ojg83n7h","[{""page_index"":0,""viewing_time"":3066.159999999989}]","","","","","","",""
"62.79999999998836","","","instructions","7","92164","0.0-7.0","ojg83n7h","[{""page_index"":0,""viewing_time"":62.58999999999651}]","","","","","","",""
"null","","","video-keyboard-response","8","95238","0.0-8.0","ojg83n7h","","","null","","","","",""
"17337.47","","","instructions","9","112576","0.0-9.0","ojg83n7h","[{""page_index"":0,""viewing_time"":2657.2050000000017},{""page_index"":1,""viewing_time"":5061.059999999998},{""page_index"":2,""viewing_time"":9619.074999999997}]","","","","","","",""
"3857.350000000006","","","instructions","10","116434","0.0-10.0","ojg83n7h","[{""page_index"":0,""viewing_time"":3857.2350000000006}]","","","","","","",""
"","","","call-function","11","116435","0.0-11.0","ojg83n7h","","","","","","","",""
"null","","","html-keyboard-response","12","117940","0.0-12.0","ojg83n7h","","<span style=""color:Black; font-size:50px;"">Agent A","null","","","","",""
"null","","","video-keyboard-response","13","121011","0.0-13.0","ojg83n7h","","","null","","Agent A","scrambled","STIM_SET_2/1160049.bmp_pp53_L2_V1.0_scrambled_freeview_isoTrue.mp4",""
"null","","","html-keyboard-response","14","122516","0.0-14.0","ojg83n7h","","<span style=""color:Black; font-size:50px;"">Agent B","null","","","","",""
"null","","","video-keyboard-response","15","125590","0.0-15.0","ojg83n7h","","","null","","Agent B","veridical","STIM_SET_2/1160049.bmp_pp53_L2_V1.0_veridical_freeview_isoTrue.mp4",""
"","","","call-function","16","125591","0.0-16.0","ojg83n7h","","","","","","","",""
"11768.5","{""judgement"":0}","[0]","survey-likert","17","137361","0.0-17.0","ojg83n7h","","","","","","","","1"
"7115.795000000013","{""confidence"":1}","[0]","survey-likert","18","144478","0.0-18.0","ojg83n7h","","","","","","","",""
"","","","call-function","19","144478","0.0-19.0","ojg83n7h","","","","","","","",""
"null","","","html-keyboard-response","20","145983","0.0-20.0","ojg83n7h","","<span style=""color:Black; font-size:50px;"">Agent A","null","","","","",""
"null","","","video-keyboard-response","21","149042","0.0-21.0","ojg83n7h","","","null","","Agent A","scrambled","STIM_SET_2/1159325.bmp_pp67_L2_V1.0_scrambled_freeview_isoTrue.mp4",""
"null","","","html-keyboard-response","22","150546","0.0-22.0","ojg83n7h","","<span style=""color:Black; font-size:50px;"">Agent B","null","","","","",""
"null","","","video-keyboard-response","23","153620","0.0-23.0","ojg83n7h","","","null","","Agent B","veridical","STIM_SET_2/1159325.bmp_pp67_L2_V1.0_veridical_freeview_isoTrue.mp4",""
"","","","call-function","24","153620","0.0-24.0","ojg83n7h","","","","","","","",""
"3696.579999999987","{""judgement"":1}","[0]","survey-likert","25","157318","0.0-25.0","ojg83n7h","","","","","","","","1"
"3524.2000000000116","{""confidence"":2}","[0]","survey-likert","26","160844","0.0-26.0","ojg83n7h","","","","","","","",""
"","","","call-function","27","160844","0.0-27.0","ojg83n7h","","","","","","","",""
"null","","","html-keyboard-response","28","162347","0.0-28.0","ojg83n7h","","<span style=""color:Black; font-size:50px;"">Agent A","null","","","","",""
"null","","","video-keyboard-response","29","165419","0.0-29.0","ojg83n7h","","","null","","Agent A","veridical","STIM_SET_2/1160204.bmp_pp54_L2_V1.0_veridical_freeview_isoTrue.mp4",""
"null","","","html-keyboard-response","30","166921","0.0-30.0","ojg83n7h","","<span style=""color:Black; font-size:50px;"">Agent B","null","","","","",""
"null","","","video-keyboard-response","31","170016","0.0-31.0","ojg83n7h","","","null","","Agent B","scrambled","STIM_SET_2/1160204.bmp_pp54_L2_V1.0_scrambled_freeview_isoTrue.mp4",""
"","","","call-function","32","170016","0.0-32.0","ojg83n7h","","","","","","","",""
"10720.660000000003","{""judgement"":0}","[0]","survey-likert","33","180738","0.0-33.0","ojg83n7h","","","","","","","","0"
"5467.7699999999895","{""confidence"":1}","[0]","survey-likert","34","186207","0.0-34.0","ojg83n7h","","","","","","","",""
"","","","call-function","35","186207","0.0-35.0","ojg83n7h","","","","","","","",""
"null","","","html-keyboard-response","36","187710","0.0-36.0","ojg83n7h","","<span style=""color:Black; font-size:50px;"">Agent A","null","","","","",""
"null","","","video-keyboard-response","37","190785","0.0-37.0","ojg83n7h","","","null","","Agent A","veridical","STIM_SET_2/1592025.bmp_pp68_L1_V1.0_veridical_freeview_isoTrue.mp4",""
"null","","","html-keyboard-response","38","192290","0.0-38.0","ojg83n7h","","<span style=""color:Black; font-size:50px;"">Agent B","null","","","","",""
"null","","","video-keyboard-response","39","195364","0.0-39.0","ojg83n7h","","","null","","Agent B","scrambled","STIM_SET_2/1592025.bmp_pp68_L1_V1.0_scrambled_freeview_isoTrue.mp4",""
"","","","call-function","40","195365","0.0-40.0","ojg83n7h","","","","","","","",""
"28075.350000000006","{""judgement"":1}","[0]","survey-likert","41","223442","0.0-41.0","ojg83n7h","","","","","","","","0"
"2840.545000000013","{""confidence"":1}","[0]","survey-likert","42","226284","0.0-42.0","ojg83n7h","","","","","","","",""
"","","","call-function","43","226285","0.0-43.0","ojg83n7h","","","","","","","",""
"null","","","html-keyboard-response","44","227787","0.0-44.0","ojg83n7h","","<span style=""color:Black; font-size:50px;"">Agent A","null","","","","",""
"null","","","video-keyboard-response","45","230864","0.0-45.0","ojg83n7h","","","null","","Agent A","veridical","STIM_SET_2/1159329.bmp_pp61_L2_V1.0_veridical_freeview_isoTrue.mp4",""
"null","","","html-keyboard-response","46","232370","0.0-46.0","ojg83n7h","","<span style=""color:Black; font-size:50px;"">Agent B","null","","","","",""
"null","","","video-keyboard-response","47","235446","0.0-47.0","ojg83n7h","","","null","","Agent B","scrambled","STIM_SET_2/1159329.bmp_pp61_L2_V1.0_scrambled_freeview_isoTrue.mp4",""
"","","","call-function","48","235447","0.0-48.0","ojg83n7h","","","","","","","",""
"8468.665000000008","{""judgement"":1}","[0]","survey-likert","49","243917","0.0-49.0","ojg83n7h","","","","","","","","0"
"1993.7200000000012","{""confidence"":1}","[0]","survey-likert","50","245912","0.0-50.0","ojg83n7h","","","","","","","",""
"","","","call-function","51","245913","0.0-51.0","ojg83n7h","","","","","","","",""
"null","","","html-keyboard-response","52","247416","0.0-52.0","ojg83n7h","","<span style=""color:Black; font-size:50px;"">Agent A","null","","","","",""
"null","","","video-keyboard-response","53","250491","0.0-53.0","ojg83n7h","","","null","","Agent A","veridical","STIM_SET_2/498396.bmp_pp99_L2_V1.0_veridical_freeview_isoTrue.mp4",""
"null","","","html-keyboard-response","54","251995","0.0-54.0","ojg83n7h","","<span style=""color:Black; font-size:50px;"">Agent B","null","","","","",""
"null","","","video-keyboard-response","55","255101","0.0-55.0","ojg83n7h","","","null","","Agent B","scrambled","STIM_SET_2/498396.bmp_pp99_L2_V1.0_scrambled_freeview_isoTrue.mp4",""
"","","","call-function","56","255102","0.0-56.0","ojg83n7h","","","","","","","",""
"5819.329999999987","{""judgement"":1}","[0]","survey-likert","57","260922","0.0-57.0","ojg83n7h","","","","","","","","0"
"2855.1449999999604","{""confidence"":1}","[0]","survey-likert","58","263778","0.0-58.0","ojg83n7h","","","","","","","",""
"","","","call-function","59","263780","0.0-59.0","ojg83n7h","","","","","","","",""
"null","","","html-keyboard-response","60","265282","0.0-60.0","ojg83n7h","","<span style=""color:Black; font-size:50px;"">Agent A","null","","","","",""
"null","","","video-keyboard-response","61","268358","0.0-61.0","ojg83n7h","","","null","","Agent A","veridical","STIM_SET_2/285946.bmp_pp79_L2_V1.0_veridical_freeview_isoTrue.mp4",""
"null","","","html-keyboard-response","62","269863","0.0-62.0","ojg83n7h","","<span style=""color:Black; font-size:50px;"">Agent B","null","","","","",""
"null","","","video-keyboard-response","63","272952","0.0-63.0","ojg83n7h","","","null","","Agent B","scrambled","STIM_SET_2/285946.bmp_pp79_L2_V1.0_scrambled_freeview_isoTrue.mp4",""
"","","","call-function","64","272952","0.0-64.0","ojg83n7h","","","","","","","",""
"4719.510000000009","{""judgement"":0}","[0]","survey-likert","65","277672","0.0-65.0","ojg83n7h","","","","","","","","0"
"1671.3950000000186","{""confidence"":1}","[0]","survey-likert","66","279345","0.0-66.0","ojg83n7h","","","","","","","",""
"","","","call-function","67","279346","0.0-67.0","ojg83n7h","","","","","","","",""
"null","","","html-keyboard-response","68","280848","0.0-68.0","ojg83n7h","","<span style=""color:Black; font-size:50px;"">Agent A","null","","","","",""
"null","","","video-keyboard-response","69","283908","0.0-69.0","ojg83n7h","","","null","","Agent A","scrambled","STIM_SET_2/1159860.bmp_pp152_L2_V1.0_scrambled_freeview_isoTrue.mp4",""
"null","","","html-keyboard-response","70","285413","0.0-70.0","ojg83n7h","","<span style=""color:Black; font-size:50px;"">Agent B","null","","","","",""
"null","","","video-keyboard-response","71","288475","0.0-71.0","ojg83n7h","","","null","","Agent B","veridical","STIM_SET_2/1159860.bmp_pp152_L2_V1.0_veridical_freeview_isoTrue.mp4",""
"","","","call-function","72","288475","0.0-72.0","ojg83n7h","","","","","","","",""
"3076.7700000000186","{""judgement"":1}","[0]","survey-likert","73","291553","0.0-73.0","ojg83n7h","","","","","","","","1"
"2573.7050000000163","{""confidence"":1}","[0]","survey-likert","74","294128","0.0-74.0","ojg83n7h","","","","","","","",""
"","","","call-function","75","294128","0.0-75.0","ojg83n7h","","","","","","","",""
"null","","","html-keyboard-response","76","295631","0.0-76.0","ojg83n7h","","<span style=""color:Black; font-size:50px;"">Agent A","null","","","","",""
"null","","","video-keyboard-response","77","298707","0.0-77.0","ojg83n7h","","","null","","Agent A","veridical","STIM_SET_2/498261.bmp_pp84_L3_V1.0_veridical_freeview_isoTrue.mp4",""
"null","","","html-keyboard-response","78","300213","0.0-78.0","ojg83n7h","","<span style=""color:Black; font-size:50px;"">Agent B","null","","","","",""
"null","","","video-keyboard-response","79","303287","0.0-79.0","ojg83n7h","","","null","","Agent B","scrambled","STIM_SET_2/498261.bmp_pp84_L3_V1.0_scrambled_freeview_isoTrue.mp4",""
"","","","call-function","80","303288","0.0-80.0","ojg83n7h","","","","","","","",""
"2471.5200000000186","{""judgement"":0}","[0]","survey-likert","81","305760","0.0-81.0","ojg83n7h","","","","","","","","0"
"1887.25","{""confidence"":1}","[0]","survey-likert","82","307648","0.0-82.0","ojg83n7h","","","","","","","",""
"","","","call-function","83","307649","0.0-83.0","ojg83n7h","","","","","","","",""
"null","","","html-keyboard-response","84","309151","0.0-84.0","ojg83n7h","","<span style=""color:Black; font-size:50px;"">Agent A","null","","","","",""
"null","","","video-keyboard-response","85","312248","0.0-85.0","ojg83n7h","","","null","","Agent A","scrambled","STIM_SET_2/1591975.bmp_pp88_L2_V1.0_scrambled_freeview_isoTrue.mp4",""
"null","","","html-keyboard-response","86","313751","0.0-86.0","ojg83n7h","","<span style=""color:Black; font-size:50px;"">Agent B","null","","","","",""
"null","","","video-keyboard-response","87","316820","0.0-87.0","ojg83n7h","","","null","","Agent B","veridical","STIM_SET_2/1591975.bmp_pp88_L2_V1.0_veridical_freeview_isoTrue.mp4",""
"","","","call-function","88","316820","0.0-88.0","ojg83n7h","","","","","","","",""
"2301.615000000049","{""judgement"":1}","[0]","survey-likert","89","319123","0.0-89.0","ojg83n7h","","","","","","","","1"
"1698.789999999979","{""confidence"":1}","[0]","survey-likert","90","320823","0.0-90.0","ojg83n7h","","","","","","","",""
"5096.09500000003","","","instructions","91","325919","0.0-91.0","ojg83n7h","[{""page_index"":0,""viewing_time"":1829.920000000042},{""page_index"":1,""viewing_time"":1789.954999999958},{""page_index"":2,""viewing_time"":1476.0650000000023}]","","","","","","",""
"7946.709999999963","","","instructions","92","333867","0.0-92.0","ojg83n7h","[{""page_index"":0,""viewing_time"":1715.2849999999744},{""page_index"":1,""viewing_time"":5146.164999999979},{""page_index"":2,""viewing_time"":1085.100000000035}]","","","","","","",""
"","","","call-function","93","333868","0.0-93.0","ojg83n7h","","","","","","","",""
"null","","","html-keyboard-response","94","335372","0.0-94.0","ojg83n7h","","<span style=""color:Black; font-size:50px;"">Agent A","null","","","","",""
"null","","","video-keyboard-response","95","338454","0.0-95.0","ojg83n7h","","","null","","Agent A","scrambled","STIM_SET_2/1159874.bmp_pp96_L2_V1.0_scrambled_freeview_isoTrue.mp4",""
"null","","","html-keyboard-response","96","339961","0.0-96.0","ojg83n7h","","<span style=""color:Black; font-size:50px;"">Agent B","null","","","","",""
"null","","","video-keyboard-response","97","343039","0.0-97.0","ojg83n7h","","","null","","Agent B","veridical","STIM_SET_2/1159874.bmp_pp96_L2_V1.0_veridical_freeview_isoTrue.mp4",""
"","","","call-function","98","343040","0.0-98.0","ojg83n7h","","","","","","","",""
"20134.86499999999","{""judgement"":1}","[0]","survey-likert","99","363176","0.0-99.0","ojg83n7h","","","","","","","","1"
"1769.4949999999953","{""confidence"":1}","[0]","survey-likert","100","364947","0.0-100.0","ojg83n7h","","","","","","","",""
"","","","call-function","101","364948","0.0-101.0","ojg83n7h","","","","","","","",""
"null","","","html-keyboard-response","102","366452","0.0-102.0","ojg83n7h","","<span style=""color:Black; font-size:50px;"">Agent A","null","","","","",""
"null","","","video-keyboard-response","103","369516","0.0-103.0","ojg83n7h","","","null","","Agent A","scrambled","STIM_SET_2/498398.bmp_pp81_L1_V1.0_scrambled_freeview_isoTrue.mp4",""
"null","","","html-keyboard-response","104","371019","0.0-104.0","ojg83n7h","","<span style=""color:Black; font-size:50px;"">Agent B","null","","","","",""
"null","","","video-keyboard-response","105","374085","0.0-105.0","ojg83n7h","","","null","","Agent B","veridical","STIM_SET_2/498398.bmp_pp81_L1_V1.0_veridical_freeview_isoTrue.mp4",""
"","","","call-function","106","374086","0.0-106.0","ojg83n7h","","","","","","","",""
"2298.3850000000093","{""judgement"":0}","[0]","survey-likert","107","376385","0.0-107.0","ojg83n7h","","","","","","","","1"
"2421.7600000000093","{""confidence"":1}","[0]","survey-likert","108","378808","0.0-108.0","ojg83n7h","","","","","","","",""
"","","","call-function","109","378809","0.0-109.0","ojg83n7h","","","","","","","",""
"null","","","html-keyboard-response","110","380314","0.0-110.0","ojg83n7h","","<span style=""color:Black; font-size:50px;"">Agent A","null","","","","",""
"null","","","video-keyboard-response","111","383390","0.0-111.0","ojg83n7h","","","null","","Agent A","veridical","STIM_SET_2/1591781.bmp_pp63_L1_V1.0_veridical_freeview_isoTrue.mp4",""
"null","","","html-keyboard-response","112","384897","0.0-112.0","ojg83n7h","","<span style=""color:Black; font-size:50px;"">Agent B","null","","","","",""
"null","","","video-keyboard-response","113","388008","0.0-113.0","ojg83n7h","","","null","","Agent B","scrambled","STIM_SET_2/1591781.bmp_pp63_L1_V1.0_scrambled_freeview_isoTrue.mp4",""
"","","","call-function","114","388008","0.0-114.0","ojg83n7h","","","","","","","",""
"1876.6650000000373","{""judgement"":1}","[0]","survey-likert","115","389886","0.0-115.0","ojg83n7h","","","","","","","","0"
"1529.3050000000512","{""confidence"":1}","[0]","survey-likert","116","391416","0.0-116.0","ojg83n7h","","","","","","","",""
"","","","call-function","117","391418","0.0-117.0","ojg83n7h","","","","","","","",""
"null","","","html-keyboard-response","118","392922","0.0-118.0","ojg83n7h","","<span style=""color:Black; font-size:50px;"">Agent A","null","","","","",""
"null","","","video-keyboard-response","119","396026","0.0-119.0","ojg83n7h","","","null","","Agent A","veridical","STIM_SET_2/150463.bmp_pp55_L3_V1.0_veridical_freeview_isoTrue.mp4",""
"null","","","html-keyboard-response","120","397529","0.0-120.0","ojg83n7h","","<span style=""color:Black; font-size:50px;"">Agent B","null","","","","",""
"null","","","video-keyboard-response","121","400630","0.0-121.0","ojg83n7h","","","null","","Agent B","scrambled","STIM_SET_2/150463.bmp_pp55_L3_V1.0_scrambled_freeview_isoTrue.mp4",""
"","","","call-function","122","400631","0.0-122.0","ojg83n7h","","","","","","","",""
"1889.0649999999441","{""judgement"":1}","[0]","survey-likert","123","402521","0.0-123.0","ojg83n7h","","","","","","","","0"
"2957.9249999999884","{""confidence"":2}","[0]","survey-likert","124","405480","0.0-124.0","ojg83n7h","","","","","","","",""
"","","","call-function","125","405480","0.0-125.0","ojg83n7h","","","","","","","",""
"null","","","html-keyboard-response","126","406985","0.0-126.0","ojg83n7h","","<span style=""color:Black; font-size:50px;"">Agent A","null","","","","",""
"null","","","video-keyboard-response","127","410055","0.0-127.0","ojg83n7h","","","null","","Agent A","scrambled","STIM_SET_2/713829.bmp_pp60_L3_V1.0_scrambled_freeview_isoTrue.mp4",""
"null","","","html-keyboard-response","128","411558","0.0-128.0","ojg83n7h","","<span style=""color:Black; font-size:50px;"">Agent B","null","","","","",""
"null","","","video-keyboard-response","129","414656","0.0-129.0","ojg83n7h","","","null","","Agent B","veridical","STIM_SET_2/713829.bmp_pp60_L3_V1.0_veridical_freeview_isoTrue.mp4",""
"","","","call-function","130","414657","0.0-130.0","ojg83n7h","","","","","","","",""
"2414.929999999993","{""judgement"":0}","[0]","survey-likert","131","417073","0.0-131.0","ojg83n7h","","","","","","","","1"
"1578.429999999993","{""confidence"":1}","[0]","survey-likert","132","418653","0.0-132.0","ojg83n7h","","","","","","","",""
"","","","call-function","133","418654","0.0-133.0","ojg83n7h","","","","","","","",""
"null","","","html-keyboard-response","134","420155","0.0-134.0","ojg83n7h","","<span style=""color:Black; font-size:50px;"">Agent A","null","","","","",""
"null","","","video-keyboard-response","135","423249","0.0-135.0","ojg83n7h","","","null","","Agent A","veridical","STIM_SET_2/498025.bmp_pp81_L1_V1.0_veridical_freeview_isoTrue.mp4",""
"null","","","html-keyboard-response","136","424755","0.0-136.0","ojg83n7h","","<span style=""color:Black; font-size:50px;"">Agent B","null","","","","",""
"null","","","video-keyboard-response","137","427847","0.0-137.0","ojg83n7h","","","null","","Agent B","scrambled","STIM_SET_2/498025.bmp_pp81_L1_V1.0_scrambled_freeview_isoTrue.mp4",""
"","","","call-function","138","427847","0.0-138.0","ojg83n7h","","","","","","","",""
"1849.2550000000047","{""judgement"":1}","[0]","survey-likert","139","429697","0.0-139.0","ojg83n7h","","","","","","","","0"
"2330.149999999965","{""confidence"":2}","[0]","survey-likert","140","432029","0.0-140.0","ojg83n7h","","","","","","","",""
"","","","call-function","141","432029","0.0-141.0","ojg83n7h","","","","","","","",""
"null","","","html-keyboard-response","142","433532","0.0-142.0","ojg83n7h","","<span style=""color:Black; font-size:50px;"">Agent A","null","","","","",""
"null","","","video-keyboard-response","143","436598","0.0-143.0","ojg83n7h","","","null","","Agent A","scrambled","STIM_SET_2/1592567.bmp_pp70_L2_V1.0_scrambled_freeview_isoTrue.mp4",""
"null","","","html-keyboard-response","144","438103","0.0-144.0","ojg83n7h","","<span style=""color:Black; font-size:50px;"">Agent B","null","","","","",""
"null","","","video-keyboard-response","145","441170","0.0-145.0","ojg83n7h","","","null","","Agent B","veridical","STIM_SET_2/1592567.bmp_pp70_L2_V1.0_veridical_freeview_isoTrue.mp4",""
"","","","call-function","146","441171","0.0-146.0","ojg83n7h","","","","","","","",""
"2669.2399999999907","{""judgement"":1}","[0]","survey-likert","147","443841","0.0-147.0","ojg83n7h","","","","","","","","1"
"2306.0899999999674","{""confidence"":2}","[0]","survey-likert","148","446148","0.0-148.0","ojg83n7h","","","","","","","",""
"","","","call-function","149","446148","0.0-149.0","ojg83n7h","","","","","","","",""
"null","","","html-keyboard-response","150","447651","0.0-150.0","ojg83n7h","","<span style=""color:Black; font-size:50px;"">Agent A","null","","","","",""
"null","","","video-keyboard-response","151","450723","0.0-151.0","ojg83n7h","","","null","","Agent A","veridical","STIM_SET_2/713274.bmp_pp73_L3_V1.0_veridical_freeview_isoTrue.mp4",""
"null","","","html-keyboard-response","152","452227","0.0-152.0","ojg83n7h","","<span style=""color:Black; font-size:50px;"">Agent B","null","","","","",""
"null","","","video-keyboard-response","153","455333","0.0-153.0","ojg83n7h","","","null","","Agent B","scrambled","STIM_SET_2/713274.bmp_pp73_L3_V1.0_scrambled_freeview_isoTrue.mp4",""
"","","","call-function","154","455335","0.0-154.0","ojg83n7h","","","","","","","",""
"5369.540000000037","{""judgement"":1}","[0]","survey-likert","155","460706","0.0-155.0","ojg83n7h","","","","","","","","0"
"2179.2249999999767","{""confidence"":2}","[0]","survey-likert","156","462887","0.0-156.0","ojg83n7h","","","","","","","",""
"","","","call-function","157","462889","0.0-157.0","ojg83n7h","","","","","","","",""
"null","","","html-keyboard-response","158","464392","0.0-158.0","ojg83n7h","","<span style=""color:Black; font-size:50px;"">Agent A","null","","","","",""
"null","","","video-keyboard-response","159","467465","0.0-159.0","ojg83n7h","","","null","","Agent A","scrambled","STIM_SET_2/1159508.bmp_pp151_L1_V1.0_scrambled_freeview_isoTrue.mp4",""
"null","","","html-keyboard-response","160","468969","0.0-160.0","ojg83n7h","","<span style=""color:Black; font-size:50px;"">Agent B","null","","","","",""
"null","","","video-keyboard-response","161","472041","0.0-161.0","ojg83n7h","","","null","","Agent B","veridical","STIM_SET_2/1159508.bmp_pp151_L1_V1.0_veridical_freeview_isoTrue.mp4",""
"","","","call-function","162","472041","0.0-162.0","ojg83n7h","","","","","","","",""
"2484.875","{""judgement"":1}","[0]","survey-likert","163","474527","0.0-163.0","ojg83n7h","","","","","","","","1"
"2152.7550000000047","{""confidence"":2}","[0]","survey-likert","164","476681","0.0-164.0","ojg83n7h","","","","","","","",""
"","","","call-function","165","476682","0.0-165.0","ojg83n7h","","","","","","","",""
"null","","","html-keyboard-response","166","478184","0.0-166.0","ojg83n7h","","<span style=""color:Black; font-size:50px;"">Agent A","null","","","","",""
"null","","","video-keyboard-response","167","481256","0.0-167.0","ojg83n7h","","","null","","Agent A","scrambled","STIM_SET_2/107955.bmp_pp90_L2_V1.0_scrambled_freeview_isoTrue.mp4",""
"null","","","html-keyboard-response","168","482758","0.0-168.0","ojg83n7h","","<span style=""color:Black; font-size:50px;"">Agent B","null","","","","",""
"null","","","video-keyboard-response","169","485829","0.0-169.0","ojg83n7h","","","null","","Agent B","veridical","STIM_SET_2/107955.bmp_pp90_L2_V1.0_veridical_freeview_isoTrue.mp4",""
"","","","call-function","170","485829","0.0-170.0","ojg83n7h","","","","","","","",""
"2654.4899999999907","{""judgement"":1}","[0]","survey-likert","171","488485","0.0-171.0","ojg83n7h","","","","","","","","1"
"2405.795000000042","{""confidence"":2}","[0]","survey-likert","172","490892","0.0-172.0","ojg83n7h","","","","","","","",""
"4476.169999999984","","","instructions","173","495369","0.0-173.0","ojg83n7h","[{""page_index"":0,""viewing_time"":2339.829999999958},{""page_index"":1,""viewing_time"":1204.7150000000256},{""page_index"":2,""viewing_time"":931.4550000000163}]","","","","","","",""
"3562.2999999999884","","","instructions","174","498932","0.0-174.0","ojg83n7h","[{""page_index"":0,""viewing_time"":875.0149999999558},{""page_index"":1,""viewing_time"":1982.045000000042},{""page_index"":2,""viewing_time"":705.0299999999697}]","","","","","","",""
"","","","call-function","175","498932","0.0-175.0","ojg83n7h","","","","","","","",""
"null","","","html-keyboard-response","176","500435","0.0-176.0","ojg83n7h","","<span style=""color:Black; font-size:50px;"">Agent A","null","","","","",""
"null","","","video-keyboard-response","177","503536","0.0-177.0","ojg83n7h","","","null","","Agent A","veridical","STIM_SET_2/1592305.bmp_pp65_L3_V1.0_veridical_freeview_isoTrue.mp4",""
"null","","","html-keyboard-response","178","505038","0.0-178.0","ojg83n7h","","<span style=""color:Black; font-size:50px;"">Agent B","null","","","","",""
"null","","","video-keyboard-response","179","508135","0.0-179.0","ojg83n7h","","","null","","Agent B","scrambled","STIM_SET_2/1592305.bmp_pp65_L3_V1.0_scrambled_freeview_isoTrue.mp4",""
"","","","call-function","180","508136","0.0-180.0","ojg83n7h","","","","","","","",""
"1429.7299999999814","{""judgement"":0}","[0]","survey-likert","181","509566","0.0-181.0","ojg83n7h","","","","","","","","0"
"1654.6300000000047","{""confidence"":2}","[0]","survey-likert","182","511222","0.0-182.0","ojg83n7h","","","","","","","",""
"","","","call-function","183","511222","0.0-183.0","ojg83n7h","","","","","","","",""
"null","","","html-keyboard-response","184","512724","0.0-184.0","ojg83n7h","","<span style=""color:Black; font-size:50px;"">Agent A","null","","","","",""
"null","","","video-keyboard-response","185","515828","0.0-185.0","ojg83n7h","","","null","","Agent A","scrambled","STIM_SET_2/498372.bmp_pp95_L2_V1_scrambled_freeview_isoTrue.mp4",""
"null","","","html-keyboard-response","186","517331","0.0-186.0","ojg83n7h","","<span style=""color:Black; font-size:50px;"">Agent B","null","","","","",""
"null","","","video-keyboard-response","187","520432","0.0-187.0","ojg83n7h","","","null","","Agent B","veridical","STIM_SET_2/498372.bmp_pp95_L2_V1_veridical_freeview_isoTrue.mp4",""
"","","","call-function","188","520432","0.0-188.0","ojg83n7h","","","","","","","",""
"2508.670000000042","{""judgement"":0}","[0]","survey-likert","189","522942","0.0-189.0","ojg83n7h","","","","","","","","1"
"1764.0400000000373","{""confidence"":2}","[0]","survey-likert","190","524707","0.0-190.0","ojg83n7h","","","","","","","",""
"","","","call-function","191","524708","0.0-191.0","ojg83n7h","","","","","","","",""
"null","","","html-keyboard-response","192","526210","0.0-192.0","ojg83n7h","","<span style=""color:Black; font-size:50px;"">Agent A","null","","","","",""
"null","","","video-keyboard-response","193","529318","0.0-193.0","ojg83n7h","","","null","","Agent A","veridical","STIM_SET_2/713770.bmp_pp89_L1_V1.0_veridical_freeview_isoTrue.mp4",""
"null","","","html-keyboard-response","194","530821","0.0-194.0","ojg83n7h","","<span style=""color:Black; font-size:50px;"">Agent B","null","","","","",""
"null","","","video-keyboard-response","195","533896","0.0-195.0","ojg83n7h","","","null","","Agent B","scrambled","STIM_SET_2/713770.bmp_pp89_L1_V1.0_scrambled_freeview_isoTrue.mp4",""
"","","","call-function","196","533897","0.0-196.0","ojg83n7h","","","","","","","",""
"4414.494999999995","{""judgement"":1}","[0]","survey-likert","197","538312","0.0-197.0","ojg83n7h","","","","","","","","0"
"1702.219999999972","{""confidence"":2}","[0]","survey-likert","198","540016","0.0-198.0","ojg83n7h","","","","","","","",""
"","","","call-function","199","540016","0.0-199.0","ojg83n7h","","","","","","","",""
"null","","","html-keyboard-response","200","541519","0.0-200.0","ojg83n7h","","<span style=""color:Black; font-size:50px;"">Agent A","null","","","","",""
"null","","","video-keyboard-response","201","544588","0.0-201.0","ojg83n7h","","","null","","Agent A","scrambled","STIM_SET_2/713652.bmp_pp89_L1_V1_scrambled_freeview_isoTrue.mp4",""
"null","","","html-keyboard-response","202","546091","0.0-202.0","ojg83n7h","","<span style=""color:Black; font-size:50px;"">Agent B","null","","","","",""
"null","","","video-keyboard-response","203","549161","0.0-203.0","ojg83n7h","","","null","","Agent B","veridical","STIM_SET_2/713652.bmp_pp89_L1_V1_veridical_freeview_isoTrue.mp4",""
"","","","call-function","204","549161","0.0-204.0","ojg83n7h","","","","","","","",""
"10006.255000000005","{""judgement"":1}","[0]","survey-likert","205","559168","0.0-205.0","ojg83n7h","","","","","","","","1"
"2423.7700000000186","{""confidence"":1}","[0]","survey-likert","206","561593","0.0-206.0","ojg83n7h","","","","","","","",""
"","","","call-function","207","561594","0.0-207.0","ojg83n7h","","","","","","","",""
"null","","","html-keyboard-response","208","563096","0.0-208.0","ojg83n7h","","<span style=""color:Black; font-size:50px;"">Agent A","null","","","","",""
"null","","","video-keyboard-response","209","566176","0.0-209.0","ojg83n7h","","","null","","Agent A","veridical","STIM_SET_2/713742.bmp_pp91_L3_V1.0_veridical_freeview_isoTrue.mp4",""
"null","","","html-keyboard-response","210","567680","0.0-210.0","ojg83n7h","","<span style=""color:Black; font-size:50px;"">Agent B","null","","","","",""
"null","","","video-keyboard-response","211","570785","0.0-211.0","ojg83n7h","","","null","","Agent B","scrambled","STIM_SET_2/713742.bmp_pp91_L3_V1.0_scrambled_freeview_isoTrue.mp4",""
"","","","call-function","212","570786","0.0-212.0","ojg83n7h","","","","","","","",""
"1822.6950000000652","{""judgement"":1}","[0]","survey-likert","213","572609","0.0-213.0","ojg83n7h","","","","","","","","0"
"2072.695000000065","{""confidence"":2}","[0]","survey-likert","214","574683","0.0-214.0","ojg83n7h","","","","","","","",""
"","","","call-function","215","574684","0.0-215.0","ojg83n7h","","","","","","","",""
"null","","","html-keyboard-response","216","576190","0.0-216.0","ojg83n7h","","<span style=""color:Black; font-size:50px;"">Agent A","null","","","","",""
"null","","","video-keyboard-response","217","579289","0.0-217.0","ojg83n7h","","","null","","Agent A","veridical","STIM_SET_2/1160189.bmp_pp64_L1_V1.0_veridical_freeview_isoTrue.mp4",""
"null","","","html-keyboard-response","218","580795","0.0-218.0","ojg83n7h","","<span style=""color:Black; font-size:50px;"">Agent B","null","","","","",""
"null","","","video-keyboard-response","219","583898","0.0-219.0","ojg83n7h","","","null","","Agent B","scrambled","STIM_SET_2/1160189.bmp_pp64_L1_V1.0_scrambled_freeview_isoTrue.mp4",""
"","","","call-function","220","583898","0.0-220.0","ojg83n7h","","","","","","","",""
"1929.015000000014","{""judgement"":0}","[0]","survey-likert","221","585828","0.0-221.0","ojg83n7h","","","","","","","","0"
"1672.6949999999488","{""confidence"":2}","[0]","survey-likert","222","587502","0.0-222.0","ojg83n7h","","","","","","","",""
"","","","call-function","223","587503","0.0-223.0","ojg83n7h","","","","","","","",""
"null","","","html-keyboard-response","224","589004","0.0-224.0","ojg83n7h","","<span style=""color:Black; font-size:50px;"">Agent A","null","","","","",""
"null","","","video-keyboard-response","225","592103","0.0-225.0","ojg83n7h","","","null","","Agent A","veridical","STIM_SET_2/1591920.bmp_pp97_L3_V1_veridical_freeview_isoTrue.mp4",""
"null","","","html-keyboard-response","226","593606","0.0-226.0","ojg83n7h","","<span style=""color:Black; font-size:50px;"">Agent B","null","","","","",""
"null","","","video-keyboard-response","227","596675","0.0-227.0","ojg83n7h","","","null","","Agent B","scrambled","STIM_SET_2/1591920.bmp_pp97_L3_V1_scrambled_freeview_isoTrue.mp4",""
"","","","call-function","228","596676","0.0-228.0","ojg83n7h","","","","","","","",""
"19668.560000000056","{""judgement"":0}","[0]","survey-likert","229","616346","0.0-229.0","ojg83n7h","","","","","","","","0"
"1831.7399999999907","{""confidence"":1}","[0]","survey-likert","230","618180","0.0-230.0","ojg83n7h","","","","","","","",""
"","","","call-function","231","618181","0.0-231.0","ojg83n7h","","","","","","","",""
"null","","","html-keyboard-response","232","619683","0.0-232.0","ojg83n7h","","<span style=""color:Black; font-size:50px;"">Agent A","null","","","","",""
"null","","","video-keyboard-response","233","622758","0.0-233.0","ojg83n7h","","","null","","Agent A","veridical","STIM_SET_2/713858.bmp_pp57_L1_V1.0_veridical_freeview_isoTrue.mp4",""
"null","","","html-keyboard-response","234","624260","0.0-234.0","ojg83n7h","","<span style=""color:Black; font-size:50px;"">Agent B","null","","","","",""
"null","","","video-keyboard-response","235","627341","0.0-235.0","ojg83n7h","","","null","","Agent B","scrambled","STIM_SET_2/713858.bmp_pp57_L1_V1.0_scrambled_freeview_isoTrue.mp4",""
"","","","call-function","236","627342","0.0-236.0","ojg83n7h","","","","","","","",""
"2599.3850000000093","{""judgement"":0}","[0]","survey-likert","237","629943","0.0-237.0","ojg83n7h","","","","","","","","0"
"1318.5499999999302","{""confidence"":1}","[0]","survey-likert","238","631262","0.0-238.0","ojg83n7h","","","","","","","",""
"","","","call-function","239","631263","0.0-239.0","ojg83n7h","","","","","","","",""
"null","","","html-keyboard-response","240","632767","0.0-240.0","ojg83n7h","","<span style=""color:Black; font-size:50px;"">Agent A","null","","","","",""
"null","","","video-keyboard-response","241","635839","0.0-241.0","ojg83n7h","","","null","","Agent A","scrambled","STIM_SET_2/498326.bmp_pp57_L1_V1.0_scrambled_freeview_isoTrue.mp4",""
"null","","","html-keyboard-response","242","637343","0.0-242.0","ojg83n7h","","<span style=""color:Black; font-size:50px;"">Agent B","null","","","","",""
"null","","","video-keyboard-response","243","640412","0.0-243.0","ojg83n7h","","","null","","Agent B","veridical","STIM_SET_2/498326.bmp_pp57_L1_V1.0_veridical_freeview_isoTrue.mp4",""
"","","","call-function","244","640412","0.0-244.0","ojg83n7h","","","","","","","",""
"3153.515000000014","{""judgement"":1}","[0]","survey-likert","245","643567","0.0-245.0","ojg83n7h","","","","","","","","1"
"1801.515000000014","{""confidence"":2}","[0]","survey-likert","246","645369","0.0-246.0","ojg83n7h","","","","","","","",""
"","","","call-function","247","645370","0.0-247.0","ojg83n7h","","","","","","","",""
"null","","","html-keyboard-response","248","646873","0.0-248.0","ojg83n7h","","<span style=""color:Black; font-size:50px;"">Agent A","null","","","","",""
"null","","","video-keyboard-response","249","649971","0.0-249.0","ojg83n7h","","","null","","Agent A","veridical","STIM_SET_2/498258.bmp_pp51_L1_V1.0_veridical_freeview_isoTrue.mp4",""
"null","","","html-keyboard-response","250","651474","0.0-250.0","ojg83n7h","","<span style=""color:Black; font-size:50px;"">Agent B","null","","","","",""
"null","","","video-keyboard-response","251","654572","0.0-251.0","ojg83n7h","","","null","","Agent B","scrambled","STIM_SET_2/498258.bmp_pp51_L1_V1.0_scrambled_freeview_isoTrue.mp4",""
"","","","call-function","252","654573","0.0-252.0","ojg83n7h","","","","","","","",""
"3279.7149999999674","{""judgement"":1}","[0]","survey-likert","253","657853","0.0-253.0","ojg83n7h","","","","","","","","0"
"1483.4949999999953","{""confidence"":2}","[0]","survey-likert","254","659338","0.0-254.0","ojg83n7h","","","","","","","",""
"5952.160000000033","","","instructions","255","665291","0.0-255.0","ojg83n7h","[{""page_index"":0,""viewing_time"":1536.9000000000233},{""page_index"":1,""viewing_time"":3678.945000000065},{""page_index"":2,""viewing_time"":736.1599999999162}]","","","","","","",""
"2467.394999999902","","","instructions","256","667759","0.0-256.0","ojg83n7h","[{""page_index"":0,""viewing_time"":775.2599999998929},{""page_index"":1,""viewing_time"":901.9500000000698},{""page_index"":2,""viewing_time"":790.0799999999581}]","","","","","","",""
"","","","call-function","257","667759","0.0-257.0","ojg83n7h","","","","","","","",""
"null","","","html-keyboard-response","258","669264","0.0-258.0","ojg83n7h","","<span style=""color:Black; font-size:50px;"">Agent A","null","","","","",""
"null","","","video-keyboard-response","259","672352","0.0-259.0","ojg83n7h","","","null","","Agent A","scrambled","STIM_SET_2/1592951.bmp_pp80_L3_V1.0_scrambled_freeview_isoTrue.mp4",""
"null","","","html-keyboard-response","260","673855","0.0-260.0","ojg83n7h","","<span style=""color:Black; font-size:50px;"">Agent B","null","","","","",""
"null","","","video-keyboard-response","261","676943","0.0-261.0","ojg83n7h","","","null","","Agent B","veridical","STIM_SET_2/1592951.bmp_pp80_L3_V1.0_veridical_freeview_isoTrue.mp4",""
"","","","call-function","262","676944","0.0-262.0","ojg83n7h","","","","","","","",""
"3805.405000000028","{""judgement"":0}","[0]","survey-likert","263","680750","0.0-263.0","ojg83n7h","","","","","","","","1"
"1624.5599999999395","{""confidence"":1}","[0]","survey-likert","264","682376","0.0-264.0","ojg83n7h","","","","","","","",""
"","","","call-function","265","682377","0.0-265.0","ojg83n7h","","","","","","","",""
"null","","","html-keyboard-response","266","683877","0.0-266.0","ojg83n7h","","<span style=""color:Black; font-size:50px;"">Agent A","null","","","","",""
"null","","","video-keyboard-response","267","686947","0.0-267.0","ojg83n7h","","","null","","Agent A","scrambled","STIM_SET_2/1592017.bmp_pp154_L1_V1.0_scrambled_freeview_isoTrue.mp4",""
"null","","","html-keyboard-response","268","688451","0.0-268.0","ojg83n7h","","<span style=""color:Black; font-size:50px;"">Agent B","null","","","","",""
"null","","","video-keyboard-response","269","691520","0.0-269.0","ojg83n7h","","","null","","Agent B","veridical","STIM_SET_2/1592017.bmp_pp154_L1_V1.0_veridical_freeview_isoTrue.mp4",""
"","","","call-function","270","691521","0.0-270.0","ojg83n7h","","","","","","","",""
"4508.585000000079","{""judgement"":1}","[0]","survey-likert","271","696031","0.0-271.0","ojg83n7h","","","","","","","","1"
"1758.6949999999488","{""confidence"":1}","[0]","survey-likert","272","697790","0.0-272.0","ojg83n7h","","","","","","","",""
"","","","call-function","273","697791","0.0-273.0","ojg83n7h","","","","","","","",""
"null","","","html-keyboard-response","274","699292","0.0-274.0","ojg83n7h","","<span style=""color:Black; font-size:50px;"">Agent A","null","","","","",""
"null","","","video-keyboard-response","275","702367","0.0-275.0","ojg83n7h","","","null","","Agent A","veridical","STIM_SET_2/1592747.bmp_pp53_L2_V1.0_veridical_freeview_isoTrue.mp4",""
"null","","","html-keyboard-response","276","703869","0.0-276.0","ojg83n7h","","<span style=""color:Black; font-size:50px;"">Agent B","null","","","","",""
"null","","","video-keyboard-response","277","706946","0.0-277.0","ojg83n7h","","","null","","Agent B","scrambled","STIM_SET_2/1592747.bmp_pp53_L2_V1.0_scrambled_freeview_isoTrue.mp4",""
"","","","call-function","278","706947","0.0-278.0","ojg83n7h","","","","","","","",""
"1725.3500000000931","{""judgement"":1}","[0]","survey-likert","279","708674","0.0-279.0","ojg83n7h","","","","","","","","0"
"1993.4899999999907","{""confidence"":1}","[0]","survey-likert","280","710669","0.0-280.0","ojg83n7h","","","","","","","",""
"","","","call-function","281","710670","0.0-281.0","ojg83n7h","","","","","","","",""
"null","","","html-keyboard-response","282","712172","0.0-282.0","ojg83n7h","","<span style=""color:Black; font-size:50px;"">Agent A","null","","","","",""
"null","","","video-keyboard-response","283","715248","0.0-283.0","ojg83n7h","","","null","","Agent A","scrambled","STIM_SET_2/1592298.bmp_pp56_L3_V1.0_scrambled_freeview_isoTrue.mp4",""
"null","","","html-keyboard-response","284","716755","0.0-284.0","ojg83n7h","","<span style=""color:Black; font-size:50px;"">Agent B","null","","","","",""
"null","","","video-keyboard-response","285","719831","0.0-285.0","ojg83n7h","","","null","","Agent B","veridical","STIM_SET_2/1592298.bmp_pp56_L3_V1.0_veridical_freeview_isoTrue.mp4",""
"","","","call-function","286","719832","0.0-286.0","ojg83n7h","","","","","","","",""
"9923.23999999999","{""judgement"":0}","[0]","survey-likert","287","729756","0.0-287.0","ojg83n7h","","","","","","","","1"
"1596.3700000001118","{""confidence"":1}","[0]","survey-likert","288","731354","0.0-288.0","ojg83n7h","","","","","","","",""
"","","","call-function","289","731354","0.0-289.0","ojg83n7h","","","","","","","",""
"null","","","html-keyboard-response","290","732857","0.0-290.0","ojg83n7h","","<span style=""color:Black; font-size:50px;"">Agent A","null","","","","",""
"null","","","video-keyboard-response","291","735940","0.0-291.0","ojg83n7h","","","null","","Agent A","veridical","STIM_SET_2/1592568.bmp_pp71_L1_V1.0_veridical_freeview_isoTrue.mp4",""
"null","","","html-keyboard-response","292","737441","0.0-292.0","ojg83n7h","","<span style=""color:Black; font-size:50px;"">Agent B","null","","","","",""
"null","","","video-keyboard-response","293","740522","0.0-293.0","ojg83n7h","","","null","","Agent B","scrambled","STIM_SET_2/1592568.bmp_pp71_L1_V1.0_scrambled_freeview_isoTrue.mp4",""
"","","","call-function","294","740523","0.0-294.0","ojg83n7h","","","","","","","",""
"5025.810000000056","{""judgement"":1}","[0]","survey-likert","295","745549","0.0-295.0","ojg83n7h","","","","","","","","0"
"1556.9250000000466","{""confidence"":0}","[0]","survey-likert","296","747108","0.0-296.0","ojg83n7h","","","","","","","",""
"","","","call-function","297","747108","0.0-297.0","ojg83n7h","","","","","","","",""
"null","","","html-keyboard-response","298","748610","0.0-298.0","ojg83n7h","","<span style=""color:Black; font-size:50px;"">Agent A","null","","","","",""
"null","","","video-keyboard-response","299","751704","0.0-299.0","ojg83n7h","","","null","","Agent A","veridical","STIM_SET_2/285932.bmp_pp64_L1_V1.0_veridical_freeview_isoTrue.mp4",""
"null","","","html-keyboard-response","300","753211","0.0-300.0","ojg83n7h","","<span style=""color:Black; font-size:50px;"">Agent B","null","","","","",""
"null","","","video-keyboard-response","301","756308","0.0-301.0","ojg83n7h","","","null","","Agent B","scrambled","STIM_SET_2/285932.bmp_pp64_L1_V1.0_scrambled_freeview_isoTrue.mp4",""
"","","","call-function","302","756308","0.0-302.0","ojg83n7h","","","","","","","",""
"1612.329999999958","{""judgement"":1}","[0]","survey-likert","303","757922","0.0-303.0","ojg83n7h","","","","","","","","0"
"2781.109999999986","{""confidence"":1}","[0]","survey-likert","304","760704","0.0-304.0","ojg83n7h","","","","","","","",""
"","","","call-function","305","760705","0.0-305.0","ojg83n7h","","","","","","","",""
"null","","","html-keyboard-response","306","762210","0.0-306.0","ojg83n7h","","<span style=""color:Black; font-size:50px;"">Agent A","null","","","","",""
"null","","","video-keyboard-response","307","765308","0.0-307.0","ojg83n7h","","","null","","Agent A","scrambled","STIM_SET_2/1592150.bmp_pp77_L3_V1.0_scrambled_freeview_isoTrue.mp4",""
"null","","","html-keyboard-response","308","766812","0.0-308.0","ojg83n7h","","<span style=""color:Black; font-size:50px;"">Agent B","null","","","","",""
"null","","","video-keyboard-response","309","769911","0.0-309.0","ojg83n7h","","","null","","Agent B","veridical","STIM_SET_2/1592150.bmp_pp77_L3_V1.0_veridical_freeview_isoTrue.mp4",""
"","","","call-function","310","769911","0.0-310.0","ojg83n7h","","","","","","","",""
"1356.5500000000466","{""judgement"":1}","[0]","survey-likert","311","771269","0.0-311.0","ojg83n7h","","","","","","","","1"
"1354.9899999999907","{""confidence"":2}","[0]","survey-likert","312","772625","0.0-312.0","ojg83n7h","","","","","","","",""
"","","","call-function","313","772626","0.0-313.0","ojg83n7h","","","","","","","",""
"null","","","html-keyboard-response","314","774127","0.0-314.0","ojg83n7h","","<span style=""color:Black; font-size:50px;"">Agent A","null","","","","",""
"null","","","video-keyboard-response","315","777231","0.0-315.0","ojg83n7h","","","null","","Agent A","veridical","STIM_SET_2/713633.bmp_pp58_L1_V1.0_veridical_freeview_isoTrue.mp4",""
"null","","","html-keyboard-response","316","778736","0.0-316.0","ojg83n7h","","<span style=""color:Black; font-size:50px;"">Agent B","null","","","","",""
"null","","","video-keyboard-response","317","781816","0.0-317.0","ojg83n7h","","","null","","Agent B","scrambled","STIM_SET_2/713633.bmp_pp58_L1_V1.0_scrambled_freeview_isoTrue.mp4",""
"","","","call-function","318","781817","0.0-318.0","ojg83n7h","","","","","","","",""
"2452.819999999949","{""judgement"":1}","[0]","survey-likert","319","784270","0.0-319.0","ojg83n7h","","","","","","","","0"
"1848.7850000000326","{""confidence"":2}","[0]","survey-likert","320","786121","0.0-320.0","ojg83n7h","","","","","","","",""
"","","","call-function","321","786121","0.0-321.0","ojg83n7h","","","","","","","",""
"null","","","html-keyboard-response","322","787623","0.0-322.0","ojg83n7h","","<span style=""color:Black; font-size:50px;"">Agent A","null","","","","",""
"null","","","video-keyboard-response","323","790689","0.0-323.0","ojg83n7h","","","null","","Agent A","scrambled","STIM_SET_2/1159392.bmp_pp96_L2_V1.0_scrambled_freeview_isoTrue.mp4",""
"null","","","html-keyboard-response","324","792195","0.0-324.0","ojg83n7h","","<span style=""color:Black; font-size:50px;"">Agent B","null","","","","",""
"null","","","video-keyboard-response","325","795285","0.0-325.0","ojg83n7h","","","null","","Agent B","veridical","STIM_SET_2/1159392.bmp_pp96_L2_V1.0_veridical_freeview_isoTrue.mp4",""
"","","","call-function","326","795286","0.0-326.0","ojg83n7h","","","","","","","",""
"2171.1149999999907","{""judgement"":1}","[0]","survey-likert","327","797458","0.0-327.0","ojg83n7h","","","","","","","","1"
"1841.6300000000047","{""confidence"":1}","[0]","survey-likert","328","799301","0.0-328.0","ojg83n7h","","","","","","","",""
"","","","call-function","329","799301","0.0-329.0","ojg83n7h","","","","","","","",""
"null","","","html-keyboard-response","330","800803","0.0-330.0","ojg83n7h","","<span style=""color:Black; font-size:50px;"">Agent A","null","","","","",""
"null","","","video-keyboard-response","331","803875","0.0-331.0","ojg83n7h","","","null","","Agent A","veridical","STIM_SET_2/1159819.bmp_pp151_L1_V1.0_veridical_freeview_isoTrue.mp4",""
"null","","","html-keyboard-response","332","805376","0.0-332.0","ojg83n7h","","<span style=""color:Black; font-size:50px;"">Agent B","null","","","","",""
"null","","","video-keyboard-response","333","808448","0.0-333.0","ojg83n7h","","","null","","Agent B","scrambled","STIM_SET_2/1159819.bmp_pp151_L1_V1.0_scrambled_freeview_isoTrue.mp4",""
"","","","call-function","334","808449","0.0-334.0","ojg83n7h","","","","","","","",""
"1798.780000000028","{""judgement"":1}","[0]","survey-likert","335","810248","0.0-335.0","ojg83n7h","","","","","","","","0"
"1954.4099999999162","{""confidence"":1}","[0]","survey-likert","336","812204","0.0-336.0","ojg83n7h","","","","","","","",""
"6934.625","","","instructions","337","819140","0.0-337.0","ojg83n7h","[{""page_index"":0,""viewing_time"":3819.539999999921},{""page_index"":1,""viewing_time"":2148.9400000000605},{""page_index"":2,""viewing_time"":965.984999999986}]","","","","","","",""
"1995.2600000000093","","","instructions","338","821136","0.0-338.0","ojg83n7h","[{""page_index"":0,""viewing_time"":486.1850000000559},{""page_index"":1,""viewing_time"":888.9349999999395},{""page_index"":2,""viewing_time"":620.0300000000279}]","","","","","","",""
"","","","call-function","339","821137","0.0-339.0","ojg83n7h","","","","","","","",""
"null","","","html-keyboard-response","340","822645","0.0-340.0","ojg83n7h","","<span style=""color:Black; font-size:50px;"">Agent A","null","","","","",""
"null","","","video-keyboard-response","341","825723","0.0-341.0","ojg83n7h","","","null","","Agent A","veridical","STIM_SET_2/1159592.bmp_pp91_L3_V1.0_veridical_freeview_isoTrue.mp4",""
"null","","","html-keyboard-response","342","827226","0.0-342.0","ojg83n7h","","<span style=""color:Black; font-size:50px;"">Agent B","null","","","","",""
"null","","","video-keyboard-response","343","830309","0.0-343.0","ojg83n7h","","","null","","Agent B","scrambled","STIM_SET_2/1159592.bmp_pp91_L3_V1.0_scrambled_freeview_isoTrue.mp4",""
"","","","call-function","344","830309","0.0-344.0","ojg83n7h","","","","","","","",""
"4331.449999999953","{""judgement"":1}","[0]","survey-likert","345","834642","0.0-345.0","ojg83n7h","","","","","","","","0"
"2053.8800000000047","{""confidence"":1}","[0]","survey-likert","346","836697","0.0-346.0","ojg83n7h","","","","","","","",""
"","","","call-function","347","836698","0.0-347.0","ojg83n7h","","","","","","","",""
"null","","","html-keyboard-response","348","838202","0.0-348.0","ojg83n7h","","<span style=""color:Black; font-size:50px;"">Agent A","null","","","","",""
"null","","","video-keyboard-response","349","841267","0.0-349.0","ojg83n7h","","","null","","Agent A","scrambled","STIM_SET_2/285715.bmp_pp67_L2_V1.0_scrambled_freeview_isoTrue.mp4",""
"null","","","html-keyboard-response","350","842769","0.0-350.0","ojg83n7h","","<span style=""color:Black; font-size:50px;"">Agent B","null","","","","",""
"null","","","video-keyboard-response","351","845834","0.0-351.0","ojg83n7h","","","null","","Agent B","veridical","STIM_SET_2/285715.bmp_pp67_L2_V1.0_veridical_freeview_isoTrue.mp4",""
"","","","call-function","352","845834","0.0-352.0","ojg83n7h","","","","","","","",""
"2519.7550000000047","{""judgement"":1}","[0]","survey-likert","353","848355","0.0-353.0","ojg83n7h","","","","","","","","1"
"3028.820000000065","{""confidence"":1}","[0]","survey-likert","354","851385","0.0-354.0","ojg83n7h","","","","","","","",""
"","","","call-function","355","851386","0.0-355.0","ojg83n7h","","","","","","","",""
"null","","","html-keyboard-response","356","852887","0.0-356.0","ojg83n7h","","<span style=""color:Black; font-size:50px;"">Agent A","null","","","","",""
"null","","","video-keyboard-response","357","855988","0.0-357.0","ojg83n7h","","","null","","Agent A","scrambled","STIM_SET_2/1592530.bmp_pp75_L1_V1.0_scrambled_freeview_isoTrue.mp4",""
"null","","","html-keyboard-response","358","857489","0.0-358.0","ojg83n7h","","<span style=""color:Black; font-size:50px;"">Agent B","null","","","","",""
"null","","","video-keyboard-response","359","860591","0.0-359.0","ojg83n7h","","","null","","Agent B","veridical","STIM_SET_2/1592530.bmp_pp75_L1_V1.0_veridical_freeview_isoTrue.mp4",""
"","","","call-function","360","860591","0.0-360.0","ojg83n7h","","","","","","","",""
"1666.125","{""judgement"":0}","[0]","survey-likert","361","862258","0.0-361.0","ojg83n7h","","","","","","","","1"
"2578.2249999999767","{""confidence"":1}","[0]","survey-likert","362","864838","0.0-362.0","ojg83n7h","","","","","","","",""
"","","","call-function","363","864839","0.0-363.0","ojg83n7h","","","","","","","",""
"null","","","html-keyboard-response","364","866341","0.0-364.0","ojg83n7h","","<span style=""color:Black; font-size:50px;"">Agent A","null","","","","",""
"null","","","video-keyboard-response","365","869448","0.0-365.0","ojg83n7h","","","null","","Agent A","scrambled","STIM_SET_2/713790.bmp_pp100_L3_V1_scrambled_freeview_isoTrue.mp4",""
"null","","","html-keyboard-response","366","870951","0.0-366.0","ojg83n7h","","<span style=""color:Black; font-size:50px;"">Agent B","null","","","","",""
"null","","","video-keyboard-response","367","874059","0.0-367.0","ojg83n7h","","","null","","Agent B","veridical","STIM_SET_2/713790.bmp_pp100_L3_V1_veridical_freeview_isoTrue.mp4",""
"","","","call-function","368","874060","0.0-368.0","ojg83n7h","","","","","","","",""
"3611.140000000014","{""judgement"":1}","[0]","survey-likert","369","877672","0.0-369.0","ojg83n7h","","","","","","","","1"
"2103.7550000000047","{""confidence"":1}","[0]","survey-likert","370","879777","0.0-370.0","ojg83n7h","","","","","","","",""
"","","","call-function","371","879778","0.0-371.0","ojg83n7h","","","","","","","",""
"null","","","html-keyboard-response","372","881281","0.0-372.0","ojg83n7h","","<span style=""color:Black; font-size:50px;"">Agent A","null","","","","",""
"null","","","video-keyboard-response","373","884383","0.0-373.0","ojg83n7h","","","null","","Agent A","scrambled","STIM_SET_2/1592857.bmp_pp52_L1_V1_scrambled_freeview_isoTrue.mp4",""
"null","","","html-keyboard-response","374","885891","0.0-374.0","ojg83n7h","","<span style=""color:Black; font-size:50px;"">Agent B","null","","","","",""
"null","","","video-keyboard-response","375","888959","0.0-375.0","ojg83n7h","","","null","","Agent B","veridical","STIM_SET_2/1592857.bmp_pp52_L1_V1_veridical_freeview_isoTrue.mp4",""
"","","","call-function","376","888960","0.0-376.0","ojg83n7h","","","","","","","",""
"2081.6300000000047","{""judgement"":0}","[0]","survey-likert","377","891042","0.0-377.0","ojg83n7h","","","","","","","","1"
"1226.2850000000326","{""confidence"":1}","[0]","survey-likert","378","892270","0.0-378.0","ojg83n7h","","","","","","","",""
"","","","call-function","379","892271","0.0-379.0","ojg83n7h","","","","","","","",""
"null","","","html-keyboard-response","380","893773","0.0-380.0","ojg83n7h","","<span style=""color:Black; font-size:50px;"">Agent A","null","","","","",""
"null","","","video-keyboard-response","381","896843","0.0-381.0","ojg83n7h","","","null","","Agent A","veridical","STIM_SET_2/713689.bmp_pp153_L3_V1.0_veridical_freeview_isoTrue.mp4",""
"null","","","html-keyboard-response","382","898344","0.0-382.0","ojg83n7h","","<span style=""color:Black; font-size:50px;"">Agent B","null","","","","",""
"null","","","video-keyboard-response","383","901440","0.0-383.0","ojg83n7h","","","null","","Agent B","scrambled","STIM_SET_2/713689.bmp_pp153_L3_V1.0_scrambled_freeview_isoTrue.mp4",""
"","","","call-function","384","901441","0.0-384.0","ojg83n7h","","","","","","","",""
"3273.359999999986","{""judgement"":1}","[0]","survey-likert","385","904715","0.0-385.0","ojg83n7h","","","","","","","","0"
"1532.6149999999907","{""confidence"":2}","[0]","survey-likert","386","906249","0.0-386.0","ojg83n7h","","","","","","","",""
"","","","call-function","387","906250","0.0-387.0","ojg83n7h","","","","","","","",""
"null","","","html-keyboard-response","388","907752","0.0-388.0","ojg83n7h","","<span style=""color:Black; font-size:50px;"">Agent A","null","","","","",""
"null","","","video-keyboard-response","389","910831","0.0-389.0","ojg83n7h","","","null","","Agent A","veridical","STIM_SET_2/713381.bmp_pp82_L2_V1.0_veridical_freeview_isoTrue.mp4",""
"null","","","html-keyboard-response","390","912336","0.0-390.0","ojg83n7h","","<span style=""color:Black; font-size:50px;"">Agent B","null","","","","",""
"null","","","video-keyboard-response","391","915418","0.0-391.0","ojg83n7h","","","null","","Agent B","scrambled","STIM_SET_2/713381.bmp_pp82_L2_V1.0_scrambled_freeview_isoTrue.mp4",""
"","","","call-function","392","915419","0.0-392.0","ojg83n7h","","","","","","","",""
"6305.4199999999255","{""judgement"":1}","[0]","survey-likert","393","921726","0.0-393.0","ojg83n7h","","","","","","","","0"
"1874","{""confidence"":1}","[0]","survey-likert","394","923602","0.0-394.0","ojg83n7h","","","","","","","",""
"","","","call-function","395","923604","0.0-395.0","ojg83n7h","","","","","","","",""
"null","","","html-keyboard-response","396","925109","0.0-396.0","ojg83n7h","","<span style=""color:Black; font-size:50px;"">Agent A","null","","","","",""
"null","","","video-keyboard-response","397","928185","0.0-397.0","ojg83n7h","","","null","","Agent A","veridical","STIM_SET_2/61513.bmp_pp75_L1_V1.0_veridical_freeview_isoTrue.mp4",""
"null","","","html-keyboard-response","398","929689","0.0-398.0","ojg83n7h","","<span style=""color:Black; font-size:50px;"">Agent B","null","","","","",""
"null","","","video-keyboard-response","399","932765","0.0-399.0","ojg83n7h","","","null","","Agent B","scrambled","STIM_SET_2/61513.bmp_pp75_L1_V1.0_scrambled_freeview_isoTrue.mp4",""
"","","","call-function","400","932765","0.0-400.0","ojg83n7h","","","","","","","",""
"1942.6049999999814","{""judgement"":1}","[0]","survey-likert","401","934709","0.0-401.0","ojg83n7h","","","","","","","","0"
"2020.1300000000047","{""confidence"":1}","[0]","survey-likert","402","936731","0.0-402.0","ojg83n7h","","","","","","","",""
"","","","call-function","403","936731","0.0-403.0","ojg83n7h","","","","","","","",""
"null","","","html-keyboard-response","404","938233","0.0-404.0","ojg83n7h","","<span style=""color:Black; font-size:50px;"">Agent A","null","","","","",""
"null","","","video-keyboard-response","405","941305","0.0-405.0","ojg83n7h","","","null","","Agent A","scrambled","STIM_SET_2/1592350.bmp_pp55_L3_V1.0_scrambled_freeview_isoTrue.mp4",""
"null","","","html-keyboard-response","406","942810","0.0-406.0","ojg83n7h","","<span style=""color:Black; font-size:50px;"">Agent B","null","","","","",""
"null","","","video-keyboard-response","407","945882","0.0-407.0","ojg83n7h","","","null","","Agent B","veridical","STIM_SET_2/1592350.bmp_pp55_L3_V1.0_veridical_freeview_isoTrue.mp4",""
"","","","call-function","408","945883","0.0-408.0","ojg83n7h","","","","","","","",""
"3493.1699999999255","{""judgement"":1}","[0]","survey-likert","409","949378","0.0-409.0","ojg83n7h","","","","","","","","1"
"1937.1949999999488","{""confidence"":1}","[0]","survey-likert","410","951316","0.0-410.0","ojg83n7h","","","","","","","",""
"","","","call-function","411","951317","0.0-411.0","ojg83n7h","","","","","","","",""
"null","","","html-keyboard-response","412","952820","0.0-412.0","ojg83n7h","","<span style=""color:Black; font-size:50px;"">Agent A","null","","","","",""
"null","","","video-keyboard-response","413","955929","0.0-413.0","ojg83n7h","","","null","","Agent A","scrambled","STIM_SET_2/285959.bmp_pp93_L1_V1.0_scrambled_freeview_isoTrue.mp4",""
"null","","","html-keyboard-response","414","957435","0.0-414.0","ojg83n7h","","<span style=""color:Black; font-size:50px;"">Agent B","null","","","","",""
"null","","","video-keyboard-response","415","960538","0.0-415.0","ojg83n7h","","","null","","Agent B","veridical","STIM_SET_2/285959.bmp_pp93_L1_V1.0_veridical_freeview_isoTrue.mp4",""
"","","","call-function","416","960539","0.0-416.0","ojg83n7h","","","","","","","",""
"1949.7149999999674","{""judgement"":0}","[0]","survey-likert","417","962489","0.0-417.0","ojg83n7h","","","","","","","","1"
"1178.2449999999953","{""confidence"":2}","[0]","survey-likert","418","963669","0.0-418.0","ojg83n7h","","","","","","","",""
"8540.280000000028","","","instructions","419","972210","0.0-419.0","ojg83n7h","[{""page_index"":0,""viewing_time"":6913.829999999958},{""page_index"":1,""viewing_time"":1070.6300000000047},{""page_index"":2,""viewing_time"":555.6650000000373}]","","","","","","",""
"1246.9749999999767","","","instructions","420","973458","0.0-420.0","ojg83n7h","[{""page_index"":0,""viewing_time"":510.5900000000838},{""page_index"":1,""viewing_time"":510.1599999999162},{""page_index"":2,""viewing_time"":226.10999999998603}]","","","","","","",""
"","","","call-function","421","973458","0.0-421.0","ojg83n7h","","","","","","","",""
"null","","","html-keyboard-response","422","974964","0.0-422.0","ojg83n7h","","<span style=""color:Black; font-size:50px;"">Agent A","null","","","","",""
"null","","","video-keyboard-response","423","978023","0.0-423.0","ojg83n7h","","","null","","Agent A","veridical","STIM_SET_2/713328.bmp_pp86_L2_V1.0_veridical_freeview_isoTrue.mp4",""
"null","","","html-keyboard-response","424","979526","0.0-424.0","ojg83n7h","","<span style=""color:Black; font-size:50px;"">Agent B","null","","","","",""
"null","","","video-keyboard-response","425","982625","0.0-425.0","ojg83n7h","","","null","","Agent B","scrambled","STIM_SET_2/713328.bmp_pp86_L2_V1.0_scrambled_freeview_isoTrue.mp4",""
"","","","call-function","426","982625","0.0-426.0","ojg83n7h","","","","","","","",""
"2227.7350000001024","{""judgement"":1}","[0]","survey-likert","427","984854","0.0-427.0","ojg83n7h","","","","","","","","0"
"1700.7150000000838","{""confidence"":2}","[0]","survey-likert","428","986556","0.0-428.0","ojg83n7h","","","","","","","",""
"","","","call-function","429","986556","0.0-429.0","ojg83n7h","","","","","","","",""
"null","","","html-keyboard-response","430","988058","0.0-430.0","ojg83n7h","","<span style=""color:Black; font-size:50px;"">Agent A","null","","","","",""
"null","","","video-keyboard-response","431","991120","0.0-431.0","ojg83n7h","","","null","","Agent A","veridical","STIM_SET_2/1159427.bmp_pp98_L1_V1.0_veridical_freeview_isoTrue.mp4",""
"null","","","html-keyboard-response","432","992622","0.0-432.0","ojg83n7h","","<span style=""color:Black; font-size:50px;"">Agent B","null","","","","",""
"null","","","video-keyboard-response","433","995689","0.0-433.0","ojg83n7h","","","null","","Agent B","scrambled","STIM_SET_2/1159427.bmp_pp98_L1_V1.0_scrambled_freeview_isoTrue.mp4",""
"","","","call-function","434","995689","0.0-434.0","ojg83n7h","","","","","","","",""
"13972.469999999972","{""judgement"":1}","[0]","survey-likert","435","1009663","0.0-435.0","ojg83n7h","","","","","","","","0"
"1341.1049999999814","{""confidence"":2}","[0]","survey-likert","436","1011005","0.0-436.0","ojg83n7h","","","","","","","",""
"","","","call-function","437","1011006","0.0-437.0","ojg83n7h","","","","","","","",""
"null","","","html-keyboard-response","438","1012508","0.0-438.0","ojg83n7h","","<span style=""color:Black; font-size:50px;"">Agent A","null","","","","",""
"null","","","video-keyboard-response","439","1015584","0.0-439.0","ojg83n7h","","","null","","Agent A","scrambled","STIM_SET_2/150277.bmp_pp65_L3_V1.0_scrambled_freeview_isoTrue.mp4",""
"null","","","html-keyboard-response","440","1017087","0.0-440.0","ojg83n7h","","<span style=""color:Black; font-size:50px;"">Agent B","null","","","","",""
"null","","","video-keyboard-response","441","1020163","0.0-441.0","ojg83n7h","","","null","","Agent B","veridical","STIM_SET_2/150277.bmp_pp65_L3_V1.0_veridical_freeview_isoTrue.mp4",""
"","","","call-function","442","1020164","0.0-442.0","ojg83n7h","","","","","","","",""
"2196.4949999999953","{""judgement"":1}","[0]","survey-likert","443","1022361","0.0-443.0","ojg83n7h","","","","","","","","1"
"1050.920000000042","{""confidence"":1}","[0]","survey-likert","444","1023413","0.0-444.0","ojg83n7h","","","","","","","",""
"","","","call-function","445","1023414","0.0-445.0","ojg83n7h","","","","","","","",""
"null","","","html-keyboard-response","446","1024920","0.0-446.0","ojg83n7h","","<span style=""color:Black; font-size:50px;"">Agent A","null","","","","",""
"null","","","video-keyboard-response","447","1027989","0.0-447.0","ojg83n7h","","","null","","Agent A","veridical","STIM_SET_2/286034.bmp_pp69_L3_V1.0_veridical_freeview_isoTrue.mp4",""
"null","","","html-keyboard-response","448","1029493","0.0-448.0","ojg83n7h","","<span style=""color:Black; font-size:50px;"">Agent B","null","","","","",""
"null","","","video-keyboard-response","449","1032589","0.0-449.0","ojg83n7h","","","null","","Agent B","scrambled","STIM_SET_2/286034.bmp_pp69_L3_V1.0_scrambled_freeview_isoTrue.mp4",""
"","","","call-function","450","1032589","0.0-450.0","ojg83n7h","","","","","","","",""
"1458.7149999999674","{""judgement"":0}","[0]","survey-likert","451","1034049","0.0-451.0","ojg83n7h","","","","","","","","0"
"1552.0749999999534","{""confidence"":2}","[0]","survey-likert","452","1035602","0.0-452.0","ojg83n7h","","","","","","","",""
"","","","call-function","453","1035603","0.0-453.0","ojg83n7h","","","","","","","",""
"null","","","html-keyboard-response","454","1037104","0.0-454.0","ojg83n7h","","<span style=""color:Black; font-size:50px;"">Agent A","null","","","","",""
"null","","","video-keyboard-response","455","1040173","0.0-455.0","ojg83n7h","","","null","","Agent A","veridical","STIM_SET_2/1592289.bmp_pp92_L3_V1.0_veridical_freeview_isoTrue.mp4",""
"null","","","html-keyboard-response","456","1041676","0.0-456.0","ojg83n7h","","<span style=""color:Black; font-size:50px;"">Agent B","null","","","","",""
"null","","","video-keyboard-response","457","1044751","0.0-457.0","ojg83n7h","","","null","","Agent B","scrambled","STIM_SET_2/1592289.bmp_pp92_L3_V1.0_scrambled_freeview_isoTrue.mp4",""
"","","","call-function","458","1044752","0.0-458.0","ojg83n7h","","","","","","","",""
"1796.829999999958","{""judgement"":1}","[0]","survey-likert","459","1046550","0.0-459.0","ojg83n7h","","","","","","","","0"
"1164.515000000014","{""confidence"":2}","[0]","survey-likert","460","1047717","0.0-460.0","ojg83n7h","","","","","","","",""
"","","","call-function","461","1047718","0.0-461.0","ojg83n7h","","","","","","","",""
"null","","","html-keyboard-response","462","1049223","0.0-462.0","ojg83n7h","","<span style=""color:Black; font-size:50px;"">Agent A","null","","","","",""
"null","","","video-keyboard-response","463","1052300","0.0-463.0","ojg83n7h","","","null","","Agent A","scrambled","STIM_SET_2/1592038.bmp_pp79_L2_V1.0_scrambled_freeview_isoTrue.mp4",""
"null","","","html-keyboard-response","464","1053802","0.0-464.0","ojg83n7h","","<span style=""color:Black; font-size:50px;"">Agent B","null","","","","",""
"null","","","video-keyboard-response","465","1056879","0.0-465.0","ojg83n7h","","","null","","Agent B","veridical","STIM_SET_2/1592038.bmp_pp79_L2_V1.0_veridical_freeview_isoTrue.mp4",""
"","","","call-function","466","1056880","0.0-466.0","ojg83n7h","","","","","","","",""
"4114.01500000013","{""judgement"":0}","[0]","survey-likert","467","1060995","0.0-467.0","ojg83n7h","","","","","","","","1"
"1318.0100000000093","{""confidence"":2}","[0]","survey-likert","468","1062315","0.0-468.0","ojg83n7h","","","","","","","",""
"","","","call-function","469","1062315","0.0-469.0","ojg83n7h","","","","","","","",""
"null","","","html-keyboard-response","470","1063821","0.0-470.0","ojg83n7h","","<span style=""color:Black; font-size:50px;"">Agent A","null","","","","",""
"null","","","video-keyboard-response","471","1066900","0.0-471.0","ojg83n7h","","","null","","Agent A","veridical","STIM_SET_2/107909.bmp_pp95_L2_V1.0_veridical_freeview_isoTrue.mp4",""
"null","","","html-keyboard-response","472","1068404","0.0-472.0","ojg83n7h","","<span style=""color:Black; font-size:50px;"">Agent B","null","","","","",""
"null","","","video-keyboard-response","473","1071483","0.0-473.0","ojg83n7h","","","null","","Agent B","scrambled","STIM_SET_2/107909.bmp_pp95_L2_V1.0_scrambled_freeview_isoTrue.mp4",""
"","","","call-function","474","1071483","0.0-474.0","ojg83n7h","","","","","","","",""
"6025.850000000093","{""judgement"":1}","[0]","survey-likert","475","1077510","0.0-475.0","ojg83n7h","","","","","","","","0"
"1948.344999999972","{""confidence"":1}","[0]","survey-likert","476","1079460","0.0-476.0","ojg83n7h","","","","","","","",""
"","","","call-function","477","1079460","0.0-477.0","ojg83n7h","","","","","","","",""
"null","","","html-keyboard-response","478","1080961","0.0-478.0","ojg83n7h","","<span style=""color:Black; font-size:50px;"">Agent A","null","","","","",""
"null","","","video-keyboard-response","479","1084060","0.0-479.0","ojg83n7h","","","null","","Agent A","scrambled","STIM_SET_2/1592201.bmp_pp97_L3_V1.0_scrambled_freeview_isoTrue.mp4",""
"null","","","html-keyboard-response","480","1085563","0.0-480.0","ojg83n7h","","<span style=""color:Black; font-size:50px;"">Agent B","null","","","","",""
"null","","","video-keyboard-response","481","1088661","0.0-481.0","ojg83n7h","","","null","","Agent B","veridical","STIM_SET_2/1592201.bmp_pp97_L3_V1.0_veridical_freeview_isoTrue.mp4",""
"","","","call-function","482","1088661","0.0-482.0","ojg83n7h","","","","","","","",""
"2697.7949999999255","{""judgement"":1}","[0]","survey-likert","483","1091360","0.0-483.0","ojg83n7h","","","","","","","","1"
"1422.9450000000652","{""confidence"":1}","[0]","survey-likert","484","1092784","0.0-484.0","ojg83n7h","","","","","","","",""
"","","","call-function","485","1092785","0.0-485.0","ojg83n7h","","","","","","","",""
"null","","","html-keyboard-response","486","1094291","0.0-486.0","ojg83n7h","","<span style=""color:Black; font-size:50px;"">Agent A","null","","","","",""
"null","","","video-keyboard-response","487","1097388","0.0-487.0","ojg83n7h","","","null","","Agent A","veridical","STIM_SET_2/1159973.bmp_pp98_L1_V1.0_veridical_freeview_isoTrue.mp4",""
"null","","","html-keyboard-response","488","1098893","0.0-488.0","ojg83n7h","","<span style=""color:Black; font-size:50px;"">Agent B","null","","","","",""
"null","","","video-keyboard-response","489","1101988","0.0-489.0","ojg83n7h","","","null","","Agent B","scrambled","STIM_SET_2/1159973.bmp_pp98_L1_V1.0_scrambled_freeview_isoTrue.mp4",""
"","","","call-function","490","1101989","0.0-490.0","ojg83n7h","","","","","","","",""
"2169.6750000000466","{""judgement"":0}","[0]","survey-likert","491","1104159","0.0-491.0","ojg83n7h","","","","","","","","0"
"2432.905000000028","{""confidence"":1}","[0]","survey-likert","492","1106593","0.0-492.0","ojg83n7h","","","","","","","",""
"","","","call-function","493","1106594","0.0-493.0","ojg83n7h","","","","","","","",""
"null","","","html-keyboard-response","494","1108096","0.0-494.0","ojg83n7h","","<span style=""color:Black; font-size:50px;"">Agent A","null","","","","",""
"null","","","video-keyboard-response","495","1111197","0.0-495.0","ojg83n7h","","","null","","Agent A","veridical","STIM_SET_2/1159956.bmp_pp59_L3_V1.0_veridical_freeview_isoTrue.mp4",""
"null","","","html-keyboard-response","496","1112699","0.0-496.0","ojg83n7h","","<span style=""color:Black; font-size:50px;"">Agent B","null","","","","",""
"null","","","video-keyboard-response","497","1115769","0.0-497.0","ojg83n7h","","","null","","Agent B","scrambled","STIM_SET_2/1159956.bmp_pp59_L3_V1.0_scrambled_freeview_isoTrue.mp4",""
"","","","call-function","498","1115770","0.0-498.0","ojg83n7h","","","","","","","",""
"2028.344999999972","{""judgement"":1}","[0]","survey-likert","499","1117799","0.0-499.0","ojg83n7h","","","","","","","","0"
"1595.0149999998976","{""confidence"":2}","[0]","survey-likert","500","1119395","0.0-500.0","ojg83n7h","","","","","","","",""
"3235.0100000000093","","","instructions","501","1122631","0.0-501.0","ojg83n7h","[{""page_index"":0,""viewing_time"":1796.4899999999907},{""page_index"":1,""viewing_time"":920.8799999998882},{""page_index"":2,""viewing_time"":517.25}]","","","","","","",""
"1984.9250000000466","","","instructions","502","1124617","0.0-502.0","ojg83n7h","[{""page_index"":0,""viewing_time"":451.8649999999907},{""page_index"":1,""viewing_time"":744.0850000001956},{""page_index"":2,""viewing_time"":788.8649999999907}]","","","","","","",""
"","","","call-function","503","1124617","0.0-503.0","ojg83n7h","","","","","","","",""
"null","","","html-keyboard-response","504","1126120","0.0-504.0","ojg83n7h","","<span style=""color:Black; font-size:50px;"">Agent A","null","","","","",""
"null","","","video-keyboard-response","505","1129192","0.0-505.0","ojg83n7h","","","null","","Agent A","veridical","STIM_SET_2/713920.bmp_pp76_L1_V1.0_veridical_freeview_isoTrue.mp4",""
"null","","","html-keyboard-response","506","1130697","0.0-506.0","ojg83n7h","","<span style=""color:Black; font-size:50px;"">Agent B","null","","","","",""
"null","","","video-keyboard-response","507","1133772","0.0-507.0","ojg83n7h","","","null","","Agent B","scrambled","STIM_SET_2/713920.bmp_pp76_L1_V1.0_scrambled_freeview_isoTrue.mp4",""
"","","","call-function","508","1133773","0.0-508.0","ojg83n7h","","","","","","","",""
"2553.5100000000093","{""judgement"":0}","[0]","survey-likert","509","1136327","0.0-509.0","ojg83n7h","","","","","","","","0"
"2009.719999999972","{""confidence"":1}","[0]","survey-likert","510","1138338","0.0-510.0","ojg83n7h","","","","","","","",""
"","","","call-function","511","1138339","0.0-511.0","ojg83n7h","","","","","","","",""
"null","","","html-keyboard-response","512","1139840","0.0-512.0","ojg83n7h","","<span style=""color:Black; font-size:50px;"">Agent A","null","","","","",""
"null","","","video-keyboard-response","513","1142920","0.0-513.0","ojg83n7h","","","null","","Agent A","veridical","STIM_SET_2/1592168.bmp_pp71_L1_V1.0_veridical_freeview_isoTrue.mp4",""
"null","","","html-keyboard-response","514","1144426","0.0-514.0","ojg83n7h","","<span style=""color:Black; font-size:50px;"">Agent B","null","","","","",""
"null","","","video-keyboard-response","515","1147538","0.0-515.0","ojg83n7h","","","null","","Agent B","scrambled","STIM_SET_2/1592168.bmp_pp71_L1_V1.0_scrambled_freeview_isoTrue.mp4",""
"","","","call-function","516","1147539","0.0-516.0","ojg83n7h","","","","","","","",""
"4183.565000000177","{""judgement"":1}","[0]","survey-likert","517","1151724","0.0-517.0","ojg83n7h","","","","","","","","0"
"1255.4250000000466","{""confidence"":1}","[0]","survey-likert","518","1152982","0.0-518.0","ojg83n7h","","","","","","","",""
"","","","call-function","519","1152984","0.0-519.0","ojg83n7h","","","","","","","",""
"null","","","html-keyboard-response","520","1154486","0.0-520.0","ojg83n7h","","<span style=""color:Black; font-size:50px;"">Agent A","null","","","","",""
"null","","","video-keyboard-response","521","1157558","0.0-521.0","ojg83n7h","","","null","","Agent A","veridical","STIM_SET_2/713788.bmp_pp52_L1_V1.0_veridical_freeview_isoTrue.mp4",""
"null","","","html-keyboard-response","522","1159062","0.0-522.0","ojg83n7h","","<span style=""color:Black; font-size:50px;"">Agent B","null","","","","",""
"null","","","video-keyboard-response","523","1162135","0.0-523.0","ojg83n7h","","","null","","Agent B","scrambled","STIM_SET_2/713788.bmp_pp52_L1_V1.0_scrambled_freeview_isoTrue.mp4",""
"","","","call-function","524","1162135","0.0-524.0","ojg83n7h","","","","","","","",""
"1630.4199999999255","{""judgement"":1}","[0]","survey-likert","525","1163767","0.0-525.0","ojg83n7h","","","","","","","","0"
"2082.2299999999814","{""confidence"":2}","[0]","survey-likert","526","1165850","0.0-526.0","ojg83n7h","","","","","","","",""
"","","","call-function","527","1165851","0.0-527.0","ojg83n7h","","","","","","","",""
"null","","","html-keyboard-response","528","1167355","0.0-528.0","ojg83n7h","","<span style=""color:Black; font-size:50px;"">Agent A","null","","","","",""
"null","","","video-keyboard-response","529","1170425","0.0-529.0","ojg83n7h","","","null","","Agent A","scrambled","STIM_SET_2/1592314.bmp_pp100_L3_V1.0_scrambled_freeview_isoTrue.mp4",""
"null","","","html-keyboard-response","530","1171928","0.0-530.0","ojg83n7h","","<span style=""color:Black; font-size:50px;"">Agent B","null","","","","",""
"null","","","video-keyboard-response","531","1174995","0.0-531.0","ojg83n7h","","","null","","Agent B","veridical","STIM_SET_2/1592314.bmp_pp100_L3_V1.0_veridical_freeview_isoTrue.mp4",""
"","","","call-function","532","1174996","0.0-532.0","ojg83n7h","","","","","","","",""
"4324.549999999814","{""judgement"":0}","[0]","survey-likert","533","1179321","0.0-533.0","ojg83n7h","","","","","","","","1"
"2882.6800000001676","{""confidence"":1}","[0]","survey-likert","534","1182205","0.0-534.0","ojg83n7h","","","","","","","",""
"","","","call-function","535","1182206","0.0-535.0","ojg83n7h","","","","","","","",""
"null","","","html-keyboard-response","536","1183709","0.0-536.0","ojg83n7h","","<span style=""color:Black; font-size:50px;"">Agent A","null","","","","",""
"null","","","video-keyboard-response","537","1186806","0.0-537.0","ojg83n7h","","","null","","Agent A","veridical","STIM_SET_2/285684.bmp_pp80_L3_V1.0_veridical_freeview_isoTrue.mp4",""
"null","","","html-keyboard-response","538","1188310","0.0-538.0","ojg83n7h","","<span style=""color:Black; font-size:50px;"">Agent B","null","","","","",""
"null","","","video-keyboard-response","539","1191406","0.0-539.0","ojg83n7h","","","null","","Agent B","scrambled","STIM_SET_2/285684.bmp_pp80_L3_V1.0_scrambled_freeview_isoTrue.mp4",""
"","","","call-function","540","1191406","0.0-540.0","ojg83n7h","","","","","","","",""
"1570.405000000028","{""judgement"":1}","[0]","survey-likert","541","1192978","0.0-541.0","ojg83n7h","","","","","","","","0"
"1478.8649999999907","{""confidence"":2}","[0]","survey-likert","542","1194458","0.0-542.0","ojg83n7h","","","","","","","",""
"","","","call-function","543","1194458","0.0-543.0","ojg83n7h","","","","","","","",""
"null","","","html-keyboard-response","544","1195960","0.0-544.0","ojg83n7h","","<span style=""color:Black; font-size:50px;"">Agent A","null","","","","",""
"null","","","video-keyboard-response","545","1199060","0.0-545.0","ojg83n7h","","","null","","Agent A","veridical","STIM_SET_2/1592921.bmp_pp69_L3_V1.0_veridical_freeview_isoTrue.mp4",""
"null","","","html-keyboard-response","546","1200564","0.0-546.0","ojg83n7h","","<span style=""color:Black; font-size:50px;"">Agent B","null","","","","",""
"null","","","video-keyboard-response","547","1203665","0.0-547.0","ojg83n7h","","","null","","Agent B","scrambled","STIM_SET_2/1592921.bmp_pp69_L3_V1.0_scrambled_freeview_isoTrue.mp4",""
"","","","call-function","548","1203666","0.0-548.0","ojg83n7h","","","","","","","",""
"2503.034999999916","{""judgement"":1}","[0]","survey-likert","549","1206170","0.0-549.0","ojg83n7h","","","","","","","","0"
"1747.125","{""confidence"":1}","[0]","survey-likert","550","1207919","0.0-550.0","ojg83n7h","","","","","","","",""
"","","","call-function","551","1207919","0.0-551.0","ojg83n7h","","","","","","","",""
"null","","","html-keyboard-response","552","1209421","0.0-552.0","ojg83n7h","","<span style=""color:Black; font-size:50px;"">Agent A","null","","","","",""
"null","","","video-keyboard-response","553","1212517","0.0-553.0","ojg83n7h","","","null","","Agent A","veridical","STIM_SET_2/1592044.bmp_pp94_L2_V1.0_veridical_freeview_isoTrue.mp4",""
"null","","","html-keyboard-response","554","1214021","0.0-554.0","ojg83n7h","","<span style=""color:Black; font-size:50px;"">Agent B","null","","","","",""
"null","","","video-keyboard-response","555","1217116","0.0-555.0","ojg83n7h","","","null","","Agent B","scrambled","STIM_SET_2/1592044.bmp_pp94_L2_V1.0_scrambled_freeview_isoTrue.mp4",""
"","","","call-function","556","1217117","0.0-556.0","ojg83n7h","","","","","","","",""
"1206.3599999998696","{""judgement"":1}","[0]","survey-likert","557","1218324","0.0-557.0","ojg83n7h","","","","","","","","0"
"2663.564999999944","{""confidence"":2}","[0]","survey-likert","558","1220989","0.0-558.0","ojg83n7h","","","","","","","",""
"","","","call-function","559","1220990","0.0-559.0","ojg83n7h","","","","","","","",""
"null","","","html-keyboard-response","560","1222492","0.0-560.0","ojg83n7h","","<span style=""color:Black; font-size:50px;"">Agent A","null","","","","",""
"null","","","video-keyboard-response","561","1225571","0.0-561.0","ojg83n7h","","","null","","Agent A","veridical","STIM_SET_2/1160247.bmp_pp54_L2_V1.0_veridical_freeview_isoTrue.mp4",""
"null","","","html-keyboard-response","562","1227072","0.0-562.0","ojg83n7h","","<span style=""color:Black; font-size:50px;"">Agent B","null","","","","",""
"null","","","video-keyboard-response","563","1230151","0.0-563.0","ojg83n7h","","","null","","Agent B","scrambled","STIM_SET_2/1160247.bmp_pp54_L2_V1.0_scrambled_freeview_isoTrue.mp4",""
"","","","call-function","564","1230152","0.0-564.0","ojg83n7h","","","","","","","",""
"3575.1049999999814","{""judgement"":0}","[0]","survey-likert","565","1233728","0.0-565.0","ojg83n7h","","","","","","","","0"
"2401.2000000001863","{""confidence"":1}","[0]","survey-likert","566","1236130","0.0-566.0","ojg83n7h","","","","","","","",""
"","","","call-function","567","1236131","0.0-567.0","ojg83n7h","","","","","","","",""
"null","","","html-keyboard-response","568","1237634","0.0-568.0","ojg83n7h","","<span style=""color:Black; font-size:50px;"">Agent A","null","","","","",""
"null","","","video-keyboard-response","569","1240701","0.0-569.0","ojg83n7h","","","null","","Agent A","veridical","STIM_SET_2/1592047.bmp_pp51_L1_V1.0_veridical_freeview_isoTrue.mp4",""
"null","","","html-keyboard-response","570","1242206","0.0-570.0","ojg83n7h","","<span style=""color:Black; font-size:50px;"">Agent B","null","","","","",""
"null","","","video-keyboard-response","571","1245277","0.0-571.0","ojg83n7h","","","null","","Agent B","scrambled","STIM_SET_2/1592047.bmp_pp51_L1_V1.0_scrambled_freeview_isoTrue.mp4",""
"","","","call-function","572","1245278","0.0-572.0","ojg83n7h","","","","","","","",""
"3377.405000000028","{""judgement"":0}","[0]","survey-likert","573","1248656","0.0-573.0","ojg83n7h","","","","","","","","0"
"1260.1350000000093","{""confidence"":1}","[0]","survey-likert","574","1249918","0.0-574.0","ojg83n7h","","","","","","","",""
"","","","call-function","575","1249919","0.0-575.0","ojg83n7h","","","","","","","",""
"null","","","html-keyboard-response","576","1251422","0.0-576.0","ojg83n7h","","<span style=""color:Black; font-size:50px;"">Agent A","null","","","","",""
"null","","","video-keyboard-response","577","1254494","0.0-577.0","ojg83n7h","","","null","","Agent A","veridical","STIM_SET_2/1592129.bmp_pp153_L3_V1.0_veridical_freeview_isoTrue.mp4",""
"null","","","html-keyboard-response","578","1255996","0.0-578.0","ojg83n7h","","<span style=""color:Black; font-size:50px;"">Agent B","null","","","","",""
"null","","","video-keyboard-response","579","1259067","0.0-579.0","ojg83n7h","","","null","","Agent B","scrambled","STIM_SET_2/1592129.bmp_pp153_L3_V1.0_scrambled_freeview_isoTrue.mp4",""
"","","","call-function","580","1259068","0.0-580.0","ojg83n7h","","","","","","","",""
"3613.25","{""judgement"":1}","[0]","survey-likert","581","1262682","0.0-581.0","ojg83n7h","","","","","","","","0"
"1225.875","{""confidence"":0}","[0]","survey-likert","582","1263909","0.0-582.0","ojg83n7h","","","","","","","",""
"2903.5999999998603","","","instructions","583","1266813","0.0-583.0","ojg83n7h","[{""page_index"":0,""viewing_time"":2903.465000000084}]","","","","","","",""
"4487.0099999997765","","","instructions","584","1271301","0.0-584.0","ojg83n7h","[{""page_index"":0,""viewing_time"":4486.904999999795}]","","","","","","",""
"23526.465000000084","{""post-1"":1}","[0]","survey-likert","585","1294829","0.0-585.0","ojg83n7h","","","","","","","",""
"10246.520000000019","{""post-1"":0}","[0]","survey-likert","586","1305077","0.0-586.0","ojg83n7h","","","","","","","",""
"9548.355000000214","{""post-2"":1}","[0]","survey-likert","587","1314627","0.0-587.0","ojg83n7h","","","","","","","",""
"2438.469999999972","{""post-2"":0}","[0]","survey-likert","588","1317067","0.0-588.0","ojg83n7h","","","","","","","",""
"11681.879999999888","{""post-3"":3}","[0]","survey-likert","589","1328750","0.0-589.0","ojg83n7h","","","","","","","",""
"7298.649999999907","{""post-3"":1}","[0]","survey-likert","590","1336050","0.0-590.0","ojg83n7h","","","","","","","",""
"8236.155000000028","{""post-4"":2}","[0]","survey-likert","591","1344288","0.0-591.0","ojg83n7h","","","","","","","",""
"4765.439999999944","{""post-4"":1}","[0]","survey-likert","592","1349056","0.0-592.0","ojg83n7h","","","","","","","",""
"12221.415000000037","{""post-5"":0}","[0]","survey-likert","593","1361279","0.0-593.0","ojg83n7h","","","","","","","",""
"2834.095000000205","{""post-5"":3}","[0]","survey-likert","594","1364116","0.0-594.0","ojg83n7h","","","","","","","",""
"174578.05500000017","{""Q0"":""Sometimes I found myself questioning how I view my own attention by watching these videos. Like I couldn't remember if I try to find a focal subject when I'm in a room or taking in an image and then surveillance the background/setting of the whole scene. So I began questioning my own interpretations of how my own attention works. I then began questioning whether or not I believed humans have quick attentions span because I felt like the one of the big differences between agents A or B was the time/speed. ""}","","survey-text","595","1538701","0.0-595.0","ojg83n7h","","","","","","","",""
"61248.5","{""Q0"":""I tried focusing on the time/speed of the movements of agent A or B. And then I looked at the locations/distance either or traveled across the screen.""}","","survey-text","596","1599954","0.0-596.0","ojg83n7h","","","","","","","",""
"50397.125","{""Q0"":""Sometimes I felt like both agents were so similar in their movements and the speed that I sometimes questioned my choice or honestly couldn't tell the difference between the two. ""}","","survey-text","597","1650356","0.0-597.0","ojg83n7h","","","","","","","",""
"2137.0400000000373","","","instructions","598","1652494","0.0-598.0","ojg83n7h","[{""page_index"":0,""viewing_time"":2136.8300000000745}]","","","","","","",""
"49605.894999999786","{""Experimenter_end"":[""Printed ID# ojg83n7h on consent form"",""Given subject SONA credit or payment"",""Given the subject debrief form""]}","[0]","survey-multi-select","599","1702103","0.0-599.0","ojg83n7h","","","","","","","",""
