"rt","responses","question_order","trial_type","trial_index","time_elapsed","internal_node_id","ID","view_history","stimulus","key_press","value","agent","condition","image","correct_answer"
"64469.015","{""Experimenter"":[""Confirmed subject's identity"",""Confirmed normal or corrected-to-normal vision"",""Obtained consent (signature and date)"",""Checked the test room lighting"",""Checked computer screen lighting"",""Checked distance from screen to chin rest (50cm)"",""Cleaned and adjusted chin rest"",""Counterbalanced the order of the tasks"",""Opened the experiment in Firefox"",""Made the experiment full screen"",""Encouraged subject to silence phone, put away distractors, etc.""]}","[0]","survey-multi-select","0","64476","0.0-0.0","okhto9fo","","","","","","","",""
"12599.375","","","instructions","1","77076","0.0-1.0","okhto9fo","[{""page_index"":0,""viewing_time"":12599.229999999996}]","","","","","","",""
"23440.88500000001","","","instructions","2","100518","0.0-2.0","okhto9fo","[{""page_index"":0,""viewing_time"":3116.979999999996},{""page_index"":1,""viewing_time"":10318.300000000003},{""page_index"":2,""viewing_time"":10005.48000000001}]","","","","","","",""
"2308.7550000000047","","","instructions","3","102827","0.0-3.0","okhto9fo","[{""page_index"":0,""viewing_time"":2308.649999999994}]","","","","","","",""
"null","","","video-keyboard-response","4","105904","0.0-4.0","okhto9fo","","","null","","","","",""
"12005.86","","","instructions","5","117910","0.0-5.0","okhto9fo","[{""page_index"":0,""viewing_time"":3307.6649999999936},{""page_index"":1,""viewing_time"":5543.395000000004},{""page_index"":2,""viewing_time"":3154.6900000000023}]","","","","","","",""
"2775.6449999999895","","","instructions","6","120686","0.0-6.0","okhto9fo","[{""page_index"":0,""viewing_time"":2775.5399999999936}]","","","","","","",""
"1506.729999999996","","","instructions","7","122193","0.0-7.0","okhto9fo","[{""page_index"":0,""viewing_time"":1506.5149999999994}]","","","","","","",""
"null","","","video-keyboard-response","8","125266","0.0-8.0","okhto9fo","","","null","","","","",""
"14783.99500000001","","","instructions","9","140050","0.0-9.0","okhto9fo","[{""page_index"":0,""viewing_time"":1263.9850000000006},{""page_index"":1,""viewing_time"":2895.0149999999994},{""page_index"":2,""viewing_time"":10624.86}]","","","","","","",""
"8598.825000000012","","","instructions","10","148649","0.0-10.0","okhto9fo","[{""page_index"":0,""viewing_time"":8598.705000000016}]","","","","","","",""
"","","","call-function","11","148650","0.0-11.0","okhto9fo","","","","","","","",""
"null","","","html-keyboard-response","12","150157","0.0-12.0","okhto9fo","","<span style=""color:Black; font-size:50px;"">Agent A","null","","","","",""
"null","","","video-keyboard-response","13","153231","0.0-13.0","okhto9fo","","","null","","Agent A","scrambled","STIM_SET_2/1160204.bmp_pp54_L2_V1.0_scrambled_freeview_isoTrue.mp4",""
"null","","","html-keyboard-response","14","154734","0.0-14.0","okhto9fo","","<span style=""color:Black; font-size:50px;"">Agent B","null","","","","",""
"null","","","video-keyboard-response","15","157807","0.0-15.0","okhto9fo","","","null","","Agent B","veridical","STIM_SET_2/1160204.bmp_pp54_L2_V1.0_veridical_freeview_isoTrue.mp4",""
"","","","call-function","16","157808","0.0-16.0","okhto9fo","","","","","","","",""
"2770.429999999993","{""judgement"":0}","[0]","survey-likert","17","160579","0.0-17.0","okhto9fo","","","","","","","","1"
"2891.045000000013","{""confidence"":1}","[0]","survey-likert","18","163472","0.0-18.0","okhto9fo","","","","","","","",""
"","","","call-function","19","163472","0.0-19.0","okhto9fo","","","","","","","",""
"null","","","html-keyboard-response","20","164976","0.0-20.0","okhto9fo","","<span style=""color:Black; font-size:50px;"">Agent A","null","","","","",""
"null","","","video-keyboard-response","21","168066","0.0-21.0","okhto9fo","","","null","","Agent A","scrambled","STIM_SET_2/1592567.bmp_pp70_L2_V1.0_scrambled_freeview_isoTrue.mp4",""
"null","","","html-keyboard-response","22","169568","0.0-22.0","okhto9fo","","<span style=""color:Black; font-size:50px;"">Agent B","null","","","","",""
"null","","","video-keyboard-response","23","172632","0.0-23.0","okhto9fo","","","null","","Agent B","veridical","STIM_SET_2/1592567.bmp_pp70_L2_V1.0_veridical_freeview_isoTrue.mp4",""
"","","","call-function","24","172632","0.0-24.0","okhto9fo","","","","","","","",""
"2804.4400000000023","{""judgement"":1}","[0]","survey-likert","25","175438","0.0-25.0","okhto9fo","","","","","","","","1"
"2172.9100000000035","{""confidence"":2}","[0]","survey-likert","26","177612","0.0-26.0","okhto9fo","","","","","","","",""
"","","","call-function","27","177612","0.0-27.0","okhto9fo","","","","","","","",""
"null","","","html-keyboard-response","28","179114","0.0-28.0","okhto9fo","","<span style=""color:Black; font-size:50px;"">Agent A","null","","","","",""
"null","","","video-keyboard-response","29","182213","0.0-29.0","okhto9fo","","","null","","Agent A","scrambled","STIM_SET_2/713689.bmp_pp153_L3_V1.0_scrambled_freeview_isoTrue.mp4",""
"null","","","html-keyboard-response","30","183718","0.0-30.0","okhto9fo","","<span style=""color:Black; font-size:50px;"">Agent B","null","","","","",""
"null","","","video-keyboard-response","31","186815","0.0-31.0","okhto9fo","","","null","","Agent B","veridical","STIM_SET_2/713689.bmp_pp153_L3_V1.0_veridical_freeview_isoTrue.mp4",""
"","","","call-function","32","186816","0.0-32.0","okhto9fo","","","","","","","",""
"5203.664999999979","{""judgement"":0}","[0]","survey-likert","33","192021","0.0-33.0","okhto9fo","","","","","","","","1"
"1793.0249999999942","{""confidence"":2}","[0]","survey-likert","34","193816","0.0-34.0","okhto9fo","","","","","","","",""
"","","","call-function","35","193817","0.0-35.0","okhto9fo","","","","","","","",""
"null","","","html-keyboard-response","36","195322","0.0-36.0","okhto9fo","","<span style=""color:Black; font-size:50px;"">Agent A","null","","","","",""
"null","","","video-keyboard-response","37","198398","0.0-37.0","okhto9fo","","","null","","Agent A","scrambled","STIM_SET_2/1592530.bmp_pp75_L1_V1.0_scrambled_freeview_isoTrue.mp4",""
"null","","","html-keyboard-response","38","199904","0.0-38.0","okhto9fo","","<span style=""color:Black; font-size:50px;"">Agent B","null","","","","",""
"null","","","video-keyboard-response","39","202978","0.0-39.0","okhto9fo","","","null","","Agent B","veridical","STIM_SET_2/1592530.bmp_pp75_L1_V1.0_veridical_freeview_isoTrue.mp4",""
"","","","call-function","40","202979","0.0-40.0","okhto9fo","","","","","","","",""
"3149.015000000014","{""judgement"":1}","[0]","survey-likert","41","206129","0.0-41.0","okhto9fo","","","","","","","","1"
"3519.889999999985","{""confidence"":0}","[0]","survey-likert","42","209650","0.0-42.0","okhto9fo","","","","","","","",""
"","","","call-function","43","209651","0.0-43.0","okhto9fo","","","","","","","",""
"null","","","html-keyboard-response","44","211154","0.0-44.0","okhto9fo","","<span style=""color:Black; font-size:50px;"">Agent A","null","","","","",""
"null","","","video-keyboard-response","45","214212","0.0-45.0","okhto9fo","","","null","","Agent A","scrambled","STIM_SET_2/1159325.bmp_pp67_L2_V1.0_scrambled_freeview_isoTrue.mp4",""
"null","","","html-keyboard-response","46","215716","0.0-46.0","okhto9fo","","<span style=""color:Black; font-size:50px;"">Agent B","null","","","","",""
"null","","","video-keyboard-response","47","218778","0.0-47.0","okhto9fo","","","null","","Agent B","veridical","STIM_SET_2/1159325.bmp_pp67_L2_V1.0_veridical_freeview_isoTrue.mp4",""
"","","","call-function","48","218779","0.0-48.0","okhto9fo","","","","","","","",""
"3701.0650000000023","{""judgement"":1}","[0]","survey-likert","49","222481","0.0-49.0","okhto9fo","","","","","","","","1"
"1698.1049999999814","{""confidence"":2}","[0]","survey-likert","50","224180","0.0-50.0","okhto9fo","","","","","","","",""
"","","","call-function","51","224180","0.0-51.0","okhto9fo","","","","","","","",""
"null","","","html-keyboard-response","52","225681","0.0-52.0","okhto9fo","","<span style=""color:Black; font-size:50px;"">Agent A","null","","","","",""
"null","","","video-keyboard-response","53","228782","0.0-53.0","okhto9fo","","","null","","Agent A","veridical","STIM_SET_2/498372.bmp_pp95_L2_V1_veridical_freeview_isoTrue.mp4",""
"null","","","html-keyboard-response","54","230285","0.0-54.0","okhto9fo","","<span style=""color:Black; font-size:50px;"">Agent B","null","","","","",""
"null","","","video-keyboard-response","55","233388","0.0-55.0","okhto9fo","","","null","","Agent B","scrambled","STIM_SET_2/498372.bmp_pp95_L2_V1_scrambled_freeview_isoTrue.mp4",""
"","","","call-function","56","233388","0.0-56.0","okhto9fo","","","","","","","",""
"3956.9499999999825","{""judgement"":1}","[0]","survey-likert","57","237346","0.0-57.0","okhto9fo","","","","","","","","0"
"3236.9649999999965","{""confidence"":0}","[0]","survey-likert","58","240584","0.0-58.0","okhto9fo","","","","","","","",""
"","","","call-function","59","240585","0.0-59.0","okhto9fo","","","","","","","",""
"null","","","html-keyboard-response","60","242086","0.0-60.0","okhto9fo","","<span style=""color:Black; font-size:50px;"">Agent A","null","","","","",""
"null","","","video-keyboard-response","61","245186","0.0-61.0","okhto9fo","","","null","","Agent A","scrambled","STIM_SET_2/1592201.bmp_pp97_L3_V1.0_scrambled_freeview_isoTrue.mp4",""
"null","","","html-keyboard-response","62","246692","0.0-62.0","okhto9fo","","<span style=""color:Black; font-size:50px;"">Agent B","null","","","","",""
"null","","","video-keyboard-response","63","249793","0.0-63.0","okhto9fo","","","null","","Agent B","veridical","STIM_SET_2/1592201.bmp_pp97_L3_V1.0_veridical_freeview_isoTrue.mp4",""
"","","","call-function","64","249793","0.0-64.0","okhto9fo","","","","","","","",""
"4431.479999999981","{""judgement"":0}","[0]","survey-likert","65","254225","0.0-65.0","okhto9fo","","","","","","","","1"
"2208.1849999999977","{""confidence"":0}","[0]","survey-likert","66","256435","0.0-66.0","okhto9fo","","","","","","","",""
"","","","call-function","67","256435","0.0-67.0","okhto9fo","","","","","","","",""
"null","","","html-keyboard-response","68","257936","0.0-68.0","okhto9fo","","<span style=""color:Black; font-size:50px;"">Agent A","null","","","","",""
"null","","","video-keyboard-response","69","261038","0.0-69.0","okhto9fo","","","null","","Agent A","veridical","STIM_SET_2/1592044.bmp_pp94_L2_V1.0_veridical_freeview_isoTrue.mp4",""
"null","","","html-keyboard-response","70","262540","0.0-70.0","okhto9fo","","<span style=""color:Black; font-size:50px;"">Agent B","null","","","","",""
"null","","","video-keyboard-response","71","265609","0.0-71.0","okhto9fo","","","null","","Agent B","scrambled","STIM_SET_2/1592044.bmp_pp94_L2_V1.0_scrambled_freeview_isoTrue.mp4",""
"","","","call-function","72","265610","0.0-72.0","okhto9fo","","","","","","","",""
"2386.7000000000116","{""judgement"":0}","[0]","survey-likert","73","267997","0.0-73.0","okhto9fo","","","","","","","","0"
"4212.494999999995","{""confidence"":2}","[0]","survey-likert","74","272211","0.0-74.0","okhto9fo","","","","","","","",""
"","","","call-function","75","272211","0.0-75.0","okhto9fo","","","","","","","",""
"null","","","html-keyboard-response","76","273717","0.0-76.0","okhto9fo","","<span style=""color:Black; font-size:50px;"">Agent A","null","","","","",""
"null","","","video-keyboard-response","77","276786","0.0-77.0","okhto9fo","","","null","","Agent A","scrambled","STIM_SET_2/1592017.bmp_pp154_L1_V1.0_scrambled_freeview_isoTrue.mp4",""
"null","","","html-keyboard-response","78","278290","0.0-78.0","okhto9fo","","<span style=""color:Black; font-size:50px;"">Agent B","null","","","","",""
"null","","","video-keyboard-response","79","281358","0.0-79.0","okhto9fo","","","null","","Agent B","veridical","STIM_SET_2/1592017.bmp_pp154_L1_V1.0_veridical_freeview_isoTrue.mp4",""
"","","","call-function","80","281359","0.0-80.0","okhto9fo","","","","","","","",""
"1932.9349999999977","{""judgement"":1}","[0]","survey-likert","81","283293","0.0-81.0","okhto9fo","","","","","","","","1"
"2042.0800000000163","{""confidence"":3}","[0]","survey-likert","82","285336","0.0-82.0","okhto9fo","","","","","","","",""
"","","","call-function","83","285336","0.0-83.0","okhto9fo","","","","","","","",""
"null","","","html-keyboard-response","84","286838","0.0-84.0","okhto9fo","","<span style=""color:Black; font-size:50px;"">Agent A","null","","","","",""
"null","","","video-keyboard-response","85","289912","0.0-85.0","okhto9fo","","","null","","Agent A","veridical","STIM_SET_2/1592038.bmp_pp79_L2_V1.0_veridical_freeview_isoTrue.mp4",""
"null","","","html-keyboard-response","86","291417","0.0-86.0","okhto9fo","","<span style=""color:Black; font-size:50px;"">Agent B","null","","","","",""
"null","","","video-keyboard-response","87","294511","0.0-87.0","okhto9fo","","","null","","Agent B","scrambled","STIM_SET_2/1592038.bmp_pp79_L2_V1.0_scrambled_freeview_isoTrue.mp4",""
"","","","call-function","88","294511","0.0-88.0","okhto9fo","","","","","","","",""
"2430.179999999993","{""judgement"":0}","[0]","survey-likert","89","296943","0.0-89.0","okhto9fo","","","","","","","","0"
"2392.8099999999977","{""confidence"":1}","[0]","survey-likert","90","299337","0.0-90.0","okhto9fo","","","","","","","",""
"142032.315","","","instructions","91","441370","0.0-91.0","okhto9fo","[{""page_index"":0,""viewing_time"":1237.0299999999697},{""page_index"":1,""viewing_time"":139066.95},{""page_index"":2,""viewing_time"":1728.054999999993}]","","","","","","",""
"5856.304999999993","","","instructions","92","447227","0.0-92.0","okhto9fo","[{""page_index"":0,""viewing_time"":940.2149999999674},{""page_index"":1,""viewing_time"":3986.0950000000303},{""page_index"":2,""viewing_time"":929.8850000000093}]","","","","","","",""
"","","","call-function","93","447227","0.0-93.0","okhto9fo","","","","","","","",""
"null","","","html-keyboard-response","94","448732","0.0-94.0","okhto9fo","","<span style=""color:Black; font-size:50px;"">Agent A","null","","","","",""
"null","","","video-keyboard-response","95","451814","0.0-95.0","okhto9fo","","","null","","Agent A","scrambled","STIM_SET_2/1159592.bmp_pp91_L3_V1.0_scrambled_freeview_isoTrue.mp4",""
"null","","","html-keyboard-response","96","453316","0.0-96.0","okhto9fo","","<span style=""color:Black; font-size:50px;"">Agent B","null","","","","",""
"null","","","video-keyboard-response","97","456397","0.0-97.0","okhto9fo","","","null","","Agent B","veridical","STIM_SET_2/1159592.bmp_pp91_L3_V1.0_veridical_freeview_isoTrue.mp4",""
"","","","call-function","98","456397","0.0-98.0","okhto9fo","","","","","","","",""
"3218.2449999999953","{""judgement"":1}","[0]","survey-likert","99","459616","0.0-99.0","okhto9fo","","","","","","","","1"
"1466.1849999999977","{""confidence"":2}","[0]","survey-likert","100","461083","0.0-100.0","okhto9fo","","","","","","","",""
"","","","call-function","101","461084","0.0-101.0","okhto9fo","","","","","","","",""
"null","","","html-keyboard-response","102","462586","0.0-102.0","okhto9fo","","<span style=""color:Black; font-size:50px;"">Agent A","null","","","","",""
"null","","","video-keyboard-response","103","465661","0.0-103.0","okhto9fo","","","null","","Agent A","veridical","STIM_SET_2/1159973.bmp_pp98_L1_V1.0_veridical_freeview_isoTrue.mp4",""
"null","","","html-keyboard-response","104","467162","0.0-104.0","okhto9fo","","<span style=""color:Black; font-size:50px;"">Agent B","null","","","","",""
"null","","","video-keyboard-response","105","470233","0.0-105.0","okhto9fo","","","null","","Agent B","scrambled","STIM_SET_2/1159973.bmp_pp98_L1_V1.0_scrambled_freeview_isoTrue.mp4",""
"","","","call-function","106","470235","0.0-106.0","okhto9fo","","","","","","","",""
"2235.2600000000093","{""judgement"":0}","[0]","survey-likert","107","472471","0.0-107.0","okhto9fo","","","","","","","","0"
"1846.414999999979","{""confidence"":2}","[0]","survey-likert","108","474318","0.0-108.0","okhto9fo","","","","","","","",""
"","","","call-function","109","474319","0.0-109.0","okhto9fo","","","","","","","",""
"null","","","html-keyboard-response","110","475821","0.0-110.0","okhto9fo","","<span style=""color:Black; font-size:50px;"">Agent A","null","","","","",""
"null","","","video-keyboard-response","111","478919","0.0-111.0","okhto9fo","","","null","","Agent A","scrambled","STIM_SET_2/498326.bmp_pp57_L1_V1.0_scrambled_freeview_isoTrue.mp4",""
"null","","","html-keyboard-response","112","480425","0.0-112.0","okhto9fo","","<span style=""color:Black; font-size:50px;"">Agent B","null","","","","",""
"null","","","video-keyboard-response","113","483520","0.0-113.0","okhto9fo","","","null","","Agent B","veridical","STIM_SET_2/498326.bmp_pp57_L1_V1.0_veridical_freeview_isoTrue.mp4",""
"","","","call-function","114","483521","0.0-114.0","okhto9fo","","","","","","","",""
"3189.6999999999534","{""judgement"":1}","[0]","survey-likert","115","486711","0.0-115.0","okhto9fo","","","","","","","","1"
"1763.6699999999837","{""confidence"":1}","[0]","survey-likert","116","488476","0.0-116.0","okhto9fo","","","","","","","",""
"","","","call-function","117","488476","0.0-117.0","okhto9fo","","","","","","","",""
"null","","","html-keyboard-response","118","489980","0.0-118.0","okhto9fo","","<span style=""color:Black; font-size:50px;"">Agent A","null","","","","",""
"null","","","video-keyboard-response","119","493082","0.0-119.0","okhto9fo","","","null","","Agent A","veridical","STIM_SET_2/498261.bmp_pp84_L3_V1.0_veridical_freeview_isoTrue.mp4",""
"null","","","html-keyboard-response","120","494589","0.0-120.0","okhto9fo","","<span style=""color:Black; font-size:50px;"">Agent B","null","","","","",""
"null","","","video-keyboard-response","121","497690","0.0-121.0","okhto9fo","","","null","","Agent B","scrambled","STIM_SET_2/498261.bmp_pp84_L3_V1.0_scrambled_freeview_isoTrue.mp4",""
"","","","call-function","122","497691","0.0-122.0","okhto9fo","","","","","","","",""
"3039.4899999999907","{""judgement"":0}","[0]","survey-likert","123","500731","0.0-123.0","okhto9fo","","","","","","","","0"
"1488.8249999999534","{""confidence"":1}","[0]","survey-likert","124","502221","0.0-124.0","okhto9fo","","","","","","","",""
"","","","call-function","125","502221","0.0-125.0","okhto9fo","","","","","","","",""
"null","","","html-keyboard-response","126","503727","0.0-126.0","okhto9fo","","<span style=""color:Black; font-size:50px;"">Agent A","null","","","","",""
"null","","","video-keyboard-response","127","506789","0.0-127.0","okhto9fo","","","null","","Agent A","scrambled","STIM_SET_2/61513.bmp_pp75_L1_V1.0_scrambled_freeview_isoTrue.mp4",""
"null","","","html-keyboard-response","128","508290","0.0-128.0","okhto9fo","","<span style=""color:Black; font-size:50px;"">Agent B","null","","","","",""
"null","","","video-keyboard-response","129","511351","0.0-129.0","okhto9fo","","","null","","Agent B","veridical","STIM_SET_2/61513.bmp_pp75_L1_V1.0_veridical_freeview_isoTrue.mp4",""
"","","","call-function","130","511352","0.0-130.0","okhto9fo","","","","","","","",""
"3991.1450000000186","{""judgement"":0}","[0]","survey-likert","131","515344","0.0-131.0","okhto9fo","","","","","","","","1"
"1465.5200000000186","{""confidence"":1}","[0]","survey-likert","132","516811","0.0-132.0","okhto9fo","","","","","","","",""
"","","","call-function","133","516811","0.0-133.0","okhto9fo","","","","","","","",""
"null","","","html-keyboard-response","134","518314","0.0-134.0","okhto9fo","","<span style=""color:Black; font-size:50px;"">Agent A","null","","","","",""
"null","","","video-keyboard-response","135","521376","0.0-135.0","okhto9fo","","","null","","Agent A","scrambled","STIM_SET_2/498398.bmp_pp81_L1_V1.0_scrambled_freeview_isoTrue.mp4",""
"null","","","html-keyboard-response","136","522877","0.0-136.0","okhto9fo","","<span style=""color:Black; font-size:50px;"">Agent B","null","","","","",""
"null","","","video-keyboard-response","137","525939","0.0-137.0","okhto9fo","","","null","","Agent B","veridical","STIM_SET_2/498398.bmp_pp81_L1_V1.0_veridical_freeview_isoTrue.mp4",""
"","","","call-function","138","525939","0.0-138.0","okhto9fo","","","","","","","",""
"3164.0200000000186","{""judgement"":1}","[0]","survey-likert","139","529104","0.0-139.0","okhto9fo","","","","","","","","1"
"1246.2550000000047","{""confidence"":0}","[0]","survey-likert","140","530351","0.0-140.0","okhto9fo","","","","","","","",""
"","","","call-function","141","530352","0.0-141.0","okhto9fo","","","","","","","",""
"null","","","html-keyboard-response","142","531854","0.0-142.0","okhto9fo","","<span style=""color:Black; font-size:50px;"">Agent A","null","","","","",""
"null","","","video-keyboard-response","143","534929","0.0-143.0","okhto9fo","","","null","","Agent A","scrambled","STIM_SET_2/1592350.bmp_pp55_L3_V1.0_scrambled_freeview_isoTrue.mp4",""
"null","","","html-keyboard-response","144","536436","0.0-144.0","okhto9fo","","<span style=""color:Black; font-size:50px;"">Agent B","null","","","","",""
"null","","","video-keyboard-response","145","539508","0.0-145.0","okhto9fo","","","null","","Agent B","veridical","STIM_SET_2/1592350.bmp_pp55_L3_V1.0_veridical_freeview_isoTrue.mp4",""
"","","","call-function","146","539509","0.0-146.0","okhto9fo","","","","","","","",""
"6218.640000000014","{""judgement"":1}","[0]","survey-likert","147","545730","0.0-147.0","okhto9fo","","","","","","","","1"
"2666.704999999958","{""confidence"":0}","[0]","survey-likert","148","548398","0.0-148.0","okhto9fo","","","","","","","",""
"","","","call-function","149","548398","0.0-149.0","okhto9fo","","","","","","","",""
"null","","","html-keyboard-response","150","549901","0.0-150.0","okhto9fo","","<span style=""color:Black; font-size:50px;"">Agent A","null","","","","",""
"null","","","video-keyboard-response","151","552978","0.0-151.0","okhto9fo","","","null","","Agent A","veridical","STIM_SET_2/1592168.bmp_pp71_L1_V1.0_veridical_freeview_isoTrue.mp4",""
"null","","","html-keyboard-response","152","554481","0.0-152.0","okhto9fo","","<span style=""color:Black; font-size:50px;"">Agent B","null","","","","",""
"null","","","video-keyboard-response","153","557560","0.0-153.0","okhto9fo","","","null","","Agent B","scrambled","STIM_SET_2/1592168.bmp_pp71_L1_V1.0_scrambled_freeview_isoTrue.mp4",""
"","","","call-function","154","557560","0.0-154.0","okhto9fo","","","","","","","",""
"3073.560000000056","{""judgement"":0}","[0]","survey-likert","155","560635","0.0-155.0","okhto9fo","","","","","","","","0"
"1789.015000000014","{""confidence"":2}","[0]","survey-likert","156","562425","0.0-156.0","okhto9fo","","","","","","","",""
"","","","call-function","157","562425","0.0-157.0","okhto9fo","","","","","","","",""
"null","","","html-keyboard-response","158","563928","0.0-158.0","okhto9fo","","<span style=""color:Black; font-size:50px;"">Agent A","null","","","","",""
"null","","","video-keyboard-response","159","567001","0.0-159.0","okhto9fo","","","null","","Agent A","veridical","STIM_SET_2/713920.bmp_pp76_L1_V1.0_veridical_freeview_isoTrue.mp4",""
"null","","","html-keyboard-response","160","568502","0.0-160.0","okhto9fo","","<span style=""color:Black; font-size:50px;"">Agent B","null","","","","",""
"null","","","video-keyboard-response","161","571603","0.0-161.0","okhto9fo","","","null","","Agent B","scrambled","STIM_SET_2/713920.bmp_pp76_L1_V1.0_scrambled_freeview_isoTrue.mp4",""
"","","","call-function","162","571604","0.0-162.0","okhto9fo","","","","","","","",""
"2160.719999999972","{""judgement"":0}","[0]","survey-likert","163","573765","0.0-163.0","okhto9fo","","","","","","","","0"
"1613.4499999999534","{""confidence"":1}","[0]","survey-likert","164","575380","0.0-164.0","okhto9fo","","","","","","","",""
"","","","call-function","165","575381","0.0-165.0","okhto9fo","","","","","","","",""
"null","","","html-keyboard-response","166","576884","0.0-166.0","okhto9fo","","<span style=""color:Black; font-size:50px;"">Agent A","null","","","","",""
"null","","","video-keyboard-response","167","579941","0.0-167.0","okhto9fo","","","null","","Agent A","veridical","STIM_SET_2/1159427.bmp_pp98_L1_V1.0_veridical_freeview_isoTrue.mp4",""
"null","","","html-keyboard-response","168","581445","0.0-168.0","okhto9fo","","<span style=""color:Black; font-size:50px;"">Agent B","null","","","","",""
"null","","","video-keyboard-response","169","584502","0.0-169.0","okhto9fo","","","null","","Agent B","scrambled","STIM_SET_2/1159427.bmp_pp98_L1_V1.0_scrambled_freeview_isoTrue.mp4",""
"","","","call-function","170","584503","0.0-170.0","okhto9fo","","","","","","","",""
"3025.545000000042","{""judgement"":1}","[0]","survey-likert","171","587529","0.0-171.0","okhto9fo","","","","","","","","0"
"2513.530000000028","{""confidence"":1}","[0]","survey-likert","172","590044","0.0-172.0","okhto9fo","","","","","","","",""
"185794.14500000002","","","instructions","173","775839","0.0-173.0","okhto9fo","[{""page_index"":0,""viewing_time"":2347},{""page_index"":1,""viewing_time"":182538.52500000002},{""page_index"":2,""viewing_time"":908.4100000000326}]","","","","","","",""
"2931.774999999907","","","instructions","174","778771","0.0-174.0","okhto9fo","[{""page_index"":0,""viewing_time"":732.734999999986},{""page_index"":1,""viewing_time"":1512.829999999958},{""page_index"":2,""viewing_time"":686.0999999999767}]","","","","","","",""
"","","","call-function","175","778772","0.0-175.0","okhto9fo","","","","","","","",""
"null","","","html-keyboard-response","176","780277","0.0-176.0","okhto9fo","","<span style=""color:Black; font-size:50px;"">Agent A","null","","","","",""
"null","","","video-keyboard-response","177","783351","0.0-177.0","okhto9fo","","","null","","Agent A","scrambled","STIM_SET_2/150277.bmp_pp65_L3_V1.0_scrambled_freeview_isoTrue.mp4",""
"null","","","html-keyboard-response","178","784857","0.0-178.0","okhto9fo","","<span style=""color:Black; font-size:50px;"">Agent B","null","","","","",""
"null","","","video-keyboard-response","179","787934","0.0-179.0","okhto9fo","","","null","","Agent B","veridical","STIM_SET_2/150277.bmp_pp65_L3_V1.0_veridical_freeview_isoTrue.mp4",""
"","","","call-function","180","787935","0.0-180.0","okhto9fo","","","","","","","",""
"2043.2550000000047","{""judgement"":1}","[0]","survey-likert","181","789979","0.0-181.0","okhto9fo","","","","","","","","1"
"2099","{""confidence"":2}","[0]","survey-likert","182","792079","0.0-182.0","okhto9fo","","","","","","","",""
"","","","call-function","183","792079","0.0-183.0","okhto9fo","","","","","","","",""
"null","","","html-keyboard-response","184","793584","0.0-184.0","okhto9fo","","<span style=""color:Black; font-size:50px;"">Agent A","null","","","","",""
"null","","","video-keyboard-response","185","796656","0.0-185.0","okhto9fo","","","null","","Agent A","veridical","STIM_SET_2/1159329.bmp_pp61_L2_V1.0_veridical_freeview_isoTrue.mp4",""
"null","","","html-keyboard-response","186","798158","0.0-186.0","okhto9fo","","<span style=""color:Black; font-size:50px;"">Agent B","null","","","","",""
"null","","","video-keyboard-response","187","801231","0.0-187.0","okhto9fo","","","null","","Agent B","scrambled","STIM_SET_2/1159329.bmp_pp61_L2_V1.0_scrambled_freeview_isoTrue.mp4",""
"","","","call-function","188","801231","0.0-188.0","okhto9fo","","","","","","","",""
"7677.525000000023","{""judgement"":1}","[0]","survey-likert","189","808909","0.0-189.0","okhto9fo","","","","","","","","0"
"2820.280000000028","{""confidence"":0}","[0]","survey-likert","190","811731","0.0-190.0","okhto9fo","","","","","","","",""
"","","","call-function","191","811731","0.0-191.0","okhto9fo","","","","","","","",""
"null","","","html-keyboard-response","192","813235","0.0-192.0","okhto9fo","","<span style=""color:Black; font-size:50px;"">Agent A","null","","","","",""
"null","","","video-keyboard-response","193","816295","0.0-193.0","okhto9fo","","","null","","Agent A","veridical","STIM_SET_2/107955.bmp_pp90_L2_V1.0_veridical_freeview_isoTrue.mp4",""
"null","","","html-keyboard-response","194","817800","0.0-194.0","okhto9fo","","<span style=""color:Black; font-size:50px;"">Agent B","null","","","","",""
"null","","","video-keyboard-response","195","820868","0.0-195.0","okhto9fo","","","null","","Agent B","scrambled","STIM_SET_2/107955.bmp_pp90_L2_V1.0_scrambled_freeview_isoTrue.mp4",""
"","","","call-function","196","820869","0.0-196.0","okhto9fo","","","","","","","",""
"4852.42499999993","{""judgement"":1}","[0]","survey-likert","197","825723","0.0-197.0","okhto9fo","","","","","","","","0"
"1617.7900000000373","{""confidence"":0}","[0]","survey-likert","198","827342","0.0-198.0","okhto9fo","","","","","","","",""
"","","","call-function","199","827343","0.0-199.0","okhto9fo","","","","","","","",""
"null","","","html-keyboard-response","200","828845","0.0-200.0","okhto9fo","","<span style=""color:Black; font-size:50px;"">Agent A","null","","","","",""
"null","","","video-keyboard-response","201","831919","0.0-201.0","okhto9fo","","","null","","Agent A","veridical","STIM_SET_2/1592289.bmp_pp92_L3_V1.0_veridical_freeview_isoTrue.mp4",""
"null","","","html-keyboard-response","202","833421","0.0-202.0","okhto9fo","","<span style=""color:Black; font-size:50px;"">Agent B","null","","","","",""
"null","","","video-keyboard-response","203","836497","0.0-203.0","okhto9fo","","","null","","Agent B","scrambled","STIM_SET_2/1592289.bmp_pp92_L3_V1.0_scrambled_freeview_isoTrue.mp4",""
"","","","call-function","204","836498","0.0-204.0","okhto9fo","","","","","","","",""
"2552.454999999958","{""judgement"":0}","[0]","survey-likert","205","839051","0.0-205.0","okhto9fo","","","","","","","","0"
"5311.70000000007","{""confidence"":1}","[0]","survey-likert","206","844364","0.0-206.0","okhto9fo","","","","","","","",""
"","","","call-function","207","844365","0.0-207.0","okhto9fo","","","","","","","",""
"null","","","html-keyboard-response","208","845867","0.0-208.0","okhto9fo","","<span style=""color:Black; font-size:50px;"">Agent A","null","","","","",""
"null","","","video-keyboard-response","209","848938","0.0-209.0","okhto9fo","","","null","","Agent A","veridical","STIM_SET_2/1159860.bmp_pp152_L2_V1.0_veridical_freeview_isoTrue.mp4",""
"null","","","html-keyboard-response","210","850441","0.0-210.0","okhto9fo","","<span style=""color:Black; font-size:50px;"">Agent B","null","","","","",""
"null","","","video-keyboard-response","211","853501","0.0-211.0","okhto9fo","","","null","","Agent B","scrambled","STIM_SET_2/1159860.bmp_pp152_L2_V1.0_scrambled_freeview_isoTrue.mp4",""
"","","","call-function","212","853501","0.0-212.0","okhto9fo","","","","","","","",""
"3749.8499999999767","{""judgement"":0}","[0]","survey-likert","213","857252","0.0-213.0","okhto9fo","","","","","","","","0"
"2624.0749999999534","{""confidence"":1}","[0]","survey-likert","214","859877","0.0-214.0","okhto9fo","","","","","","","",""
"","","","call-function","215","859879","0.0-215.0","okhto9fo","","","","","","","",""
"null","","","html-keyboard-response","216","861382","0.0-216.0","okhto9fo","","<span style=""color:Black; font-size:50px;"">Agent A","null","","","","",""
"null","","","video-keyboard-response","217","864480","0.0-217.0","okhto9fo","","","null","","Agent A","veridical","STIM_SET_2/1592857.bmp_pp52_L1_V1_veridical_freeview_isoTrue.mp4",""
"null","","","html-keyboard-response","218","865982","0.0-218.0","okhto9fo","","<span style=""color:Black; font-size:50px;"">Agent B","null","","","","",""
"null","","","video-keyboard-response","219","869085","0.0-219.0","okhto9fo","","","null","","Agent B","scrambled","STIM_SET_2/1592857.bmp_pp52_L1_V1_scrambled_freeview_isoTrue.mp4",""
"","","","call-function","220","869086","0.0-220.0","okhto9fo","","","","","","","",""
"4903.714999999967","{""judgement"":1}","[0]","survey-likert","221","873990","0.0-221.0","okhto9fo","","","","","","","","0"
"3431.8850000000093","{""confidence"":0}","[0]","survey-likert","222","877423","0.0-222.0","okhto9fo","","","","","","","",""
"","","","call-function","223","877423","0.0-223.0","okhto9fo","","","","","","","",""
"null","","","html-keyboard-response","224","878926","0.0-224.0","okhto9fo","","<span style=""color:Black; font-size:50px;"">Agent A","null","","","","",""
"null","","","video-keyboard-response","225","882022","0.0-225.0","okhto9fo","","","null","","Agent A","veridical","STIM_SET_2/1591920.bmp_pp97_L3_V1_veridical_freeview_isoTrue.mp4",""
"null","","","html-keyboard-response","226","883528","0.0-226.0","okhto9fo","","<span style=""color:Black; font-size:50px;"">Agent B","null","","","","",""
"null","","","video-keyboard-response","227","886594","0.0-227.0","okhto9fo","","","null","","Agent B","scrambled","STIM_SET_2/1591920.bmp_pp97_L3_V1_scrambled_freeview_isoTrue.mp4",""
"","","","call-function","228","886595","0.0-228.0","okhto9fo","","","","","","","",""
"4784.774999999907","{""judgement"":1}","[0]","survey-likert","229","891381","0.0-229.0","okhto9fo","","","","","","","","0"
"1752.1149999999907","{""confidence"":0}","[0]","survey-likert","230","893134","0.0-230.0","okhto9fo","","","","","","","",""
"","","","call-function","231","893134","0.0-231.0","okhto9fo","","","","","","","",""
"null","","","html-keyboard-response","232","894640","0.0-232.0","okhto9fo","","<span style=""color:Black; font-size:50px;"">Agent A","null","","","","",""
"null","","","video-keyboard-response","233","897715","0.0-233.0","okhto9fo","","","null","","Agent A","scrambled","STIM_SET_2/285946.bmp_pp79_L2_V1.0_scrambled_freeview_isoTrue.mp4",""
"null","","","html-keyboard-response","234","899221","0.0-234.0","okhto9fo","","<span style=""color:Black; font-size:50px;"">Agent B","null","","","","",""
"null","","","video-keyboard-response","235","902297","0.0-235.0","okhto9fo","","","null","","Agent B","veridical","STIM_SET_2/285946.bmp_pp79_L2_V1.0_veridical_freeview_isoTrue.mp4",""
"","","","call-function","236","902297","0.0-236.0","okhto9fo","","","","","","","",""
"2140.914999999921","{""judgement"":1}","[0]","survey-likert","237","904439","0.0-237.0","okhto9fo","","","","","","","","1"
"1555.3699999999953","{""confidence"":3}","[0]","survey-likert","238","905995","0.0-238.0","okhto9fo","","","","","","","",""
"","","","call-function","239","905995","0.0-239.0","okhto9fo","","","","","","","",""
"null","","","html-keyboard-response","240","907499","0.0-240.0","okhto9fo","","<span style=""color:Black; font-size:50px;"">Agent A","null","","","","",""
"null","","","video-keyboard-response","241","910602","0.0-241.0","okhto9fo","","","null","","Agent A","veridical","STIM_SET_2/1591781.bmp_pp63_L1_V1.0_veridical_freeview_isoTrue.mp4",""
"null","","","html-keyboard-response","242","912104","0.0-242.0","okhto9fo","","<span style=""color:Black; font-size:50px;"">Agent B","null","","","","",""
"null","","","video-keyboard-response","243","915180","0.0-243.0","okhto9fo","","","null","","Agent B","scrambled","STIM_SET_2/1591781.bmp_pp63_L1_V1.0_scrambled_freeview_isoTrue.mp4",""
"","","","call-function","244","915181","0.0-244.0","okhto9fo","","","","","","","",""
"1990.1600000000326","{""judgement"":0}","[0]","survey-likert","245","917172","0.0-245.0","okhto9fo","","","","","","","","0"
"2033.780000000028","{""confidence"":2}","[0]","survey-likert","246","919208","0.0-246.0","okhto9fo","","","","","","","",""
"","","","call-function","247","919209","0.0-247.0","okhto9fo","","","","","","","",""
"null","","","html-keyboard-response","248","920715","0.0-248.0","okhto9fo","","<span style=""color:Black; font-size:50px;"">Agent A","null","","","","",""
"null","","","video-keyboard-response","249","923791","0.0-249.0","okhto9fo","","","null","","Agent A","scrambled","STIM_SET_2/498025.bmp_pp81_L1_V1.0_scrambled_freeview_isoTrue.mp4",""
"null","","","html-keyboard-response","250","925298","0.0-250.0","okhto9fo","","<span style=""color:Black; font-size:50px;"">Agent B","null","","","","",""
"null","","","video-keyboard-response","251","928374","0.0-251.0","okhto9fo","","","null","","Agent B","veridical","STIM_SET_2/498025.bmp_pp81_L1_V1.0_veridical_freeview_isoTrue.mp4",""
"","","","call-function","252","928375","0.0-252.0","okhto9fo","","","","","","","",""
"2278.8300000000745","{""judgement"":1}","[0]","survey-likert","253","930654","0.0-253.0","okhto9fo","","","","","","","","1"
"1822.9149999999208","{""confidence"":0}","[0]","survey-likert","254","932478","0.0-254.0","okhto9fo","","","","","","","",""
"221075.02500000002","","","instructions","255","1153555","0.0-255.0","okhto9fo","[{""page_index"":0,""viewing_time"":1902.0700000000652},{""page_index"":1,""viewing_time"":217804.755},{""page_index"":2,""viewing_time"":1368.0449999999255}]","","","","","","",""
"3891.814999999944","","","instructions","256","1157447","0.0-256.0","okhto9fo","[{""page_index"":0,""viewing_time"":911.4849999998696},{""page_index"":1,""viewing_time"":2278.095000000205},{""page_index"":2,""viewing_time"":702.1299999998882}]","","","","","","",""
"","","","call-function","257","1157447","0.0-257.0","okhto9fo","","","","","","","",""
"null","","","html-keyboard-response","258","1158947","0.0-258.0","okhto9fo","","<span style=""color:Black; font-size:50px;"">Agent A","null","","","","",""
"null","","","video-keyboard-response","259","1162015","0.0-259.0","okhto9fo","","","null","","Agent A","veridical","STIM_SET_2/285684.bmp_pp80_L3_V1.0_veridical_freeview_isoTrue.mp4",""
"null","","","html-keyboard-response","260","1163521","0.0-260.0","okhto9fo","","<span style=""color:Black; font-size:50px;"">Agent B","null","","","","",""
"null","","","video-keyboard-response","261","1166590","0.0-261.0","okhto9fo","","","null","","Agent B","scrambled","STIM_SET_2/285684.bmp_pp80_L3_V1.0_scrambled_freeview_isoTrue.mp4",""
"","","","call-function","262","1166591","0.0-262.0","okhto9fo","","","","","","","",""
"3943.340000000084","{""judgement"":0}","[0]","survey-likert","263","1170535","0.0-263.0","okhto9fo","","","","","","","","0"
"1718.1999999999534","{""confidence"":1}","[0]","survey-likert","264","1172254","0.0-264.0","okhto9fo","","","","","","","",""
"","","","call-function","265","1172254","0.0-265.0","okhto9fo","","","","","","","",""
"null","","","html-keyboard-response","266","1173755","0.0-266.0","okhto9fo","","<span style=""color:Black; font-size:50px;"">Agent A","null","","","","",""
"null","","","video-keyboard-response","267","1176821","0.0-267.0","okhto9fo","","","null","","Agent A","scrambled","STIM_SET_2/1592951.bmp_pp80_L3_V1.0_scrambled_freeview_isoTrue.mp4",""
"null","","","html-keyboard-response","268","1178328","0.0-268.0","okhto9fo","","<span style=""color:Black; font-size:50px;"">Agent B","null","","","","",""
"null","","","video-keyboard-response","269","1181392","0.0-269.0","okhto9fo","","","null","","Agent B","veridical","STIM_SET_2/1592951.bmp_pp80_L3_V1.0_veridical_freeview_isoTrue.mp4",""
"","","","call-function","270","1181392","0.0-270.0","okhto9fo","","","","","","","",""
"3544.840000000084","{""judgement"":0}","[0]","survey-likert","271","1184938","0.0-271.0","okhto9fo","","","","","","","","1"
"1523.1799999999348","{""confidence"":0}","[0]","survey-likert","272","1186463","0.0-272.0","okhto9fo","","","","","","","",""
"","","","call-function","273","1186463","0.0-273.0","okhto9fo","","","","","","","",""
"null","","","html-keyboard-response","274","1187965","0.0-274.0","okhto9fo","","<span style=""color:Black; font-size:50px;"">Agent A","null","","","","",""
"null","","","video-keyboard-response","275","1191076","0.0-275.0","okhto9fo","","","null","","Agent A","veridical","STIM_SET_2/285959.bmp_pp93_L1_V1.0_veridical_freeview_isoTrue.mp4",""
"null","","","html-keyboard-response","276","1192583","0.0-276.0","okhto9fo","","<span style=""color:Black; font-size:50px;"">Agent B","null","","","","",""
"null","","","video-keyboard-response","277","1195686","0.0-277.0","okhto9fo","","","null","","Agent B","scrambled","STIM_SET_2/285959.bmp_pp93_L1_V1.0_scrambled_freeview_isoTrue.mp4",""
"","","","call-function","278","1195686","0.0-278.0","okhto9fo","","","","","","","",""
"4763.820000000065","{""judgement"":0}","[0]","survey-likert","279","1200451","0.0-279.0","okhto9fo","","","","","","","","0"
"3461.0149999998976","{""confidence"":2}","[0]","survey-likert","280","1203913","0.0-280.0","okhto9fo","","","","","","","",""
"","","","call-function","281","1203913","0.0-281.0","okhto9fo","","","","","","","",""
"null","","","html-keyboard-response","282","1205416","0.0-282.0","okhto9fo","","<span style=""color:Black; font-size:50px;"">Agent A","null","","","","",""
"null","","","video-keyboard-response","283","1208519","0.0-283.0","okhto9fo","","","null","","Agent A","veridical","STIM_SET_2/713770.bmp_pp89_L1_V1.0_veridical_freeview_isoTrue.mp4",""
"null","","","html-keyboard-response","284","1210022","0.0-284.0","okhto9fo","","<span style=""color:Black; font-size:50px;"">Agent B","null","","","","",""
"null","","","video-keyboard-response","285","1213128","0.0-285.0","okhto9fo","","","null","","Agent B","scrambled","STIM_SET_2/713770.bmp_pp89_L1_V1.0_scrambled_freeview_isoTrue.mp4",""
"","","","call-function","286","1213129","0.0-286.0","okhto9fo","","","","","","","",""
"2786.6800000001676","{""judgement"":1}","[0]","survey-likert","287","1215917","0.0-287.0","okhto9fo","","","","","","","","0"
"1774.1000000000931","{""confidence"":1}","[0]","survey-likert","288","1217692","0.0-288.0","okhto9fo","","","","","","","",""
"","","","call-function","289","1217692","0.0-289.0","okhto9fo","","","","","","","",""
"null","","","html-keyboard-response","290","1219198","0.0-290.0","okhto9fo","","<span style=""color:Black; font-size:50px;"">Agent A","null","","","","",""
"null","","","video-keyboard-response","291","1222301","0.0-291.0","okhto9fo","","","null","","Agent A","veridical","STIM_SET_2/498396.bmp_pp99_L2_V1.0_veridical_freeview_isoTrue.mp4",""
"null","","","html-keyboard-response","292","1223804","0.0-292.0","okhto9fo","","<span style=""color:Black; font-size:50px;"">Agent B","null","","","","",""
"null","","","video-keyboard-response","293","1226876","0.0-293.0","okhto9fo","","","null","","Agent B","scrambled","STIM_SET_2/498396.bmp_pp99_L2_V1.0_scrambled_freeview_isoTrue.mp4",""
"","","","call-function","294","1226876","0.0-294.0","okhto9fo","","","","","","","",""
"16600.449999999953","{""judgement"":0}","[0]","survey-likert","295","1243478","0.0-295.0","okhto9fo","","","","","","","","0"
"1873.3050000001676","{""confidence"":0}","[0]","survey-likert","296","1245352","0.0-296.0","okhto9fo","","","","","","","",""
"","","","call-function","297","1245352","0.0-297.0","okhto9fo","","","","","","","",""
"null","","","html-keyboard-response","298","1246853","0.0-298.0","okhto9fo","","<span style=""color:Black; font-size:50px;"">Agent A","null","","","","",""
"null","","","video-keyboard-response","299","1249918","0.0-299.0","okhto9fo","","","null","","Agent A","veridical","STIM_SET_2/1592047.bmp_pp51_L1_V1.0_veridical_freeview_isoTrue.mp4",""
"null","","","html-keyboard-response","300","1251422","0.0-300.0","okhto9fo","","<span style=""color:Black; font-size:50px;"">Agent B","null","","","","",""
"null","","","video-keyboard-response","301","1254491","0.0-301.0","okhto9fo","","","null","","Agent B","scrambled","STIM_SET_2/1592047.bmp_pp51_L1_V1.0_scrambled_freeview_isoTrue.mp4",""
"","","","call-function","302","1254492","0.0-302.0","okhto9fo","","","","","","","",""
"2434.4499999999534","{""judgement"":1}","[0]","survey-likert","303","1256928","0.0-303.0","okhto9fo","","","","","","","","0"
"1909.8400000000838","{""confidence"":0}","[0]","survey-likert","304","1258840","0.0-304.0","okhto9fo","","","","","","","",""
"","","","call-function","305","1258841","0.0-305.0","okhto9fo","","","","","","","",""
"null","","","html-keyboard-response","306","1260344","0.0-306.0","okhto9fo","","<span style=""color:Black; font-size:50px;"">Agent A","null","","","","",""
"null","","","video-keyboard-response","307","1263424","0.0-307.0","okhto9fo","","","null","","Agent A","scrambled","STIM_SET_2/713381.bmp_pp82_L2_V1.0_scrambled_freeview_isoTrue.mp4",""
"null","","","html-keyboard-response","308","1264926","0.0-308.0","okhto9fo","","<span style=""color:Black; font-size:50px;"">Agent B","null","","","","",""
"null","","","video-keyboard-response","309","1268004","0.0-309.0","okhto9fo","","","null","","Agent B","veridical","STIM_SET_2/713381.bmp_pp82_L2_V1.0_veridical_freeview_isoTrue.mp4",""
"","","","call-function","310","1268005","0.0-310.0","okhto9fo","","","","","","","",""
"2610.3349999999627","{""judgement"":0}","[0]","survey-likert","311","1270616","0.0-311.0","okhto9fo","","","","","","","","1"
"1807.5550000001676","{""confidence"":2}","[0]","survey-likert","312","1272425","0.0-312.0","okhto9fo","","","","","","","",""
"","","","call-function","313","1272426","0.0-313.0","okhto9fo","","","","","","","",""
"null","","","html-keyboard-response","314","1273932","0.0-314.0","okhto9fo","","<span style=""color:Black; font-size:50px;"">Agent A","null","","","","",""
"null","","","video-keyboard-response","315","1277009","0.0-315.0","okhto9fo","","","null","","Agent A","veridical","STIM_SET_2/713788.bmp_pp52_L1_V1.0_veridical_freeview_isoTrue.mp4",""
"null","","","html-keyboard-response","316","1278510","0.0-316.0","okhto9fo","","<span style=""color:Black; font-size:50px;"">Agent B","null","","","","",""
"null","","","video-keyboard-response","317","1281584","0.0-317.0","okhto9fo","","","null","","Agent B","scrambled","STIM_SET_2/713788.bmp_pp52_L1_V1.0_scrambled_freeview_isoTrue.mp4",""
"","","","call-function","318","1281585","0.0-318.0","okhto9fo","","","","","","","",""
"1710.630000000121","{""judgement"":0}","[0]","survey-likert","319","1283296","0.0-319.0","okhto9fo","","","","","","","","0"
"5328.834999999963","{""confidence"":3}","[0]","survey-likert","320","1288626","0.0-320.0","okhto9fo","","","","","","","",""
"","","","call-function","321","1288627","0.0-321.0","okhto9fo","","","","","","","",""
"null","","","html-keyboard-response","322","1290129","0.0-322.0","okhto9fo","","<span style=""color:Black; font-size:50px;"">Agent A","null","","","","",""
"null","","","video-keyboard-response","323","1293225","0.0-323.0","okhto9fo","","","null","","Agent A","veridical","STIM_SET_2/713829.bmp_pp60_L3_V1.0_veridical_freeview_isoTrue.mp4",""
"null","","","html-keyboard-response","324","1294731","0.0-324.0","okhto9fo","","<span style=""color:Black; font-size:50px;"">Agent B","null","","","","",""
"null","","","video-keyboard-response","325","1297826","0.0-325.0","okhto9fo","","","null","","Agent B","scrambled","STIM_SET_2/713829.bmp_pp60_L3_V1.0_scrambled_freeview_isoTrue.mp4",""
"","","","call-function","326","1297827","0.0-326.0","okhto9fo","","","","","","","",""
"3383.5500000000466","{""judgement"":0}","[0]","survey-likert","327","1301211","0.0-327.0","okhto9fo","","","","","","","","0"
"1982.7700000000186","{""confidence"":1}","[0]","survey-likert","328","1303195","0.0-328.0","okhto9fo","","","","","","","",""
"","","","call-function","329","1303195","0.0-329.0","okhto9fo","","","","","","","",""
"null","","","html-keyboard-response","330","1304702","0.0-330.0","okhto9fo","","<span style=""color:Black; font-size:50px;"">Agent A","null","","","","",""
"null","","","video-keyboard-response","331","1307805","0.0-331.0","okhto9fo","","","null","","Agent A","scrambled","STIM_SET_2/1159874.bmp_pp96_L2_V1.0_scrambled_freeview_isoTrue.mp4",""
"null","","","html-keyboard-response","332","1309312","0.0-332.0","okhto9fo","","<span style=""color:Black; font-size:50px;"">Agent B","null","","","","",""
"null","","","video-keyboard-response","333","1312413","0.0-333.0","okhto9fo","","","null","","Agent B","veridical","STIM_SET_2/1159874.bmp_pp96_L2_V1.0_veridical_freeview_isoTrue.mp4",""
"","","","call-function","334","1312414","0.0-334.0","okhto9fo","","","","","","","",""
"2535.850000000093","{""judgement"":1}","[0]","survey-likert","335","1314951","0.0-335.0","okhto9fo","","","","","","","","1"
"2714.904999999795","{""confidence"":2}","[0]","survey-likert","336","1317667","0.0-336.0","okhto9fo","","","","","","","",""
"328520.4099999999","","","instructions","337","1646189","0.0-337.0","okhto9fo","[{""page_index"":0,""viewing_time"":2713.445000000065},{""page_index"":1,""viewing_time"":324562.08499999996},{""page_index"":2,""viewing_time"":1244.719999999972}]","","","","","","",""
"3171.6800000001676","","","instructions","338","1649362","0.0-338.0","okhto9fo","[{""page_index"":0,""viewing_time"":969.3900000001304},{""page_index"":1,""viewing_time"":1537.125},{""page_index"":2,""viewing_time"":665.059999999823}]","","","","","","",""
"","","","call-function","339","1649363","0.0-339.0","okhto9fo","","","","","","","",""
"null","","","html-keyboard-response","340","1650865","0.0-340.0","okhto9fo","","<span style=""color:Black; font-size:50px;"">Agent A","null","","","","",""
"null","","","video-keyboard-response","341","1653931","0.0-341.0","okhto9fo","","","null","","Agent A","veridical","STIM_SET_2/1160049.bmp_pp53_L2_V1.0_veridical_freeview_isoTrue.mp4",""
"null","","","html-keyboard-response","342","1655434","0.0-342.0","okhto9fo","","<span style=""color:Black; font-size:50px;"">Agent B","null","","","","",""
"null","","","video-keyboard-response","343","1658504","0.0-343.0","okhto9fo","","","null","","Agent B","scrambled","STIM_SET_2/1160049.bmp_pp53_L2_V1.0_scrambled_freeview_isoTrue.mp4",""
"","","","call-function","344","1658504","0.0-344.0","okhto9fo","","","","","","","",""
"2249.7650000001304","{""judgement"":0}","[0]","survey-likert","345","1660755","0.0-345.0","okhto9fo","","","","","","","","0"
"3180.219999999972","{""confidence"":3}","[0]","survey-likert","346","1663937","0.0-346.0","okhto9fo","","","","","","","",""
"","","","call-function","347","1663937","0.0-347.0","okhto9fo","","","","","","","",""
"null","","","html-keyboard-response","348","1665439","0.0-348.0","okhto9fo","","<span style=""color:Black; font-size:50px;"">Agent A","null","","","","",""
"null","","","video-keyboard-response","349","1668508","0.0-349.0","okhto9fo","","","null","","Agent A","scrambled","STIM_SET_2/285932.bmp_pp64_L1_V1.0_scrambled_freeview_isoTrue.mp4",""
"null","","","html-keyboard-response","350","1670014","0.0-350.0","okhto9fo","","<span style=""color:Black; font-size:50px;"">Agent B","null","","","","",""
"null","","","video-keyboard-response","351","1673079","0.0-351.0","okhto9fo","","","null","","Agent B","veridical","STIM_SET_2/285932.bmp_pp64_L1_V1.0_veridical_freeview_isoTrue.mp4",""
"","","","call-function","352","1673080","0.0-352.0","okhto9fo","","","","","","","",""
"2645.784999999916","{""judgement"":1}","[0]","survey-likert","353","1675726","0.0-353.0","okhto9fo","","","","","","","","1"
"2586.9950000001118","{""confidence"":2}","[0]","survey-likert","354","1678314","0.0-354.0","okhto9fo","","","","","","","",""
"","","","call-function","355","1678315","0.0-355.0","okhto9fo","","","","","","","",""
"null","","","html-keyboard-response","356","1679820","0.0-356.0","okhto9fo","","<span style=""color:Black; font-size:50px;"">Agent A","null","","","","",""
"null","","","video-keyboard-response","357","1682920","0.0-357.0","okhto9fo","","","null","","Agent A","veridical","STIM_SET_2/1160247.bmp_pp54_L2_V1.0_veridical_freeview_isoTrue.mp4",""
"null","","","html-keyboard-response","358","1684423","0.0-358.0","okhto9fo","","<span style=""color:Black; font-size:50px;"">Agent B","null","","","","",""
"null","","","video-keyboard-response","359","1687520","0.0-359.0","okhto9fo","","","null","","Agent B","scrambled","STIM_SET_2/1160247.bmp_pp54_L2_V1.0_scrambled_freeview_isoTrue.mp4",""
"","","","call-function","360","1687520","0.0-360.0","okhto9fo","","","","","","","",""
"4459.014999999898","{""judgement"":1}","[0]","survey-likert","361","1691980","0.0-361.0","okhto9fo","","","","","","","","0"
"3539.3600000001024","{""confidence"":1}","[0]","survey-likert","362","1695520","0.0-362.0","okhto9fo","","","","","","","",""
"","","","call-function","363","1695521","0.0-363.0","okhto9fo","","","","","","","",""
"null","","","html-keyboard-response","364","1697023","0.0-364.0","okhto9fo","","<span style=""color:Black; font-size:50px;"">Agent A","null","","","","",""
"null","","","video-keyboard-response","365","1700125","0.0-365.0","okhto9fo","","","null","","Agent A","scrambled","STIM_SET_2/713633.bmp_pp58_L1_V1.0_scrambled_freeview_isoTrue.mp4",""
"null","","","html-keyboard-response","366","1701627","0.0-366.0","okhto9fo","","<span style=""color:Black; font-size:50px;"">Agent B","null","","","","",""
"null","","","video-keyboard-response","367","1704730","0.0-367.0","okhto9fo","","","null","","Agent B","veridical","STIM_SET_2/713633.bmp_pp58_L1_V1.0_veridical_freeview_isoTrue.mp4",""
"","","","call-function","368","1704730","0.0-368.0","okhto9fo","","","","","","","",""
"19530.419999999925","{""judgement"":0}","[0]","survey-likert","369","1724262","0.0-369.0","okhto9fo","","","","","","","","1"
"1407.7549999998882","{""confidence"":0}","[0]","survey-likert","370","1725672","0.0-370.0","okhto9fo","","","","","","","",""
"","","","call-function","371","1725673","0.0-371.0","okhto9fo","","","","","","","",""
"null","","","html-keyboard-response","372","1727177","0.0-372.0","okhto9fo","","<span style=""color:Black; font-size:50px;"">Agent A","null","","","","",""
"null","","","video-keyboard-response","373","1730251","0.0-373.0","okhto9fo","","","null","","Agent A","veridical","STIM_SET_2/1592921.bmp_pp69_L3_V1.0_veridical_freeview_isoTrue.mp4",""
"null","","","html-keyboard-response","374","1731755","0.0-374.0","okhto9fo","","<span style=""color:Black; font-size:50px;"">Agent B","null","","","","",""
"null","","","video-keyboard-response","375","1734831","0.0-375.0","okhto9fo","","","null","","Agent B","scrambled","STIM_SET_2/1592921.bmp_pp69_L3_V1.0_scrambled_freeview_isoTrue.mp4",""
"","","","call-function","376","1734831","0.0-376.0","okhto9fo","","","","","","","",""
"7866.060000000056","{""judgement"":1}","[0]","survey-likert","377","1742698","0.0-377.0","okhto9fo","","","","","","","","0"
"1332.8899999998976","{""confidence"":1}","[0]","survey-likert","378","1744032","0.0-378.0","okhto9fo","","","","","","","",""
"","","","call-function","379","1744033","0.0-379.0","okhto9fo","","","","","","","",""
"null","","","html-keyboard-response","380","1745536","0.0-380.0","okhto9fo","","<span style=""color:Black; font-size:50px;"">Agent A","null","","","","",""
"null","","","video-keyboard-response","381","1748612","0.0-381.0","okhto9fo","","","null","","Agent A","scrambled","STIM_SET_2/1159508.bmp_pp151_L1_V1.0_scrambled_freeview_isoTrue.mp4",""
"null","","","html-keyboard-response","382","1750117","0.0-382.0","okhto9fo","","<span style=""color:Black; font-size:50px;"">Agent B","null","","","","",""
"null","","","video-keyboard-response","383","1753188","0.0-383.0","okhto9fo","","","null","","Agent B","veridical","STIM_SET_2/1159508.bmp_pp151_L1_V1.0_veridical_freeview_isoTrue.mp4",""
"","","","call-function","384","1753189","0.0-384.0","okhto9fo","","","","","","","",""
"1884.6949999998324","{""judgement"":1}","[0]","survey-likert","385","1755074","0.0-385.0","okhto9fo","","","","","","","","1"
"1664.5250000001397","{""confidence"":2}","[0]","survey-likert","386","1756740","0.0-386.0","okhto9fo","","","","","","","",""
"","","","call-function","387","1756740","0.0-387.0","okhto9fo","","","","","","","",""
"null","","","html-keyboard-response","388","1758242","0.0-388.0","okhto9fo","","<span style=""color:Black; font-size:50px;"">Agent A","null","","","","",""
"null","","","video-keyboard-response","389","1761349","0.0-389.0","okhto9fo","","","null","","Agent A","scrambled","STIM_SET_2/713790.bmp_pp100_L3_V1_scrambled_freeview_isoTrue.mp4",""
"null","","","html-keyboard-response","390","1762851","0.0-390.0","okhto9fo","","<span style=""color:Black; font-size:50px;"">Agent B","null","","","","",""
"null","","","video-keyboard-response","391","1765961","0.0-391.0","okhto9fo","","","null","","Agent B","veridical","STIM_SET_2/713790.bmp_pp100_L3_V1_veridical_freeview_isoTrue.mp4",""
"","","","call-function","392","1765961","0.0-392.0","okhto9fo","","","","","","","",""
"3671.3000000000466","{""judgement"":1}","[0]","survey-likert","393","1769633","0.0-393.0","okhto9fo","","","","","","","","1"
"1919.030000000028","{""confidence"":0}","[0]","survey-likert","394","1771553","0.0-394.0","okhto9fo","","","","","","","",""
"","","","call-function","395","1771554","0.0-395.0","okhto9fo","","","","","","","",""
"null","","","html-keyboard-response","396","1773058","0.0-396.0","okhto9fo","","<span style=""color:Black; font-size:50px;"">Agent A","null","","","","",""
"null","","","video-keyboard-response","397","1776153","0.0-397.0","okhto9fo","","","null","","Agent A","scrambled","STIM_SET_2/1159956.bmp_pp59_L3_V1.0_scrambled_freeview_isoTrue.mp4",""
"null","","","html-keyboard-response","398","1777656","0.0-398.0","okhto9fo","","<span style=""color:Black; font-size:50px;"">Agent B","null","","","","",""
"null","","","video-keyboard-response","399","1780754","0.0-399.0","okhto9fo","","","null","","Agent B","veridical","STIM_SET_2/1159956.bmp_pp59_L3_V1.0_veridical_freeview_isoTrue.mp4",""
"","","","call-function","400","1780754","0.0-400.0","okhto9fo","","","","","","","",""
"4121.239999999991","{""judgement"":0}","[0]","survey-likert","401","1784876","0.0-401.0","okhto9fo","","","","","","","","1"
"1860.0750000001863","{""confidence"":0}","[0]","survey-likert","402","1786737","0.0-402.0","okhto9fo","","","","","","","",""
"","","","call-function","403","1786738","0.0-403.0","okhto9fo","","","","","","","",""
"null","","","html-keyboard-response","404","1788240","0.0-404.0","okhto9fo","","<span style=""color:Black; font-size:50px;"">Agent A","null","","","","",""
"null","","","video-keyboard-response","405","1791344","0.0-405.0","okhto9fo","","","null","","Agent A","scrambled","STIM_SET_2/150463.bmp_pp55_L3_V1.0_scrambled_freeview_isoTrue.mp4",""
"null","","","html-keyboard-response","406","1792848","0.0-406.0","okhto9fo","","<span style=""color:Black; font-size:50px;"">Agent B","null","","","","",""
"null","","","video-keyboard-response","407","1795918","0.0-407.0","okhto9fo","","","null","","Agent B","veridical","STIM_SET_2/150463.bmp_pp55_L3_V1.0_veridical_freeview_isoTrue.mp4",""
"","","","call-function","408","1795918","0.0-408.0","okhto9fo","","","","","","","",""
"2594.7299999999814","{""judgement"":1}","[0]","survey-likert","409","1798514","0.0-409.0","okhto9fo","","","","","","","","1"
"1931.3900000001304","{""confidence"":0}","[0]","survey-likert","410","1800446","0.0-410.0","okhto9fo","","","","","","","",""
"","","","call-function","411","1800447","0.0-411.0","okhto9fo","","","","","","","",""
"null","","","html-keyboard-response","412","1801950","0.0-412.0","okhto9fo","","<span style=""color:Black; font-size:50px;"">Agent A","null","","","","",""
"null","","","video-keyboard-response","413","1805031","0.0-413.0","okhto9fo","","","null","","Agent A","scrambled","STIM_SET_2/713742.bmp_pp91_L3_V1.0_scrambled_freeview_isoTrue.mp4",""
"null","","","html-keyboard-response","414","1806534","0.0-414.0","okhto9fo","","<span style=""color:Black; font-size:50px;"">Agent B","null","","","","",""
"null","","","video-keyboard-response","415","1809644","0.0-415.0","okhto9fo","","","null","","Agent B","veridical","STIM_SET_2/713742.bmp_pp91_L3_V1.0_veridical_freeview_isoTrue.mp4",""
"","","","call-function","416","1809644","0.0-416.0","okhto9fo","","","","","","","",""
"1604.2099999999627","{""judgement"":1}","[0]","survey-likert","417","1811249","0.0-417.0","okhto9fo","","","","","","","","1"
"1842.119999999879","{""confidence"":3}","[0]","survey-likert","418","1813092","0.0-418.0","okhto9fo","","","","","","","",""
"357149.64000000013","","","instructions","419","2170243","0.0-419.0","okhto9fo","[{""page_index"":0,""viewing_time"":1910.280000000028},{""page_index"":1,""viewing_time"":354403.76},{""page_index"":2,""viewing_time"":835.4449999998324}]","","","","","","",""
"2975.220000000205","","","instructions","420","2173219","0.0-420.0","okhto9fo","[{""page_index"":0,""viewing_time"":670.1749999998137},{""page_index"":1,""viewing_time"":1515.9250000002794},{""page_index"":2,""viewing_time"":788.9849999998696}]","","","","","","",""
"","","","call-function","421","2173219","0.0-421.0","okhto9fo","","","","","","","",""
"null","","","html-keyboard-response","422","2174724","0.0-422.0","okhto9fo","","<span style=""color:Black; font-size:50px;"">Agent A","null","","","","",""
"null","","","video-keyboard-response","423","2177789","0.0-423.0","okhto9fo","","","null","","Agent A","scrambled","STIM_SET_2/286034.bmp_pp69_L3_V1.0_scrambled_freeview_isoTrue.mp4",""
"null","","","html-keyboard-response","424","2179292","0.0-424.0","okhto9fo","","<span style=""color:Black; font-size:50px;"">Agent B","null","","","","",""
"null","","","video-keyboard-response","425","2182360","0.0-425.0","okhto9fo","","","null","","Agent B","veridical","STIM_SET_2/286034.bmp_pp69_L3_V1.0_veridical_freeview_isoTrue.mp4",""
"","","","call-function","426","2182361","0.0-426.0","okhto9fo","","","","","","","",""
"2003.8100000000559","{""judgement"":1}","[0]","survey-likert","427","2184366","0.0-427.0","okhto9fo","","","","","","","","1"
"1818.089999999851","{""confidence"":0}","[0]","survey-likert","428","2186186","0.0-428.0","okhto9fo","","","","","","","",""
"","","","call-function","429","2186187","0.0-429.0","okhto9fo","","","","","","","",""
"null","","","html-keyboard-response","430","2187692","0.0-430.0","okhto9fo","","<span style=""color:Black; font-size:50px;"">Agent A","null","","","","",""
"null","","","video-keyboard-response","431","2190761","0.0-431.0","okhto9fo","","","null","","Agent A","veridical","STIM_SET_2/1591975.bmp_pp88_L2_V1.0_veridical_freeview_isoTrue.mp4",""
"null","","","html-keyboard-response","432","2192265","0.0-432.0","okhto9fo","","<span style=""color:Black; font-size:50px;"">Agent B","null","","","","",""
"null","","","video-keyboard-response","433","2195334","0.0-433.0","okhto9fo","","","null","","Agent B","scrambled","STIM_SET_2/1591975.bmp_pp88_L2_V1.0_scrambled_freeview_isoTrue.mp4",""
"","","","call-function","434","2195335","0.0-434.0","okhto9fo","","","","","","","",""
"1750.1149999997579","{""judgement"":0}","[0]","survey-likert","435","2197086","0.0-435.0","okhto9fo","","","","","","","","0"
"1491.3900000001304","{""confidence"":2}","[0]","survey-likert","436","2198578","0.0-436.0","okhto9fo","","","","","","","",""
"","","","call-function","437","2198579","0.0-437.0","okhto9fo","","","","","","","",""
"null","","","html-keyboard-response","438","2200081","0.0-438.0","okhto9fo","","<span style=""color:Black; font-size:50px;"">Agent A","null","","","","",""
"null","","","video-keyboard-response","439","2203156","0.0-439.0","okhto9fo","","","null","","Agent A","veridical","STIM_SET_2/1592025.bmp_pp68_L1_V1.0_veridical_freeview_isoTrue.mp4",""
"null","","","html-keyboard-response","440","2204662","0.0-440.0","okhto9fo","","<span style=""color:Black; font-size:50px;"">Agent B","null","","","","",""
"null","","","video-keyboard-response","441","2207736","0.0-441.0","okhto9fo","","","null","","Agent B","scrambled","STIM_SET_2/1592025.bmp_pp68_L1_V1.0_scrambled_freeview_isoTrue.mp4",""
"","","","call-function","442","2207736","0.0-442.0","okhto9fo","","","","","","","",""
"2191.339999999851","{""judgement"":0}","[0]","survey-likert","443","2209929","0.0-443.0","okhto9fo","","","","","","","","0"
"2526.725000000093","{""confidence"":2}","[0]","survey-likert","444","2212456","0.0-444.0","okhto9fo","","","","","","","",""
"","","","call-function","445","2212457","0.0-445.0","okhto9fo","","","","","","","",""
"null","","","html-keyboard-response","446","2213961","0.0-446.0","okhto9fo","","<span style=""color:Black; font-size:50px;"">Agent A","null","","","","",""
"null","","","video-keyboard-response","447","2217068","0.0-447.0","okhto9fo","","","null","","Agent A","scrambled","STIM_SET_2/107909.bmp_pp95_L2_V1.0_scrambled_freeview_isoTrue.mp4",""
"null","","","html-keyboard-response","448","2218572","0.0-448.0","okhto9fo","","<span style=""color:Black; font-size:50px;"">Agent B","null","","","","",""
"null","","","video-keyboard-response","449","2221677","0.0-449.0","okhto9fo","","","null","","Agent B","veridical","STIM_SET_2/107909.bmp_pp95_L2_V1.0_veridical_freeview_isoTrue.mp4",""
"","","","call-function","450","2221678","0.0-450.0","okhto9fo","","","","","","","",""
"2675.885000000242","{""judgement"":1}","[0]","survey-likert","451","2224355","0.0-451.0","okhto9fo","","","","","","","","1"
"3562.2299999999814","{""confidence"":1}","[0]","survey-likert","452","2227918","0.0-452.0","okhto9fo","","","","","","","",""
"","","","call-function","453","2227919","0.0-453.0","okhto9fo","","","","","","","",""
"null","","","html-keyboard-response","454","2229420","0.0-454.0","okhto9fo","","<span style=""color:Black; font-size:50px;"">Agent A","null","","","","",""
"null","","","video-keyboard-response","455","2232526","0.0-455.0","okhto9fo","","","null","","Agent A","scrambled","STIM_SET_2/713274.bmp_pp73_L3_V1.0_scrambled_freeview_isoTrue.mp4",""
"null","","","html-keyboard-response","456","2234030","0.0-456.0","okhto9fo","","<span style=""color:Black; font-size:50px;"">Agent B","null","","","","",""
"null","","","video-keyboard-response","457","2237131","0.0-457.0","okhto9fo","","","null","","Agent B","veridical","STIM_SET_2/713274.bmp_pp73_L3_V1.0_veridical_freeview_isoTrue.mp4",""
"","","","call-function","458","2237131","0.0-458.0","okhto9fo","","","","","","","",""
"1899.1049999999814","{""judgement"":0}","[0]","survey-likert","459","2239031","0.0-459.0","okhto9fo","","","","","","","","1"
"1279.0500000002794","{""confidence"":2}","[0]","survey-likert","460","2240311","0.0-460.0","okhto9fo","","","","","","","",""
"","","","call-function","461","2240312","0.0-461.0","okhto9fo","","","","","","","",""
"null","","","html-keyboard-response","462","2241814","0.0-462.0","okhto9fo","","<span style=""color:Black; font-size:50px;"">Agent A","null","","","","",""
"null","","","video-keyboard-response","463","2244901","0.0-463.0","okhto9fo","","","null","","Agent A","scrambled","STIM_SET_2/285715.bmp_pp67_L2_V1.0_scrambled_freeview_isoTrue.mp4",""
"null","","","html-keyboard-response","464","2246403","0.0-464.0","okhto9fo","","<span style=""color:Black; font-size:50px;"">Agent B","null","","","","",""
"null","","","video-keyboard-response","465","2249483","0.0-465.0","okhto9fo","","","null","","Agent B","veridical","STIM_SET_2/285715.bmp_pp67_L2_V1.0_veridical_freeview_isoTrue.mp4",""
"","","","call-function","466","2249484","0.0-466.0","okhto9fo","","","","","","","",""
"2493.8400000003166","{""judgement"":1}","[0]","survey-likert","467","2251978","0.0-467.0","okhto9fo","","","","","","","","1"
"2327.6800000001676","{""confidence"":3}","[0]","survey-likert","468","2254307","0.0-468.0","okhto9fo","","","","","","","",""
"","","","call-function","469","2254308","0.0-469.0","okhto9fo","","","","","","","",""
"null","","","html-keyboard-response","470","2255810","0.0-470.0","okhto9fo","","<span style=""color:Black; font-size:50px;"">Agent A","null","","","","",""
"null","","","video-keyboard-response","471","2258878","0.0-471.0","okhto9fo","","","null","","Agent A","scrambled","STIM_SET_2/1592129.bmp_pp153_L3_V1.0_scrambled_freeview_isoTrue.mp4",""
"null","","","html-keyboard-response","472","2260383","0.0-472.0","okhto9fo","","<span style=""color:Black; font-size:50px;"">Agent B","null","","","","",""
"null","","","video-keyboard-response","473","2263461","0.0-473.0","okhto9fo","","","null","","Agent B","veridical","STIM_SET_2/1592129.bmp_pp153_L3_V1.0_veridical_freeview_isoTrue.mp4",""
"","","","call-function","474","2263463","0.0-474.0","okhto9fo","","","","","","","",""
"1666.904999999795","{""judgement"":1}","[0]","survey-likert","475","2265133","0.0-475.0","okhto9fo","","","","","","","","1"
"2341.845000000205","{""confidence"":2}","[0]","survey-likert","476","2267476","0.0-476.0","okhto9fo","","","","","","","",""
"","","","call-function","477","2267478","0.0-477.0","okhto9fo","","","","","","","",""
"null","","","html-keyboard-response","478","2268981","0.0-478.0","okhto9fo","","<span style=""color:Black; font-size:50px;"">Agent A","null","","","","",""
"null","","","video-keyboard-response","479","2272056","0.0-479.0","okhto9fo","","","null","","Agent A","scrambled","STIM_SET_2/1160189.bmp_pp64_L1_V1.0_scrambled_freeview_isoTrue.mp4",""
"null","","","html-keyboard-response","480","2273563","0.0-480.0","okhto9fo","","<span style=""color:Black; font-size:50px;"">Agent B","null","","","","",""
"null","","","video-keyboard-response","481","2276636","0.0-481.0","okhto9fo","","","null","","Agent B","veridical","STIM_SET_2/1160189.bmp_pp64_L1_V1.0_veridical_freeview_isoTrue.mp4",""
"","","","call-function","482","2276636","0.0-482.0","okhto9fo","","","","","","","",""
"1686.679999999702","{""judgement"":1}","[0]","survey-likert","483","2278324","0.0-483.0","okhto9fo","","","","","","","","1"
"1252.8900000001304","{""confidence"":2}","[0]","survey-likert","484","2279578","0.0-484.0","okhto9fo","","","","","","","",""
"","","","call-function","485","2279578","0.0-485.0","okhto9fo","","","","","","","",""
"null","","","html-keyboard-response","486","2281083","0.0-486.0","okhto9fo","","<span style=""color:Black; font-size:50px;"">Agent A","null","","","","",""
"null","","","video-keyboard-response","487","2284149","0.0-487.0","okhto9fo","","","null","","Agent A","scrambled","STIM_SET_2/1159392.bmp_pp96_L2_V1.0_scrambled_freeview_isoTrue.mp4",""
"null","","","html-keyboard-response","488","2285650","0.0-488.0","okhto9fo","","<span style=""color:Black; font-size:50px;"">Agent B","null","","","","",""
"null","","","video-keyboard-response","489","2288719","0.0-489.0","okhto9fo","","","null","","Agent B","veridical","STIM_SET_2/1159392.bmp_pp96_L2_V1.0_veridical_freeview_isoTrue.mp4",""
"","","","call-function","490","2288719","0.0-490.0","okhto9fo","","","","","","","",""
"2476.6450000000186","{""judgement"":0}","[0]","survey-likert","491","2291197","0.0-491.0","okhto9fo","","","","","","","","1"
"2352.149999999907","{""confidence"":1}","[0]","survey-likert","492","2293550","0.0-492.0","okhto9fo","","","","","","","",""
"","","","call-function","493","2293550","0.0-493.0","okhto9fo","","","","","","","",""
"null","","","html-keyboard-response","494","2295053","0.0-494.0","okhto9fo","","<span style=""color:Black; font-size:50px;"">Agent A","null","","","","",""
"null","","","video-keyboard-response","495","2298163","0.0-495.0","okhto9fo","","","null","","Agent A","scrambled","STIM_SET_2/1592568.bmp_pp71_L1_V1.0_scrambled_freeview_isoTrue.mp4",""
"null","","","html-keyboard-response","496","2299667","0.0-496.0","okhto9fo","","<span style=""color:Black; font-size:50px;"">Agent B","null","","","","",""
"null","","","video-keyboard-response","497","2302733","0.0-497.0","okhto9fo","","","null","","Agent B","veridical","STIM_SET_2/1592568.bmp_pp71_L1_V1.0_veridical_freeview_isoTrue.mp4",""
"","","","call-function","498","2302733","0.0-498.0","okhto9fo","","","","","","","",""
"2593.625","{""judgement"":1}","[0]","survey-likert","499","2305328","0.0-499.0","okhto9fo","","","","","","","","1"
"1618.2199999997392","{""confidence"":2}","[0]","survey-likert","500","2306947","0.0-500.0","okhto9fo","","","","","","","",""
"306970.2450000001","","","instructions","501","2613918","0.0-501.0","okhto9fo","[{""page_index"":0,""viewing_time"":1393.1800000001676},{""page_index"":1,""viewing_time"":304624.9249999998},{""page_index"":2,""viewing_time"":951.9849999998696}]","","","","","","",""
"3825.649999999907","","","instructions","502","2617744","0.0-502.0","okhto9fo","[{""page_index"":0,""viewing_time"":915.5299999997951},{""page_index"":1,""viewing_time"":1951.2000000001863},{""page_index"":2,""viewing_time"":958.7999999998137}]","","","","","","",""
"","","","call-function","503","2617745","0.0-503.0","okhto9fo","","","","","","","",""
"null","","","html-keyboard-response","504","2619246","0.0-504.0","okhto9fo","","<span style=""color:Black; font-size:50px;"">Agent A","null","","","","",""
"null","","","video-keyboard-response","505","2622315","0.0-505.0","okhto9fo","","","null","","Agent A","veridical","STIM_SET_2/713652.bmp_pp89_L1_V1_veridical_freeview_isoTrue.mp4",""
"null","","","html-keyboard-response","506","2623817","0.0-506.0","okhto9fo","","<span style=""color:Black; font-size:50px;"">Agent B","null","","","","",""
"null","","","video-keyboard-response","507","2626884","0.0-507.0","okhto9fo","","","null","","Agent B","scrambled","STIM_SET_2/713652.bmp_pp89_L1_V1_scrambled_freeview_isoTrue.mp4",""
"","","","call-function","508","2626885","0.0-508.0","okhto9fo","","","","","","","",""
"2997.9950000001118","{""judgement"":0}","[0]","survey-likert","509","2629883","0.0-509.0","okhto9fo","","","","","","","","0"
"1962.8999999999069","{""confidence"":1}","[0]","survey-likert","510","2631847","0.0-510.0","okhto9fo","","","","","","","",""
"","","","call-function","511","2631848","0.0-511.0","okhto9fo","","","","","","","",""
"null","","","html-keyboard-response","512","2633350","0.0-512.0","okhto9fo","","<span style=""color:Black; font-size:50px;"">Agent A","null","","","","",""
"null","","","video-keyboard-response","513","2636425","0.0-513.0","okhto9fo","","","null","","Agent A","scrambled","STIM_SET_2/1159819.bmp_pp151_L1_V1.0_scrambled_freeview_isoTrue.mp4",""
"null","","","html-keyboard-response","514","2637927","0.0-514.0","okhto9fo","","<span style=""color:Black; font-size:50px;"">Agent B","null","","","","",""
"null","","","video-keyboard-response","515","2641002","0.0-515.0","okhto9fo","","","null","","Agent B","veridical","STIM_SET_2/1159819.bmp_pp151_L1_V1.0_veridical_freeview_isoTrue.mp4",""
"","","","call-function","516","2641002","0.0-516.0","okhto9fo","","","","","","","",""
"3425.570000000298","{""judgement"":1}","[0]","survey-likert","517","2644428","0.0-517.0","okhto9fo","","","","","","","","1"
"1368.0349999996834","{""confidence"":2}","[0]","survey-likert","518","2645797","0.0-518.0","okhto9fo","","","","","","","",""
"","","","call-function","519","2645798","0.0-519.0","okhto9fo","","","","","","","",""
"null","","","html-keyboard-response","520","2647300","0.0-520.0","okhto9fo","","<span style=""color:Black; font-size:50px;"">Agent A","null","","","","",""
"null","","","video-keyboard-response","521","2650360","0.0-521.0","okhto9fo","","","null","","Agent A","veridical","STIM_SET_2/713328.bmp_pp86_L2_V1.0_veridical_freeview_isoTrue.mp4",""
"null","","","html-keyboard-response","522","2651863","0.0-522.0","okhto9fo","","<span style=""color:Black; font-size:50px;"">Agent B","null","","","","",""
"null","","","video-keyboard-response","523","2654923","0.0-523.0","okhto9fo","","","null","","Agent B","scrambled","STIM_SET_2/713328.bmp_pp86_L2_V1.0_scrambled_freeview_isoTrue.mp4",""
"","","","call-function","524","2654923","0.0-524.0","okhto9fo","","","","","","","",""
"2259.220000000205","{""judgement"":1}","[0]","survey-likert","525","2657183","0.0-525.0","okhto9fo","","","","","","","","0"
"1048.3449999997392","{""confidence"":2}","[0]","survey-likert","526","2658233","0.0-526.0","okhto9fo","","","","","","","",""
"","","","call-function","527","2658233","0.0-527.0","okhto9fo","","","","","","","",""
"null","","","html-keyboard-response","528","2659735","0.0-528.0","okhto9fo","","<span style=""color:Black; font-size:50px;"">Agent A","null","","","","",""
"null","","","video-keyboard-response","529","2662836","0.0-529.0","okhto9fo","","","null","","Agent A","veridical","STIM_SET_2/1592305.bmp_pp65_L3_V1.0_veridical_freeview_isoTrue.mp4",""
"null","","","html-keyboard-response","530","2664341","0.0-530.0","okhto9fo","","<span style=""color:Black; font-size:50px;"">Agent B","null","","","","",""
"null","","","video-keyboard-response","531","2667413","0.0-531.0","okhto9fo","","","null","","Agent B","scrambled","STIM_SET_2/1592305.bmp_pp65_L3_V1.0_scrambled_freeview_isoTrue.mp4",""
"","","","call-function","532","2667414","0.0-532.0","okhto9fo","","","","","","","",""
"2341.7000000001863","{""judgement"":1}","[0]","survey-likert","533","2669757","0.0-533.0","okhto9fo","","","","","","","","0"
"2574.2100000004284","{""confidence"":0}","[0]","survey-likert","534","2672334","0.0-534.0","okhto9fo","","","","","","","",""
"","","","call-function","535","2672334","0.0-535.0","okhto9fo","","","","","","","",""
"null","","","html-keyboard-response","536","2673838","0.0-536.0","okhto9fo","","<span style=""color:Black; font-size:50px;"">Agent A","null","","","","",""
"null","","","video-keyboard-response","537","2676910","0.0-537.0","okhto9fo","","","null","","Agent A","scrambled","STIM_SET_2/1592298.bmp_pp56_L3_V1.0_scrambled_freeview_isoTrue.mp4",""
"null","","","html-keyboard-response","538","2678414","0.0-538.0","okhto9fo","","<span style=""color:Black; font-size:50px;"">Agent B","null","","","","",""
"null","","","video-keyboard-response","539","2681490","0.0-539.0","okhto9fo","","","null","","Agent B","veridical","STIM_SET_2/1592298.bmp_pp56_L3_V1.0_veridical_freeview_isoTrue.mp4",""
"","","","call-function","540","2681490","0.0-540.0","okhto9fo","","","","","","","",""
"4079.5400000000373","{""judgement"":1}","[0]","survey-likert","541","2685571","0.0-541.0","okhto9fo","","","","","","","","1"
"2670.8900000001304","{""confidence"":2}","[0]","survey-likert","542","2688243","0.0-542.0","okhto9fo","","","","","","","",""
"","","","call-function","543","2688244","0.0-543.0","okhto9fo","","","","","","","",""
"null","","","html-keyboard-response","544","2689745","0.0-544.0","okhto9fo","","<span style=""color:Black; font-size:50px;"">Agent A","null","","","","",""
"null","","","video-keyboard-response","545","2692818","0.0-545.0","okhto9fo","","","null","","Agent A","scrambled","STIM_SET_2/498258.bmp_pp51_L1_V1.0_scrambled_freeview_isoTrue.mp4",""
"null","","","html-keyboard-response","546","2694320","0.0-546.0","okhto9fo","","<span style=""color:Black; font-size:50px;"">Agent B","null","","","","",""
"null","","","video-keyboard-response","547","2697392","0.0-547.0","okhto9fo","","","null","","Agent B","veridical","STIM_SET_2/498258.bmp_pp51_L1_V1.0_veridical_freeview_isoTrue.mp4",""
"","","","call-function","548","2697392","0.0-548.0","okhto9fo","","","","","","","",""
"2286.785000000149","{""judgement"":0}","[0]","survey-likert","549","2699680","0.0-549.0","okhto9fo","","","","","","","","1"
"1425.744999999646","{""confidence"":1}","[0]","survey-likert","550","2701107","0.0-550.0","okhto9fo","","","","","","","",""
"","","","call-function","551","2701107","0.0-551.0","okhto9fo","","","","","","","",""
"null","","","html-keyboard-response","552","2702608","0.0-552.0","okhto9fo","","<span style=""color:Black; font-size:50px;"">Agent A","null","","","","",""
"null","","","video-keyboard-response","553","2705714","0.0-553.0","okhto9fo","","","null","","Agent A","scrambled","STIM_SET_2/1592747.bmp_pp53_L2_V1.0_scrambled_freeview_isoTrue.mp4",""
"null","","","html-keyboard-response","554","2707221","0.0-554.0","okhto9fo","","<span style=""color:Black; font-size:50px;"">Agent B","null","","","","",""
"null","","","video-keyboard-response","555","2710321","0.0-555.0","okhto9fo","","","null","","Agent B","veridical","STIM_SET_2/1592747.bmp_pp53_L2_V1.0_veridical_freeview_isoTrue.mp4",""
"","","","call-function","556","2710322","0.0-556.0","okhto9fo","","","","","","","",""
"2429.0499999998137","{""judgement"":1}","[0]","survey-likert","557","2712752","0.0-557.0","okhto9fo","","","","","","","","1"
"1377.1299999998882","{""confidence"":1}","[0]","survey-likert","558","2714130","0.0-558.0","okhto9fo","","","","","","","",""
"","","","call-function","559","2714130","0.0-559.0","okhto9fo","","","","","","","",""
"null","","","html-keyboard-response","560","2715634","0.0-560.0","okhto9fo","","<span style=""color:Black; font-size:50px;"">Agent A","null","","","","",""
"null","","","video-keyboard-response","561","2718726","0.0-561.0","okhto9fo","","","null","","Agent A","veridical","STIM_SET_2/1592314.bmp_pp100_L3_V1.0_veridical_freeview_isoTrue.mp4",""
"null","","","html-keyboard-response","562","2720227","0.0-562.0","okhto9fo","","<span style=""color:Black; font-size:50px;"">Agent B","null","","","","",""
"null","","","video-keyboard-response","563","2723323","0.0-563.0","okhto9fo","","","null","","Agent B","scrambled","STIM_SET_2/1592314.bmp_pp100_L3_V1.0_scrambled_freeview_isoTrue.mp4",""
"","","","call-function","564","2723324","0.0-564.0","okhto9fo","","","","","","","",""
"4624.9550000000745","{""judgement"":1}","[0]","survey-likert","565","2727950","0.0-565.0","okhto9fo","","","","","","","","0"
"1236.0749999997206","{""confidence"":0}","[0]","survey-likert","566","2729187","0.0-566.0","okhto9fo","","","","","","","",""
"","","","call-function","567","2729187","0.0-567.0","okhto9fo","","","","","","","",""
"null","","","html-keyboard-response","568","2730688","0.0-568.0","okhto9fo","","<span style=""color:Black; font-size:50px;"">Agent A","null","","","","",""
"null","","","video-keyboard-response","569","2733792","0.0-569.0","okhto9fo","","","null","","Agent A","veridical","STIM_SET_2/713858.bmp_pp57_L1_V1.0_veridical_freeview_isoTrue.mp4",""
"null","","","html-keyboard-response","570","2735295","0.0-570.0","okhto9fo","","<span style=""color:Black; font-size:50px;"">Agent B","null","","","","",""
"null","","","video-keyboard-response","571","2738398","0.0-571.0","okhto9fo","","","null","","Agent B","scrambled","STIM_SET_2/713858.bmp_pp57_L1_V1.0_scrambled_freeview_isoTrue.mp4",""
"","","","call-function","572","2738399","0.0-572.0","okhto9fo","","","","","","","",""
"1393.2949999999255","{""judgement"":0}","[0]","survey-likert","573","2739793","0.0-573.0","okhto9fo","","","","","","","","0"
"1602.9399999999441","{""confidence"":2}","[0]","survey-likert","574","2741397","0.0-574.0","okhto9fo","","","","","","","",""
"","","","call-function","575","2741398","0.0-575.0","okhto9fo","","","","","","","",""
"null","","","html-keyboard-response","576","2742900","0.0-576.0","okhto9fo","","<span style=""color:Black; font-size:50px;"">Agent A","null","","","","",""
"null","","","video-keyboard-response","577","2745969","0.0-577.0","okhto9fo","","","null","","Agent A","scrambled","STIM_SET_2/1592150.bmp_pp77_L3_V1.0_scrambled_freeview_isoTrue.mp4",""
"null","","","html-keyboard-response","578","2747472","0.0-578.0","okhto9fo","","<span style=""color:Black; font-size:50px;"">Agent B","null","","","","",""
"null","","","video-keyboard-response","579","2750542","0.0-579.0","okhto9fo","","","null","","Agent B","veridical","STIM_SET_2/1592150.bmp_pp77_L3_V1.0_veridical_freeview_isoTrue.mp4",""
"","","","call-function","580","2750542","0.0-580.0","okhto9fo","","","","","","","",""
"2387.570000000298","{""judgement"":0}","[0]","survey-likert","581","2752931","0.0-581.0","okhto9fo","","","","","","","","1"
"2429.570000000298","{""confidence"":1}","[0]","survey-likert","582","2755362","0.0-582.0","okhto9fo","","","","","","","",""
"2133.6650000000373","","","instructions","583","2757496","0.0-583.0","okhto9fo","[{""page_index"":0,""viewing_time"":2133.535000000149}]","","","","","","",""
"2585.0750000001863","","","instructions","584","2760082","0.0-584.0","okhto9fo","[{""page_index"":0,""viewing_time"":2584.970000000205}]","","","","","","",""
"18782.075000000186","{""post-1"":0}","[0]","survey-likert","585","2778865","0.0-585.0","okhto9fo","","","","","","","",""
"6811.004999999888","{""post-1"":0}","[0]","survey-likert","586","2785677","0.0-586.0","okhto9fo","","","","","","","",""
"10680.64000000013","{""post-2"":0}","[0]","survey-likert","587","2796359","0.0-587.0","okhto9fo","","","","","","","",""
"3730.689999999944","{""post-2"":0}","[0]","survey-likert","588","2800091","0.0-588.0","okhto9fo","","","","","","","",""
"4682.469999999739","{""post-3"":0}","[0]","survey-likert","589","2804775","0.0-589.0","okhto9fo","","","","","","","",""
"2938.0849999999627","{""post-3"":0}","[0]","survey-likert","590","2807714","0.0-590.0","okhto9fo","","","","","","","",""
"4119.85999999987","{""post-4"":0}","[0]","survey-likert","591","2811835","0.0-591.0","okhto9fo","","","","","","","",""
"2796.9850000003353","{""post-4"":0}","[0]","survey-likert","592","2814633","0.0-592.0","okhto9fo","","","","","","","",""
"4151.625","{""post-5"":3}","[0]","survey-likert","593","2818786","0.0-593.0","okhto9fo","","","","","","","",""
"1957.2600000002421","{""post-5"":3}","[0]","survey-likert","594","2820744","0.0-594.0","okhto9fo","","","","","","","",""
"70876.79999999981","{""Q0"":""I couldn't tell a lot of the videos apart and it was difficult to recall differences between Agent A and Agent B""}","","survey-text","595","2891626","0.0-595.0","okhto9fo","","","","","","","",""
"53592.18499999959","{""Q0"":""I thought that if the dot bounced back and forth rapidly, then it was probably the robot. If it followed a more defined path, I thought it was human.""}","","survey-text","596","2945222","0.0-596.0","okhto9fo","","","","","","","",""
"51417","{""Q0"":""I found it difficult to understand where a human would draw their attention because I didn't think any of the videos followed how I think I would focus.""}","","survey-text","597","2996644","0.0-597.0","okhto9fo","","","","","","","",""
"2728.475000000093","","","instructions","598","2999374","0.0-598.0","okhto9fo","[{""page_index"":0,""viewing_time"":2728.339999999851}]","","","","","","",""
"49796.96999999974","{""Experimenter_end"":[""Printed ID# okhto9fo on consent form"",""Given subject SONA credit or payment"",""Given the subject debrief form""]}","[0]","survey-multi-select","599","3049173","0.0-599.0","okhto9fo","","","","","","","",""
